,attitude.roll,attitude.pitch,attitude.yaw,gravity.x,gravity.y,gravity.z,rotationRate.x,rotationRate.y,rotationRate.z,userAcceleration.x,userAcceleration.y,userAcceleration.z
0,0.2645994090673716,0.09716626102952271,2.530183506946086,0.2602890431880951,-0.0970134362578392,-0.9606446027755737,-0.6501174569129944,-0.9834469556808472,0.963676929473877,0.5396987199783325,-0.0693836584687233,-0.5321227312088013
1,-0.22919720804699528,0.05385231709816264,2.1865695830384726,-0.2268664389848709,-0.05382629111409187,-0.97243732213974,0.08719044923782349,-0.5504150390625,0.4060172140598297,-0.1343396157026291,-0.029990237206220627,-0.35782390832901
2,-0.2955770510679585,0.05306837685836442,2.2299087693641315,-0.29088184237480164,-0.05304346978664398,-0.9552874565124512,-0.20674924552440643,-0.738232433795929,0.6170690655708313,0.10264945030212402,-0.14265049993991852,-0.26109737157821655
3,-0.34261555669008825,0.06461780141557089,2.277725495840373,-0.3352506458759308,-0.06457284092903137,-0.9399135112762451,0.5618858933448792,0.5565588474273682,0.3079468309879303,-0.057632625102996826,-0.18222281336784363,0.13664507865905762
4,-0.2881078171655258,0.09663383727889252,2.325908080488734,-0.2828129231929779,-0.096483513712883,-0.9543101191520691,-0.378452867269516,-1.5079232454299927,0.8468291759490967,0.03571206331253052,-0.0468422994017601,0.3536173701286316
5,-0.4232742212029357,0.07690131125010474,2.4062172910125796,-0.4095339775085449,-0.07682553678750992,-0.9090543389320374,1.3616760969161987,-0.44106459617614746,0.1588374674320221,-0.09632539749145508,-0.22198733687400818,0.29792457818984985
6,-0.6482770305989518,0.1684748810117705,2.362250086724074,-0.5952649116516113,-0.16767901182174683,-0.7858393788337708,-0.018574167042970657,-3.8441641330718994,-0.8474603891372681,-0.19591856002807617,-0.18093854188919067,0.13966017961502075
7,-1.2004160062147757,0.4065809786637235,2.2977008293775367,-0.8561961054801941,-0.39547133445739746,-0.3324615955352783,0.5461631417274475,-10.149317741394043,-3.5765209197998047,0.12327069044113159,-0.36188337206840515,-0.6307494640350342
8,-1.6021838886276702,0.9174963300677501,1.945630915417398,-0.6075106263160706,-0.7940823435783386,0.019074542447924614,-3.726172685623169,-2.2153820991516113,-4.87698221206665,-0.8805111646652222,0.15248090028762817,-0.28436386585235596
9,-1.1512253783868471,0.9459692547562326,1.3693745351038036,-0.5342200398445129,-0.8110643029212952,-0.2382931411266327,-2.033263683319092,1.8404661417007446,1.841359257698059,-0.13499987125396729,0.27139151096343994,0.5903133749961853
10,-1.024425182652065,0.6714269534736641,1.456376998283007,-0.6689516305923462,-0.6221038103103638,-0.4068050980567932,0.8243576884269714,-0.29336056113243103,4.624757289886475,0.09615200757980347,0.32826536893844604,0.492529034614563
11,-1.3186173759125905,0.3060937541397253,1.9395071070327448,-0.9233591556549072,-0.30133625864982605,-0.23791663348674774,2.9642324447631836,-2.6109204292297363,4.397767543792725,0.8536723256111145,-0.21778300404548645,-0.49613791704177856
12,-1.7678691580113761,0.15878848975453924,2.249299840254102,-0.9683070182800293,-0.15812204778194427,0.19333642721176147,2.328084707260132,-4.325602054595947,2.131378173828125,-0.3493199944496155,-0.20935536921024323,0.24858859181404114
13,-1.9607123648992257,0.024145725945982077,2.445730771871597,-0.924671471118927,-0.02414337918162346,0.3799999952316284,1.7633895874023438,-1.8794101476669312,0.4405216872692108,0.3046457767486572,-0.11993011832237244,-0.03980529308319092
14,-2.2337242142473652,-0.005094966958663195,2.4698732720939827,-0.7881835103034973,0.005094944965094328,0.6154192686080933,-0.1437767893075943,-2.30344295501709,0.22828681766986847,0.26146531105041504,0.039918482303619385,-0.14705073833465576
15,-2.2632953480634814,-0.08735584372613683,2.380940240714593,-0.7667180895805359,0.08724478632211685,0.636027991771698,-0.6827138662338257,-0.3919038474559784,1.755313754081726,0.1540471911430359,-0.013331204652786255,0.10527443885803223
16,-2.382343335421111,-0.23175433693222613,2.208026220671349,-0.6699733138084412,0.22968530654907227,0.7059605717658997,-0.1799323558807373,-1.9510717391967773,2.486989974975586,-0.13045698404312134,0.17494723200798035,0.3359246850013733
17,-2.719767618852498,-0.19632873458685135,2.0935106127201237,-0.40156090259552,0.19506990909576416,0.8948166370391846,-1.0293028354644775,-3.165806770324707,-0.1009792685508728,-0.47079938650131226,-0.020356759428977966,-0.0017043352127075195
18,-2.800659455031661,-0.1437825739714102,2.042409591415574,-0.33091649413108826,0.14328767359256744,0.9327182769775391,-0.3342846930027008,0.5680088400840759,0.30130454897880554,0.3184652328491211,-0.20018766820430756,-0.38990187644958496
19,-2.8139868148057006,-0.0977929102302973,2.0076801795327426,-0.32023972272872925,0.0976371094584465,0.9422916769981384,-0.647968590259552,-0.3502257168292999,0.027193421497941017,0.16641584038734436,0.025638654828071594,-0.6048892736434937
20,-2.8275302206030424,-0.06363337437960533,1.9767653321543541,-0.3082996904850006,0.06359043717384338,0.9491615891456604,0.012883199378848076,-0.5964312553405762,0.0391518659889698,-0.07059133052825928,0.22931727766990662,0.4083366394042969
21,-2.8074388365637044,-0.06265681476737243,1.9892669029160466,-0.3273262679576874,0.06261582672595978,0.942834198474884,0.343402236700058,0.10603319853544235,0.2173183262348175,-0.32999178767204285,0.21549084782600403,0.5254577994346619
22,-2.7948443699590135,-0.11722913388521669,2.022927964826422,-0.3375089168548584,0.116960808634758,0.9340277314186096,0.730266273021698,0.8490221500396729,-0.01049918495118618,-0.0449526309967041,-0.3399832844734192,0.0905998945236206
23,-2.7203514197804974,-0.15645731528348078,2.038131886480199,-0.40389910340309143,0.15581977367401123,0.9014354348182678,-0.09539443999528885,0.9356390237808228,0.33289268612861633,0.08021432161331177,-0.09537969529628754,-0.39900922775268555
24,-2.727137523271865,-0.1406577782922039,2.003828918663668,-0.3987143039703369,0.14019443094730377,0.9062961339950562,-0.13398706912994385,-0.8891727328300476,-0.08058352023363113,0.3316976726055145,0.005816951394081116,-0.5767214298248291
25,-2.7967818893947203,-0.11072058686024333,2.0235327984274187,-0.3359488844871521,0.11049450188875198,0.9353768229484558,0.48946279287338257,0.08540334552526474,-0.008606629446148872,0.3133963644504547,-0.08646188676357269,0.18185663223266602
26,-2.8670205944655183,-0.14095888169865203,2.0235076910119605,-0.26844581961631775,0.1404925435781479,0.9529944062232971,0.15268294513225555,-1.656693458557129,0.10467702150344849,-0.07115373015403748,-0.025365009903907776,0.30648112297058105
27,-3.0439305415709774,-0.12021564736320213,1.9676724021434222,-0.09680323302745819,0.11992630362510681,0.988052248954773,-0.34762680530548096,-0.42048707604408264,0.7347894310951233,-0.5085740089416504,0.046653926372528076,0.28823888301849365
28,-3.009113963365364,-0.09282660568550584,1.886977418585503,-0.13152281939983368,0.09269335120916367,0.9869699478149414,-0.5845901966094971,0.8266595005989075,0.712721586227417,0.3188244700431824,-0.10216906666755676,-0.3277140259742737
29,-2.9225489439862713,-0.059042250628944165,1.784576915248693,-0.21691766381263733,0.059007953852415085,0.9744049310684204,-0.19624637067317963,1.482330322265625,0.43963801860809326,0.16132991015911102,-0.041719745844602585,-0.5076385140419006
30,-2.7572638544361174,-0.03292814373242224,1.8106361158273057,-0.3747338056564331,0.03292219340801239,0.9265478849411011,0.05726984143257141,1.0084255933761597,-0.7333858609199524,0.07437977194786072,0.2639833390712738,0.13972115516662598
31,-2.689736995379303,-0.040323028168612364,1.884907940662156,-0.4362809360027313,0.04031210020184517,0.8989074230194092,0.12596255540847778,0.4691769778728485,-0.7218363881111145,-0.3232712149620056,0.10678263008594513,0.6629825234413147
32,-2.733876683600875,-0.03806080012850644,1.9642800582317552,-0.3962264358997345,0.03805161267518997,0.9173640608787537,0.18040050566196442,-1.6491156816482544,-0.08528631180524826,-0.12075668573379517,-0.3764305114746094,-0.3046473264694214
33,-2.966972364176769,-0.01887637052553219,1.992780296255742,-0.17370329797267914,0.018875248730182648,0.984617292881012,-0.3123547434806824,-3.871145009994507,-0.1353820413351059,0.23894985020160675,0.06497178971767426,-0.39172160625457764
34,3.035672889300201,0.017106307365468098,1.985439726805792,0.1057063564658165,-0.017105473205447197,0.9942502975463867,0.4295434355735779,0.3977508246898651,-0.4017353653907776,-0.1930781900882721,0.14662207663059235,-0.6360502243041992
35,3.1264005263970467,-0.04113684570635963,1.9696235082634042,0.015178689733147621,0.04112524539232254,0.9990386366844177,0.985002338886261,0.5193044543266296,0.5251109004020691,0.21660231053829193,0.02337365597486496,0.36083984375
36,-3.132453035335904,-0.15846701029085494,1.9571496453611041,-0.00902497861534357,0.15780460834503174,0.9874293804168701,0.8597314357757568,-0.14202821254730225,-0.2353268563747406,-0.015038134530186653,0.22802917659282684,0.673734188079834
37,3.1368711212468297,-0.18643345071597317,1.904223852922717,0.004639697726815939,0.18535533547401428,0.9826604723930359,-0.06647388637065887,0.6526617407798767,0.8069790601730347,-0.32232770323753357,0.059258297085762024,0.06946337223052979
38,-3.043328965057992,-0.19089682530931876,1.8619357041931712,-0.09632350504398346,0.18973951041698456,0.9770982265472412,-0.04425479844212532,0.9022125601768494,0.1389448642730713,0.22123193740844727,-0.19169259071350098,-0.42910921573638916
39,-2.9611403758463237,-0.1648278772423186,1.8422986077147134,-0.17704208195209503,0.16408254206180573,0.9704294800758362,-0.5517142415046692,0.46747541427612305,-0.2862839102745056,0.10071755945682526,0.018443137407302856,-0.5202797651290894
40,-2.8837953806079946,-0.1433538518328449,1.892039321723972,-0.2523360252380371,0.14286336302757263,0.9570351839065552,0.7216669321060181,0.2906262278556824,-0.9666790962219238,0.0592208206653595,0.365986704826355,0.4714314937591553
41,-2.8726342608515805,-0.21969049920765674,1.9970921984668852,-0.25934064388275146,0.21792757511138916,0.9408771991729736,0.7892468571662903,-1.0104200839996338,-0.43033847212791443,-0.5903602838516235,0.36994779109954834,0.4133250117301941
42,-2.9035125310713146,-0.30594961846560914,2.1010097203472755,-0.22488543391227722,0.3011988401412964,0.9266640543937683,0.7806351184844971,-0.5375202298164368,-0.47696465253829956,0.07388438284397125,-0.5246484875679016,0.23054742813110352
43,-2.892077027806694,-0.3192917877298083,2.1373194112502873,-0.23445400595664978,0.31389421224594116,0.9200552105903625,-0.15012846887111664,0.19478359818458557,-0.12122275680303574,0.12288177013397217,-0.09015461802482605,-0.6197165250778198
44,-2.916274907606455,-0.3449160624023886,2.1071767770664396,-0.21025772392749786,0.33811768889427185,0.917315661907196,0.10442891716957092,-0.8011386394500732,1.1707146167755127,0.20598524808883667,-0.10513123869895935,-0.6658966541290283
45,-3.0009154024246105,-0.369782813645695,2.006505782161193,-0.1307360678911209,0.3614129424095154,0.9231948256492615,-0.24111251533031464,-0.10092921555042267,0.30498960614204407,0.09725828468799591,0.2872381806373596,0.7989578247070312
46,-3.066866669972156,-0.33503959636992525,2.0017613955031015,-0.07050533592700958,0.3288065791130066,0.9417614936828613,-0.5377891659736633,-1.4383286237716675,-0.10056724399328232,-0.4002740681171417,0.5437977313995361,0.5413010120391846
47,-3.106359296561027,-0.3229488437416072,1.9782551388156095,-0.03340500220656395,0.31736433506011963,0.9477149844169617,-0.12475696951150894,0.6959495544433594,0.34552112221717834,-0.15501053631305695,-0.17196336388587952,-0.006995558738708496
48,-3.0460246630177226,-0.29428861833567554,1.9266748958729696,-0.09132023900747299,0.2900591194629669,0.9526416659355164,-0.6062584519386292,0.3544829189777374,0.8220750689506531,0.1980554759502411,-0.3012438416481018,-0.6849415898323059
49,-3.0459668031263627,-0.23257824007548547,1.8406343703534764,-0.09290938824415207,0.23048710823059082,0.9686294794082642,-0.3984993100166321,0.41941583156585693,0.1945284754037857,0.05851609259843826,0.1703154444694519,-0.44093501567840576
50,-3.0472042231932397,-0.2109690482347102,1.8637381093136032,-0.09215869009494781,0.20940756797790527,0.9734756946563721,0.07472002506256104,-0.8001638054847717,-0.796949565410614,0.5175584554672241,0.22780247032642365,0.6349225640296936
51,-3.1214009818646575,-0.22489564966743503,1.933824654873524,-0.01968185231089592,0.22300463914871216,0.9746185541152954,0.6636254191398621,0.035203732550144196,-0.9516227841377258,-0.4076557755470276,-0.14838919043540955,0.6379759311676025
52,-3.133667354803221,-0.2455194017425628,1.9743119855184474,-0.007687546778470278,0.2430601865053177,0.9699805974960327,-0.1901557594537735,-0.0902140811085701,-0.28877317905426025,-0.1492796093225479,-0.07432851195335388,-0.19010406732559204
53,-3.098644604425921,-0.23146792617129194,2.0135720558278436,-0.041789814829826355,0.22940655052661896,0.9724333882331848,0.000647679902613163,0.42868033051490784,-0.20779946446418762,0.060970108956098557,-0.062032848596572876,-0.8818265199661255
54,-3.067607861999429,-0.23696341794770223,2.0299828055600733,-0.0718517154455185,0.23475198447704315,0.9693961143493652,0.15320757031440735,0.031787604093551636,-0.21898134052753448,0.2537212371826172,0.14668722450733185,-0.031423091888427734
55,-3.039231683808731,-0.2901553357640986,2.0594567555248107,-0.0979110524058342,0.2861010730266571,0.9531841278076172,0.5823085904121399,-0.11522705107927322,0.2505773603916168,0.1146957129240036,0.15515261888504028,0.45871174335479736
56,-3.0670524816988327,-0.32037718213524413,1.9941286890727854,-0.07068183273077011,0.31492456793785095,0.9464812278747559,-0.16711899638175964,0.2544364333152771,1.0563594102859497,-0.4012419879436493,-0.03388819098472595,0.37575387954711914
57,-3.0365361698183144,-0.29364053460078765,1.8932743164914294,-0.10037485510110855,0.2894388437271118,0.951919436454773,-0.35250160098075867,1.04683256149292,0.7441102266311646,0.03514350205659866,-0.16095978021621704,-0.37741053104400635
58,-2.9969931614401486,-0.26131315460541127,1.802346981058336,-0.13920430839061737,0.25834935903549194,0.9559697508811951,-0.5019775032997131,0.24954280257225037,0.6981077790260315,0.20820453763008118,-0.19615450501441956,-0.6475894451141357
59,-2.999735362387918,-0.22623746027463096,1.7915189009488488,-0.1377791464328766,0.2243124544620514,0.964728057384491,-0.10113038122653961,-0.7451785206794739,-0.3518994152545929,0.026374757289886475,0.14348533749580383,0.24277591705322266
60,-3.0641175703288157,-0.2307025654771975,1.881041642724674,-0.07534704357385635,0.22866153717041016,0.9705859422683716,-0.049331650137901306,-1.429771065711975,-0.6827647089958191,0.03980931639671326,0.26987361907958984,0.6926069259643555
61,-3.1204896179550037,-0.2559509116025251,1.9707509709507276,-0.02041405253112316,0.25316545367240906,0.9672078490257263,0.4875636100769043,-0.12865303456783295,-0.6233389377593994,-0.1311362385749817,-0.6066809892654419,0.3060925006866455
62,-3.1050130284743984,-0.2499283043728067,2.038661320650583,-0.03543520346283913,0.24733449518680573,0.9682821035385132,-0.2663402855396271,0.24708735942840576,-0.5770626068115234,-0.14419126510620117,-0.037892311811447144,-0.5119526386260986
63,-3.06870239002145,-0.2365699028403731,2.077204965437937,-0.07079734653234482,0.2343694567680359,0.9695659875869751,-0.08347075432538986,0.2771565020084381,-0.15716347098350525,0.13300743699073792,-0.01474975049495697,-0.8009413480758667
64,-3.067027433887012,-0.23314900370039937,2.076553223533145,-0.07248055189847946,0.23104247450828552,0.9702401757240295,0.23893259465694427,-0.15601159632205963,-0.07230693846940994,0.30082833766937256,0.2857269048690796,0.44377654790878296
65,-3.0696712097602874,-0.29447924926101976,2.0715554900314497,-0.06876616179943085,0.2902415692806244,0.9544796347618103,0.5797303915023804,-0.5042405724525452,0.6970187425613403,-0.20830294489860535,0.3093526065349579,0.548480749130249
66,-3.1006783176037214,-0.3221036035568748,1.9934925776351395,-0.03879934921860695,0.316562682390213,0.9477777481079102,-0.08733882009983063,0.43784448504447937,1.0443556308746338,-0.34439462423324585,-0.156345397233963,0.17740535736083984
67,-3.0608039013984314,-0.29208219784846834,1.8854519843567703,-0.07728291302919388,0.2879468500614166,0.9545227885246277,-0.486294686794281,0.9050164818763733,0.981198251247406,0.12073995918035507,-0.2985670566558838,-0.5856111645698547
68,-3.0440942125492305,-0.24823787078188336,1.7728034687089278,-0.09436015784740448,0.24569623172283173,0.9647433757781982,-0.5302395820617676,0.40173259377479553,0.6788774728775024,0.11872842907905579,-0.046507954597473145,-0.5169130563735962
69,-3.035075551077474,-0.21400542445044018,1.7783887186179184,-0.103890560567379,0.21237564086914062,0.9716500639915466,0.070719413459301,-0.41330862045288086,-0.701702356338501,0.10830032825469971,0.22695545852184296,0.5677483081817627
70,-3.1135463691654857,-0.2184183660742543,1.8751849931096636,-0.02737634815275669,0.21668583154678345,0.9758571982383728,0.26859572529792786,-1.153260588645935,-1.0972691774368286,-0.34834080934524536,0.3437389135360718,0.6774628162384033
71,3.1309043781329953,-0.2549578618195039,1.9718468790039763,0.010342568159103394,0.25220462679862976,0.9676185846328735,0.048395734280347824,-0.14448249340057373,-0.6331635117530823,-0.0751619040966034,-0.37636539340019226,0.12532258033752441
72,-3.106735978367432,-0.24740854987987249,2.030297253701089,-0.03378845751285553,0.24489223957061768,0.9689614176750183,-0.04635914787650108,0.4623185098171234,-0.4006800949573517,0.01869751140475273,-0.04793176054954529,-0.7564064264297485
73,-3.0673626079696703,-0.24053764134700747,2.0504184073904277,-0.07202676683664322,0.2382248193025589,0.9685354232788086,0.12759046256542206,0.2675732970237732,-0.2654818296432495,0.21317058801651,0.11013330519199371,-0.49507057666778564
74,-3.025465509936805,-0.2718521936756738,2.0936435320238713,-0.11161111295223236,0.26851606369018555,0.956787109375,0.553867518901825,0.3204173445701599,-0.0968632772564888,0.33417582511901855,0.09539073705673218,0.4381711483001709
75,-3.0588980251048667,-0.324800087617062,2.038839765819433,-0.07828161120414734,0.31911933422088623,0.9444760084152222,0.14838889241218567,-0.3189442753791809,0.9758437871932983,-0.40923669934272766,0.24472343921661377,0.5996524095535278
76,-3.0668258275072477,-0.3195694248363441,1.937317567275217,-0.0709153264760971,0.3141578137874603,0.9467185139656067,-0.2398044317960739,0.8613919615745544,0.7200767397880554,-0.1856306791305542,-0.20504224300384521,-0.10644751787185669
77,-3.003803932362203,-0.2974108226016373,1.8611970664751778,-0.13132312893867493,0.29304566979408264,0.9470368027687073,-0.41192230582237244,0.3880850672721863,0.8555694222450256,0.24658802151679993,-0.34236210584640503,-0.6923675537109375
78,-3.0020356658183416,-0.25725613048307067,1.813942211339098,-0.13452677428722382,0.2544279396533966,0.957689642906189,-0.34338274598121643,0.031121812760829926,-0.45026490092277527,0.09949256479740143,0.07731345295906067,-0.14879047870635986
79,-3.0257808729678364,-0.24424111980886468,1.9057718084924558,-0.11212357878684998,0.24182003736495972,0.9638211727142334,0.2042439728975296,-0.911331057548523,-1.3235081434249878,0.3430958688259125,0.3174145817756653,0.7556917071342468
80,-3.1089831933543217,-0.25805743293120026,2.003229697066887,-0.03152409568428993,0.2552028000354767,0.9663735628128052,0.5497978925704956,-0.5865423679351807,-1.0164674520492554,-0.42558345198631287,-0.2628779411315918,0.2933768033981323
81,-3.1149604131864344,-0.27897423102913943,2.069569846354997,-0.025599567219614983,0.27536967396736145,0.960997462272644,-0.09282277524471283,0.09766370803117752,-0.7370229959487915,-0.07342997193336487,-0.059274762868881226,-0.10536092519760132
82,-3.0654880576544477,-0.26456448863520016,2.1314911163812127,-0.07338573783636093,0.2614889442920685,0.9624123573303223,-0.17546474933624268,0.18445949256420135,-0.2167462408542633,0.14252334833145142,-0.08441075682640076,-0.8631389737129211
83,-3.0379388617958436,-0.24533219812550783,2.1346193183832516,-0.10037007927894592,0.24287858605384827,0.9648500084877014,-0.059051692485809326,0.35288092494010925,-0.16702865064144135,0.17266623675823212,0.19662025570869446,-0.17108798027038574
84,-2.995796202862793,-0.2868288900914582,2.161344485770847,-0.13934513926506042,0.28291210532188416,0.9489696025848389,0.4692920446395874,-0.2670937776565552,0.41557103395462036,0.09927558898925781,0.10456952452659607,0.4436998963356018
85,-3.0545685643984926,-0.3223541258696809,2.0819654984557663,-0.08243751525878906,0.3168002963066101,0.9449028372764587,0.029207292944192886,0.23985762894153595,0.9325304627418518,-0.48708149790763855,-0.002820253372192383,0.4049810767173767
86,-3.0343417221645725,-0.3093351665470228,1.9700797366058544,-0.10196465998888016,0.3044254183769226,0.9470630884170532,-0.33418503403663635,0.8339285254478455,0.8295899033546448,0.09468619525432587,-0.22381320595741272,-0.3451801538467407
87,-3.0033752325103418,-0.2725506395517821,1.8687147442337788,-0.13269203901290894,0.269188791513443,0.9539026618003845,-0.668557345867157,0.4234221875667572,0.8434430956840515,0.12436071038246155,-0.1650170087814331,-0.6962426900863647
88,-2.9652627439523136,-0.22692182324916574,1.8414050888634454,-0.1709205061197281,0.22497932612895966,0.9592552781105042,-0.1702558398246765,-0.23059478402137756,-0.195665180683136,0.09160532057285309,0.10642631351947784,0.23273086547851562
89,-3.0151861246528986,-0.2332364210929945,1.9289816622417921,-0.12265664339065552,0.2311275154352188,0.9651609659194946,0.15592464804649353,-1.2290689945220947,-0.7384636998176575,-0.13123437762260437,0.24810531735420227,0.6752047538757324
90,-3.0764976353570495,-0.2770226207302488,2.04181604122047,-0.06256899982690811,0.2734929919242859,0.9598368406295776,0.6156748533248901,-0.4061177670955658,-0.6980666518211365,-0.07183041423559189,-0.7438299059867859,0.27449238300323486
91,-3.06776591661858,-0.2776847909191508,2.1144998856124495,-0.07093416154384613,0.27412986755371094,0.9590731859207153,-0.06057499721646309,0.20240958034992218,-0.764279305934906,-0.05043424665927887,0.00712016224861145,-0.4889955520629883
92,-3.0377043128248773,-0.26210849238946005,2.158677247770968,-0.10015971213579178,0.25911760330200195,0.9606382846832275,-0.18185929954051971,0.19620884954929352,-0.04324949532747269,0.10278423130512238,-0.04706624150276184,-0.7316039800643921
93,-3.0235141902120923,-0.27003461656481986,2.183451180903332,-0.11353522539138794,0.2667647898197174,0.9570507407188416,0.4472699761390686,0.08531220257282257,-0.15035440027713776,0.25063544511795044,0.4179275631904602,0.4893755316734314
94,-3.0458236725251315,-0.32550168516286754,2.1482749736071534,-0.09060155600309372,0.31978416442871094,0.9431487917900085,0.4431406855583191,-0.3373756408691406,0.9925305843353271,-0.2513326406478882,0.29317665100097656,0.6677826642990112
95,-3.0860901972962806,-0.33054871373051053,2.0199983509728865,-0.052470862865448,0.32456207275390625,0.9444081783294678,-0.3216422200202942,0.2483210265636444,1.0629620552062988,-0.3033488392829895,-0.1567458212375641,0.023029804229736328
96,-3.037074967481715,-0.2960620491626823,1.9513062666745236,-0.09978847205638885,0.2917558550834656,0.9512729644775391,-0.400919646024704,0.8394583463668823,0.4899604916572571,0.17713528871536255,-0.25518059730529785,-0.5607702732086182
97,-3.003420070758279,-0.2473218905814097,1.9000757043472263,-0.13354232907295227,0.24480822682380676,0.9603309035301208,-0.5081298351287842,0.29965484142303467,0.0896601602435112,0.18615463376045227,-0.027294188737869263,-0.3821144104003906
98,-3.0084586168019785,-0.20271577330651733,1.9284765098363257,-0.13002298772335052,0.20133022964000702,0.970855176448822,-0.05874339118599892,-0.48269766569137573,-0.9952747225761414,0.11239910125732422,0.3123416006565094,0.5333255529403687
99,-3.076723978792751,-0.20817657781160756,2.046908264409137,-0.06342361867427826,0.206676185131073,0.9763515591621399,0.42737939953804016,-1.014575481414795,-1.2115564346313477,-0.34355878829956055,0.1699717491865158,0.4902622103691101
100,-3.094979693628239,-0.2533879296604481,2.142365880955583,-0.04510820657014847,0.2506851255893707,0.9670171737670898,0.05269158259034157,-0.1405581533908844,-0.4469587504863739,0.009875662624835968,-0.2917007803916931,0.06325626373291016
101,-3.0658905917516814,-0.24374998157927064,2.1682034927541425,-0.07339413464069366,0.2413434386253357,0.9676602482795715,-0.10096002370119095,0.3810877799987793,0.013650261797010899,0.07012876123189926,0.003941535949707031,-0.7492308020591736
102,-3.026544369357202,-0.22918725982564897,2.15883240822895,-0.11179292947053909,0.22718611359596252,0.9674134254455566,0.09141924232244492,0.6777029037475586,-0.04028491675853729,0.2114938646554947,0.11250503361225128,-0.5935578942298889
103,-2.9509164164587904,-0.2650951542050779,2.1699746327973095,-0.1829024702310562,0.262001097202301,0.947577178478241,0.6005971431732178,0.43227773904800415,0.06769223511219025,0.30820760130882263,0.09136199951171875,0.8613829612731934
104,-2.9932928581563907,-0.3118643408576341,2.1299986659263053,-0.14062952995300293,0.30683356523513794,0.9413166642189026,0.05946299433708191,-0.5267015695571899,0.44278377294540405,-0.5241044163703918,0.3152368664741516,0.4646131992340088
105,-3.0054820609597073,-0.305412401918225,2.0647186675403746,-0.12941136956214905,0.3006865084171295,0.9449023008346558,-0.3355640470981598,0.4947702884674072,0.7535154223442078,-0.051100119948387146,-0.20455613732337952,-0.06985652446746826
106,-2.9609616900593747,-0.27042389497528935,1.9994970030906536,-0.1731213629245758,0.2671399414539337,0.9479792714118958,-0.5451928377151489,0.4869549870491028,0.6970990896224976,0.15001961588859558,-0.23192274570465088,-0.6738706827163696
107,-2.934812463915321,-0.235082687410772,1.950537636686435,-0.19966275990009308,0.23292340338230133,0.9517782330513,-0.28120365738868713,0.2847030460834503,-0.07825422286987305,0.1371322125196457,0.07962240278720856,-0.18145334720611572
108,-2.9535155380905023,-0.22149915548569357,1.9969729184401042,-0.18240246176719666,0.2196923941373825,0.9583657383918762,0.4286215901374817,-0.6067743301391602,-1.3670727014541626,0.28648263216018677,0.22600163519382477,0.7450646162033081
109,-3.0406158149756575,-0.23918369140937565,2.0833434787655465,-0.09793557226657867,0.2369096428155899,0.9665828943252563,0.6820883750915527,-0.6235411167144775,-1.2266194820404053,-0.3967543840408325,-0.020204320549964905,0.40634191036224365
110,-3.0430252539047267,-0.27884525258186477,2.1762472888175095,-0.09460674971342087,0.27524569630622864,0.9567074775695801,0.012400677427649498,-0.020269829779863358,-0.5708701610565186,-0.034284234046936035,-0.11081701517105103,-0.23588234186172485
111,-3.015110470251002,-0.26443892081971226,2.2033677431846006,-0.12176031619310379,0.2613677382469177,0.9575287699699402,-0.21399866044521332,0.23464561998844147,-0.010481513105332851,0.12256903946399689,-0.06770321726799011,-0.7427002787590027
112,-2.978967171836748,-0.25328458663580716,2.2165691260480647,-0.1567438393831253,0.2505851089954376,0.9553213119506836,0.17186862230300903,0.33843761682510376,-0.45833614468574524,0.3001764416694641,0.18862393498420715,0.004243016242980957
113,-2.9583076398781345,-0.30517554284160775,2.2286016658434225,-0.1738390177488327,0.3004606068134308,0.9378182888031006,0.5259020924568176,-0.2623535990715027,0.5010565519332886,0.08994622528553009,0.14955151081085205,0.4879627823829651
114,-3.02127165378299,-0.3460199058368071,2.147637590386821,-0.11291664838790894,0.33915629982948303,0.9339286088943481,-0.14128664135932922,0.17216968536376953,1.0484673976898193,-0.48768454790115356,-0.024550646543502808,0.3617866635322571
115,-2.989830208695915,-0.3250110538946018,2.0519373512513206,-0.14326582849025726,0.3193192481994629,0.9367551207542419,-0.41505715250968933,0.9962488412857056,0.43576908111572266,0.11374010145664215,-0.22894147038459778,-0.39285558462142944
116,-2.9440973570368927,-0.28990053863397364,1.9746384930600205,-0.18802641332149506,0.2858569025993347,0.9396446943283081,-0.5756186842918396,0.31919601559638977,0.8042144179344177,0.18125146627426147,-0.22726309299468994,-0.6384055614471436
117,-2.9451491856338063,-0.2566724320760148,1.9363915972690757,-0.1887882947921753,0.2538633942604065,0.9486371278762817,-0.17299801111221313,-0.4925873577594757,-0.22120295464992523,0.09178817272186279,0.2376222014427185,0.36203181743621826
118,-3.017661925048439,-0.25540257434107205,2.0190447777050125,-0.11960391700267792,0.2526349425315857,0.9601409435272217,-0.01430942490696907,-1.533935308456421,-0.3979521095752716,-0.1907140612602234,0.2352343201637268,0.5855133533477783
119,-3.055883895425771,-0.2995454803781509,2.1261641943806704,-0.08179199695587158,0.29508596658706665,0.9519636034965515,0.6952582597732544,0.07658259570598602,-0.8113672137260437,-0.02567567676305771,-0.7526359558105469,0.2371692657470703
120,-3.027327844069695,-0.29651585136550435,2.17625592217252,-0.10904067754745483,0.29218989610671997,0.95012366771698,-0.17319099605083466,0.489033967256546,-0.33766457438468933,-0.01901107281446457,-0.011550277471542358,-0.535252571105957
121,-2.983107002504659,-0.2831828520291032,2.1890250439498122,-0.15153710544109344,0.2794131338596344,0.9481377601623535,-0.15722855925559998,0.31302326917648315,0.05083184689283371,0.19240011274814606,-0.06620201468467712,-0.7470419406890869
122,-2.952238740108641,-0.29721879002884005,2.2091257668758,-0.1799716353416443,0.29286208748817444,0.9390643835067749,0.6852490305900574,0.4155256450176239,-0.3379621207714081,0.2578830420970917,0.3473203778266907,0.5362163186073303
123,-2.973042726719863,-0.3604016328100927,2.188429570027284,-0.15697574615478516,0.35265010595321655,0.922494649887085,0.3928692936897278,-0.6618860960006714,0.7548018097877502,-0.41701412200927734,0.37803223729133606,0.7855283617973328
124,-3.0127818071081256,-0.3561969536909009,2.098111908815205,-0.12039180099964142,0.3487124443054199,0.9294652342796326,-0.3328404426574707,0.45805642008781433,0.5769453048706055,-0.2840424180030823,-0.09209012985229492,-0.06130111217498779
125,-2.9492999228639394,-0.32276992595222675,2.042450825386222,-0.18124109506607056,0.3171946704387665,0.930881142616272,-0.45360976457595825,0.6633118391036987,0.6348206996917725,0.2567567825317383,-0.3196359872817993,-0.6687501668930054
126,-2.9349008414274076,-0.29050309515999584,1.9702086387559958,-0.19662436842918396,0.28643426299095154,0.9377068877220154,-0.30747267603874207,0.23936709761619568,0.12892846763134003,0.18702659010887146,-0.014141201972961426,-0.34117984771728516
127,-2.9585206933568635,-0.27265209820253733,2.023965878604276,-0.17532610893249512,0.26928651332855225,0.9469664692878723,0.16902495920658112,-0.7464154362678528,-1.333669662475586,0.2716701030731201,0.32122859358787537,0.8282105326652527
128,-3.044566641721803,-0.2584828910875436,2.121073371080809,-0.09365557879209518,0.25561413168907166,0.9622316956520081,0.2743276357650757,-0.6140676736831665,-1.0997687578201294,-0.5462675094604492,0.18107709288597107,0.3863704800605774
129,-3.045231097789422,-0.28804660139265326,2.195437917644283,-0.0922485962510109,0.2840798497200012,0.9543524980545044,-0.017114579677581787,-0.03214732185006142,-0.6292548179626465,0.009973213076591492,-0.198813796043396,-0.04292982816696167
130,-2.9985654568047306,-0.2908617329318305,2.238984311311759,-0.13655297458171844,0.28677788376808167,0.9482151865959167,0.27561086416244507,0.5168300271034241,-0.10111000388860703,0.10846154391765594,-0.06843981146812439,-0.7311282157897949
131,-2.9514757495570145,-0.28780464358729296,2.2502279783237307,-0.18120113015174866,0.283847838640213,0.941592812538147,-0.10320238769054413,0.3441050946712494,-0.26431384682655334,0.21911917626857758,0.11515426635742188,-0.38095414638519287
132,-2.9104110995452657,-0.3092804015782413,2.2883573052757664,-0.21825635433197021,0.30437326431274414,0.9272115230560303,0.6365214586257935,0.023680493235588074,-0.24390777945518494,0.3660224676132202,0.07564687728881836,0.4988138675689697
133,-2.980872628025078,-0.3397652851082727,2.2507686896111747,-0.15088064968585968,0.3332658112049103,0.9306822419166565,-0.366653710603714,-0.3669460117816925,0.9503344297409058,-0.4841291308403015,0.06268453598022461,0.5228396654129028
134,-2.99289145048913,-0.3013911374978947,2.1505186793124396,-0.14147567749023438,0.29684892296791077,0.9443861842155457,-0.6042207479476929,0.7167794108390808,0.5335273146629333,-0.14375686645507812,-0.09253373742103577,-0.24422144889831543
135,-2.9205838153503456,-0.26076992302410706,2.106182750501944,-0.21180276572704315,0.25782451033592224,0.9426907896995544,-0.44675570726394653,0.4458129405975342,0.42903995513916016,0.34153300523757935,-0.23586714267730713,-0.7330809235572815
136,-2.9143016613574844,-0.22150658297224618,2.0771545957738025,-0.21983350813388824,0.2196996510028839,0.9504767060279846,-0.41805458068847656,-0.31063586473464966,-0.17316827178001404,0.04161080718040466,0.20092418789863586,-0.11466097831726074
137,-2.965280603957491,-0.2213884494887827,2.1599061245067883,-0.1711190640926361,0.2195843905210495,0.9604689478874207,0.4032594859600067,-0.9360812306404114,-1.133152961730957,0.3409799337387085,0.10098746418952942,0.7546950578689575
138,-3.040621565098838,-0.24396503340592632,2.235557736184289,-0.09781470894813538,0.24155212938785553,0.9654453992843628,0.45552167296409607,-0.5953122973442078,-0.7152564525604248,-0.2500856816768646,-0.5074822902679443,0.20935922861099243
139,-3.0584435177462073,-0.23957978987286488,2.2752654416713285,-0.08068114519119263,0.23729443550109863,0.9680812954902649,-0.25560837984085083,0.1973804086446762,-0.3658895194530487,-0.10005918145179749,0.0348765105009079,-0.3058348298072815
140,-3.0213576802724496,-0.22937646747858048,2.3050379134478756,-0.11680394411087036,0.22737036645412445,0.9667780995368958,-0.012598984874784946,0.30915457010269165,-0.19304154813289642,0.12243440002202988,-0.029112860560417175,-0.7485009431838989
141,-2.99717856200556,-0.22846227614533768,2.3236789646503917,-0.14017318189144135,0.22648002207279205,0.9638766050338745,0.1285446286201477,0.08946681767702103,-0.42807793617248535,0.30728745460510254,0.14572760462760925,0.007803022861480713
142,-2.984737978990253,-0.2781276254180017,2.348568552791149,-0.1502092331647873,0.2745557129383087,0.9497665166854858,0.6142494678497314,-0.29736050963401794,0.45604389905929565,0.0677049458026886,0.11182734370231628,0.43644869327545166
143,-3.030506639013115,-0.32185895688387955,2.2807370916911838,-0.105165034532547,0.31633061170578003,0.942801833152771,-0.10369657725095749,0.09794706106185913,1.1795589923858643,-0.4441055953502655,-0.06240910291671753,0.3165823221206665
144,-3.0101907213870143,-0.28869874096079007,2.1692262745759674,-0.12560172379016876,0.2847050726413727,0.9503512382507324,-0.5491904616355896,0.9918272495269775,0.6048007011413574,0.01988881826400757,-0.1634892225265503,-0.32074296474456787
145,-2.9580078439339106,-0.24136289221918783,2.082460151058383,-0.17726366221904755,0.2390262335538864,0.9546961784362793,-0.7748481631278992,0.29619380831718445,0.925780713558197,0.17921672761440277,-0.19015224277973175,-0.6944419145584106
146,-2.9540274773533755,-0.1948850796543766,2.042792196699491,-0.18293750286102295,0.19365379214286804,0.9638631939888,-0.3247624337673187,-0.39804965257644653,-0.2690017521381378,0.01609790325164795,0.23447731137275696,0.24123024940490723
147,-2.9990690963497606,-0.20035545747824213,2.160229496927711,-0.1392000913619995,0.1990176886320114,0.9700592160224915,0.42111262679100037,-0.951167643070221,-0.8950961232185364,-0.1156216412782669,0.3222072124481201,0.7541074156761169
148,-3.02907124011214,-0.252681758389031,2.2631071609193656,-0.10871857404708862,0.250001460313797,0.9621222019195557,0.5893306732177734,-0.25224488973617554,-0.39399078488349915,-0.07373075187206268,-0.7818313837051392,0.047872066497802734
149,-3.0286917166096545,-0.25076881113426314,2.2772563558337464,-0.1091374084353447,0.24814879894256592,0.9625545144081116,-0.11919810622930527,0.36728203296661377,-0.34280821681022644,-0.03719436377286911,0.025868520140647888,-0.4545283913612366
150,-2.9821051897869526,-0.25784654510489796,2.320935100007193,-0.1535620540380478,0.2549988925457001,0.9546695351600647,0.04512593895196915,0.18222050368785858,-0.2423221468925476,0.18220283091068268,-0.07213762402534485,-0.7348363399505615
151,-2.9563166308827493,-0.2553990753811665,2.348563444638987,-0.17824231088161469,0.2526315450668335,0.9510033130645752,0.32200726866722107,0.3906397223472595,-0.2962537705898285,0.20288525521755219,0.290840744972229,0.5460976362228394
152,-2.9380134602192585,-0.3041241909370214,2.3478022761545883,-0.19289803504943848,0.2994576692581177,0.9344068169593811,0.3718465566635132,-0.4327545464038849,0.7893610596656799,-0.11339171230792999,0.2488364577293396,0.4863240718841553
153,-3.005610966029534,-0.3230069377041542,2.26814310250448,-0.1285524219274521,0.3174194395542145,0.9395316243171692,-0.1257399022579193,0.01718072220683098,0.6396048665046692,-0.4479856491088867,-0.0685790479183197,0.14744365215301514
154,-2.9780936926481676,-0.31491091854230874,2.2265216985937704,-0.1547670215368271,0.30973178148269653,0.9381434917449951,0.01060867216438055,0.7880157828330994,0.08051463216543198,0.11199663579463959,-0.18331274390220642,-0.37903106212615967
155,-2.9531492426152854,-0.30040699817306193,2.18778776939278,-0.1789407730102539,0.29590898752212524,0.9383062720298767,-0.5557423233985901,0.17925721406936646,0.32987692952156067,0.17723174393177032,-0.15088939666748047,-0.7024050951004028
156,-2.903671074771613,-0.2560710339093311,2.2208097578940724,-0.22799821197986603,0.2532816529273987,0.9401409029960632,-0.23403452336788177,-0.07388997077941895,-0.7173884510993958,-0.05035260319709778,0.37669268250465393,0.5126634836196899
157,-2.9350510663955625,-0.2522448842093307,2.3165902065667203,-0.19858655333518982,0.24957843124866486,0.9477733969688416,-0.16434897482395172,-1.4217878580093384,-0.07149562239646912,-0.33920949697494507,0.27836042642593384,0.5503041744232178
158,-2.979992999116465,-0.28258296105216985,2.3412302452794305,-0.1545158177614212,0.27883708477020264,0.9478265047073364,0.4807887673377991,-0.1922672837972641,0.1403493881225586,-0.08571857213973999,-0.5770548582077026,0.22307205200195312
159,-3.002360853593229,-0.290939022355078,2.35832239887911,-0.1329500526189804,0.2868519127368927,0.9487045407295227,0.1527155637741089,-0.12377388030290604,-0.3352380692958832,-0.05415321886539459,-0.1352863907814026,-0.5059860348701477
160,-3.0260136397586432,-0.31692609001057265,2.371302439274984,-0.10957857966423035,0.3116472065448761,0.9438583254814148,0.10133466869592667,-0.1606307029724121,-0.2691349387168884,0.13950106501579285,-0.10917836427688599,-0.9009048938751221
161,-2.9250015001844316,-0.30606816535661785,2.4427522211939543,-0.20491424202919006,0.3013118803501129,0.9312470555305481,-0.2987661063671112,1.8079332113265991,-0.6927006840705872,0.13716523349285126,0.3227725923061371,0.7167478203773499
162,-2.873467832925315,-0.3562575208734091,2.450537793142076,-0.2482888549566269,0.3487691879272461,0.903721809387207,0.37170326709747314,-0.8831214904785156,0.7757380604743958,-0.1752493679523468,0.1555490791797638,0.34803307056427
163,-2.9819104753655568,-0.3827829869269024,2.3841019150650586,-0.1474970579147339,0.3735034763813019,0.9158271551132202,0.22597068548202515,-0.15706928074359894,0.3460390865802765,-0.4925938844680786,-0.05094802379608154,0.22296661138534546
164,-2.942821624554176,-0.39171271241746153,2.3876317689876116,-0.18250802159309387,0.3817719519138336,0.9060578346252441,-0.2058752179145813,0.7214187979698181,-0.12457211315631866,0.28271251916885376,-0.3673219382762909,-0.4470583200454712
165,-2.9133280769995773,-0.3493285783147942,2.3461543803341405,-0.21262036263942719,0.3422670066356659,0.9152302145957947,-0.5751125812530518,0.41578152775764465,0.23601819574832916,0.1521649956703186,-0.1462678611278534,-0.5618822574615479
166,-2.8801845124878405,-0.28969066668459115,2.3754416054224112,-0.2476724088191986,0.28565579652786255,0.9257746934890747,-0.1576654613018036,-0.5115081667900085,-0.7685328125953674,0.00156344473361969,0.3377114534378052,0.40886563062667847
167,-2.921626592251265,-0.2723264847850292,2.4549479738893942,-0.2101554125547409,0.26897290349006653,0.939940333366394,-0.1275668740272522,-1.2539809942245483,-0.3633011281490326,-0.282718688249588,0.3406766951084137,0.41207969188690186
168,-2.969863795075066,-0.307291338705641,2.5203486065417504,-0.16288113594055176,0.30247798562049866,0.9391363263130188,0.5210610032081604,-0.24491335451602936,-0.3008306622505188,-0.08341099321842194,-0.7142821550369263,0.16198372840881348
169,-2.961986206040821,-0.30532951136894426,2.57375443711197,-0.17037977278232574,0.30060747265815735,0.9384059309959412,-0.0992918387055397,0.1068117693066597,-0.5533364415168762,-0.007186710834503174,-0.08429893851280212,-0.5301876664161682
170,-2.928531215386589,-0.3055708075763053,2.6216188405997056,-0.20165757834911346,0.30083757638931274,0.9321108460426331,0.1565125286579132,0.19605335593223572,-0.319619357585907,0.21508534252643585,-0.06244954466819763,-0.6025211811065674
171,-2.9041353526399742,-0.30398839680102613,2.641242061476392,-0.22444675862789154,0.29932811856269836,0.9273762702941895,0.2627737820148468,0.5296835899353027,-0.041835468262434006,0.18680329620838165,0.2790563404560089,0.5752484798431396
172,-2.89365432045957,-0.3517439066197778,2.625475924220804,-0.23038043081760406,0.3445354700088501,0.9100658297538757,0.315107524394989,-0.32775774598121643,0.6287820935249329,-0.39094215631484985,0.294670432806015,0.7369524240493774
173,-2.937468735920939,-0.35752614454320725,2.5488277665248047,-0.18989117443561554,0.3499578833580017,0.9173175692558289,-0.1961519420146942,0.2200908064842224,0.3314061760902405,-0.29950404167175293,-0.19212087988853455,0.05189049243927002
174,-2.8959657569609436,-0.3306885555014142,2.522139609083095,-0.22998955845832825,0.32469436526298523,0.9174302816390991,-0.35175397992134094,0.46122482419013977,0.12993434071540833,0.29732659459114075,-0.23451492190361023,-0.5820421576499939
175,-2.8952063775438774,-0.2843559672092131,2.478535513617493,-0.23410655558109283,0.280539333820343,0.9308555722236633,-0.601326584815979,0.24174241721630096,-0.06913571059703827,0.15268561244010925,-0.10600924491882324,-0.524452805519104
176,-2.894522652704198,-0.2336377545003603,2.514005176292513,-0.23791936039924622,0.2315179705619812,0.9432889223098755,0.01726698875427246,-0.29848790168762207,-1.0748867988586426,0.11621522903442383,0.4408300817012787,0.7762393951416016
177,-2.9429576143876868,-0.20836312303319557,2.616698098183461,-0.19306330382823944,0.20685870945453644,0.9591331481933594,0.03840920329093933,-1.0356910228729248,-0.7405137419700623,-0.40785837173461914,0.29996198415756226,0.4451028108596802
178,-2.9560254543261983,-0.2367489461973397,2.6965977901911478,-0.1793573945760727,0.23454350233078003,0.9554162621498108,0.1448211520910263,-0.11447492241859436,-0.5052361488342285,0.030645236372947693,-0.5595404505729675,-0.023058533668518066
179,-2.9345895439842105,-0.2381694613827722,2.7581815890495216,-0.1997261643409729,0.2359241545200348,0.9510253667831421,0.21012772619724274,0.19506441056728363,-0.5494321584701538,0.0426216721534729,-0.02347603440284729,-0.5586150884628296
180,-2.913463886077892,-0.25187250320840643,2.8056660795046247,-0.21901938319206238,0.24921782314777374,0.9433561563491821,0.05878990516066551,0.13332854211330414,-0.22215832769870758,0.16503381729125977,0.0068704187870025635,-0.6085631847381592
181,-2.8936830100148567,-0.2540926110465936,2.8202661606194583,-0.23749934136867523,0.2513672709465027,0.9383006691932678,0.5920510292053223,0.4614228308200836,-0.1288919448852539,0.2997094392776489,0.3346617519855499,0.8461687564849854
182,-2.9285902952557916,-0.30990639514740753,2.8009088401495448,-0.20132488012313843,0.3049694895744324,0.9308391213417053,0.37205827236175537,-0.42445990443229675,0.48124220967292786,-0.5647120475769043,0.35970330238342285,0.6950151324272156
183,-2.952635616222859,-0.32667602525532546,2.755064865025048,-0.17790086567401886,0.32089662551879883,0.9302564859390259,-0.01957864500582218,0.26990070939064026,0.1847112476825714,-0.07199233770370483,-0.31778380274772644,0.00030100345611572266
184,-2.9286087490874655,-0.3109714117102492,2.744904738135868,-0.2012389600276947,0.30598360300064087,0.9305249452590942,-0.43730729818344116,0.03120599500834942,0.14979219436645508,0.21504820883274078,-0.24581822752952576,-0.7088301181793213
185,-2.9232361098371955,-0.2618629852083025,2.727930978634935,-0.2092406004667282,0.25888046622276306,0.9429737329483032,-0.4114671051502228,0.20654712617397308,-0.2225707620382309,0.13729539513587952,0.03373733162879944,-0.2939563989639282
186,-2.9278586706175447,-0.23028802817591212,2.778312549341137,-0.20651084184646606,0.228257954120636,0.9514471888542175,0.27054867148399353,-0.3448033630847931,-1.1120831966400146,0.3174727261066437,0.4310743510723114,0.8341974020004272
187,-2.9856759217492104,-0.24087898962745288,2.8494722578158442,-0.15080244839191437,0.23855632543563843,0.9593483805656433,0.7068274021148682,-0.37506967782974243,-0.6264304518699646,-0.39721691608428955,-0.07257123291492462,0.42244166135787964
188,-2.9898311992378703,-0.2738056560588455,2.9076588382993145,-0.14554795622825623,0.27039727568626404,0.9516832232475281,-0.12700586020946503,0.0049595339223742485,-0.7116096019744873,-0.04521740972995758,-0.23586666584014893,-0.015129327774047852
189,-2.9355365270259486,-0.24504451833242735,2.998893376805121,-0.19848889112472534,0.2425995171070099,0.9496038556098938,-0.10110589861869812,0.4847657084465027,-0.78840571641922,0.17778274416923523,-0.10662849247455597,-0.6406592726707458
190,-2.7915861951960412,-0.15038051663999655,2.9778092629502506,-0.33903399109840393,0.14981436729431152,0.9287691116333008,-1.882956862449646,1.5884387493133545,0.136826291680336,0.20722845196723938,-0.12071582674980164,-0.2610747814178467
191,-2.733166867846013,-0.1316321178458707,3.0034125359852513,-0.39372918009757996,0.13125231862068176,0.9098076820373535,0.8217039704322815,-0.16589964926242828,0.06985253840684891,0.15762996673583984,0.03657908737659454,0.4916662573814392
192,-2.812610774092703,-0.17809793167252522,3.0055889779408704,-0.31796926259994507,0.1771579086780548,0.9314022064208984,-0.17739082872867584,-0.5055215358734131,-0.10716263204813004,-0.5985193252563477,-0.15722998976707458,0.19689339399337769
193,-2.7565118775311923,-0.12847419199685348,3.0103024702643792,-0.37253814935684204,0.12812106311321259,0.9191300272941589,-0.7074748277664185,1.223975419998169,-0.08511543273925781,0.07523602247238159,-0.18050451576709747,-0.20361506938934326
194,-2.6243790131507705,-0.07123093165574601,2.9768785856848754,-0.49320632219314575,0.07117071002721786,0.8669962286949158,-0.6426254510879517,1.3481014966964722,-0.011582717299461365,0.3060266971588135,-0.013095751404762268,-0.569480299949646
195,-2.45655055737294,-0.0782409426839808,3.0117951423158984,-0.6307700276374817,0.07816114276647568,0.7720233798027039,0.5597144365310669,2.0378785133361816,-0.7327241897583008,0.04098731279373169,0.11248217523097992,-0.020405888557434082
196,-2.350971837037789,-0.05945087606277059,3.135293688838801,-0.7095342874526978,0.05941586196422577,0.7021613717079163,1.3349616527557373,-0.7608935832977295,-0.8403269648551941,-0.08450257778167725,0.031633324921131134,0.6048911213874817
197,-2.4208338528125717,-0.10847031239081764,-3.058273209659579,-0.6560761332511902,0.1082577332854271,0.7468894720077515,1.4413464069366455,-0.17077681422233582,-0.3273695111274719,-0.297613263130188,-0.3383908271789551,-0.03581482172012329
198,-2.4299470547792468,-0.15989911862805206,-2.98088088973089,-0.6447497010231018,0.15921860933303833,0.7476276755332947,0.21501418948173523,-0.3253306448459625,-0.35629522800445557,0.13379395008087158,-0.23465807735919952,-0.16896861791610718
199,-2.4535709809247237,-0.14032256415599215,-2.9953316032940016,-0.6287686228752136,0.139862522482872,0.7649108171463013,-0.41701745986938477,-0.22815731167793274,-0.24068647623062134,0.4725796580314636,0.1413722187280655,-0.43193352222442627
200,-2.517589878505463,-0.14435154574524686,-2.960388318242758,-0.5782114267349243,0.14385074377059937,0.8031057715415955,0.8029259443283081,-0.7719907760620117,-0.23417198657989502,0.17450958490371704,0.10099178552627563,-0.13242077827453613
201,-2.595860457941848,-0.18776152113836048,-2.9287013600186658,-0.5099216103553772,0.18666023015975952,0.8397248387336731,0.12106393277645111,-0.9852385520935059,0.44383370876312256,0.09389078617095947,0.005005404353141785,0.44271528720855713
202,-2.7735213985076568,-0.19601493452881436,-2.9458291791058064,-0.35292622447013855,0.19476214051246643,0.9151561260223389,-0.028888482600450516,-1.2598003149032593,-0.1516857147216797,-0.5497226715087891,-0.08090101182460785,0.24921154975891113
203,-2.8427390225766316,-0.16590360523365563,-2.9368220165506407,-0.2903822958469391,0.16514359414577484,0.942552924156189,-0.29877200722694397,-0.28674352169036865,-0.20581094920635223,0.0740736722946167,-0.21278151869773865,-0.2520925998687744
204,-2.88319884788799,-0.10798310489686062,-2.9518000546058762,-0.2540396749973297,0.10777337104082108,0.9611704349517822,-0.6610769033432007,-0.17296385765075684,0.21851179003715515,0.1996421217918396,-0.06973321735858917,-0.524158775806427
205,-2.7679687230907444,-0.060025674946357306,-2.9922432399555388,-0.36433446407318115,0.05998963490128517,0.9293342232704163,-0.5366193056106567,1.9009578227996826,0.46253472566604614,0.15669286251068115,0.09066040068864822,0.08554327487945557
206,-2.615663627174104,-0.04692532701288247,-2.9578093129414507,-0.5014641284942627,0.04690810665488243,0.8639060258865356,0.457709401845932,1.739105224609375,-0.33637282252311707,0.02975386381149292,0.13830308616161346,0.7044839859008789
207,-2.5236618185574304,-0.08157144606325774,-2.881379735358486,-0.5774234533309937,0.08148101717233658,0.8123686909675598,1.2987873554229736,1.2495291233062744,-0.5894615650177002,-0.36267054080963135,-0.32520967721939087,-0.04500424861907959
208,-2.422132748066987,-0.08628123942426572,-2.8736148847104745,-0.6565272808074951,0.08617422729730606,0.749363899230957,-0.33397796750068665,0.9334056973457336,-0.4861103296279907,0.22682446241378784,0.03910044580698013,-0.18112653493881226
209,-2.4580460889880063,-0.05291710501133752,-2.893045982664234,-0.6306626796722412,0.05289241299033165,0.7742524147033691,-0.40671980381011963,-1.1717747449874878,0.10698237270116806,0.5050676465034485,0.18389347195625305,-0.4053865671157837
210,-2.6299585312291107,-0.048888055958349906,-2.8976253129566008,-0.4890178143978119,0.048868585377931595,0.8709038496017456,0.02614656090736389,-1.217816710472107,-0.241503044962883,-0.169017493724823,-0.028620172291994095,0.0956183671951294
211,-2.63902838876777,-0.006731215926801454,-2.8618537487731737,-0.48166343569755554,0.006731165107339621,0.8763304948806763,0.059161074459552765,-0.714043378829956,-0.40323686599731445,-0.20273903012275696,-0.011446133255958557,0.36246955394744873
212,-2.7509408769988424,-0.03515963829810643,-2.854915892403554,-0.3805558979511261,0.03515239432454109,0.924089789390564,0.022246796637773514,-0.7945318222045898,0.25746557116508484,-0.3724654018878937,-0.010539960116147995,-0.0013600587844848633
213,-2.810392574684169,-0.0072082951129400115,-2.9060186163935047,-0.32516974210739136,0.007208232767879963,0.9456284642219543,-0.7497438788414001,0.22953015565872192,0.3385668396949768,0.1331225335597992,0.04589235782623291,-0.41503429412841797
214,-2.774095350038262,0.04435779534012176,-2.974843847047961,-0.35892757773399353,-0.044343251734972,0.9323115348815918,-0.6493967771530151,0.6939890384674072,0.4917297661304474,0.24489864706993103,0.1271832138299942,-0.5395655632019043
215,-2.6979321931541076,0.08076986114963881,-3.019185549981545,-0.42784902453422546,-0.08068206906318665,0.9002419710159302,-0.2157840132713318,0.1955450475215912,-0.06654956191778183,0.014091640710830688,0.15918853878974915,0.5121725797653198
216,-2.736359979231509,0.09284565569318978,-2.9487253489626437,-0.39253467321395874,-0.09271232038736343,0.915052592754364,0.3160189390182495,-1.0783092975616455,-0.5788112282752991,-0.556897759437561,0.17375174164772034,0.5105303525924683
217,-2.758426061786391,0.05457957967964312,-2.853673103065457,-0.3733026683330536,-0.054552484303712845,0.9261044859886169,1.118391990661621,0.31782853603363037,-0.5303943753242493,-0.1389043927192688,-0.42402416467666626,0.026211977005004883
218,-2.7590769717639554,0.020272574130311246,-2.7952930965955587,-0.3731788992881775,-0.020271185785531998,0.9275381565093994,-0.14718478918075562,-0.2824922204017639,-0.2362036556005478,0.19446787238121033,-0.1431046724319458,-0.5434589385986328
219,-2.8216192370877025,0.05040405932898253,-2.815295152946801,-0.3141418695449829,-0.050382718443870544,0.9480382800102234,-0.3097132444381714,-0.015372518450021744,0.17746509611606598,0.13692626357078552,0.21000491082668304,-0.5845738649368286
220,-2.7712651421744217,0.050487305762355786,-2.8209758266893976,-0.3614596724510193,-0.05046585947275162,0.9310212731361389,0.4278150796890259,0.7193129062652588,0.07186716794967651,0.1242922842502594,0.07790115475654602,0.6229492425918579
221,-2.771800284654211,-0.013968310060279755,-2.8157865963066206,-0.36138659715652466,0.013967855833470821,0.932311475276947,0.44549718499183655,-1.0750367641448975,0.37583795189857483,-0.6409633159637451,0.1627746969461441,0.8224951028823853
222,-2.8218836018386155,-0.013610813730694244,-2.844909951777515,-0.31426122784614563,0.01361039374023676,0.9492388367652893,-0.4771077036857605,-0.06283211708068848,0.2851826846599579,-0.2900020182132721,-0.18014481663703918,-0.14943426847457886
223,-2.7755096241244885,0.024616289180083364,-2.874953528012864,-0.35785236954689026,-0.02461380325257778,0.9334538578987122,-0.3941255509853363,0.6178773045539856,0.2949095368385315,0.36453568935394287,-0.06577926874160767,-0.6600315570831299
224,-2.746843167833288,0.061826597972583754,-2.9240658076657287,-0.38384222984313965,-0.06178721785545349,0.9213294386863708,-0.4509403109550476,0.36139047145843506,-0.03177400305867195,0.24825263023376465,0.10475596785545349,-0.34604233503341675
225,-2.724649795714897,0.08505643414098116,-2.853968880475324,-0.4035032093524933,-0.0849539116024971,0.9110260605812073,0.8705494999885559,0.19180800020694733,-1.6390159130096436,0.08608976006507874,0.3005605936050415,0.8671876192092896
226,-2.763284146818934,0.052923979252498275,-2.7068430304877276,-0.3688320219516754,-0.05289927497506142,0.9279897212982178,1.2001283168792725,0.01609361730515957,-1.17484450340271,-0.5092655420303345,-0.16380605101585388,0.4687846899032593
227,-2.7751909944239666,-0.00939099364011383,-2.616883238590344,-0.35824254155158997,0.009390855208039284,0.933581531047821,0.2729690670967102,-0.17238962650299072,-0.34066998958587646,-0.035220712423324585,-0.053092025220394135,-0.19877910614013672
228,-2.7835114350381254,-0.00259304067659581,-2.61134905694302,-0.3504767417907715,0.00259303767234087,0.9365681409835815,-0.23856167495250702,-0.35923632979393005,0.31283557415008545,0.29107415676116943,0.097535140812397,-0.8311601877212524
229,-2.765484059839281,0.020886552498408515,-2.6539240105455124,-0.36722368001937866,-0.020885033532977104,0.9298979640007019,-0.049146801233291626,0.7981522679328918,0.15966901183128357,0.19962117075920105,0.20273928344249725,-0.16799628734588623
230,-2.718664690717693,-0.014653587310635968,-2.66795464797004,-0.4103880822658539,0.01465306244790554,0.9117931127548218,0.38610267639160156,-0.45818251371383667,0.5866525769233704,0.09933772683143616,0.009806780144572258,0.39516782760620117
231,-2.8772347649053764,-0.04193020588765428,-2.7309108188142677,-0.26105979084968567,0.04191792011260986,0.9644117951393127,-0.21334676444530487,-0.6412518620491028,0.5176573991775513,-0.6834133863449097,-0.11915792524814606,0.4796797037124634
232,-2.9207653360406276,-0.02310343884800792,-2.781511190723111,-0.21897850930690765,0.023101383820176125,0.9754563570022583,-0.27084454894065857,0.013384558260440826,0.3852771520614624,0.041915491223335266,-0.13830524682998657,-0.26639556884765625
233,-2.9268854469502696,0.013742340456419875,-2.836210899987169,-0.213041290640831,-0.01374190766364336,0.9769467711448669,-0.598879337310791,0.2038349062204361,0.5482515096664429,0.2193736732006073,0.035623010247945786,-0.8369166851043701
234,-2.8715209766794962,0.06951133867136051,-2.87548261469206,-0.26615622639656067,-0.06945537775754929,0.9614244699478149,-0.4022538363933563,0.17539571225643158,-0.1291898638010025,-0.014498680830001831,0.15540811419487,0.3387618064880371
235,-2.8913447840245827,0.0749520853173884,-2.801233665296662,-0.24694877862930298,-0.07488192617893219,0.9661307334899902,0.2860070466995239,-0.7128034234046936,-0.7383146286010742,0.08174192905426025,0.17906895279884338,0.7551062703132629
236,-2.9480116900147633,0.030447109303370693,-2.708534334611828,-0.19228507578372955,-0.030442405492067337,0.9808670282363892,1.2122029066085815,0.39347803592681885,-0.7521746754646301,-0.21832898259162903,-0.49090465903282166,0.11811697483062744
237,-2.952381838709145,-0.012110256376511822,-2.6683883072649928,-0.18807002902030945,0.012109960429370403,0.9820807576179504,-0.14066220819950104,-0.3432340621948242,-0.041277579963207245,-0.061884164810180664,-0.12842771410942078,-0.39922577142715454
238,-3.000655628740905,0.016186455177468757,-2.710457181170454,-0.1404525190591812,-0.01618574745953083,0.9899552464485168,-0.39007195830345154,-0.08004199713468552,0.5411053895950317,0.10694421827793121,0.19520185887813568,-0.7522842884063721
239,-2.9439646138579914,0.03666820484517973,-2.7497814642516953,-0.19621215760707855,-0.03665998950600624,0.9798761606216431,-0.08002176880836487,0.7979919910430908,0.18826720118522644,0.19428950548171997,0.10640791058540344,0.13009417057037354
240,-2.919962580901465,0.009094593237279076,-2.768693406610369,-0.21981105208396912,-0.00909446831792593,0.975500226020813,0.416893869638443,-0.5341826677322388,0.40668830275535583,0.05381067097187042,0.00772117730230093,0.38991737365722656
241,-2.957539794061288,-0.02559048978010581,-2.780738398688475,-0.18295560777187347,0.025587696582078934,0.9827884435653687,0.049250438809394836,-0.03901150822639465,0.36484479904174805,-0.5267001986503601,-0.23788322508335114,0.27563464641571045
242,-2.935381730842383,-0.006916748277107568,-2.849947548123183,-0.20474761724472046,0.0069166929461061954,0.9787900447845459,-0.48282793164253235,0.4126145839691162,0.8705968856811523,0.14862586557865143,-0.053410228341817856,-0.5029298067092896
243,-2.9292199173500846,0.03561858320339014,-2.9590482159629863,-0.21064619719982147,-0.03561105206608772,0.9769133925437927,-0.6793079972267151,-0.06960015743970871,0.80495285987854,0.16613632440567017,0.015408419072628021,-0.6611481308937073
244,-2.9054337454902783,0.08020525264962207,-3.001622760821126,-0.23321770131587982,-0.080119289457798,0.9691182374954224,-0.11267717182636261,0.1868821382522583,-0.26764819025993347,-0.10857914388179779,0.2141525000333786,0.5087411403656006
245,-2.921577508915467,0.0668847335170474,-2.886998900597115,-0.21775637567043304,-0.06683487445116043,0.9737119078636169,0.5745124220848083,-0.4632475972175598,-0.9293058514595032,-0.47265803813934326,0.09115739166736603,0.8407715559005737
246,-2.9416690596879933,0.014035776910585107,-2.7976218435084177,-0.19857488572597504,-0.014035316184163094,0.9799851775169373,0.28597113490104675,-0.45955029129981995,-0.29330557584762573,0.08810125291347504,-0.6400021314620972,-0.05189990997314453
247,-2.9463064472674643,0.0152603611676866,-2.7536153019674843,-0.19402475655078888,-0.015259768813848495,0.9808781743049622,0.11548933386802673,0.10371483862400055,-0.3661841154098511,0.08843390643596649,0.0995035395026207,-0.6824618577957153
248,-2.9465823726021036,0.023205132549865632,-2.7439558561750763,-0.19372442364692688,-0.02320305071771145,0.9807814359664917,-0.16481207311153412,0.30679863691329956,-0.06960003077983856,0.17106515169143677,0.2443792074918747,-0.6641311645507812
249,-2.8541149456730497,0.009755399831681931,-2.7301408757846244,-0.2835208475589752,-0.00975524540990591,0.958916425704956,0.5301814079284668,0.6023468375205994,0.06497712433338165,0.21230807900428772,0.2139788717031479,0.838965654373169
250,-2.862561875950451,-0.04045970903704956,-2.744145294656626,-0.2751986086368561,0.04044867306947708,0.960536003112793,0.06585684418678284,-0.49750450253486633,0.37129178643226624,-0.5594266057014465,0.03419731929898262,0.7820481061935425
251,-2.8939963594659295,-0.0317629797476409,-2.7990852441226157,-0.24495060741901398,0.03175763785839081,0.9690151214599609,-0.55704265832901,0.15120214223861694,0.5665971636772156,-0.29063284397125244,-0.1154063269495964,-0.15862101316452026
252,-2.849622942150806,0.0021546746281710344,-2.8954421679379663,-0.2878384590148926,-0.002154672984033823,0.9576765298843384,-0.5481897592544556,0.26141470670700073,0.9240014553070068,0.4149899482727051,-0.046017326414585114,-0.7440687417984009
253,-2.848295900489154,0.04086362894909077,-2.9731099610433303,-0.28886836767196655,-0.04085225611925125,0.9564965963363647,-0.5903943777084351,0.23758016526699066,-0.032224297523498535,0.09505125880241394,0.12752218544483185,-0.31207239627838135
254,-2.829691364178407,0.06979597697274124,-2.9251876629708535,-0.3061215281486511,-0.06973931938409805,0.9494343400001526,0.37781333923339844,0.23717375099658966,-1.230394721031189,0.1874845027923584,0.15909481048583984,0.6802346110343933
255,-2.8801981722070455,0.05917132724012259,-2.823014200325746,-0.2579757273197174,-0.059136804193258286,0.9643402695655823,0.5328403115272522,-0.9236689805984497,-0.8409519791603088,-0.36235517263412476,0.1756834089756012,0.38647496700286865
256,-2.907167896999363,0.00943909655441769,-2.7454553664839785,-0.2322731614112854,-0.009438956156373024,0.9726047515869141,0.5374739170074463,-0.18193867802619934,-0.3160465955734253,-0.029659196734428406,-0.5983186364173889,0.12418168783187866
257,-2.9074741969409623,-0.0017724396994440465,-2.695814121802906,-0.2319851815700531,0.0017724387580528855,0.9727175831794739,0.13736490905284882,-0.007769165560603142,-0.2985199987888336,0.06754125654697418,0.082547627389431,-0.6019443869590759
258,-2.9075492892450985,0.003442088251014683,-2.6966310110502265,-0.23191110789775848,-0.0034420813899487257,0.9727306365966797,-0.25622475147247314,0.2951168119907379,0.253652960062027,0.17722366750240326,0.17452362179756165,-0.6723768711090088
259,-2.8561065274933206,0.0036771114468298377,-2.730837399264312,-0.2816219925880432,-0.003677103202790022,0.9595181941986084,0.20187908411026,0.5756431221961975,0.40935879945755005,0.142828106880188,0.196029394865036,0.7623444199562073
260,-2.868577344169225,-0.04904530829983436,-2.7807126798468262,-0.2693120837211609,0.04902564734220505,0.9618043303489685,0.16870050132274628,-0.9216786623001099,0.9090600609779358,-0.4316003918647766,0.13716210424900055,0.6912260055541992
261,-2.8991098724671143,-0.05666389335681412,-2.848682667779695,-0.2397281974554062,0.05663357675075531,0.9691870212554932,-0.4938623905181885,0.17288319766521454,0.8584727048873901,-0.29699981212615967,-0.24407252669334412,-0.0050754547119140625
262,-2.839304515976621,-0.015805174795087196,-2.9365430559657617,-0.2976682186126709,0.015804516151547432,0.9545386433601379,-0.6088625192642212,0.6779513955116272,0.6596728563308716,0.3674771785736084,-0.10772345960140228,-0.5664312839508057
263,-2.826793993018254,0.03133084699050385,-3.018912053399239,-0.3094730079174042,-0.03132572025060654,0.9503918886184692,-0.5558295845985413,0.2332809567451477,0.2553810775279999,0.18941691517829895,0.10430851578712463,-0.40286099910736084
264,-2.826125639988022,0.05594370550377932,-2.996807668575962,-0.3097749948501587,-0.05591452866792679,0.949164092540741,0.467923641204834,-0.08732696622610092,-1.262826681137085,0.14234039187431335,0.3267122805118561,0.7401056289672852
265,-2.8865310170572864,0.03162610839842012,-2.868097221018696,-0.2521788477897644,-0.03162083774805069,0.9671636819839478,0.8673985600471497,-0.1209610253572464,-1.3868827819824219,-0.5259277820587158,-0.04833520948886871,0.5796958804130554
266,-2.8897239740803675,-0.013293374756105938,-2.7660700885511846,-0.24919211864471436,0.013292983174324036,0.9683629274368286,0.08289886265993118,-0.1575426459312439,-0.602063775062561,-0.08302223682403564,-0.058535292744636536,-0.1772404909133911
267,-2.9023581553418647,-0.005473298035631165,-2.7281232241966316,-0.2369554340839386,0.005473270546644926,0.9715050458908081,-0.0947880893945694,-0.14828035235404968,-0.08612481504678726,0.1688554733991623,0.1672104448080063,-0.8652276396751404
268,-2.8732954534716795,0.006725875471909033,-2.7477001297064216,-0.265083909034729,-0.0067258249036967754,0.9642016887664795,-0.03840826451778412,0.5271139740943909,0.3540200889110565,0.2757803797721863,0.21136145293712616,0.1279153823852539
269,-2.8417087486840447,-0.05241764418507607,-2.782821312133199,-0.2950035631656647,0.05239364504814148,0.9540585875511169,0.6825971603393555,-0.5182583332061768,0.7582610845565796,-0.18937140703201294,0.03940322622656822,0.47372156381607056
270,-2.8821148860114385,-0.08821644629136025,-2.827474997621813,-0.2555782198905945,0.0881020724773407,0.9627659916877747,-0.3079623878002167,0.02454657480120659,0.7695122957229614,-0.5484684705734253,-0.2528054118156433,0.18904387950897217
271,-2.840198266027261,-0.04468257879086457,-2.9255189963932766,-0.2965557277202606,0.04466771334409714,0.9539703726768494,-0.6691750288009644,0.7282084822654724,0.6741153001785278,0.2935192584991455,-0.10973118245601654,-0.5045990943908691
272,-2.829196610521444,-0.0034610157146029207,-3.0086446141746253,-0.3073377013206482,0.0034610088914632797,0.9515941143035889,-0.6374151706695557,-0.11650922894477844,0.3242267966270447,0.30533885955810547,-0.01971161924302578,-0.6543377637863159
273,-2.837403019699283,0.040271671964546465,-2.994005895085508,-0.2992772161960602,-0.040260788053274155,0.9533162713050842,0.07754325121641159,0.04162105172872543,-0.7773000597953796,-0.057076454162597656,0.23427629470825195,0.7847054600715637
274,-2.882042389853604,0.039936226031721554,-2.8748125965921654,-0.2564413249492645,-0.03992561250925064,0.965735137462616,0.2856030762195587,-1.042754054069519,-0.7736668586730957,-0.41699010133743286,0.14508917927742004,0.5583893060684204
275,-2.9150226515123956,-0.0018206706862661049,-2.7795024270077833,-0.22463616728782654,0.0018206696258857846,0.9744411110877991,0.445294052362442,0.0387909971177578,-0.5187183022499084,-0.013370469212532043,-0.5917712450027466,0.030075550079345703
276,-2.912018319032694,-0.003158471304126379,-2.7411565113422203,-0.22756189107894897,0.0031584659591317177,0.9737583994865417,-0.06200344115495682,-0.016267875209450722,-0.07977787405252457,0.06739042699337006,0.08871470391750336,-0.7123449444770813
277,-2.9077696363892724,0.012554605876702641,-2.765530768398293,-0.23167990148067474,-0.012554275803267956,0.972710907459259,-0.1358722746372223,0.5372570753097534,0.18710748851299286,0.19905664026737213,0.3028222322463989,-0.6992735862731934
278,-2.8227634691432772,0.006162251323089133,-2.7842497333863134,-0.3134489953517914,-0.0061622122302651405,0.9495850205421448,0.33237504959106445,0.6959749460220337,0.17540982365608215,0.08890068531036377,0.18340830504894257,0.9351195096969604
279,-2.8483002891785234,-0.03886291420580632,-2.819078459925783,-0.28888726234436035,0.038853131234645844,0.9565744400024414,0.06487313657999039,-1.1511123180389404,0.6518141031265259,-0.5745770931243896,0.11590150743722916,0.6829824447631836
280,-2.908035862679897,-0.024792564369007203,-2.8913227207919503,-0.23136810958385468,0.024790024384856224,0.9725505113601685,-0.4144861400127411,0.04904431477189064,0.39718717336654663,-0.2732858657836914,-0.09617063403129578,-0.0637369155883789
281,-2.8685526712903324,-0.009208872447231174,-2.9288213586961014,-0.2696486711502075,0.009208742529153824,0.9629150032997131,-0.22318817675113678,-0.006772405002266169,0.678899884223938,0.44605550169944763,-0.14304357767105103,-0.9408504962921143
282,-2.8762482314567923,0.0247170256432939,-2.986544020442392,-0.2621615529060364,-0.024714509025216103,0.9647074937820435,-0.5138035416603088,0.47549569606781006,-0.06388101726770401,0.145981103181839,0.15134720504283905,-0.33294785022735596
283,-2.821950864710928,0.036549341624964725,-2.9073391602087972,-0.3140166997909546,-0.036541204899549484,0.9487141370773315,0.7222315073013306,-0.07614858448505402,-1.6586179733276367,0.4179442822933197,0.12005255371332169,0.950425386428833
284,-2.8923578823304483,0.021396689432645097,-2.817095148331599,-0.2466059774160385,-0.021395057439804077,0.9688795804977417,0.6957815885543823,-0.015255285426974297,-0.9667249321937561,-0.4776219129562378,-0.06719747185707092,0.387916624546051
285,-2.9023804787316947,-0.025077503925648944,-2.7467134315798254,-0.23686280846595764,0.025074874982237816,0.9712194800376892,0.14806799590587616,-0.11434908211231232,-0.6210363507270813,0.0064703673124313354,-0.11853495985269547,-0.2264837622642517
286,-2.901090814555686,-0.016093837131207798,-2.7180178614926156,-0.23815926909446716,0.016093142330646515,0.9710929989814758,-0.21073895692825317,0.024941015988588333,0.18869444727897644,0.1483154445886612,0.11838257312774658,-0.8345571756362915
287,-2.8746576816684355,0.006237130211682733,-2.7430103073599876,-0.26377105712890625,-0.00623708963394165,0.9645650386810303,0.006081626750528812,0.4237944483757019,-0.005608668550848961,0.20679479837417603,0.25577932596206665,0.08824551105499268
288,-2.838545350738567,-0.032962667384175394,-2.739186009319147,-0.2982679009437561,0.032956697046756744,0.9539129734039307,0.5365169644355774,-0.35063958168029785,0.43124815821647644,-0.164698988199234,0.06909407675266266,0.4394737482070923
289,-2.878051351332718,-0.07797555221264205,-2.7635777055264352,-0.2597097158432007,0.07789655774831772,0.9625400304794312,-0.013156380504369736,0.04564191773533821,0.5406535267829895,-0.5665537714958191,-0.17079205811023712,0.2623441219329834
290,-2.8448656507070345,-0.04476489026287954,-2.8616823357032937,-0.2920989394187927,0.04474994167685509,0.9553406834602356,-0.947939395904541,0.7549047470092773,1.0522669553756714,0.21600335836410522,-0.14615985751152039,-0.4658997058868408
291,-2.826889735078345,0.009127739069343761,-3.007137367878668,-0.3095210790634155,-0.009127612225711346,0.9508487582206726,-0.9339244365692139,-0.09792859107255936,1.0957884788513184,0.281490683555603,0.06180095300078392,-0.6259434223175049
292,-2.827098790450164,0.05666796548890115,-3.06645052941282,-0.3088386058807373,-0.05663764104247093,0.9494264721870422,-0.21072819828987122,-0.11643321067094803,-0.26646116375923157,-0.08323594927787781,0.21519172191619873,0.4957943558692932
293,-2.8577004155697354,0.05789375623961224,-2.9511589578788437,-0.27962490916252136,-0.05786142125725746,0.9583641290664673,0.5037533640861511,-0.7047159671783447,-0.8897885680198669,-0.43749237060546875,0.13012705743312836,0.6351568698883057
294,-2.879604718506469,0.008829390012420672,-2.824573328824857,-0.2589910328388214,-0.008829275146126747,0.9658392667770386,0.9556555151939392,-0.08486279845237732,-0.8139307498931885,0.0612829327583313,-0.9174860119819641,-0.004459381103515625
295,-2.903056983234271,-0.005735105420313809,-2.7533712407434145,-0.23627610504627228,0.005735074169933796,0.9716688990592957,0.00699882535263896,-0.0850299522280693,-0.48663395643234253,0.004846066236495972,0.05856546014547348,-0.508442759513855
296,-2.9093971810050765,0.008013931660795238,-2.7399676938823085,-0.23010724782943726,-0.008013845421373844,0.973132312297821,-0.39612555503845215,0.061079610139131546,0.06333725899457932,0.21773234009742737,0.13505852222442627,-0.8366881608963013
297,-2.8360361927310804,0.016409881092273586,-2.733703712295005,-0.30078354477882385,-0.016409143805503845,0.953551709651947,0.23298940062522888,1.2406654357910156,0.04623686894774437,0.0552542507648468,0.29268476366996765,0.7518014907836914
298,-2.8125036976018514,-0.031815909103767505,-2.7573963159035255,-0.3230173587799072,0.031810540705919266,0.9458580017089844,0.4240705668926239,-0.6775493621826172,0.7719166874885559,-0.3498951494693756,-0.005382325500249863,0.48920029401779175
299,-2.857181578925857,-0.05272449539718956,-2.7956544207338383,-0.2802022695541382,0.05270007252693176,0.958493173122406,-0.26924920082092285,-0.02718304842710495,0.5321708917617798,-0.39495331048965454,-0.22791676223278046,-0.012906134128570557
300,-2.832532277401001,-0.01834135870842429,-2.881309569572799,-0.3041124641895294,0.018340330570936203,0.952459454536438,-0.6459523439407349,0.6494896411895752,0.6919268369674683,0.2330828607082367,-0.0752861350774765,-0.49077439308166504
301,-2.807131259980883,0.017161676819553762,-2.9714747401977624,-0.3282121419906616,-0.01716083474457264,0.9444481730461121,-0.5957785844802856,0.12097547203302383,0.3652942478656769,0.3013566732406616,0.10219806432723999,-0.46095824241638184
302,-2.8029338945115314,0.06613445007970592,-2.966362020480038,-0.33149605989456177,-0.06608624756336212,0.9411391615867615,0.1185510978102684,-0.18220894038677216,-0.7962973117828369,-0.07440295815467834,0.21785017848014832,0.6477432250976562
303,-2.841558315527527,0.06263568311375695,-2.838335885082533,-0.2949734032154083,-0.06259473413228989,0.9534528255462646,0.38207221031188965,-0.8209582567214966,-0.8791844844818115,-0.4742068350315094,0.08383498340845108,0.4508591294288635
304,-2.8684645267687507,0.021642971993610705,-2.7264098646080357,-0.26968175172805786,-0.021641282364726067,0.9627063274383545,0.3422093093395233,-0.1552637666463852,-0.6057541370391846,0.03797703981399536,-0.5907244682312012,0.05270504951477051
305,-2.871738909557299,0.03237095475443047,-2.6859818981454056,-0.26645082235336304,-0.03236529976129532,0.9633049368858337,-0.0696696862578392,0.04621254280209541,-0.09171426296234131,0.11494627594947815,0.14756916463375092,-0.608614444732666
306,-2.8620615266303693,0.043503001519509414,-2.714742177575838,-0.2756439447402954,-0.043489281088113785,0.9602754712104797,-0.28727439045906067,0.4037814140319824,0.45291152596473694,0.1956573724746704,0.2459123730659485,-0.558984637260437
307,-2.8179799021008387,0.03506924830948428,-2.7636224021391347,-0.3177984058856964,-0.03506205976009369,0.9475100636482239,0.4433022439479828,0.5489463210105896,0.3482683300971985,0.11221671104431152,0.2895176112651825,0.8749083280563354
308,-2.8363130185759835,-0.034874038067463295,-2.821621282681773,-0.3003771901130676,0.03486697003245354,0.9531831741333008,0.3304218351840973,-0.8768858909606934,0.8493335247039795,-0.40819522738456726,0.23446592688560486,0.7099181413650513
309,-2.853318323089967,-0.05065697634591185,-2.8775162732997503,-0.28393352031707764,0.05063531547784805,0.9575061202049255,-0.25640013813972473,0.20297405123710632,0.556002140045166,-0.21850788593292236,-0.27556511759757996,-0.24995601177215576
310,-2.8028529775714546,-0.01968132221158654,-2.9325248891833184,-0.33223438262939453,0.019680051133036613,0.9429917931556702,-0.5798664093017578,0.5177288055419922,0.5535076260566711,0.30211347341537476,-0.16054919362068176,-0.5982497930526733
311,-2.7795087254294732,0.019193863755982744,-3.007669085253877,-0.3541586101055145,-0.019192684441804886,0.9349885582923889,-0.5175397396087646,0.266806960105896,0.08471161127090454,0.21429651975631714,0.1704683154821396,-0.1878875494003296
312,-2.784328973112257,0.045939905431821484,-2.956121480864805,-0.34934306144714355,-0.04592374712228775,0.9358688592910767,0.43236303329467773,-0.32747772336006165,-1.4204481840133667,0.26512980461120605,0.24064114689826965,0.7491439580917358
313,-2.8581251346283127,0.03342827197098968,-2.86805323163298,-0.2795301675796509,-0.03342204540967941,0.95955491065979,0.9580055475234985,-0.00047560082748532295,-1.2289191484451294,-0.5300554037094116,-0.04723590984940529,0.4052368402481079
314,-2.857561409784902,-0.013959821729289456,-2.7914105852203663,-0.28020039200782776,0.01395936869084835,0.9598402380943298,0.16416549682617188,-0.05600567162036896,-0.2710912823677063,0.05992448329925537,-0.2228064090013504,-0.09967160224914551
315,-2.852901640658876,-0.0054750443400473515,-2.786167218033977,-0.2846934497356415,0.00547501677647233,0.9586032629013062,-0.1774410456418991,-0.10580385476350784,0.1485855132341385,0.2076975703239441,0.1656065285205841,-0.8100281953811646
316,-2.833791119646016,0.00940110210220086,-2.8261556545482702,-0.302950918674469,-0.00940096378326416,0.9529600739479065,-0.11048207432031631,0.4817507863044739,0.3188110589981079,0.20315837860107422,0.20814669132232666,-0.19197344779968262
317,-2.791588460434559,-0.020715084795258645,-2.8546694289132946,-0.3428282141685486,0.020713603124022484,0.9391698241233826,0.4255734086036682,0.11817621439695358,0.3690452575683594,0.1606382429599762,0.010780537500977516,0.5349971055984497
318,-2.844495854143343,-0.07084217360857736,-2.884704617248057,-0.29201117157936096,0.07078293710947037,0.953792154788971,-0.013413551263511181,-0.3188255727291107,0.4202759861946106,-0.5863457918167114,-0.13589218258857727,0.43535280227661133
319,-2.8534309560148703,-0.05527691223425754,-2.9543654829944472,-0.2837561368942261,0.055248767137527466,0.9573034644126892,-0.4526548981666565,0.3635897636413574,0.49132296442985535,-0.0019646883010864258,-0.06834080815315247,-0.331418514251709
320,-2.8221631287693687,-0.0276523503933084,-3.0131309049690462,-0.3139050006866455,0.02764882706105709,0.9490519762039185,-0.49893662333488464,-0.10554777830839157,0.5807392001152039,0.3518383204936981,-0.09074391424655914,-0.7778328657150269
321,-2.821093329588718,0.01821441235795177,-3.038429557366577,-0.31498828530311584,-0.018213404342532158,0.9489209651947021,-0.26705509424209595,-0.17835135757923126,-0.44870030879974365,0.048646122217178345,0.11976064741611481,0.0541156530380249
322,-2.845372202486797,0.03324253548936169,-2.9282552210822796,-0.2917460799217224,-0.033236414194107056,0.9559180736541748,0.2754254937171936,-0.3727690577507019,-0.9710201025009155,-0.12413221597671509,0.16256991028785706,0.8240958452224731
323,-2.8920869110404133,0.0012841934541476276,-2.833475017561296,-0.24692487716674805,-0.0012841931311413646,0.96903395652771,0.8651332259178162,-0.10782614350318909,-0.5179154872894287,-0.16263630986213684,-0.6617102026939392,0.1411193609237671
324,-2.900627988817911,-0.014766951692195794,-2.797204042191284,-0.23861344158649445,0.014766414649784565,0.9710020422935486,-0.010282509960234165,0.1624206155538559,-0.24128122627735138,0.014187246561050415,0.08307293057441711,-0.5033814907073975
325,-2.869564586932311,-0.011274523164368347,-2.80119142217947,-0.26866841316223145,0.011274284683167934,0.9631667733192444,-0.23757512867450714,0.31146910786628723,0.3303361237049103,0.26351094245910645,0.12016493082046509,-0.8807693719863892
326,-2.830635379202383,-0.004043847384647674,-2.8374096345644193,-0.30596765875816345,0.004043836146593094,0.9520334005355835,0.029447749257087708,0.5855069756507874,0.4400542974472046,0.012571662664413452,0.1777646392583847,0.7036367654800415
327,-2.8200726042852775,-0.0591227666225871,-2.85515578158526,-0.31545689702033997,0.0590883269906044,0.9470983147621155,0.49614885449409485,-0.8721005320549011,0.7369175553321838,-0.39177268743515015,0.1527189165353775,0.5644981861114502
328,-2.865796784597679,-0.0922208537140489,-2.907532024647118,-0.2711557149887085,0.0920901894569397,0.9581201672554016,-0.3847009837627411,0.06951381266117096,0.8098441362380981,-0.3452841639518738,-0.2478976845741272,0.040903329849243164
329,-2.8312512758556867,-0.04447723889011567,-3.000814272721693,-0.30508172512054443,0.044462576508522034,0.9512876868247986,-0.8311172723770142,0.6660622954368591,0.8114895224571228,0.20054376125335693,-0.17272795736789703,-0.6741423606872559
330,-2.8083789289576044,0.0028319658241386186,-3.113503213461757,-0.3270803689956665,-0.0028319619596004486,0.9449923634529114,-0.7770808339118958,0.18763680756092072,0.4668453335762024,0.3295065462589264,0.15056756138801575,-0.4845278263092041
331,-2.8097380322253516,0.040065313969677704,-3.095771907366617,-0.3255356252193451,-0.040054596960544586,0.9446812272071838,0.33512669801712036,0.1386987715959549,-0.9814059138298035,-0.05591893196105957,0.2592470943927765,0.768835186958313
332,-2.8425149823367515,0.028985584843876394,-3.002271865117356,-0.2945151627063751,-0.0289815254509449,0.9552071690559387,0.5162429213523865,-1.0491042137145996,-0.7238882184028625,-0.4918923079967499,0.2497761994600296,0.544930100440979
333,-2.863780062476275,-0.017635256940667976,-2.9163335437289084,-0.2742100656032562,0.01763434335589409,0.9615079164505005,0.3567456007003784,-0.13128924369812012,-0.2887307405471802,0.0561162531375885,-0.5207471251487732,-0.07735282182693481
334,-2.8412490634760053,-0.02209626716586165,-2.873868523694774,-0.29577627778053284,0.022094469517469406,0.9550018906593323,0.12201723456382751,0.4069349467754364,-0.32666686177253723,0.09779343008995056,0.06863429397344589,-0.549636721611023
335,-2.816062659221102,-0.018123336129725845,-2.8646262974625145,-0.31975850462913513,0.018122343346476555,0.9473258852958679,-0.10147649794816971,0.2342638522386551,0.11475325375795364,0.22593221068382263,0.1481374204158783,-0.4913015365600586
336,-2.781667603770437,-0.02942818455390229,-2.881105132132356,-0.35205161571502686,0.02942393720149994,0.9355180263519287,0.335984468460083,0.4461645185947418,0.27408671379089355,0.15515220165252686,0.18508411943912506,0.5646955966949463
337,-2.7879764455895613,-0.07860628587140367,-2.896958092522305,-0.34522315859794617,0.0785253569483757,0.9352295994758606,0.29122430086135864,-0.520631730556488,0.08832602947950363,-0.47855299711227417,0.07799927145242691,0.6023526191711426
338,-2.8096309383115443,-0.07341250473242002,-2.9281985146834604,-0.3250204622745514,0.0733465775847435,0.9428583383560181,-0.5592097640037537,0.3009323477745056,0.21169327199459076,-0.293448805809021,-0.1148047149181366,-0.11245989799499512
339,-2.7686029256610647,-0.021651126671040986,-2.9849401797512227,-0.36431580781936646,0.02164943516254425,0.9310237765312195,-0.8457636833190918,0.15613871812820435,0.6272649765014648,0.40060120820999146,-0.09362514317035675,-0.5661709308624268
340,-2.7899137803687,0.034416881452681396,-3.066029380177539,-0.34427040815353394,-0.034410085529088974,0.9382397532463074,-0.5966173410415649,-0.24802787601947784,0.05564390867948532,0.19346782565116882,0.15925750136375427,-0.4280926585197449
341,-2.8053253053576825,0.05091969448302185,-2.9825000000444373,-0.32953810691833496,-0.050897691398859024,0.9427692890167236,0.8944519758224487,-0.08863212168216705,-1.8566882610321045,0.15270403027534485,0.3093663156032562,0.8575236201286316
342,-2.86163609826858,0.01290571661725354,-2.8635297179632766,-0.2762909233570099,-0.012905358336865902,0.9609875679016113,0.8382542133331299,-0.25328201055526733,-0.5889462828636169,-0.4799346923828125,-0.344989538192749,0.3565784692764282
343,-2.8878602544121716,-0.029741351197880957,-2.833261402356882,-0.2509075701236725,0.029736965894699097,0.9675541520118713,0.1191062331199646,0.04114973172545433,-0.145176500082016,-0.07778197526931763,0.011873744428157806,-0.1489964723587036
344,-2.8686095318558973,-0.03298904596769313,-2.820273175776235,-0.2694585919380188,0.03298306092619896,0.9624468684196472,-0.03045329451560974,0.008063266053795815,0.16546256840229034,0.2579382359981537,0.07170748710632324,-0.7957141995429993
345,-2.844361763365604,-0.02972809975867635,-2.8437675983001083,-0.2927442193031311,0.029723720625042915,0.9557286500930786,0.027396608144044876,0.5201193690299988,0.047473035752773285,0.1724439561367035,0.07026712596416473,-0.1919957995414734
346,-2.805527269334315,-0.04292220411261555,-2.8459659111521685,-0.3294714093208313,0.04290902614593506,0.9431899785995483,0.24508753418922424,-0.040803756564855576,0.08731192350387573,0.1860998570919037,0.07150136679410934,0.5283218026161194
347,-2.836193267788947,-0.07686568963937605,-2.836977812494862,-0.29978621006011963,0.07679001986980438,0.9509106278419495,0.19728867709636688,-0.0727994292974472,-0.11040244996547699,-0.6022980809211731,-0.10672777891159058,0.41587990522384644
348,-2.8288292146437293,-0.054617348045359095,-2.881424990986562,-0.3072303831577301,0.05459019914269447,0.9500681757926941,-0.6737816333770752,0.37784817814826965,0.4887957274913788,0.0364479124546051,-0.08869358897209167,-0.18735754489898682
349,-2.7990742516461014,-0.009079532473145309,-2.9666375888603462,-0.3358464539051056,0.009079407900571823,0.9418730735778809,-0.763539731502533,-0.1489940583705902,0.836115300655365,0.3941808044910431,-0.05647320672869682,-0.7705626487731934
350,-2.8016614813775154,0.03965150164855059,-3.045218518926361,-0.33316007256507874,-0.039641112089157104,0.9420364499092102,-0.4245477616786957,-0.017105232924222946,0.0493149571120739,0.12376376986503601,0.2396380603313446,-0.17714399099349976
351,-2.8029826287298834,0.04260406287154154,-2.9687729234952798,-0.3318750560283661,-0.04259117692708969,0.9423617720603943,0.6901034116744995,0.3043454885482788,-1.5883625745773315,0.21929559111595154,0.1123238280415535,0.9088501930236816
352,-2.850981225784959,0.022221843718046398,-2.8853279850156923,-0.2864673435688019,-0.02222001552581787,0.957832396030426,0.6558409333229065,0.028890132904052734,-0.6894110441207886,-0.4105846881866455,-0.38518965244293213,0.23836517333984375
353,-2.86348236228108,-0.004527982945083017,-2.8561802131899823,-0.27453622221946716,0.004527967423200607,0.9615660309791565,0.12602607905864716,-0.054105211049318314,-0.46849292516708374,-0.0027464628219604492,-0.1080435961484909,-0.12671196460723877
354,-2.8556272247698744,-0.007232213145334166,-2.8079818018202958,-0.2820764183998108,0.007232150062918663,0.959364652633667,0.029731329530477524,0.23463506996631622,-0.17194463312625885,0.23700198531150818,0.08854726701974869,-0.7984150052070618
355,-2.8384033119027237,0.00715199870510637,-2.825708928844265,-0.29855793714523315,-0.007151937577873468,0.9543645977973938,-0.3195149004459381,0.26186084747314453,0.47522851824760437,0.15463709831237793,0.09777388721704483,-0.15163034200668335
356,-2.7833868868291014,-0.017930712416117277,-2.839959188542773,-0.35053807497024536,0.01792975142598152,0.9363768100738525,0.5007829070091248,0.2090045064687729,0.07949231564998627,0.26771336793899536,0.05757073685526848,0.6350038051605225
357,-2.846028866949481,-0.0519450863385561,-2.8692662166606344,-0.2908863127231598,0.05192172899842262,0.9553476572036743,-0.016175203025341034,-0.3606759309768677,0.36799362301826477,-0.6053690910339355,0.010913964360952377,0.4059651494026184
358,-2.8313010744197795,-0.029991614953639778,-2.94030233217688,-0.3051990568637848,0.029987119138240814,0.9518164992332458,-0.5687800049781799,0.5408632755279541,0.8120721578598022,0.016685813665390015,-0.06734062731266022,-0.3994176387786865
359,-2.7984434247658267,0.0044826916559859,-3.0511284967253505,-0.33645108342170715,-0.004482676740735769,0.9416905045509338,-0.873935341835022,-0.1505393385887146,0.9665949940681458,0.365778386592865,-0.04513890668749809,-0.718927264213562
360,-2.8034960103716884,0.055884080308271016,-3.111363498579475,-0.3311743438243866,-0.05585499852895737,0.9419150948524475,-0.32868215441703796,-0.14278069138526917,-0.2680138647556305,0.007275998592376709,0.17575855553150177,0.18711328506469727
361,-2.8274576851343833,0.06547696478286687,-3.002318426319776,-0.30833181738853455,-0.0654301866889,0.9490262269973755,0.6924118995666504,-0.3915691077709198,-1.2251719236373901,-0.09277603030204773,0.2954259216785431,0.7534275054931641
362,-2.86728973428792,0.010479430467210999,-2.874944311237138,-0.27086105942726135,-0.01047923881560564,0.9625611901283264,0.9792491793632507,0.026361489668488503,-0.6916847229003906,-0.14909130334854126,-0.734027624130249,0.14156454801559448
363,-2.8810148658993002,-0.010452930400496331,-2.8357618371962685,-0.25762486457824707,0.010452739894390106,0.9661887288093567,-0.04229308292269707,-0.051658451557159424,-0.03831615298986435,0.10387727618217468,0.134276881814003,-0.31456196308135986
364,-2.875203571194908,-0.011864919844038995,-2.8580063456156584,-0.2632310092449188,0.011864641681313515,0.9646596312522888,-0.14751993119716644,0.13470615446567535,0.5071007609367371,0.189897358417511,0.10115720331668854,-0.7330619692802429
365,-2.8431514597933893,-0.0036710052468645737,-2.9080923752350785,-0.29402869939804077,0.0036709969863295555,0.9557895660400391,-0.03586209937930107,0.42343154549598694,0.37605345249176025,0.19313758611679077,0.10840480774641037,0.10559654235839844
366,-2.836726650388126,-0.04480969018795808,-2.953318842780169,-0.2998640239238739,0.04479469731450081,0.9529295563697815,0.4838717579841614,-0.7463746070861816,0.5398450493812561,-0.3410661220550537,0.2197316735982895,0.7476165890693665
367,-2.8778767728693047,-0.06656440857499137,-2.9815497830541355,-0.26009243726730347,0.06651526689529419,0.9632898569107056,-0.30987006425857544,-0.00832346361130476,0.4553985893726349,-0.32438015937805176,-0.2497885823249817,0.07803082466125488
368,-2.8521100349679593,-0.018271992710558915,-3.0676827123152353,-0.28540879487991333,0.018270976841449738,0.9582318663597107,-0.9462006092071533,0.5197513103485107,0.9238348603248596,0.19953230023384094,-0.12293101102113724,-0.6300303936004639
369,-2.82582913127331,0.04489903778947812,3.086635777552848,-0.3102293014526367,-0.044883955270051956,0.949601411819458,-0.8232852816581726,0.2898310422897339,0.7894770503044128,0.3306761384010315,0.08350396156311035,-0.5830550193786621
370,-2.8196644212130737,0.08640358045030602,3.0970700445829884,-0.3152160346508026,-0.08629611134529114,0.9450883865356445,0.407876580953598,-0.13783703744411469,-1.2438950538635254,-0.07087710499763489,0.25037387013435364,0.71168053150177
371,-2.8512316535754603,0.06296871461088445,-2.9770455313675654,-0.28573063015937805,-0.06292711198329926,0.9562413692474365,0.7872500419616699,-0.3034534156322479,-1.6158899068832397,-0.5601860284805298,0.13923633098602295,0.6958884000778198
372,-2.858844850094059,0.027384756745201844,-2.879602682796967,-0.27889078855514526,-0.027381334453821182,0.9599324464797974,0.18645408749580383,-0.4414321780204773,-0.2406700998544693,0.10385724902153015,-0.6820760369300842,0.017499864101409912
373,-2.880991786501522,0.03673765164491808,-2.8535443826708917,-0.25748735666275024,-0.03672938793897629,0.9655835032463074,-0.024149930104613304,-0.057591762393713,-0.23847807943820953,0.11452773213386536,0.1379104107618332,-0.6194835901260376
374,-2.875308919733314,0.04324645182784791,-2.8507690794170446,-0.2629019021987915,-0.04323297366499901,0.9638532996177673,-0.24433772265911102,0.2668434977531433,0.197994202375412,0.2081991732120514,0.1397600769996643,-0.7737594842910767
375,-2.8134543573030237,0.03890431434808525,-2.857390545826704,-0.32203733921051025,-0.03889450058341026,0.945927619934082,0.41278040409088135,0.9676763415336609,0.017006924375891685,0.12484800815582275,0.30223068594932556,0.9481000304222107
376,-2.809832367861669,-0.02322859438923464,-2.8777531383055472,-0.32561996579170227,0.023226505145430565,0.9452154636383057,0.44208356738090515,-1.2811638116836548,0.9948487877845764,-0.43686169385910034,0.1951267570257187,0.5230005383491516
377,-2.8810864510493444,-0.051356451407375124,-2.980595148969049,-0.25723013281822205,0.05133387818932533,0.9649857878684998,-0.36183151602745056,-0.10777643322944641,1.1676809787750244,-0.29033154249191284,-0.18794581294059753,-0.01273047924041748
378,-2.8523483622761936,-0.026687627021782886,-3.0689068721715986,-0.2851264476776123,0.026684459298849106,0.9581184983253479,-0.6061456799507141,0.5823712348937988,0.5376644134521484,0.2090919017791748,-0.1484343409538269,-0.7630348205566406
379,-2.825050540922412,-0.0012139458182564096,3.1369363614060517,-0.3112821578979492,0.001213945564813912,0.9503169655799866,-0.5256088972091675,0.272577702999115,0.45917484164237976,0.24649333953857422,0.06120976060628891,-0.45553529262542725
380,-2.832016300973559,0.007963228907945794,-3.1328266173243624,-0.3046455383300781,-0.007963145151734352,0.9524326920509338,0.5324453115463257,-0.052238959819078445,-1.4106850624084473,0.30875012278556824,0.2300700843334198,0.988561749458313
381,-2.892887427973469,-0.0023729547782723463,-3.0317659277323936,-0.24614860117435455,0.0023729526437819004,0.9692294597625732,0.5157836079597473,-0.1204589381814003,-1.1889617443084717,-0.6355043053627014,0.047828465700149536,0.5655150413513184
382,-2.915514062211743,-0.03606634403974665,-2.942293533784152,-0.22401179373264313,0.03605852648615837,0.9739187955856323,0.09520811587572098,-0.426399290561676,-0.8157174587249756,0.0653052031993866,-0.19520770013332367,-0.22619271278381348
383,-2.9515069419804743,-0.015442850530917217,-2.9017811092588532,-0.18892055749893188,0.015442236326634884,0.9818710684776306,-0.1734618842601776,-0.4154945909976959,0.14151376485824585,0.083009272813797,0.07615627348423004,-0.8832992315292358
384,-2.922252637158936,0.014308168756570056,-2.9144348786421665,-0.21756331622600555,-0.014307680539786816,0.9759417176246643,-0.048568934202194214,1.1709424257278442,-0.28009697794914246,0.17250406742095947,0.2885538935661316,-0.09821009635925293
385,-2.8277652252409324,-0.02284399005702129,-2.8859168485711075,-0.3086208403110504,0.022842003032565117,0.9509108662605286,0.5772148370742798,-0.4699154198169708,0.253268837928772,0.06113851070404053,0.0021366383880376816,0.5555131435394287
386,-2.8931049717658315,-0.0647934258789451,-2.8937308293886836,-0.24542231857776642,0.06474810093641281,0.9672515988349915,-0.06505462527275085,-0.14676743745803833,0.34707674384117126,-0.5655518174171448,-0.13153579831123352,0.3320953845977783
387,-2.875461726689329,-0.03869338952014934,-2.961632652024894,-0.26280367374420166,0.03868373483419418,0.9640734791755676,-0.5280874371528625,0.4427286982536316,0.7909847497940063,0.20402684807777405,-0.11635097861289978,-0.5790942907333374
388,-2.8634898174939805,0.008881220923348435,-3.0798230296167612,-0.2745210826396942,-0.008881104178726673,0.961540162563324,-0.939422607421875,0.04412462189793587,0.9023171663284302,0.2227480113506317,0.0610509030520916,-0.7041548490524292
389,-2.829090291407972,0.058865806600257545,-3.121694349248827,-0.3069083094596863,-0.05883181467652321,0.9499192833900452,-0.14273236691951752,0.3260442912578583,-0.23321841657161713,-0.037787795066833496,0.1460205316543579,0.6306321620941162
390,-2.8666951111765004,0.06217917377799421,-3.0167730682838028,-0.2709237039089203,-0.0621391162276268,0.9605929255485535,0.34054043889045715,-0.955171525478363,-0.7961800694465637,-0.5068472623825073,0.1918998658657074,0.6460810899734497
391,-2.8965718508369114,0.011967014711678764,-2.9006500995915427,-0.24255919456481934,-0.011966729536652565,0.9700630307197571,0.705264151096344,-0.053357284516096115,-0.6102287769317627,0.060735419392585754,-0.8870506286621094,0.050277113914489746
392,-2.9096202946750727,0.004826411104977677,-2.857319889602267,-0.22989486157894135,-0.004826392512768507,0.9732036590576172,-0.14651057124137878,-0.1249636709690094,-0.15547068417072296,0.013158977031707764,-0.024851953610777855,-0.6115092039108276
393,-2.915333159664685,0.028275197250705802,-2.8713391913083712,-0.22424423694610596,-0.028271429240703583,0.9741227030754089,-0.3224988877773285,0.34382933378219604,0.16704387962818146,0.18299974501132965,0.22031855583190918,-0.8329790234565735
394,-2.8176937338950356,0.0263114032914095,-2.860520986746211,-0.31815510988235474,-0.026308367028832436,0.9476739168167114,0.4497509300708771,1.135778546333313,-0.030264873057603836,0.13726204633712769,0.3203452229499817,0.8408700227737427
395,-2.816565199751927,-0.03954281819525857,-2.8696403000223683,-0.31908509135246277,0.03953251242637634,0.9469009041786194,0.5641319155693054,-1.039470911026001,0.749607264995575,-0.47617238759994507,0.00017084181308746338,0.5250226259231567
396,-2.882192650388235,-0.06321536393758437,-2.9352095323063905,-0.25598838925361633,0.06317327171564102,0.964613676071167,-0.38898491859436035,-0.07749085128307343,1.023929238319397,-0.41219404339790344,-0.17891117930412292,0.02873373031616211
397,-2.8535820194735875,-0.03484458560331921,-3.0386410360681007,-0.28387293219566345,0.03483753651380539,0.9582287669181824,-0.5063411593437195,0.6552141308784485,0.9166960120201111,0.24728238582611084,-0.1436174511909485,-0.5929945111274719
398,-2.8334178816588977,-0.0036760021248268705,-3.141565222907098,-0.3033177852630615,0.003675993764773011,0.9528821706771851,-0.5971965193748474,0.25683265924453735,0.3493654727935791,0.3049505352973938,0.03877395763993263,-0.4877944588661194
399,-2.8308185621213617,0.031074043384280887,-3.111176806695877,-0.30564814805984497,-0.031069042161107063,0.9516375660896301,0.3416984975337982,-0.12396557629108429,-1.0603489875793457,0.029830247163772583,0.18902802467346191,0.8079144954681396
400,-2.8767458499182963,0.029881319523041898,-2.966018431872687,-0.26164451241493225,-0.029876872897148132,0.9647015929222107,0.5234510898590088,-0.8740941882133484,-1.3397321701049805,-0.5534647107124329,0.22485367953777313,0.63182532787323
401,-2.8881900582821105,-0.010956945997716511,-2.844232213950033,-0.25068438053131104,0.010956726968288422,0.9680072665214539,0.3298487663269043,-0.18279042840003967,-0.648264467716217,0.11388924717903137,-0.435120552778244,-0.01767420768737793
402,-2.8887412390109,-0.007623554510024597,-2.7729650254735647,-0.2501583993434906,0.007623480632901192,0.9681746363639832,0.07502599060535431,0.1203790009021759,-0.4344877004623413,0.10741245746612549,0.08174724876880646,-0.6493120193481445
403,-2.8758756059875346,0.01751552068023793,-2.770052974597883,-0.2625609040260315,-0.017514625564217567,0.9647563099861145,-0.48537373542785645,0.2745295763015747,0.1632443219423294,0.20491322875022888,0.18800108134746552,-0.6234936714172363
404,-2.817288502893661,0.02581621897105825,-2.7963060511660136,-0.31854304671287537,-0.025813352316617966,0.9475566744804382,0.4118858575820923,0.6831288933753967,0.32144153118133545,0.13830634951591492,0.38819435238838196,0.9189134836196899
405,-2.84696936236062,-0.03383488394818811,-2.8411707348665374,-0.2902131974697113,0.033828429877758026,0.9563639163970947,0.19126564264297485,-0.6749516129493713,0.6761647462844849,-0.6711210608482361,0.09751923382282257,0.6491506099700928
406,-2.8465270960969313,-0.04325932227005687,-2.93694492839063,-0.2905305325984955,0.043245829641819,0.955888032913208,-0.6187308430671692,0.6182683110237122,0.9539325833320618,-0.21799913048744202,-0.1926904022693634,-0.243546724319458
407,-2.7742675621971675,0.0006794016438871686,-3.0707759248310196,-0.3591202199459076,-0.000679401564411819,0.9332911968231201,-1.0007681846618652,0.2271508425474167,1.480303406715393,0.4708450138568878,-0.1752391755580902,-0.7311426401138306
408,-2.7743664194928543,0.04145473263563756,3.0847206194394925,-0.3587195575237274,-0.041442859917879105,0.9325250387191772,-0.45742368698120117,0.057221394032239914,0.13593362271785736,0.20263740420341492,0.1431732028722763,-0.1386253833770752
409,-2.7991357226331144,0.05918226900579263,-3.1333190565297766,-0.33521440625190735,-0.059147726744413376,0.9402832388877869,0.49882590770721436,-0.2040378749370575,-1.507716178894043,0.20029622316360474,0.11021889746189117,0.7723935842514038
410,-2.8579319619515084,0.041352513339645965,-3.0022224020155677,-0.27963268756866455,-0.04134072735905647,0.9592167735099792,0.9273857474327087,0.14529302716255188,-1.3704025745391846,-0.4813994765281677,-0.17792807519435883,0.2974209785461426
411,-2.862942593226729,0.007190034490388797,-2.922598750732681,-0.27505090832710266,-0.007189972326159477,0.9614027142524719,0.06605342030525208,-0.01806093007326126,-0.5467754602432251,-0.03915807604789734,-0.19292904436588287,-0.2436903715133667
412,-2.850673099998513,0.023388369721829554,-2.8941050263383556,-0.286754846572876,-0.023386238142848015,0.9577186703681946,-0.1052161231637001,0.20426547527313232,-0.08717503398656845,0.2328912913799286,0.13219666481018066,-0.7489782571792603
413,-2.8141037687303223,0.04081992202025673,-2.911092557608898,-0.32139840722084045,-0.04080858826637268,0.946064293384552,-0.11863566190004349,0.46122363209724426,0.08207175135612488,0.25021618604660034,0.21935167908668518,-0.19275319576263428
414,-2.7585305615346334,0.0016455341395632003,-2.913033502371279,-0.37376195192337036,-0.0016455333679914474,0.9275234341621399,0.5534547567367554,0.11102977395057678,0.3950888514518738,0.1848427951335907,0.0448889397084713,0.5932592153549194
415,-2.814540514183978,-0.05132299862602247,-2.9492651342592797,-0.32082971930503845,0.051300469785928726,0.9457462430000305,-0.22202052175998688,-0.2706441581249237,0.8127769231796265,-0.6377730965614319,-0.16455121338367462,0.3603447675704956
416,-2.7945612747779682,-0.029312581402356336,-3.040331445165303,-0.33996155858039856,0.029308384284377098,0.9399825930595398,-0.6490653157234192,0.7276053428649902,0.5652096271514893,0.12734562158584595,-0.07656485587358475,-0.3162490129470825
417,-2.760346385981789,0.009162700337420717,-3.1403371145167425,-0.37206199765205383,-0.009162572212517262,0.9281628727912903,-0.8188496828079224,-0.23118121922016144,0.8577041029930115,0.39357686042785645,-0.03675112500786781,-0.729218602180481
418,-2.7380829607315227,0.06178761041395812,3.094646137857414,-0.3918992578983307,-0.06174830347299576,0.9179335236549377,-0.34387919306755066,-0.020233090966939926,-0.3241975009441376,0.027137964963912964,0.07920436561107635,0.1211746335029602
419,-2.7601170539335422,0.08473555674309513,-3.0543581667681763,-0.37095463275909424,-0.0846341922879219,0.9247862696647644,0.6485940217971802,-0.5868343114852905,-1.671274185180664,-0.1703203320503235,0.0413602739572525,0.7570832371711731
420,-2.80903567759746,0.04860520499278657,-2.913332075165866,-0.3260754346847534,-0.04858607053756714,0.9440944194793701,1.158815622329712,0.05245218053460121,-0.7205280065536499,-0.10838806629180908,-0.6484048962593079,0.09766888618469238
421,-2.820007960304209,0.018084358109901517,-2.8341868127528187,-0.316018670797348,-0.018083373084664345,0.9485804438591003,0.17220909893512726,-0.19402171671390533,-0.401593953371048,0.05324709415435791,-0.0012647714465856552,-0.5129879713058472
422,-2.8420351408998505,0.040025872872657985,-2.8335227965724226,-0.2948611080646515,-0.04001518711447716,0.9547019600868225,-0.5158745646476746,-0.28712528944015503,0.15021899342536926,0.2041628658771515,0.15354058146476746,-0.7535758018493652
423,-2.7936690523733816,0.05681133752825588,-2.846024978832607,-0.3403964340686798,-0.05678078159689903,0.9385658502578735,0.2835104465484619,1.5983411073684692,-0.15534496307373047,0.1286349892616272,0.35765358805656433,0.5701467394828796
424,-2.7199504212323773,-0.015015331078662708,-2.8231491762153516,-0.40921324491500854,0.015014766715466976,0.9123151302337646,0.8311506509780884,-0.777376651763916,0.3730016052722931,-0.5376098155975342,0.05145251750946045,0.4849168062210083
425,-2.7713605694369114,-0.04369643161463827,-2.849408806104129,-0.36148637533187866,0.0436825267970562,0.9313534498214722,-0.5067712068557739,-0.109405517578125,0.8043933510780334,-0.29938700795173645,-0.3166012167930603,-0.013079643249511719
426,-2.745849657279906,0.001218017737391136,-2.9617215520581386,-0.38549360632896423,-0.0012180174235254526,0.9227097630500793,-0.994245171546936,0.45472627878189087,0.9396960735321045,0.31681379675865173,-0.12451440095901489,-0.5698959827423096
427,-2.739111701265041,0.05009459006592917,-3.0921331534583842,-0.3912108242511749,-0.050073642283678055,0.9189376831054688,-0.6998928189277649,0.0013665659353137016,0.48409515619277954,0.3460906147956848,0.14653971791267395,-0.5326768159866333
428,-2.7350536467227617,0.09104008672939946,-3.0974555446981302,-0.3937951624393463,-0.09091437608003616,0.9146910905838013,0.12158995866775513,-0.06720752269029617,-0.766301155090332,-0.1420171558856964,0.32919561862945557,1.0160186290740967
429,-2.7900793216276742,0.08824178563186699,-2.9739638071292425,-0.3429792523384094,-0.08812731504440308,0.9351996779441833,0.557522714138031,-0.9003313779830933,-1.0208828449249268,-0.5210496187210083,0.15441149473190308,0.5642966032028198
430,-2.818916798570806,0.03893530354214332,-2.878929870425723,-0.31686508655548096,-0.03892546519637108,0.9476714730262756,0.5988011956214905,-0.35673099756240845,-0.4273126423358917,0.16642874479293823,-0.7409054636955261,-0.2025238275527954
431,-2.8421306524983865,0.029919074952440023,-2.832496693853193,-0.29487425088882446,-0.0299146119505167,0.9550679326057434,0.06637009978294373,-0.13806994259357452,-0.11946502327919006,0.07554435729980469,0.08991216123104095,-0.6064959764480591
432,-2.8346743611611296,0.051617706091236885,-2.865146370997911,-0.3017199635505676,-0.05159478634595871,0.9519994258880615,-0.3536086678504944,0.2940694987773895,0.22731073200702667,0.21730837225914001,0.2376604676246643,-0.5989568829536438
433,-2.788467887164781,0.034415531592713926,-2.872499815807553,-0.34562671184539795,-0.03440873697400093,0.9377411603927612,0.5963906645774841,0.34667545557022095,0.10770390927791595,0.29972824454307556,0.21958939731121063,0.8791229724884033
434,-2.8445339582453384,-0.022647823870482142,-2.8924732363967824,-0.292633980512619,0.02264588698744774,0.9559564590454102,0.3486681580543518,-1.0344563722610474,0.46432948112487793,-0.5380698442459106,0.14028745889663696,0.4504462480545044
435,-2.868608102023861,-0.029194377449895358,-2.9412561092455007,-0.2694917917251587,0.02919023111462593,0.96256023645401,-0.38406500220298767,0.45562687516212463,0.5471510291099548,-0.2956479787826538,-0.17781083285808563,-0.15269994735717773
436,-2.8038457394681178,0.014328345202129718,-3.0242118080178226,-0.3313281238079071,-0.014327854849398136,0.9434067606925964,-0.8162481784820557,0.2668439745903015,0.9858329892158508,0.4129320979118347,-0.14698806405067444,-0.6353471279144287
437,-2.803713861414802,0.06462559542683119,-3.1304489530948088,-0.3307945728302002,-0.06458061933517456,0.9414904713630676,-0.5287493467330933,0.29915952682495117,0.1679813265800476,0.19795161485671997,0.19873589277267456,-0.23470336198806763
438,-2.80860922592396,0.09550967655076457,-3.081953783394245,-0.3253742456436157,-0.0953645333647728,0.9407638907432556,0.27276405692100525,-0.23047131299972534,-1.4272770881652832,0.13326618075370789,0.14867877960205078,0.7931836247444153
439,-2.8646452693028133,0.08149345295107005,-2.9515516637911725,-0.2725133001804352,-0.08140327781438828,0.958702564239502,0.8700156211853027,0.10983598977327347,-1.0374261140823364,-0.5284358263015747,-0.10879754275083542,0.34305548667907715
440,-2.880806285232076,0.03331040697998744,-2.910943476720984,-0.2576974034309387,-0.03330424800515175,0.9656516909599304,0.13218162953853607,-0.1992376148700714,-0.055106714367866516,-0.000344008207321167,-0.16797444224357605,-0.2259206771850586
441,-2.881321877254511,0.029225648363939868,-2.9114277964388795,-0.25723233819007874,-0.029221488162875175,0.9659077525138855,0.0981241837143898,0.164007306098938,0.03741639107465744,0.18521085381507874,0.17504973709583282,-0.7082172632217407
442,-2.8389439288286504,0.02224688602718289,-2.9284266288445466,-0.2979758381843567,-0.022245051339268684,0.9543141722679138,-0.11055542528629303,0.6411759853363037,0.2606709599494934,0.2180350124835968,0.17342913150787354,-0.0813741683959961
443,-2.794406675645024,-0.015449943351441023,-2.96670578121685,-0.34021249413490295,0.01544932834804058,0.940221905708313,0.54439777135849,-0.04375360161066055,0.7503750920295715,0.11433660984039307,-0.03916148841381073,0.4598027467727661
444,-2.8550395725662936,-0.07040545378539385,-3.027623514417944,-0.28194722533226013,0.07034730166196823,0.9568471908569336,-0.027737144380807877,-0.4036760926246643,0.7142711281776428,-0.5687912106513977,-0.09839297831058502,0.3160560131072998
445,-2.8566736970098168,-0.06087211956612264,-3.109890337853998,-0.2805590331554413,0.06083453446626663,0.9579068422317505,-0.5672219395637512,0.573501467704773,0.6821677684783936,-0.08432433009147644,-0.09014667570590973,-0.2939208149909973
446,-2.798659274516061,-0.023175538018025195,3.0741551758722534,-0.3361607789993286,0.023173462599515915,0.9415193796157837,-0.7904913425445557,0.09542672336101532,0.9388736486434937,0.4268437922000885,-0.08002771437168121,-0.6659610271453857
447,-2.7988773778223006,0.0230824578537414,3.0048199290089865,-0.3359561562538147,-0.023080408573150635,0.9415947198867798,-0.3817428648471832,-0.02995910309255123,-0.1056288629770279,0.11050757765769958,0.11123043298721313,-0.04462212324142456
448,-2.813612077818202,0.04062947221151026,3.103190762818191,-0.3218660354614258,-0.04061829671263695,0.9459134340286255,0.5224491357803345,-0.0934760570526123,-1.7367511987686157,0.07471945881843567,0.19158875942230225,0.665353536605835
449,-2.867181241838128,0.020531330489817944,-3.0228345260491887,-0.27092331647872925,-0.020529888570308685,0.9623820185661316,0.803685188293457,-0.049130313098430634,-1.2515828609466553,-0.42261916399002075,-0.21582874655723572,0.19286096096038818
450,-2.8690974536880387,-0.01805561628236822,-2.9375418420002033,-0.26909148693084717,0.01805463433265686,0.9629452228546143,0.24778711795806885,0.10283995419740677,-0.6283026933670044,0.02595803141593933,-0.20070233941078186,-0.14902633428573608
451,-2.8579819994446996,-0.010942483376217399,-2.9071040653989373,-0.2798071801662445,0.010942265391349792,0.9599940776824951,-0.0511690229177475,0.06803164631128311,-0.0029838564805686474,0.17293459177017212,0.1473676711320877,-0.6665827035903931
452,-2.8331390586828897,-0.01657912932735245,-2.92488592213708,-0.3035438656806946,0.016578370705246925,0.9526733160018921,0.09262394160032272,0.34167641401290894,0.27446573972702026,0.20559772849082947,0.24509459733963013,-0.16095572710037231
453,-2.8108571668631384,-0.0477099756303096,-2.959475964168519,-0.3243692219257355,0.04769187793135643,0.9447275400161743,0.2935410141944885,0.03222642093896866,0.37514132261276245,0.13859346508979797,0.11344093084335327,0.4401754140853882
454,-2.8635212845315583,-0.09438628127513334,-2.999262758474954,-0.27327975630760193,0.09424620121717453,0.957306444644928,0.06819382309913635,-0.08914540708065033,0.2863563001155853,-0.5595449209213257,-0.06705505400896072,0.42784053087234497
455,-2.8554174656923696,-0.0795976366580045,-3.0659858159756475,-0.2813912332057953,0.07951360940933228,0.9562930464744568,-0.7533779740333557,0.4426855444908142,0.7328326106071472,-0.11605441570281982,-0.15461736917495728,-0.33004194498062134
456,-2.7951653709154147,-0.029956001888965248,3.1106720440241227,-0.3393871486186981,0.02995152212679386,0.9401696920394897,-0.8831731677055359,0.17774632573127747,1.0536997318267822,0.435288667678833,-0.1312088519334793,-0.6140131950378418
457,-2.7955092270177575,0.020572951976531535,3.0225508883525425,-0.3391442894935608,-0.020571500062942505,0.9405094385147095,-0.5266064405441284,-0.1039486974477768,0.13331268727779388,0.12359863519668579,0.113543301820755,-0.11084330081939697
458,-2.8124000065780965,0.03699605235994348,3.09534017818156,-0.32305797934532166,-0.03698761388659477,0.9456562399864197,0.5689271688461304,0.09824775159358978,-1.4895929098129272,0.009016811847686768,0.15164214372634888,0.6907116174697876
459,-2.8329209146232253,0.01851203061372167,-3.051712031411398,-0.30374130606651306,-0.0185109730809927,0.9525744915008545,0.5940657258033752,0.07975881546735764,-1.0034232139587402,-0.28823861479759216,-0.47277626395225525,0.1791696548461914
460,-2.8611646788768113,0.008244738894474217,-2.992997276556469,-0.2767575681209564,-0.008244645781815052,0.960904598236084,-0.016471918672323227,-0.03584105148911476,-0.5821186900138855,-0.07718530297279358,-0.018290389329195023,-0.25623834133148193
461,-2.8359412285086507,0.011702712136400143,-2.91328625997272,-0.3008938729763031,-0.011702445335686207,0.9535859227180481,0.3882230222225189,0.3864383101463318,-0.7118539810180664,0.2567501962184906,0.10967913269996643,-0.6549561023712158
462,-2.8050890128361603,0.015450244069044628,-2.8864549425444572,-0.33014944195747375,-0.015449629165232182,0.9438022375106812,-0.17154794931411743,0.1705169677734375,0.15467295050621033,0.17273977398872375,0.1083603948354721,0.05236780643463135
463,-2.7782063461787563,-0.016550060986067726,-2.895453778526592,-0.3553927540779114,0.016549305990338326,0.9345704913139343,0.39293962717056274,-0.3970966935157776,0.6418457627296448,-0.034682899713516235,0.041754528880119324,0.3945615291595459
464,-2.849923112538162,-0.051520567330078856,-2.9531474263333446,-0.28717002272605896,0.05149777606129646,0.9564940333366394,-0.18030299246311188,-0.16375894844532013,0.685088574886322,-0.5057833790779114,-0.10594115406274796,0.22593975067138672
465,-2.8306239099035695,-0.025057784531881695,-3.039156070608167,-0.30588507652282715,0.025055162608623505,0.9517390131950378,-0.7417622804641724,0.44983959197998047,0.7388135194778442,0.04471558332443237,-0.11091636121273041,-0.43228375911712646
466,-2.7903886746067985,0.01377436717723879,3.1263218874353105,-0.3439958989620209,-0.013773931190371513,0.9388700723648071,-0.7059577107429504,0.15174651145935059,1.0060155391693115,0.38260066509246826,-0.006840690039098263,-0.6057097315788269
467,-2.7762168179077293,0.05112215191676899,3.064164596241557,-0.3568335473537445,-0.05109988525509834,0.9327693581581116,-0.05084400624036789,-0.0846589207649231,-0.17976461350917816,0.020056843757629395,0.20922672748565674,0.4674229025840759
468,-2.806715300020419,0.043625906931595855,-3.1193100435552297,-0.3283405601978302,-0.04361207038164139,0.943551778793335,0.6133582592010498,-0.8968155384063721,-0.6710057258605957,-0.5357187986373901,0.08914430439472198,0.6912899017333984
469,-2.8253283136447553,0.00808551768394995,-3.018169763218877,-0.3110082447528839,-0.008085429668426514,0.9503729939460754,0.8007329702377319,0.023888178169727325,-0.7734547853469849,-0.04188179969787598,-0.809465229511261,-0.11619019508361816
470,-2.812228897066316,-0.010700254501973578,-2.929914823100237,-0.32342252135276794,0.010700050741434097,0.946194052696228,0.36251571774482727,0.4133959114551544,-0.9386641383171082,0.022412419319152832,0.0644494816660881,-0.4590725898742676
471,-2.767319278353357,-0.018887359277692833,-2.851465156712101,-0.3655310869216919,0.01888623647391796,0.9306074976921082,0.022206999361515045,0.3563136160373688,-0.20802132785320282,0.3005591630935669,0.10033068060874939,-0.7021377086639404
472,-2.7427214564761626,-0.01010081204696028,-2.8984549643128905,-0.38835853338241577,0.01010064035654068,0.9214528203010559,-0.011095529422163963,0.4430331289768219,0.7227311730384827,0.020881205797195435,0.2796485126018524,0.7638497352600098
473,-2.738317656911598,-0.06544022631725842,-2.9388915592508114,-0.3915926516056061,0.06539352983236313,0.9178117513656616,0.38174116611480713,-0.8142450451850891,0.6590726971626282,-0.34397247433662415,0.06801404803991318,0.6085704565048218
474,-2.798724704545679,-0.0828269092296273,-2.9926818365347523,-0.3350369930267334,0.08273223787546158,0.9385657906532288,-0.4518473148345947,0.024101439863443375,0.5468054413795471,-0.366104394197464,-0.13160613179206848,-0.048627376556396484
475,-2.7606901632905863,-0.037465973012368814,-3.0717607058730363,-0.3714975416660309,0.03745720908045769,0.9276780486106873,-0.7637137174606323,0.799595832824707,0.6789723038673401,0.29479163885116577,-0.11600945889949799,-0.5823411345481873
476,-2.741414903416616,0.0008779370717565518,3.121275455057208,-0.3895818889141083,-0.0008779369527474046,0.9209913611412048,-0.6477409601211548,-0.25618261098861694,0.45020273327827454,0.33144596219062805,0.11284693330526352,-0.4875349998474121
477,-2.757954446237375,0.032453486379671034,3.1315104643971865,-0.37409958243370056,-0.03244778886437416,0.926820695400238,0.45669323205947876,-0.07014362514019012,-1.0170278549194336,-0.0064240992069244385,0.25728604197502136,0.8373546600341797
478,-2.8269467622604547,0.02953207594594546,-3.0358774367367896,-0.3093447685241699,-0.029527783393859863,0.950491189956665,0.5520533919334412,-1.0453895330429077,-0.9855665564537048,-0.5293545722961426,0.30844318866729736,0.5239500999450684
479,-2.868852769558422,-0.010938563637641263,-2.947146487838961,-0.26935499906539917,0.010938345454633236,0.9629790186882019,0.17989963293075562,-0.5310583114624023,-0.2377290427684784,0.131995290517807,-0.4543740153312683,-0.04575777053833008
480,-2.8805275013975047,-0.005084656541628908,-2.928619606823235,-0.25810638070106506,0.005084634758532047,0.9661029577255249,-0.04671355336904526,0.19908419251441956,-0.06554283946752548,0.06253454089164734,0.15928304195404053,-0.6050954461097717
481,-2.840257905793837,-0.005912262528293868,-2.9302882522442273,-0.29678988456726074,0.005912228021770716,0.9549245238304138,-0.08969949185848236,0.4072473645210266,0.15698176622390747,0.29163241386413574,0.15232141315937042,-0.4051351547241211
482,-2.8174636809615263,-0.027478632112514657,-2.955139559457842,-0.3183629512786865,0.027475174516439438,0.9475704431533813,0.3581205904483795,0.0748806744813919,0.2893719971179962,0.1485327184200287,0.10716837644577026,0.49624645709991455
483,-2.860013408700113,-0.0803301428914255,-2.992724764590872,-0.276977002620697,0.08024377375841141,0.9575201272964478,0.11191495507955551,-0.644368052482605,0.38867324590682983,-0.612457811832428,0.072588250041008,0.6635888814926147
484,-2.874056653263592,-0.06693841480876708,-3.0463467144969414,-0.2637639045715332,0.06688843667507172,0.9622654318809509,-0.7676134705543518,0.4337003231048584,0.5088359117507935,-0.22558549046516418,-0.18195496499538422,-0.15219151973724365
485,-2.8077449190639703,-0.003936867247598131,-3.1273260598753105,-0.32767829298973083,0.003936856985092163,0.944781482219696,-0.861596405506134,0.2777813673019409,0.8684711456298828,0.4417681396007538,-0.13392648100852966,-0.7292202711105347
486,-2.80599617782431,0.04098811464510945,3.074848547456133,-0.3290557563304901,-0.040976639837026596,0.9434208273887634,-0.4171457588672638,0.31398287415504456,0.16127748787403107,0.17704778909683228,0.1568061113357544,-0.36268675327301025
487,-2.7837127942255964,0.0505039536954202,3.131718409713706,-0.3498426079750061,-0.05048248544335365,0.9354473948478699,0.675156831741333,0.14659222960472107,-1.6954319477081299,0.2303357720375061,0.13936492800712585,0.8392261266708374
488,-2.843362227606873,0.042818805534245774,-3.054357937958297,-0.29355987906455994,-0.04280572384595871,0.954981803894043,0.43833282589912415,-1.028354525566101,-0.7533028721809387,-0.4188424348831177,0.1545153260231018,0.41476911306381226
489,-2.906630531347567,0.009374197611459707,-2.9805303750458436,-0.23279590904712677,-0.009374060668051243,0.9724804162979126,0.1612122505903244,-0.7530774474143982,-0.05114755406975746,0.038078516721725464,-0.521250307559967,-0.022483468055725098
490,-2.937254652341525,0.00876086812943878,-2.9371170021009885,-0.20291124284267426,-0.008760755881667137,0.9791582226753235,0.3077828884124756,0.031122243031859398,-0.5566587448120117,0.015319645404815674,0.1269858479499817,-0.5282607078552246
491,-2.8991239604248524,-0.0037763576833619657,-2.9023040549601915,-0.24009808897972107,0.0037763486616313457,0.9707411527633667,-0.1045585572719574,0.8130026459693909,-0.020615672692656517,0.25003159046173096,0.15688343346118927,-0.6072158813476562
492,-2.8067238257784144,-0.003938171136481047,-2.9250303585876116,-0.32864275574684143,0.003938160836696625,0.9444461464881897,0.116396464407444,0.505312979221344,0.4950506091117859,0.06231585144996643,0.11547712236642838,0.6799435615539551
