,attitude.roll,attitude.pitch,attitude.yaw,gravity.x,gravity.y,gravity.z,rotationRate.x,rotationRate.y,rotationRate.z,userAcceleration.x,userAcceleration.y,userAcceleration.z
0,-2.8754986476974773,0.15743753279573597,1.6872894977601505,-0.2597125768661499,-0.1567879468202591,0.9528726935386658,0.5256465077400208,0.2393937110900879,0.41724807024002075,0.3115620017051697,0.030887722969055176,0.5953142642974854
1,-0.2470362524510083,0.19749885524858246,1.3370323951322909,-0.23977768421173096,-0.19621741771697998,-0.9507919549942017,-0.20071910321712494,0.17592336237430573,-0.28716331720352173,-0.05567823350429535,-0.09572897851467133,-0.22234946489334106
2,-0.21288997971058896,0.17305473047853115,1.2634523354725589,-0.2081296145915985,-0.17219224572181702,-0.9628249406814575,0.06501105427742004,0.246327742934227,-0.6572124361991882,0.152572363615036,0.04026475548744202,-0.48912513256073
3,-0.20514893915605764,0.18849795379460263,1.20206750222391,-0.20010456442832947,-0.18738366663455963,-0.9616888761520386,0.041490498930215836,-0.07864494621753693,-0.42472004890441895,0.05658040940761566,0.07913781702518463,0.031894564628601074
4,-0.16611961617190316,0.20077006816244422,1.1314146691591924,-0.16203516721725464,-0.19942398369312286,-0.9664236307144165,-0.15149915218353271,-0.13577808439731598,-0.6440079212188721,-0.0060251206159591675,0.14025042951107025,0.3647086024284363
5,-0.15165842854494416,0.20754540794479834,1.1017678343644988,-0.14783555269241333,-0.20605860650539398,-0.9673078656196594,0.4472056031227112,1.245690941810608,-0.0007012044079601765,-0.08130568265914917,0.004993543028831482,0.23067456483840942
6,-0.05828122661325042,0.252812415446203,1.1404005698601989,-0.056396689265966415,-0.25012797117233276,-0.9665688872337341,0.8354846835136414,0.5588410496711731,0.5413422584533691,0.1374208629131317,-0.09024983644485474,-0.21810823678970337
7,0.015474922886396193,0.2927066148524194,1.2050945402870223,0.014816127717494965,-0.28854477405548096,-0.9573517441749573,-0.36196354031562805,1.5090575218200684,0.8054997324943542,0.07806411385536194,-0.17800796031951904,-0.4535674452781677
8,0.11336559559750505,0.25284124074307723,1.276121095124042,0.10952624678611755,-0.25015586614608765,-0.9619906544685364,-0.5060163140296936,2.155344247817993,0.14958176016807556,-0.0055833905935287476,-0.13534215092658997,0.05909764766693115
9,0.2120237874244938,0.20637435703198495,1.305472546442305,0.20597334206104279,-0.20491254329681396,-0.9568625092506409,-0.11900342255830765,0.21961107850074768,0.8214863538742065,-0.02363082766532898,0.08659589290618896,0.32343965768814087
10,0.18350569114595075,0.2093858365511746,1.369938718929885,0.1784919798374176,-0.20785918831825256,-0.9617354869842529,-0.15915074944496155,-0.840641975402832,0.6067579984664917,-0.3936866819858551,0.21208587288856506,0.29459071159362793
11,0.13938864347173074,0.2114012039583973,1.32388694802819,0.1358446627855301,-0.2098301202058792,-0.9682549238204956,-0.050400689244270325,-0.44126954674720764,-1.0472900867462158,0.03633551299571991,0.018393337726593018,-0.3777076005935669
12,0.15509677092135268,0.1609651380127692,1.1519347122287529,0.15247881412506104,-0.16027094423770905,-0.9752247929573059,0.15658704936504364,0.16254347562789917,-3.065194845199585,-0.08221209049224854,0.30931881070137024,-0.6048227548599243
13,0.24886246436179413,0.17018470577877892,0.7602179587030128,0.24274343252182007,-0.16936439275741577,-0.9551917910575867,1.7547394037246704,1.109981894493103,-4.223080635070801,0.07085521519184113,0.23635047674179077,0.21155470609664917
14,0.43963655712908917,0.21762413608994302,0.22365509917855286,0.41557180881500244,-0.215910404920578,-0.8835625648498535,2.4731075763702393,0.132232204079628,-3.258195161819458,0.24582040309906006,-0.055940181016922,0.567751407623291
15,0.45649122734810826,0.32698631890928603,-0.011689622628425222,0.4174453020095825,-0.3211904764175415,-0.8500447869300842,1.871664047241211,-0.807026207447052,-0.844025731086731,-0.16390526294708252,-0.047492384910583496,0.12236839532852173
16,0.541135870424674,0.4213001535993676,-0.04751877863077584,0.47006767988204956,-0.40894725918769836,-0.7821754813194275,0.660516619682312,1.9668813943862915,0.8370285630226135,0.23981693387031555,-0.24785202741622925,-0.5235495567321777
17,0.486689339250742,0.42457429958961607,0.010301997955385613,0.42617687582969666,-0.41193291544914246,-0.8054095506668091,0.48279041051864624,-1.1170467138290405,-1.2085868120193481,0.27269092202186584,-0.14438727498054504,0.06824219226837158
18,0.5859407692730902,0.3897869469468107,-0.018082778314953613,0.5115042328834534,-0.379991352558136,-0.7706944942474365,0.752304196357727,2.0709893703460693,-1.4250903129577637,-0.09037691354751587,0.4855822026729584,0.3787420392036438
19,1.0019995703267601,0.44634090289438844,-0.4717175526807087,0.760007381439209,-0.4316678047180176,-0.4858516454696655,3.9206154346466064,1.9045910835266113,-2.5427868366241455,-0.3292365074157715,0.4266171455383301,0.5839961767196655
20,1.3566936344401954,0.23947636806567743,-0.685950202038648,0.9492812156677246,-0.2371939718723297,-0.20640724897384644,-0.19233012199401855,3.4913034439086914,-3.178574323654175,-0.34416353702545166,0.6119346022605896,0.2597214877605438
21,1.6966675988322317,-0.10464038617833925,-0.591352531954584,0.9866623282432556,0.10444952547550201,0.1248525083065033,-2.0559234619140625,4.119596004486084,-3.8855655193328857,1.0804002285003662,0.4439818859100342,-0.5451862812042236
22,1.880889322375251,-0.41487142342928873,-0.38535823299587946,0.8715194463729858,0.4030722677707672,0.2792609930038452,-0.997433602809906,0.5196214318275452,-3.324432373046875,1.8546617031097412,-0.2934989035129547,-0.5947669744491577
23,1.830558219040815,-0.42439063792775494,-0.5373218780994236,0.8807171583175659,0.41176554560661316,0.2340652048587799,3.474233865737915,-1.5279558897018433,3.495741844177246,0.9353839159011841,-0.40482279658317566,-0.590312123298645
24,1.5586591440555173,-0.07405016208980991,-1.0053840672951737,0.9971859455108643,0.07398250699043274,-0.012103622779250145,4.853857517242432,-0.4051394462585449,4.459512233734131,-0.08872354030609131,0.21321842074394226,0.1996493935585022
25,1.6428238811825304,0.31530630577397456,-1.471091115953403,0.948236346244812,-0.31010767817497253,0.0684175044298172,3.546365737915039,0.6106634140014648,3.287949323654175,-0.2930087447166443,0.7974886894226074,0.04439067095518112
26,1.7772376802964431,0.4596071062498622,-1.6855567495008337,0.8771968483924866,-0.4435960054397583,0.18370689451694489,-0.3272968828678131,1.399951696395874,-0.12799832224845886,0.11236608028411865,0.9594193696975708,0.1954587697982788
27,1.7948064550431433,0.3530444798653052,-1.3891315997817708,0.9148798584938049,-0.3457561135292053,0.2084406316280365,-3.217513084411621,0.47735196352005005,-4.256188869476318,0.4458378553390503,1.0728678703308105,-0.27017760276794434
28,1.8281152668921712,-0.12826168119445006,-1.1398409837723216,0.9591318964958191,0.1279103010892868,0.25239822268486023,1.1073304414749146,1.329008936882019,-5.045039653778076,0.8005726337432861,0.1726725548505783,-0.07701376080513
29,1.8569943291231967,-0.44849556544963615,-1.160641219464449,0.8644475936889648,0.43361037969589233,0.25438693165779114,-0.24854569137096405,-0.6031411290168762,-1.7712584733963013,-0.03755843639373779,-0.5672315359115601,-0.24683377146720886
30,1.7705244733261616,-0.5335591495150732,-0.9427973459773448,0.8438860774040222,0.5086010098457336,0.17082534730434418,-2.724074602127075,-3.4562244415283203,-1.0906497240066528,-0.0002428889274597168,-0.42705804109573364,-0.40614640712738037
31,1.4748702281604273,-0.5339961241109844,-0.37311183743268783,0.8568227291107178,0.5089771747589111,-0.0824446976184845,-5.25101900100708,-5.3506975173950195,1.321396827697754,0.4827311038970947,-0.9202167987823486,-0.2940964698791504
32,1.1462203013381096,-0.34339367150428085,-0.055921849361514994,0.8580145239830017,0.33668455481529236,-0.3878847062587738,-0.8569526672363281,-4.576732158660889,2.2713654041290283,0.4292778968811035,-0.5056146383285522,-0.7047513723373413
33,0.8061275949564323,-0.07291342660905117,-0.06201723047832132,0.7196943759918213,0.072848841547966,-0.6904585361480713,3.3748981952667236,-3.2104971408843994,1.4225170612335205,0.4082658290863037,0.3969845175743103,-0.8990647792816162
34,0.4819697726103405,0.19894152525056663,-0.2635511684109796,0.4543830156326294,-0.1976318508386612,-0.8686067461967468,2.9704301357269287,-4.058811187744141,-0.20845605432987213,0.08419117331504822,0.5917510986328125,-0.3853757381439209
35,0.025972080988870015,0.3518491490014194,-0.3460372078486178,0.0243782140314579,-0.3446342647075653,-0.9384204149246216,0.6917447447776794,-3.8429336547851562,-0.5016107559204102,0.3476615846157074,0.6927025318145752,0.40344732999801636
36,-0.14119786121009326,0.5432911752307928,-0.36433559057643555,-0.12046583741903305,-0.516956090927124,-0.8474929928779602,2.7596869468688965,-0.3922010660171509,-0.4433925747871399,0.5591102242469788,0.3353612422943115,0.3911941647529602
37,-0.12258191914001097,0.6910182337181412,-0.25883177742668506,-0.09422492980957031,-0.637322187423706,-0.764815092086792,-0.3763359487056732,-0.19675400853157043,1.1605706214904785,0.3968982696533203,0.029991865158081055,-0.251267671585083
38,-0.07545715825881505,0.663165618107451,-0.30088607146556673,-0.05940740182995796,-0.6156145930290222,-0.7858049273490906,-2.1593661308288574,-1.3766924142837524,-1.5690875053405762,0.19804875552654266,0.2817980647087097,-0.5482252240180969
39,-0.15901464108163646,0.46568773008250014,-0.40748023950768475,-0.1414836198091507,-0.4490374028682709,-0.8822401762008667,-2.0452566146850586,-1.8498255014419556,1.4929745197296143,0.10678516328334808,0.04847896099090576,0.389976441860199
40,-0.24831793136320468,0.46270225593642755,-0.3015150072391984,-0.21993060410022736,-0.44636785984039307,-0.8674020171165466,0.18383777141571045,-0.18602913618087769,0.7438794374465942,0.18613240122795105,-0.16167962551116943,0.26422208547592163
41,-0.3048007288201242,0.3498661691814529,-0.2946889832010416,-0.28192242980003357,-0.34277209639549255,-0.8961177468299866,-1.2261991500854492,-1.6021535396575928,-0.35572969913482666,-0.32490435242652893,-0.052873075008392334,-0.20382732152938843
42,-0.7349470900340921,0.38808045661945195,-0.3540724308032856,-0.620684027671814,-0.37841230630874634,-0.6866989135742188,2.2390658855438232,-6.231147289276123,-0.36316388845443726,-0.16264110803604126,-0.2812556326389313,-0.20333093404769897
43,-1.2865317559225622,0.501094969232108,-0.2257134620939974,-0.8418592214584351,-0.4803861677646637,-0.24597208201885223,0.47264695167541504,-1.7369461059570312,0.5460944771766663,-0.12928640842437744,0.21280807256698608,-0.14295923709869385
44,-1.501230763008774,0.5672429618834367,-0.17766382837138628,-0.8413455486297607,-0.5373088717460632,-0.05862327665090561,1.1361817121505737,-2.3481335639953613,-0.9082415699958801,0.2223728895187378,0.09776419401168823,0.05387783423066139
45,-1.6141996988081058,0.5884062403210901,-0.20825194332514188,-0.8310427665710449,-0.5550360083580017,0.03609272465109825,-1.1593879461288452,-0.95606929063797,0.19343946874141693,0.4855839014053345,0.32784801721572876,-0.26164817810058594
46,-1.5748099282764227,0.583889499844853,-0.30699060228610675,-0.8343181014060974,-0.5512732267379761,0.0033486383035779,-1.2816897630691528,0.4290536046028137,0.47575312852859497,0.2048930525779724,-0.2535210847854614,-0.17584919929504395
47,-1.5165981466823688,0.44247067219253905,-0.3675207232562185,-0.9023696780204773,-0.4281735122203827,-0.048954736441373825,0.8090327382087708,-0.5456926226615906,2.021453857421875,-0.2612503170967102,-0.10377839207649231,-0.36240696907043457
48,-1.5330620628858138,0.258860868320915,-0.29874360955025003,-0.9659942388534546,-0.2559795379638672,-0.03646839037537575,0.4229126274585724,0.36137649416923523,1.9644664525985718,-0.16578078269958496,0.1936626136302948,-0.29678356647491455
49,-1.3966667183071437,0.18332149044533233,-0.32815406647666634,-0.9683747291564941,-0.18229641020298004,-0.1703479140996933,-0.8941231966018677,1.9175909757614136,-0.2040463387966156,0.3601594567298889,0.5973354578018188,-0.2409374713897705
50,-1.1894103530860975,-0.02773581716829605,-0.3666414479907252,-0.9277926683425903,0.027732260525226593,-0.3720640540122986,-0.7187610864639282,1.4869396686553955,3.151215076446533,0.34977447986602783,0.3937612771987915,0.061562955379486084
51,-0.9241221923864423,-0.3486946571096142,-0.26312175659326104,-0.7500625848770142,0.34167131781578064,-0.5662745237350464,-0.14285148680210114,2.9053380489349365,3.270815372467041,-0.34989774227142334,0.39064374566078186,-0.2189427614212036
52,-0.7126353681336419,-0.5613303905625465,-0.14931359423404214,-0.5534983277320862,0.5323129296302795,-0.6405330896377563,-0.5932276248931885,-0.3780609667301178,1.8493587970733643,-1.372267723083496,-0.17859888076782227,-0.11166417598724365
53,-0.8128455597954929,-0.6521227616009336,-0.2504682465001531,-0.5772186517715454,0.606874942779541,-0.5463712811470032,-2.576042652130127,-0.27959924936294556,-3.112520933151245,-1.0521149635314941,-0.6071495413780212,0.0060575008392333984
54,-1.059889507736138,-0.3452534347126474,-0.6696057513566507,-0.8208267688751221,0.33843517303466797,-0.46011433005332947,-0.5382017493247986,-0.08719398826360703,-4.585997581481934,-0.31871497631073,-0.07865425944328308,0.00859147310256958
55,-1.1267471618073435,-0.006770627574749344,-0.9314397806330206,-0.9029988050460815,0.006770575884729624,-0.42958956956863403,-0.5311347246170044,-0.04977639764547348,-4.248170852661133,0.2633656859397888,0.4819989502429962,0.04232153296470642
56,-1.0386348485021404,0.2800794747633512,-1.1714611175422043,-0.8281344175338745,-0.2764320373535156,-0.4876255691051483,-0.44715315103530884,1.4661650657653809,-2.8500261306762695,0.08820521831512451,0.9433937072753906,-0.1253046691417694
57,-0.8839572094218714,0.34924128719638486,-1.1928712062674676,-0.7265748381614685,-0.34218499064445496,-0.5958174467086792,0.9585546255111694,0.5877003073692322,1.46950364112854,-0.242129385471344,1.0029821395874023,-0.3044663667678833
58,-0.9681227905971758,0.15916558372813294,-0.8246856732474787,-0.8134099245071411,-0.15849439799785614,-0.5596820116043091,1.1257346868515015,1.0319846868515015,4.380498886108398,-0.016057908535003662,0.9470838904380798,-0.17650878429412842
59,-0.8787368746380392,-0.21982703378372873,-0.6625574346832684,-0.7514051795005798,0.21806082129478455,-0.6227678656578064,-2.07612681388855,0.46064144372940063,3.766422748565674,-0.002989351749420166,0.08590951561927795,0.08892381191253662
60,-0.7960971548503645,-0.5453594695148354,-0.5406890168477538,-0.610967755317688,0.5187254548072815,-0.5980321764945984,-0.6346874833106995,0.46228522062301636,3.0551071166992188,-0.1252078413963318,-0.2435179352760315,0.11899775266647339
61,-0.5323142624510694,-0.7328749327573755,-0.2398369382656804,-0.37722280621528625,0.6690092086791992,-0.6404135823249817,0.28276199102401733,1.0791958570480347,2.8034141063690186,-0.7698871493339539,-0.152712881565094,0.050569891929626465
62,-0.27923150686274933,-0.9024645167134132,0.041041396068595665,-0.17079369723796844,0.7848564982414246,-0.5956760048866272,-1.3222172260284424,-0.4992664158344269,0.169663205742836,-1.675962209701538,-0.7171074748039246,-0.4295772910118103
63,-0.7202269681083426,-0.8680450795805216,-0.4597936854113432,-0.42628347873687744,0.7630668878555298,-0.48580998182296753,0.0020976155065000057,0.8959935903549194,-5.141849040985107,-0.7548230886459351,-0.2928367853164673,-0.5525506138801575
64,-0.8643016801446572,-0.35840980161618485,-0.8324112620724846,-0.7123077511787415,0.3507855236530304,-0.6079203486442566,1.4148736000061035,0.15485042333602905,-5.382756233215332,-0.40191954374313354,0.3480059504508972,-0.10950207710266113
65,-0.8839888308242968,0.14824270895207153,-1.0542353169908296,-0.7647930383682251,-0.14770033955574036,-0.6271173357963562,1.3996502161026,0.4931258261203766,-5.2913408279418945,-0.06630736589431763,0.8792829513549805,0.1631433367729187
66,-0.6966509630853315,0.5050644253789357,-1.2916798036891186,-0.5615379810333252,-0.48386383056640625,-0.6712309122085571,0.28176331520080566,1.4377073049545288,-2.205340623855591,-0.2558143138885498,1.0301742553710938,0.10976850986480713
67,-0.6229313590099672,0.5273084495493922,-1.295494094939244,-0.5041695237159729,-0.5032092332839966,-0.7018500566482544,-0.23492754995822906,-0.5262911915779114,2.004089593887329,-0.1973380446434021,1.054036259651184,0.0880042314529419
68,-0.7751176468310487,0.26115978328462713,-1.015640250247142,-0.6760706901550293,-0.2582011818885803,-0.690116286277771,-0.5304970741271973,0.6259225010871887,4.814177989959717,-0.09518474340438843,0.7541576623916626,-0.21315819025039673
69,-0.7777048467684344,-0.16923738070978706,-0.7106132261258306,-0.6916218400001526,0.16843067109584808,-0.7023463249206543,-1.7921876907348633,-0.4341578185558319,5.034304618835449,-0.19999492168426514,0.11831249296665192,-0.1001744270324707
70,-0.7109157164952835,-0.5934891985124195,-0.5433612918599152,-0.5409420132637024,0.5592569708824158,-0.6281826496124268,-1.7632964849472046,0.6514924764633179,2.541285514831543,-0.3222629427909851,-0.422568678855896,-0.004599332809448242
71,-0.5131812664697903,-0.7551064853963346,-0.36883396779083705,-0.357509970664978,0.6853662133216858,-0.6343972086906433,0.15055587887763977,0.18693570792675018,2.0670363903045654,-0.766513466835022,-0.4679742455482483,-0.08745032548904419
72,-0.42498132640333497,-0.7990299845659092,-0.14408352148871278,-0.28754159808158875,0.7166799306869507,-0.6353658437728882,0.18722927570343018,-1.314774751663208,0.5375698208808899,-1.0679728984832764,-0.6475728750228882,-0.3616586923599243
73,-0.7213954886566205,-0.7678402749597466,-0.4142770261478689,-0.475123792886734,0.6945831179618835,-0.540195882320404,-0.24765445291996002,0.06442142277956009,-4.002993106842041,-0.6594738960266113,-0.3020050525665283,-0.39532041549682617
74,-0.8279036075977224,-0.3311193040630446,-0.7057015368611531,-0.6965067386627197,0.32510173320770264,-0.6396774053573608,1.6117409467697144,0.5575491189956665,-5.0107831954956055,-0.4053609371185303,0.28915607929229736,-0.12266695499420166
75,-0.8833858888351792,0.07166790566586899,-0.9546245777156714,-0.7709077000617981,-0.07160656899213791,-0.6329089403152466,0.5711347460746765,-0.008600023575127125,-4.192700386047363,0.12483537197113037,0.597470223903656,0.17381781339645386
76,-0.8001584780829555,0.38860573121150943,-1.1266341474575234,-0.6639708876609802,-0.3788984715938568,-0.6446537971496582,1.4176464080810547,0.9599926471710205,-2.3228511810302734,-0.0624237060546875,0.9664686918258667,0.05737358331680298
77,-0.754019558923571,0.43946491694860385,-1.0431488198262,-0.619525671005249,-0.4254552721977234,-0.6596785187721252,-0.16427648067474365,-0.26495790481567383,2.285257339477539,-0.3463099002838135,0.9584753513336182,-0.10278791189193726
78,-0.8917032823705194,0.15449629360400646,-0.7873661969753377,-0.7688743472099304,-0.15388241410255432,-0.6206064820289612,-0.4291013777256012,0.16130684316158295,4.356545925140381,-0.2545478343963623,0.7001165747642517,-0.17414748668670654
79,-0.917689250157712,-0.22190837262996688,-0.6736884676975201,-0.7747251987457275,0.22009159624576569,-0.5927567481994629,-1.9188424348831177,-0.7161705493927002,3.4633371829986572,0.03446030616760254,-0.09959295392036438,0.05699014663696289
80,-0.9293619830204342,-0.5736344090648837,-0.5628445013777033,-0.6729874610900879,0.5426883101463318,-0.5025706887245178,-0.7453128695487976,-0.6502143740653992,2.9196038246154785,-0.0002913475036621094,-0.4115084409713745,0.11183887720108032
81,-0.774592738082673,-0.6709138168592794,-0.3600307897816216,-0.547827422618866,0.6217020153999329,-0.5597962141036987,1.680996298789978,0.6900792121887207,1.747243046760559,-0.517693817615509,-0.29231053590774536,-0.057543814182281494
82,-0.5482045126117382,-0.7157969732666434,-0.04846903642728621,-0.39324870705604553,0.6562190055847168,-0.6439969539642334,0.609099268913269,0.18274766206741333,1.5284875631332397,-1.0707405805587769,-0.3993372917175293,-0.0866091251373291
83,-0.691085147824234,-0.7461785533348082,-0.20750667622512056,-0.4680160880088806,0.6788376569747925,-0.565809428691864,-1.9794330596923828,-0.15334726870059967,-3.3159210681915283,-0.7040724754333496,-0.6763352751731873,-0.3711259365081787
84,-0.852423909282015,-0.4203925278227362,-0.6104447965142163,-0.6873239874839783,0.4081188440322876,-0.6008533835411072,1.3180381059646606,1.1827741861343384,-5.145133972167969,-0.33139854669570923,-0.0457988977432251,-0.09212452173233032
85,-0.8829553788551618,0.016816997481492745,-0.8010618214478253,-0.7725092768669128,-0.01681620441377163,-0.634780764579773,1.430290937423706,-0.5778658390045166,-4.076566219329834,0.14978283643722534,0.3971567749977112,0.12554919719696045
86,-0.8318960566666299,0.33259811037437786,-0.955348787723933,-0.698698878288269,-0.3264998495578766,-0.6365670561790466,0.09950502216815948,1.10982084274292,-2.2844791412353516,0.08230489492416382,0.696830689907074,0.18881314992904663
87,-0.6250600716582939,0.4011192037006291,-1.031478847565055,-0.5386998057365417,-0.3904489576816559,-0.7465602159500122,-0.11586764454841614,1.399741768836975,0.2895772457122803,-0.6643183827400208,0.8153451681137085,-0.1567295789718628
88,-0.6567216770620172,0.3889550383993945,-0.8866318187569223,-0.5649211406707764,-0.37922170758247375,-0.732840359210968,-0.47086799144744873,0.06496293842792511,2.9104888439178467,-0.22359198331832886,0.7922313809394836,-0.10457724332809448
89,-0.7645189945933112,0.014263980023597377,-0.7883441226529031,-0.6921194791793823,-0.014263496734201908,-0.7216419577598572,-2.0426201820373535,-1.4469285011291504,3.0207676887512207,0.0361594557762146,0.10396991670131683,-0.16742658615112305
90,-0.8541423269722134,-0.31193263298246604,-0.6697965760352947,-0.7176210880279541,0.3068985641002655,-0.6251665949821472,-1.0678447484970093,-0.3950077295303345,2.333462715148926,-0.09915131330490112,-0.7041306495666504,-0.006028473377227783
91,-0.8453345099177558,-0.40052351049811125,-0.626221581503751,-0.6889788508415222,0.38990047574043274,-0.6109711527824402,0.23242273926734924,-0.2083437591791153,0.5223023891448975,-0.07895016670227051,-1.0324785709381104,0.03449416160583496
92,-0.9179715733879518,-0.3554620237061791,-0.6131974556749318,-0.7447116374969482,0.34802353382110596,-0.5694595575332642,0.3048987090587616,-1.3579916954040527,-2.024226427078247,-0.19855618476867676,-1.362946629524231,-0.17317044734954834
93,-1.0219443475421583,-0.040219156812588766,-0.8161255152914317,-0.8524340987205505,0.04020831361413002,-0.5212862491607666,-0.21779502928256989,0.7670724391937256,-5.083481788635254,-1.3752574920654297,-0.5790572166442871,-0.5998075008392334
94,-0.8401655058996538,0.4781283656687357,-1.1576577542339006,-0.6612351536750793,-0.46011823415756226,-0.5925025939941406,0.337752103805542,-0.6369372606277466,-5.4174370765686035,-1.8595777750015259,0.31993576884269714,-0.3028984069824219
95,-0.7710832869265561,0.8755365810430207,-1.483232581266897,-0.4464316666126251,-0.7678873538970947,-0.45939943194389343,2.350834369659424,-1.6804956197738647,-3.5385923385620117,-0.2684120833873749,1.1442453861236572,0.3422577381134033
96,-0.5910370664070523,1.2097208204452947,-1.7281372956700234,-0.19685590267181396,-0.935517430305481,-0.29335126280784607,0.4753302335739136,1.7309322357177734,-3.26651668548584,0.32469403743743896,1.8783122301101685,0.11544901132583618
97,-0.049329487489483716,1.3251662262670914,-1.9906964167007328,-0.011990461498498917,-0.9699842929840088,-0.24287164211273193,0.3556886315345764,2.4919261932373047,2.304692268371582,-0.22008046507835388,-0.22493141889572144,-0.9631830453872681
98,-0.739108734265723,1.1652853736518396,-1.1399548009471796,-0.2657390534877777,-0.9189009666442871,-0.2915542721748352,-1.9079945087432861,1.484920859336853,2.038759231567383,-0.06621590256690979,-0.1487107276916504,-0.041377246379852295
99,-0.7748635812564849,0.8978072726869196,-1.007213977752183,-0.4360904395580292,-0.781961977481842,-0.4453766644001007,-0.157201886177063,0.0007579680532217026,2.900200843811035,0.42751502990722656,0.2401835322380066,0.439380019903183
100,-0.9791827801099315,0.7826073051485501,-0.7388169974735571,-0.5885639786720276,-0.7051305770874023,-0.39545324444770813,0.6294467449188232,-0.33905360102653503,1.0892984867095947,0.4340229630470276,-0.3778619170188904,0.9799717664718628
101,-0.8138666667746821,0.9346846287583601,-1.0770670367334627,-0.43185946345329285,-0.804411768913269,-0.40794503688812256,-0.4533735513687134,-1.0693786144256592,-4.842230796813965,-1.2855019569396973,-1.6178141832351685,-0.25849783420562744
102,-0.7005602276256949,1.3113472494044291,-1.3823611666189337,-0.16538263857364655,-0.9665314555168152,-0.1961260885000229,3.3691213130950928,-1.800769329071045,-2.0079522132873535,-0.6957471370697021,1.0161378383636475,-0.6421459913253784
103,-0.9952192511719405,1.4734572199526896,-1.1794584709430076,-0.08152689784765244,-0.995266318321228,-0.05289996787905693,-0.9001054167747498,0.023835498839616776,0.682778000831604,0.7608329057693481,1.6148189306259155,-0.43391644954681396
104,-1.0386300953193963,1.2386216784198234,-1.0499038282191768,-0.28100329637527466,-0.9453354477882385,-0.16546334326267242,-2.053558111190796,1.222780704498291,2.573057174682617,-0.36392468214035034,-0.42272186279296875,0.06271064281463623
105,-1.0488224567789886,1.0482626919630071,-0.9997896961165778,-0.4326184391975403,-0.8665574789047241,-0.2488359659910202,0.9595481157302856,-0.18918436765670776,0.07764056324958801,-0.6271806955337524,-1.7910199165344238,-0.21475659310817719
106,-0.9770126449932821,1.1816662236608642,-1.0880423337439273,-0.31444457173347473,-0.9252394437789917,-0.21226567029953003,-0.27190691232681274,0.14309652149677277,-1.1021461486816406,-0.2776727080345154,0.6976698637008667,-0.28639155626296997
107,-0.9529164179600271,1.164212068903984,-1.0570649415310147,-0.3223544955253601,-0.9184769988059998,-0.22910159826278687,-0.4402821958065033,0.9373086094856262,1.5558966398239136,0.5386783480644226,1.6883745193481445,0.17465823888778687
108,-0.8386545125409037,0.8657408313811653,-1.0528841057027483,-0.4820028841495514,-0.7615755796432495,-0.43321555852890015,-2.3693106174468994,0.9668233394622803,2.643205404281616,-0.06951075792312622,-0.25156211853027344,-0.09943819046020508
109,-0.8992251083940919,0.6858287862372939,-0.9564475021329666,-0.6058393120765686,-0.6333146095275879,-0.4815300405025482,0.7483281493186951,-0.687537431716919,0.6192148923873901,-0.09337937831878662,-1.5066542625427246,0.019875407218933105
110,-0.8359053491725781,0.8539655093549299,-1.1646398738083716,-0.4874298870563507,-0.75389164686203,-0.440521776676178,-1.1150803565979004,-0.7480558753013611,-4.146626949310303,-0.9444701075553894,-0.9851372241973877,-0.05009409785270691
111,-0.5529180811535158,1.1151784081336713,-1.6401592950358552,-0.2310851514339447,-0.8979893326759338,-0.3744529187679291,2.0017142295837402,-1.362721562385559,-2.448411464691162,-0.5332123041152954,0.43450355529785156,-0.1890389323234558
112,-0.629928299736575,1.37840022982859,-1.7130629674772373,-0.11264003068208694,-0.9815489053726196,-0.15451203286647797,1.3393490314483643,-1.3612242937088013,-1.1303601264953613,0.03889429569244385,1.5058714151382446,-0.04003751277923584
113,-0.4864706270062354,1.3528686465297188,-1.8806511229806309,-0.10107831656932831,-0.9763475656509399,-0.19112376868724823,-1.0317901372909546,0.81239253282547,1.2929725646972656,0.3938029408454895,1.072188138961792,-0.1415483057498932
114,-0.7460554499729798,1.0497297626057103,-1.4293302132988006,-0.3378840684890747,-0.8672887086868286,-0.36557433009147644,-1.7377371788024902,1.7608063220977783,3.6093077659606934,-0.6822117567062378,-0.6351679563522339,-0.6093554496765137
115,-0.8907829979831349,0.6900295100873822,-1.0686027723362466,-0.5996788740158081,-0.6365599632263184,-0.48495036363601685,0.32411688566207886,0.8590063452720642,3.6100566387176514,-0.4166480302810669,-0.6259522438049316,-0.09831690788269043
116,-0.9325286174765353,0.4862304852060034,-0.9427404130874921,-0.7100468873977661,-0.4672966003417969,-0.5267516374588013,-0.6770023703575134,0.24451367557048798,0.5079360604286194,0.2399388551712036,-0.1429024040699005,0.38475334644317627
117,-0.9362969192201808,0.4642358821646458,-0.9718035218345521,-0.720131516456604,-0.44773969054222107,-0.530037522315979,0.44630059599876404,-0.4804694950580597,0.022243648767471313,0.4438254237174988,-0.21118059754371643,0.405861496925354
118,-0.965191809900219,0.5753556156267796,-1.0060720674077916,-0.6897897124290466,-0.544133186340332,-0.477607786655426,0.8210505843162537,-0.6050461530685425,-2.25495982170105,-0.1954793930053711,-0.7461041808128357,0.2982254922389984
119,-1.057837795266795,0.8684732747568024,-1.0133581786094739,-0.562851071357727,-0.7633435726165771,-0.3170255124568939,2.023159980773926,-0.4909437894821167,-3.3795275688171387,-0.9948728680610657,-0.7611009478569031,-0.01671472191810608
120,-0.9012650474708036,1.2656560701776962,-1.3269581229605572,-0.23556849360466003,-0.9538048505783081,-0.18645046651363373,-0.24107567965984344,-1.7063376903533936,-3.4348151683807373,-0.45454075932502747,0.3622826337814331,-0.5829281806945801
121,-0.8506254019143602,1.4129792987501322,-1.5108729323732462,-0.11813794076442719,-0.9875727295875549,-0.10365072637796402,0.7065477967262268,-1.4862644672393799,0.7920634150505066,0.19742262363433838,1.3098535537719727,-0.1606009602546692
122,-0.994278486419071,1.2797717103957218,-1.4291279330429085,-0.24055542051792145,-0.9579503536224365,-0.1564098298549652,-1.8394814729690552,0.34340667724609375,0.9982921481132507,0.23925845324993134,1.0508002042770386,-0.08673898875713348
123,-0.7530487911434833,0.9686116765529289,-1.5607268487113364,-0.3873721957206726,-0.8241000771522522,-0.4132818877696991,-2.6054205894470215,0.92266446352005,2.861940383911133,-0.6702602505683899,-0.403683066368103,-0.5343194603919983
124,-0.7254068560138924,0.712052641834986,-1.3866796545344366,-0.5022388100624084,-0.653389036655426,-0.5664264559745789,-0.437946617603302,1.0341811180114746,2.8640620708465576,-0.5645183324813843,-0.9740981459617615,-0.37995415925979614
125,-0.83859543190522,0.5708890739805766,-1.2184611150316165,-0.6257688403129578,-0.5403803586959839,-0.5624966621398926,-0.31300172209739685,-0.4107207655906677,0.6241122484207153,0.30106180906295776,-0.2147008180618286,0.4404568672180176
126,-0.8907767553426605,0.5742268741268649,-1.249431374944885,-0.6528494358062744,-0.543185830116272,-0.5279552936553955,0.9728327989578247,-0.12827005982398987,-0.7478734254837036,0.6684439778327942,-0.1602444052696228,0.3885815143585205
127,-0.9935735813356039,0.7449626371146516,-1.183672129330959,-0.6160112619400024,-0.6779443621635437,-0.4011504054069519,1.3067458868026733,-0.7062789797782898,-1.8299140930175781,0.11109793186187744,-0.22311770915985107,0.34345686435699463
128,-0.8916366004284668,1.0791606025821094,-1.4033487085905332,-0.367316871881485,-0.8815618753433228,-0.2965248227119446,0.8106598854064941,-1.173439383506775,-3.8126533031463623,-0.5802692174911499,-0.44294679164886475,-0.3240501284599304
129,-0.7011269320649575,1.3099295448110633,-1.7087453336051077,-0.16637764871120453,-0.9661667943000793,-0.19707933068275452,0.9544675350189209,-1.0750988721847534,-1.143396258354187,-0.49484673142433167,0.22162944078445435,-0.37916886806488037
130,-0.7651707155138425,1.3268503716824285,-1.6825539631836286,-0.16730071604251862,-0.9703924655914307,-0.17420955002307892,-0.1319267451763153,-0.20652534067630768,1.3226531744003296,0.2046695053577423,0.8163244724273682,0.005126893520355225
131,-1.2674347247553672,1.1930066129682584,-1.1982037002147015,-0.352023720741272,-0.9294822216033936,-0.11019165068864822,0.30914464592933655,-0.19355766475200653,1.8258451223373413,0.366977334022522,0.816490888595581,0.0911487340927124
132,-1.4369961425770283,1.0513883526194152,-1.0307651514919163,-0.4919299781322479,-0.8681132197380066,-0.06621593981981277,-0.4306109845638275,1.4177494049072266,2.5624117851257324,0.49403566122055054,-0.859425961971283,0.7480091452598572
133,-1.3736194718758368,1.0054954409828514,-1.012413274899837,-0.5252906680107117,-0.8444274663925171,-0.10493866354227066,-0.5123163461685181,0.6865203380584717,-1.222772240638733,-0.41906052827835083,-0.6484925746917725,0.17261140048503876
134,-1.0085965140848145,1.1358526902986672,-1.3055904881681673,-0.3565058708190918,-0.906893789768219,-0.22460520267486572,-0.5275329947471619,0.4381910264492035,-1.2131474018096924,-0.2136693298816681,0.35699743032455444,-0.29874077439308167
135,-0.9304815580849457,1.099077141364254,-1.33441282354125,-0.36440175771713257,-0.8907883763313293,-0.2714914083480835,-0.07796549797058105,0.7286563515663147,1.0065181255340576,0.24217882752418518,0.8497878909111023,0.01981291174888611
136,-0.9717651360264744,1.0083385292406466,-1.1978883192806804,-0.44041571021080017,-0.8459470272064209,-0.30067864060401917,-0.5295329093933105,0.8072582483291626,1.4890691041946411,0.33035406470298767,0.4492185711860657,0.21423760056495667
137,-0.9361627076797303,0.8668372698428887,-1.1593060898686331,-0.5212157368659973,-0.7622857093811035,-0.3837376534938812,-0.3875536322593689,-0.033542197197675705,0.6645973324775696,-0.08706057071685791,-1.0388007164001465,0.2655278742313385
138,-0.9982979533658066,0.9753918617678748,-1.1810367287420578,-0.47141724824905396,-0.8279217481613159,-0.3038279414176941,0.34437260031700134,-1.1166552305221558,-2.681903600692749,-0.6481963396072388,-1.141621708869934,0.04241439700126648
139,-0.6887522642093754,1.190101989207929,-1.6642367471791788,-0.23615725338459015,-0.9284068942070007,-0.28686296939849854,0.28220242261886597,-1.0707210302352905,-2.3880128860473633,-0.5142241716384888,0.16449087858200073,-0.3466360867023468
140,-0.9699490516624001,1.3500240614912693,-1.4913258855375506,-0.1806301474571228,-0.9757286310195923,-0.12380053848028183,1.1180731058120728,-1.2357200384140015,-0.16072893142700195,0.2203640341758728,1.7073874473571777,-0.00849314033985138
141,-0.990561929561492,1.302981111890784,-1.4941196710459768,-0.22131524980068207,-0.9643513560295105,-0.14507292211055756,-0.26191970705986023,0.6365148425102234,1.7186275720596313,0.24405083060264587,0.7337452173233032,-0.02663421630859375
142,-1.0384292544062415,1.1021509809289731,-1.4019130656466727,-0.3891696035861969,-0.8921809792518616,-0.22926025092601776,-1.2068889141082764,-0.0843488872051239,0.3529239296913147,-0.4187985360622406,-1.7523045539855957,-0.41553038358688354
143,-0.7713669213184169,1.151212259988523,-1.59543056964305,-0.2839914560317993,-0.91325843334198,-0.29207491874694824,0.7060901522636414,0.9281468987464905,-1.1244131326675415,-0.4855245053768158,-0.40345293283462524,-0.30063745379447937
144,-0.8333131952005869,1.2288847841852857,-1.459845829017779,-0.24816836416721344,-0.9421154856681824,-0.22545720636844635,0.8139761686325073,0.07521899044513702,1.408921241760254,0.06643620133399963,1.0672681331634521,0.06498050689697266
145,-1.1206597651523635,1.130763212082526,-1.116920642317206,-0.383537620306015,-0.9047375321388245,-0.18533438444137573,-0.03593266010284424,0.7504159212112427,1.5374821424484253,0.4139026403427124,0.9232311844825745,0.13131827116012573
146,-1.1264229050315173,0.9523204883869557,-1.0287399572961335,-0.5234845876693726,-0.8147631287574768,-0.24924898147583008,-0.533761739730835,0.2847253084182739,1.8149476051330566,0.05182015895843506,-0.887324333190918,0.20075654983520508
147,-1.1875517967898135,0.9781827249418662,-1.0126829529932657,-0.5180128812789917,-0.8294837474822998,-0.20885229110717773,-0.0864294245839119,-0.7716420888900757,-1.876114010810852,-0.028450071811676025,-1.0994408130645752,0.33992528915405273
148,-0.8755114511974581,1.2048226020099022,-1.5773976284728635,-0.2747895419597626,-0.9337757229804993,-0.22924591600894928,-1.030674695968628,-2.584989547729492,-3.4693803787231445,-0.7361509799957275,-0.23846548795700073,0.24725133180618286
149,-0.9232139174442752,1.3532465066239656,-1.8225473243071086,-0.1721402257680893,-0.9764292240142822,-0.13020628690719604,0.4392918050289154,-2.552246332168579,-0.1694166660308838,-0.1228579431772232,1.0185587406158447,0.043658435344696045
150,-0.7818345705085203,1.2862651749766256,-2.276864323507681,-0.19778171181678772,-0.9597933888435364,-0.19919638335704803,-1.9754098653793335,-2.9542136192321777,-0.06735394895076752,0.04861178994178772,0.4309542179107666,-0.07672828435897827
151,-0.62563748824414,1.2059863262124806,-2.626211569621157,-0.20893053710460663,-0.9341915845870972,-0.28919553756713867,-1.0186288356781006,-0.8827926516532898,0.10776505619287491,-0.10579723119735718,-0.07963281869888306,-0.25934264063835144
152,-0.8090973107305308,1.142573692878809,-2.4246619136068293,-0.3005048930644989,-0.9097052216529846,-0.2865886688232422,0.847884476184845,0.809235692024231,0.4096478223800659,-0.5221421718597412,-0.5269706845283508,-0.22293278574943542
153,-0.9933722229517248,1.1200312184869967,-2.20800362201151,-0.36502212285995483,-0.9001140594482422,-0.23780937492847443,0.6297974586486816,-0.8276732563972473,1.2339882850646973,-0.06336835026741028,0.17304813861846924,-0.12386968731880188
154,-1.0389862690833938,1.0839727638732464,-2.2292890872870026,-0.40321049094200134,-0.8838233351707458,-0.23722931742668152,-0.893481969833374,-0.3005625307559967,-0.4402684271335602,0.31747135519981384,0.47543710470199585,-0.08325105905532837
155,-0.9759806467970598,1.0791155307140938,-2.3230758495431973,-0.39102452993392944,-0.8815405964851379,-0.26454874873161316,-0.5399221777915955,0.20799832046031952,-0.19138863682746887,0.09895604848861694,0.06453925371170044,0.12326765060424805
156,-0.9082089186344087,1.1313822473741453,-2.4294299418432534,-0.33539390563964844,-0.9050011038780212,-0.26169416308403015,-0.029416248202323914,-0.800294816493988,-0.9819011092185974,-0.4195346534252167,-0.7747321128845215,-0.05126360058784485
157,-0.7841955529616755,1.203490814367153,-2.626399783185532,-0.2536177635192871,-0.9332983493804932,-0.25422850251197815,-0.5864980220794678,-0.15341320633888245,-1.3061480522155762,-0.045500248670578,-0.20425957441329956,0.14711180329322815
158,-0.8022518528636152,1.2584290551263677,-2.61681527852605,-0.22093409299850464,-0.9516087174415588,-0.2136097401380539,2.1796364784240723,-0.4884243309497833,0.8312013149261475,0.11070460081100464,0.43088728189468384,0.04847913980484009
159,-1.282940030882153,1.265211475723386,-2.179773147472826,-0.2884725034236908,-0.9536711573600769,-0.08541084080934525,-0.7570206522941589,-0.13215014338493347,-0.1848563849925995,0.4035084843635559,1.0726592540740967,0.06394171714782715
160,-0.7738416184421092,1.1810712294990666,-2.585146421533128,-0.2655314803123474,-0.925013542175293,-0.27174076437950134,-1.262313961982727,2.0869710445404053,0.8234532475471497,-0.2745075821876526,-0.36594104766845703,-0.40954887866973877
161,-0.9042966571994319,1.0583769532979477,-2.1830407958600473,-0.3853611648082733,-0.8715608716011047,-0.30311450362205505,1.2483935356140137,2.7870101928710938,1.7399697303771973,-0.4923091232776642,-0.8190671801567078,-0.37539803981781006
162,-0.8067279883818682,1.068761326035739,-1.9946645109995886,-0.347447007894516,-0.8766050934791565,-0.3329324424266815,0.6661691665649414,2.593743085861206,0.3693709671497345,-0.06444871425628662,0.15896904468536377,0.06968781352043152
163,-0.7884616053813681,1.0792397334900488,-1.7290782654383885,-0.334774374961853,-0.8815991878509521,-0.3327295184135437,1.2805650234222412,2.156879186630249,1.4418669939041138,0.16576802730560303,0.7185132503509521,0.2311670184135437
164,-0.967442538537444,1.0632608204746445,-1.2997383669975986,-0.400210976600647,-0.8739449381828308,-0.2757740318775177,1.131695032119751,1.8749486207962036,1.7117847204208374,0.3522831201553345,0.4148385524749756,0.3628407120704651
165,-1.1883373358820288,0.9394499251691716,-0.9441183576257557,-0.5475877523422241,-0.8072335720062256,-0.2202763706445694,1.1178816556930542,-0.5175350904464722,1.7000073194503784,0.007258772850036621,-0.6430838108062744,0.3984532356262207
166,-1.302897602423018,0.9275078877971864,-0.9643825898632225,-0.5784335732460022,-0.8001275658607483,-0.15877839922904968,-1.1890887022018433,-1.5709662437438965,-1.6426693201065063,-0.8808254599571228,-0.8823065161705017,-0.16611170768737793
167,-1.070157631406418,1.1116759273504793,-1.411899665690853,-0.3887736201286316,-0.8964426517486572,-0.21271052956581116,-1.0725023746490479,-1.350454568862915,-2.708167552947998,-0.1326497197151184,0.19855141639709473,-0.09956061840057373
168,-1.0521837544035886,1.2347877601401342,-1.5954650679567546,-0.2863657474517822,-0.944078266620636,-0.1634349524974823,0.630914032459259,-1.5590521097183228,-0.6099234819412231,0.23137307167053223,0.946367084980011,0.06736558675765991
169,-1.045037407475582,1.2737317898555065,-1.7086301476880745,-0.2531813979148865,-0.9561998844146729,-0.14690446853637695,-1.1108065843582153,-0.09654531627893448,0.03654038906097412,0.32189175486564636,0.7571185231208801,0.003548160195350647
170,-0.7746185829958878,1.0813864436072131,-1.896989617838116,-0.32881203293800354,-0.8826104402542114,-0.3359784483909607,-0.7205211520195007,1.3523633480072021,1.958090901374817,-0.40426596999168396,-0.6094855070114136,-0.6107683181762695
171,-0.9313865143089289,0.9311428882049766,-1.5354668080447773,-0.4789952039718628,-0.8023026585578918,-0.3561937212944031,1.3215219974517822,1.847927212715149,1.6904994249343872,-0.3465357720851898,-0.46327656507492065,-0.2866285443305969
172,-0.8994588910135268,0.9088181246541965,-1.367686703626113,-0.4812873303890228,-0.7887778282165527,-0.38235071301460266,1.0219568014144897,1.2870866060256958,0.616921603679657,0.13241034746170044,0.18013525009155273,0.10892844200134277
173,-0.900144529408149,0.9258227601604772,-1.23508390185057,-0.4709725081920624,-0.7991156578063965,-0.3736298382282257,-0.26862508058547974,1.16710364818573,-0.324034184217453,0.2553657293319702,0.44921624660491943,0.4335358440876007
174,-0.743032100472639,0.9088233850852226,-1.2982577157913855,-0.41584184765815735,-0.7887810468673706,-0.45265883207321167,-0.01476872805505991,0.5682696104049683,0.8743138909339905,0.36213093996047974,0.010231852531433105,0.5455543398857117
175,-0.9323293098647585,0.9063914400405473,-1.1260749165973318,-0.49512866139411926,-0.7872838377952576,-0.367466539144516,1.0660127401351929,-1.6565983295440674,0.2672045826911926,-0.39538952708244324,-0.9233484268188477,0.4437147378921509
176,-1.053239239414755,0.9559761269938727,-1.2354642386470331,-0.5012669563293457,-0.8168771862983704,-0.28538259863853455,-1.3395659923553467,-2.314605951309204,-2.0884644985198975,-0.7162318229675293,-0.5487844347953796,0.010892271995544434
177,-0.9450086038436057,1.1000639238354641,-1.6446430306520643,-0.36759448051452637,-0.8912363648414612,-0.26565423607826233,-0.19648225605487823,-2.4929606914520264,-1.7627546787261963,0.10509753227233887,0.6293345093727112,-0.022492706775665283
178,-0.7811501303787765,1.1670217471258726,-2.0356349533916642,-0.27663421630859375,-0.9195845723152161,-0.2789945602416992,-1.570307970046997,-1.3028017282485962,-1.631093144416809,0.19013211131095886,0.792036235332489,0.03468605875968933
179,-0.44315214120484964,1.0429217447065056,-2.4122305606141734,-0.21598047018051147,-0.8638795614242554,-0.4550434350967407,-2.1282923221588135,0.5636837482452393,1.1582911014556885,-0.4212875962257385,0.08467429876327515,-0.12762868404388428
180,-0.6199384715105404,0.7757927575569855,-2.124091299677387,-0.4147455394268036,-0.7002822160720825,-0.5810257196426392,-0.4936489760875702,0.3263293504714966,3.8064255714416504,-0.5366246700286865,-0.1647995114326477,-0.5991652607917786
181,-0.7654542161065834,0.5559632285060374,-1.8219333768422423,-0.5885140299797058,-0.527761697769165,-0.6124695539474487,0.34544748067855835,0.41067031025886536,2.247410535812378,-0.09518653154373169,-0.43656325340270996,-0.15837395191192627
182,-0.8592913160224156,0.5003244847725485,-1.6315681737103298,-0.6645456552505493,-0.47971028089523315,-0.5729373097419739,1.1236823797225952,0.03738170862197876,0.36989346146583557,0.4751230478286743,-0.07979899644851685,0.4487002491950989
183,-0.8416008660318895,0.5801198649310757,-1.6330393063527238,-0.6237100958824158,-0.5481241941452026,-0.5572660565376282,-0.3331570029258728,0.1012072041630745,-1.1269162893295288,0.539100170135498,-0.08174329996109009,0.562484622001648
184,-0.7793031085931198,0.7126031300827871,-1.7438057263650804,-0.5317701697349548,-0.653805673122406,-0.5382923483848572,0.3326317071914673,-0.4252438545227051,-1.8448258638381958,-0.5619187951087952,-0.761416494846344,0.2283252477645874
185,-0.7101924924638213,0.891064921302339,-1.9504170273668417,-0.4098241925239563,-0.777741551399231,-0.47661545872688293,0.014310097321867943,-1.7519830465316772,-1.812888503074646,-1.1572840213775635,-0.8091725707054138,-0.42440080642700195
186,-0.7249900426666473,1.0938614836753229,-2.2015249406262867,-0.304414302110672,-0.8884061574935913,-0.3436077833175659,1.0401086807250977,-2.6350464820861816,-1.8811906576156616,-0.12357944250106812,0.8033843040466309,-0.17892947793006897
187,-0.7512732698043074,1.1995225959451898,-2.4393701501702383,-0.24763831496238708,-0.9318659901618958,-0.2651437520980835,-0.7194041013717651,-2.063328266143799,-1.193179726600647,0.24655494093894958,0.9692347645759583,-0.081551194190979
188,-0.5990412660860699,1.1558751440794302,-2.717607459684735,-0.22729825973510742,-0.9151480793952942,-0.3329254388809204,-1.1047288179397583,0.0460406132042408,0.19231924414634705,0.08882477879524231,0.39677661657333374,0.010369926691055298
189,-0.6656772735715739,0.9696715572756759,-2.6194204198232005,-0.3492918312549591,-0.8246999979019165,-0.4448205232620239,-0.5338007211685181,0.11355207860469818,1.9780088663101196,-0.3509034514427185,-0.571891188621521,-0.4021795988082886
190,-0.7875385402586955,0.8556626197598808,-2.446312302555624,-0.4646541476249695,-0.7550055980682373,-0.46266934275627136,-0.04353616014122963,0.5135442018508911,0.16073116660118103,-0.19762301445007324,-0.38761818408966064,-0.15570831298828125
191,-0.8837620325328079,0.8804386000455946,-2.30067806559166,-0.4923396110534668,-0.7710182666778564,-0.40389689803123474,1.6090848445892334,-0.02014441229403019,0.541419506072998,0.437591016292572,0.2442542314529419,0.28834205865859985
192,-1.0235003808129215,0.9536041731760636,-2.121657706135649,-0.4942128658294678,-0.8155066967010498,-0.3011687994003296,0.3684026002883911,0.06169550493359566,-0.1531665176153183,0.5245015621185303,0.8114477396011353,0.3976653516292572
193,-0.9611499501117672,0.93956961532811,-2.2166264419957598,-0.48382288217544556,-0.8073042035102844,-0.3378983438014984,-0.9447025060653687,-0.761352002620697,-1.1740955114364624,-0.6953915357589722,-0.8898698091506958,-0.3310011923313141
194,-0.9530019195019812,1.025080774987779,-2.343620541288588,-0.4230912923812866,-0.8547561168670654,-0.30064213275909424,0.26032784581184387,-0.8478370904922485,-1.4974511861801147,-0.3847700357437134,-0.7887527942657471,-0.40561091899871826
195,-0.9481959772977403,1.1680335198121474,-2.4073854332341726,-0.3184157907962799,-0.9199815988540649,-0.22857221961021423,0.9396398663520813,-0.34719547629356384,-0.9137828946113586,-0.1627701222896576,0.38319265842437744,-0.040226638317108154
196,-1.2529815409935228,1.2153745713425013,-2.106324013176889,-0.3305588364601135,-0.9374998211860657,-0.1087426096200943,1.0844805240631104,-0.36736035346984863,0.986066997051239,0.2629318833351135,1.141418218612671,0.2283562421798706
197,-1.335641700938074,1.0822719436656638,-2.041608365766415,-0.4564070999622345,-0.8830263614654541,-0.10934929549694061,-1.1700695753097534,0.2194560170173645,2.0402450561523438,0.2978529632091522,0.6950989961624146,-0.10015393793582916
198,-1.16675690388787,0.8851102523112735,-2.120868305818052,-0.5822188854217529,-0.7739847898483276,-0.24893517792224884,-0.13922090828418732,1.2662935256958008,1.3751990795135498,-0.8306229114532471,-1.2586079835891724,-0.6363034844398499
199,-1.0727574616765514,0.8519466111682743,-2.027069928644212,-0.5785232186317444,-0.7525637149810791,-0.3145770728588104,1.187652587890625,2.6452879905700684,-0.2616492211818695,-0.2818741202354431,-0.7490384578704834,-0.3088207244873047
200,-1.0221935645474283,1.0119278282870166,-1.8193116448550046,-0.4524185359477997,-0.8478556275367737,-0.27651116251945496,2.1029903888702393,1.598939061164856,-0.996728777885437,-0.16324305534362793,0.4395456910133362,0.17604726552963257
201,-1.0692938337330153,1.1307231119368462,-1.6143760712793247,-0.37354785203933716,-0.9047204852104187,-0.20479948818683624,1.0811623334884644,0.8258017897605896,0.2599092125892639,0.28873950242996216,0.9877740740776062,0.20907199382781982
202,-1.246826948988323,1.0580659962898633,-1.3525781574095774,-0.4650392532348633,-0.8714083433151245,-0.15616042912006378,-0.1940121352672577,0.9311439990997314,1.8299795389175415,0.4547548294067383,0.744134783744812,0.2519550919532776
203,-1.1412065360853887,0.9545881326212928,-1.4111376534999058,-0.5254310369491577,-0.8160758018493652,-0.24071289598941803,0.5318922400474548,-0.9154121279716492,0.6898810267448425,-0.11888664960861206,-1.3428293466567993,-0.23551395535469055
204,-1.1640381359471366,1.0486621539506706,-1.421027200550582,-0.45803868770599365,-0.866756796836853,-0.1973150074481964,0.009195731952786446,-0.07512985169887543,-2.0878450870513916,-0.6632229089736938,-0.7331424951553345,-0.15111945569515228
205,-1.2056210371077194,1.1871353473456072,-1.4771357690549929,-0.3496360182762146,-0.9273005127906799,-0.13367387652397156,0.7380384802818298,-0.8701363205909729,-0.9456835985183716,-0.1733284890651703,0.3290947675704956,0.06990741193294525
206,-1.5089438931927257,1.2606549231697262,-1.2777827405161222,-0.30460941791534424,-0.952290415763855,-0.018864896148443222,0.43977636098861694,-1.427878737449646,-0.2877424955368042,0.25414860248565674,1.1557512283325195,-0.019388912245631218
207,-1.2923982615408396,1.2495365101300513,-1.5879912376483232,-0.3036045730113983,-0.9488383531570435,-0.0867764800786972,-1.9244400262832642,0.17555709183216095,0.3077864944934845,0.24183699488639832,0.5081950426101685,-0.0950014591217041
208,-1.0826762596748738,1.073266443997067,-1.732785580929412,-0.4215203523635864,-0.8787640929222107,-0.22381709516048431,0.28899630904197693,0.5856239795684814,2.0618162155151367,-0.3374975919723511,-1.0801591873168945,-0.4410083293914795
209,-1.0362817446841865,0.9445501858904928,-1.6576049106989483,-0.50435471534729,-0.8102333545684814,-0.2985767722129822,-0.801654040813446,0.5505927205085754,0.8122727274894714,-0.3033081889152527,-0.3976981043815613,-0.19409897923469543
210,-1.000959712148589,0.9199671615309124,-1.6721440839187618,-0.5101160407066345,-0.7955816984176636,-0.3268507421016693,0.5006121397018433,0.4189921021461487,0.110310398042202,0.22964423894882202,0.5102423429489136,0.0418623685836792
211,-1.1313444025149553,0.902333167438009,-1.491084413008151,-0.5608921647071838,-0.7847750782966614,-0.26368165016174316,0.6507123708724976,-0.10406900197267532,0.7472226023674011,0.45505720376968384,0.7340244054794312,0.27964237332344055
212,-1.0914036794525077,0.8493784532128902,-1.5124982564790304,-0.586000919342041,-0.7508700489997864,-0.3046261966228485,-0.2574276328086853,0.46894168853759766,0.1806931048631668,0.029894351959228516,-0.3800503611564636,0.16734284162521362
213,-1.240640113782056,0.8682709830555706,-1.4218273486956865,-0.6112497448921204,-0.7632128596305847,-0.20947492122650146,0.17460307478904724,-1.131975769996643,-0.306173175573349,-0.11537379026412964,-0.785233736038208,-0.048780083656311035
214,-1.1785072603455111,0.9847834468752161,-1.5472408949083372,-0.5110324025154114,-0.8331523537635803,-0.2114311009645462,-0.7986482977867126,-0.6534391641616821,-2.227264404296875,-0.6941677927970886,-0.5282215476036072,-0.10601276159286499
215,-1.1492054367360087,1.1353406623498141,-1.6874420894632955,-0.38488849997520447,-0.9066779017448425,-0.17261558771133423,0.924187183380127,-1.138548731803894,-0.9453312158584595,0.09933552145957947,0.75755375623703,-0.08289283514022827
216,-1.2514091629204211,1.196247252198546,-1.683247572063086,-0.34735092520713806,-0.9306727051734924,-0.11487221717834473,-1.1954978704452515,-0.3896948993206024,-0.07278997451066971,0.49081408977508545,1.0475854873657227,0.15524697303771973
217,-0.867994763117984,1.0706235804788364,-2.1023745951622304,-0.3659338355064392,-0.8774997591972351,-0.3099784851074219,-2.323488473892212,0.8962544798851013,0.8986073732376099,0.019177883863449097,0.07659643888473511,-0.04378131031990051
218,-0.8332357424978112,0.8852432398183421,-2.006887145257891,-0.46856534481048584,-0.7740690112113953,-0.4257507622241974,0.5932827591896057,1.3580282926559448,2.836242198944092,-0.2869583070278168,-0.6532076001167297,-0.599563479423523
219,-0.924046273686256,0.8047182735309306,-1.68886841729712,-0.5532969236373901,-0.7206353545188904,-0.4177883565425873,1.1281589269638062,0.9550357460975647,0.8030176162719727,-0.3214893937110901,-0.21561336517333984,-0.21033969521522522
220,-0.9132487265702606,0.7844586727856833,-1.6029564393313946,-0.5601959824562073,-0.7064421772956848,-0.43257370591163635,0.11170724034309387,0.5027384161949158,0.4109063148498535,0.4192200303077698,0.41991257667541504,0.26335370540618896
221,-0.9175733629753807,0.7782300342788127,-1.5632330336763351,-0.5655449032783508,-0.7020200490951538,-0.4328128695487976,0.19186420738697052,0.5283389091491699,-0.005623377859592438,0.5483787655830383,0.36269503831863403,0.4169437289237976
222,-0.8359765314977736,0.7866507661167033,-1.6000383239671532,-0.5239813923835754,-0.7079919576644897,-0.4734879732131958,0.25985535979270935,0.5025998950004578,-0.532218337059021,-0.041905999183654785,-0.657471239566803,0.1462022364139557
223,-1.0097012830020293,0.8981903408996691,-1.4242800026095326,-0.5274995565414429,-0.7822007536888123,-0.33152085542678833,1.3993662595748901,-1.3544304370880127,-1.247581958770752,-1.1362881660461426,-0.7349042296409607,-0.23996660113334656
224,-0.8301891504414427,1.072627987637993,-1.7948605296422613,-0.35265734791755676,-0.8784592151641846,-0.32240059971809387,-0.9860749840736389,-1.039560317993164,-2.1061315536499023,0.01830679178237915,0.33919835090637207,-0.25097888708114624
225,-0.9681117234548535,1.1975945128350476,-1.756369797457365,-0.3003626763820648,-0.9311647415161133,-0.20667509734630585,1.4508342742919922,-1.1236379146575928,-0.21295444667339325,0.35067087411880493,1.1075868606567383,0.08716827630996704
226,-0.8895211776115537,1.1843139005357857,-1.8715579384340362,-0.29279017448425293,-0.9262406826019287,-0.23738624155521393,-1.6672108173370361,0.6848993897438049,0.46568572521209717,0.23315882682800293,0.7661759853363037,-0.04194110631942749
227,-0.7369275106475204,0.9528815353089417,-1.947590371240495,-0.3893234431743622,-0.8150882720947266,-0.4290201663970947,-1.9667812585830688,0.8514847755432129,1.8186500072479248,-0.4944656193256378,-0.7032985091209412,-0.5160024166107178
228,-0.719903009508244,0.7424865164991348,-1.8053683509483347,-0.48577404022216797,-0.6761220097541809,-0.5539697408676147,1.3364510536193848,0.32861459255218506,2.2556862831115723,-0.38249680399894714,-0.7759348154067993,-0.451630175113678
229,-0.8738942772108956,0.7215234770871636,-1.5803969220198248,-0.5757394433021545,-0.6605292558670044,-0.48189759254455566,0.21691718697547913,-0.3738653063774109,0.6835359334945679,0.31508880853652954,0.2765723466873169,0.3182012438774109
230,-0.9101425202383444,0.7224748526997016,-1.5904470870679042,-0.5923289656639099,-0.6612432599067688,-0.4603302478790283,-0.1622236669063568,-0.40910881757736206,-0.9482026100158691,0.34690654277801514,0.280902624130249,0.30104368925094604
231,-0.8849520534629767,0.8251512144192032,-1.6573338211409063,-0.5250387787818909,-0.7346503734588623,-0.4296777844429016,0.8539892435073853,-0.04774392396211624,-1.590770959854126,0.08032143115997314,-0.2554008364677429,0.1913202702999115
232,-0.9794945616747663,0.993033977106817,-1.6198453481927713,-0.45342308282852173,-0.8376868367195129,-0.30444759130477905,1.459161639213562,-1.113252878189087,-0.4121664762496948,-0.16733497381210327,-0.5862786173820496,-0.33950382471084595
233,-0.9560338976398454,1.0826130214112715,-1.7166652780668985,-0.3831491768360138,-0.883186399936676,-0.2705153524875641,-0.3117801249027252,-0.3333141803741455,-0.9806012511253357,-0.14916890859603882,0.06432348489761353,-0.016807615756988525
234,-1.0692041626324895,1.1091956688516227,-1.6619600631761733,-0.39051878452301025,-0.8953407406806946,-0.21414943039417267,1.031265139579773,-1.2131978273391724,0.5813863277435303,0.28671327233314514,0.7161873579025269,0.10994715988636017
235,-1.3264100976588735,1.0764718377019844,-1.4783440193886401,-0.4603397846221924,-0.8802893757820129,-0.11479522287845612,0.44384390115737915,-0.49656936526298523,0.5678883790969849,0.3756229877471924,0.6790259480476379,0.007449626922607422
236,-1.1894947450974631,1.0377402090705932,-1.5655034331246809,-0.4716717302799225,-0.8612580895423889,-0.18910391628742218,-0.6355232000350952,0.25576087832450867,0.45054981112480164,-0.6477892994880676,-0.9767546057701111,-0.2613508105278015
237,-1.1899055029084074,0.9934539753621096,-1.4989104718798112,-0.5066837668418884,-0.8379161357879639,-0.2028994858264923,0.18258897960186005,1.3531748056411743,-0.7276703119277954,-0.45312464237213135,-0.6106618046760559,-0.12083104252815247
238,-1.0669178861746935,1.0269451765919617,-1.5922605506513103,-0.45312678813934326,-0.8557223081588745,-0.24983106553554535,-0.502234160900116,-0.12203774601221085,0.16479644179344177,0.20474421977996826,0.4873141050338745,0.008131861686706543
239,-1.1259220109259964,0.9984549568980052,-1.5289821090524505,-0.488884836435318,-0.8406351804733276,-0.2330753058195114,0.8424679040908813,-0.032692328095436096,0.02891087345778942,0.5317162871360779,0.9825419783592224,0.2648898959159851
240,-1.127140672178629,0.9977986954367934,-1.4547836959965958,-0.4896666407585144,-0.8402795791625977,-0.23271609842777252,-0.33286961913108826,0.7500367164611816,0.7570083737373352,0.1484190821647644,-0.11196041107177734,0.28967714309692383
241,-1.2760873773366752,0.9272102886739854,-1.3702399641808618,-0.5741971731185913,-0.799949049949646,-0.17429658770561218,0.01070988830178976,-1.1201350688934326,0.08828441798686981,-0.08737820386886597,-0.8321311473846436,-0.2130020409822464
242,-1.1474532446840064,0.9958660732418999,-1.560009333356638,-0.49577218294143677,-0.8392302393913269,-0.2233891636133194,-0.815047562122345,-0.4433819055557251,-1.062256932258606,-0.38749808073043823,-0.3455079197883606,-0.023009777069091797
243,-1.1094996597151772,1.05259616072121,-1.6695231261996024,-0.443544864654541,-0.8687120676040649,-0.22047053277492523,0.11661788076162338,-0.8126422762870789,-0.3860260248184204,0.1587090790271759,0.5368029475212097,0.07426078617572784
244,-1.1241871626301392,1.1054058719425293,-1.7448054903113839,-0.40475478768348694,-0.8936464190483093,-0.19382889568805695,-0.706900417804718,-0.8594409823417664,-0.841239869594574,0.2880708575248718,0.6728212237358093,0.06428183615207672
245,-0.8654680889525086,1.056997850834089,-2.039677624143642,-0.3742190897464752,-0.8708838820457458,-0.3186243176460266,-1.174696445465088,0.7101579904556274,0.20096024870872498,-0.02008327841758728,-0.12893301248550415,-0.08378046751022339
246,-0.9256038593931227,0.9602223568700697,-1.867872444574908,-0.4580879509449005,-0.8193190693855286,-0.3447780907154083,0.8781220316886902,1.1677321195602417,2.1848278045654297,-0.34325796365737915,-0.199174702167511,-0.3350009620189667
247,-0.9404392115998558,0.8426830201907213,-1.637690971843965,-0.5375719666481018,-0.7464312314987183,-0.39224573969841003,-0.46312496066093445,1.3126946687698364,2.640141010284424,-0.4600018858909607,-0.02313053607940674,-0.2754483222961426
248,-1.0324639333034986,0.629244638535591,-1.4773911054391633,-0.6941258907318115,-0.5885342359542847,-0.41450774669647217,-0.4934232234954834,-0.29868021607398987,1.8392276763916016,0.17790579795837402,-0.03199493885040283,0.14291656017303467
249,-1.0353484334049798,0.5282110938554129,-1.5296135584173205,-0.7428253889083862,-0.503989040851593,-0.4406875967979431,-0.34089013934135437,0.7857661843299866,-0.06104371324181557,0.7068604230880737,-0.15915793180465698,0.3664535880088806
250,-0.9408260066051539,0.5946701065081902,-1.576208093805892,-0.6693305969238281,-0.5602355003356934,-0.48798835277557373,0.7711580395698547,0.5505768060684204,-1.5616375207901,-0.1213340163230896,-0.6317963004112244,0.21221628785133362
251,-1.001990871971046,0.7835273550008602,-1.5366880900643727,-0.5968828201293945,-0.7057827115058899,-0.3815779685974121,0.8345478773117065,-0.4714064598083496,-1.1511486768722534,-0.722590446472168,-0.5143101215362549,0.06799459457397461
252,-0.9256230659489179,0.9194433191423859,-1.8081669464126113,-0.4844014346599579,-0.7952642440795898,-0.3645682632923126,-0.8335243463516235,-1.6039248704910278,-2.1357650756835938,-0.19600322842597961,0.22920894622802734,-0.22793054580688477
253,-0.9818181028827944,1.0217122359047888,-1.9264482446918076,-0.433969646692276,-0.8530029058456421,-0.28992506861686707,0.43064719438552856,-1.5764822959899902,-0.6681803464889526,0.393106609582901,0.8231108784675598,-0.05524396896362305
254,-0.974809023486635,1.0451581948579745,-2.007559102969111,-0.41525810956954956,-0.8650039434432983,-0.28165382146835327,-1.144027590751648,-0.003267838153988123,-0.43921002745628357,0.25566643476486206,0.6397536993026733,0.15047401189804077
255,-0.753908083395812,0.949854646975231,-2.2036718028873103,-0.3982388973236084,-0.8133309483528137,-0.4241443872451782,-1.180081844329834,0.8763272166252136,1.1498386859893799,-0.2929231822490692,-0.260017991065979,-0.2583507001399994
256,-0.8748462522406756,0.7977788237127887,-1.9128592126918098,-0.5359054803848267,-0.7158068418502808,-0.447689414024353,1.938162088394165,1.4489156007766724,2.752744436264038,-0.23625022172927856,-0.28875547647476196,-0.3820835053920746
257,-0.8866704497160194,0.7198579407381702,-1.667188414377339,-0.5827008485794067,-0.6592778563499451,-0.47519731521606445,-0.6096035838127136,1.255502462387085,0.673758864402771,-0.16455256938934326,0.07759755849838257,-0.014045238494873047
258,-0.8520342668615889,0.6261548759575333,-1.6108687283231196,-0.6098392605781555,-0.5860334634780884,-0.5335361957550049,0.43075281381607056,-0.1018374115228653,1.3127202987670898,0.2757176160812378,0.13283216953277588,0.2887699604034424
259,-0.9464570017669144,0.6132588758434357,-1.49319129472295,-0.6635027527809143,-0.5755355358123779,-0.4780406653881073,0.5940572619438171,-0.0899924710392952,-0.10094612091779709,0.3564043641090393,-0.11895298957824707,0.4047374725341797
260,-1.036847083807604,0.6939512644600763,-1.424510541333047,-0.6617213487625122,-0.6395795941352844,-0.3912324011325836,2.0917205810546875,-1.1276785135269165,-0.6045676469802856,-0.05014687776565552,-0.6258775591850281,0.054135262966156006
261,-1.1809152937525924,0.8605732657257651,-1.3657117615152174,-0.6030728816986084,-0.7582164406776428,-0.24781222641468048,-0.7067664861679077,-1.0164505243301392,-2.581083297729492,-0.9759981632232666,-0.6486133933067322,-0.16600608825683594
262,-1.0442512420188172,1.111736990671851,-1.7016271543189712,-0.38308584690093994,-0.8964697122573853,-0.22268220782279968,-0.18556420505046844,-1.9113088846206665,-2.4697976112365723,-0.13408029079437256,0.48024046421051025,-0.05904078483581543
263,-0.9128461582006371,1.2698722189170104,-2.0327759417093008,-0.23452819883823395,-0.955062985420227,-0.18124939501285553,-0.6442102789878845,-1.3621104955673218,-1.638807773590088,0.24475158751010895,1.102432370185852,0.06210881471633911
264,-0.4994677216448246,1.2042160626494003,-2.5533755360637143,-0.17167073488235474,-0.9335585236549377,-0.3146390914916992,-1.7976734638214111,-0.05883096903562546,0.0394047275185585,0.061929523944854736,0.25080400705337524,-0.03561115264892578
265,-0.7286836284351347,1.0552892167241261,-2.2375762273664646,-0.3282669484615326,-0.8700428605079651,-0.36778563261032104,-0.24856048822402954,0.8686455488204956,3.274003267288208,-0.2810012400150299,-0.3672618269920349,-0.48148804903030396
266,-0.8992326995221931,0.910477983532372,-1.8431080983508203,-0.48017531633377075,-0.7897970080375671,-0.38164448738098145,1.353690266609192,1.5116392374038696,2.0555827617645264,-0.29535263776779175,-0.24313145875930786,-0.29503703117370605
267,-0.9494763810109258,0.8282743145676643,-1.62371126702548,-0.54978346824646,-0.7367656230926514,-0.3935919404029846,0.16158802807331085,0.5036595463752747,0.47483503818511963,0.04766249656677246,0.18770867586135864,0.15430361032485962
268,-1.0223702116037765,0.8074968669748092,-1.529803274014989,-0.5899259448051453,-0.7225589752197266,-0.3604104220867157,0.5035340785980225,-0.097872793674469,0.3853744864463806,0.39244675636291504,0.1928349733352661,0.3173958957195282
269,-1.0916966500295255,0.8478432530745357,-1.4408582434793993,-0.5871124863624573,-0.7498552203178406,-0.30498558282852173,0.6956063508987427,-0.2020389437675476,-1.0396779775619507,0.0629425048828125,-0.4690321087837219,0.20935875177383423
270,-1.2151876797782748,1.006368456058516,-1.344590675804852,-0.5014644265174866,-0.8448947668075562,-0.18624268472194672,0.6026607751846313,-0.4335211217403412,-0.7781552672386169,-0.4584659934043884,-0.7632136940956116,0.18494564294815063
271,-1.0687198723757594,1.1678451895404183,-1.5890552434408434,-0.34373974800109863,-0.9199077486991882,-0.18871371448040009,-0.44058144092559814,-1.0714733600616455,-1.7534013986587524,-0.41012072563171387,0.11625784635543823,-0.2522652745246887
272,-1.045380270780673,1.2582378427572856,-1.7324832248630102,-0.2660180330276489,-0.9515499472618103,-0.15423083305358887,-0.23485742509365082,-1.0235048532485962,-0.5524980425834656,0.3653374910354614,1.0123867988586426,-0.03975415229797363
273,-0.8511710438947445,1.1989931530218347,-1.9790087123784297,-0.2732176184654236,-0.9316737651824951,-0.23944932222366333,-1.4119709730148315,-0.06787589937448502,0.07842504978179932,0.20517870783805847,0.6998013257980347,0.023552745580673218
274,-0.6510301343169779,1.0519501013384382,-2.180507759147687,-0.30050551891326904,-0.8683918714523315,-0.3944516181945801,-1.563199520111084,0.5360375046730042,1.1841799020767212,-0.11354172229766846,-0.27072250843048096,-0.2719607353210449
275,-0.7755445384251843,0.8847525725837755,-1.8954948012173125,-0.44350314140319824,-0.7737582921981812,-0.45233064889907837,0.954617440700531,1.643999695777893,2.3210976123809814,-0.32952234148979187,-0.3529201149940491,-0.40705958008766174
276,-0.9179881498019599,0.7942803370933461,-1.512340977139055,-0.5567010045051575,-0.7133594751358032,-0.4256786108016968,-0.14479169249534607,1.0281858444213867,2.036611795425415,-0.40354984998703003,0.24981272220611572,-0.0590474009513855
277,-0.8858822456975776,0.6237798279022729,-1.4757205642481903,-0.6286218762397766,-0.5841073393821716,-0.5134718418121338,0.018794991075992584,-0.1826838254928589,1.4380464553833008,0.21536803245544434,-0.035811543464660645,0.1616804003715515
278,-0.9580157859974409,0.5217827987922076,-1.3737385971340152,-0.7091953754425049,-0.49842649698257446,-0.4986109733581543,-0.21016810834407806,0.025835353881120682,0.9815662503242493,0.43269091844558716,-0.15330687165260315,0.3218531906604767
279,-0.9678954236413746,0.5141195597452147,-1.3513313249440748,-0.7172119617462158,-0.49176841974258423,-0.4937315285205841,1.0506783723831177,-0.1631569266319275,-0.5491113662719727,-0.04607844352722168,-0.8048929572105408,0.1333494782447815
280,-1.0261204394080672,0.6685314165749346,-1.364154111794576,-0.6711782813072205,-0.6198341846466064,-0.4066022038459778,-1.4910430908203125,-0.9664292931556702,-2.9115447998046875,-0.861094057559967,-0.7030112743377686,-0.011870145797729492
281,-0.7209724773877063,0.9115520685461155,-1.8586507315367777,-0.40433359146118164,-0.7904553413391113,-0.4601026773452759,0.30693915486335754,-0.7209423184394836,-3.5281805992126465,-0.4741148352622986,-0.05314195156097412,-0.14913493394851685
282,-0.6142567525883155,1.1938305661173358,-2.136572651323584,-0.2121555209159851,-0.9297858476638794,-0.3008129298686981,1.2450237274169922,-1.6207716464996338,-2.363980770111084,-0.1363552212715149,1.054221272468567,0.04817318916320801
283,-0.151485644791647,1.2418321225877509,-2.747994662393156,-0.04875244200229645,-0.9463774561882019,-0.3193632662296295,-1.7611865997314453,-0.4005189538002014,-1.3433685302734375,0.10940613597631454,1.1013762950897217,0.10201704502105713
284,-0.30027754101957876,1.04729581281155,-2.5357441061326016,-0.14786750078201294,-0.8660745024681091,-0.47754591703414917,-0.9012678861618042,0.4490049481391907,3.527106761932373,-0.30016106367111206,0.3329172134399414,-0.44907456636428833
285,-0.7098680199945123,0.7784300566252724,-1.9081305816039442,-0.46404528617858887,-0.7021624445915222,-0.5400276184082031,0.28399714827537537,1.0279836654663086,5.223287582397461,-0.5508167743682861,0.04351687431335449,-0.4606589674949646
286,-0.8787103346090867,0.4178130280581203,-1.39783189285421,-0.7036871314048767,-0.40576258301734924,-0.5832504034042358,0.14945857226848602,1.551478385925293,5.101194381713867,-0.401613712310791,0.26126185059547424,-0.19790798425674438
287,-0.8205624706630416,0.0954689996796885,-1.1142625992167006,-0.7281982898712158,-0.09532403945922852,-0.678705096244812,-0.02790558524429798,0.9810916185379028,2.59710431098938,-0.3691527843475342,-0.328671932220459,0.340448260307312
288,-0.7781366447023258,-0.0037651012520644725,-1.0220612750862506,-0.7019485235214233,0.0037650924641638994,-0.7122176885604858,-0.21717312932014465,-0.22050924599170685,0.6041923761367798,-0.21902620792388916,-0.7494621276855469,0.42460477352142334
289,-0.8293048318277028,-0.004728183933337239,-1.033441588722891,-0.7374537587165833,0.0047281663864851,-0.6753810048103333,0.4319804906845093,-0.9416553378105164,-0.8060818910598755,-0.3658939599990845,-1.0777415037155151,0.26929885149002075
290,-0.9157265481214915,0.16191488610144833,-1.2092961184004978,-0.7826332449913025,-0.1612083464860916,-0.6012462973594666,-0.9150451421737671,-1.1202220916748047,-4.07056999206543,-0.9524131417274475,-0.7197120785713196,-0.12350040674209595
291,-0.9195026754813858,0.5146075702476074,-1.530738924278409,-0.6922977566719055,-0.4921932816505432,-0.5277023315429688,0.156740203499794,-1.2893922328948975,-4.809584140777588,-0.6902400851249695,0.031515151262283325,-0.00554656982421875
292,-0.8236836611347792,0.891833838989673,-1.8857960910860914,-0.4607243835926056,-0.7782247066497803,-0.4267311096191406,0.3223312497138977,-1.5171253681182861,-4.477508068084717,-0.4221796989440918,0.764934241771698,0.07727432250976562
293,-0.4993236609445756,1.1320574677972324,-2.4248378144776974,-0.2034069001674652,-0.9052881002426147,-0.37293311953544617,-0.12059271335601807,-1.3494001626968384,-3.052177667617798,-0.3031238615512848,1.0177453756332397,0.08327549695968628
294,-0.34931761025410185,1.1548626816432057,-2.7140969958964014,-0.13828682899475098,-0.9147394895553589,-0.379642516374588,-0.3324103355407715,-1.3637499809265137,1.0005842447280884,-0.18803763389587402,0.7787531614303589,-0.0522117018699646
295,-0.7616529222232721,0.9319709255117106,-2.342197974244504,-0.4114852249622345,-0.8027966618537903,-0.43150603771209717,-1.0204143524169922,-0.4069957137107849,4.067943096160889,-0.4446243941783905,-0.09112423658370972,-0.5884525179862976
296,-1.029343850891906,0.5731910862125803,-2.064844369374225,-0.7199969291687012,-0.5423159003257751,-0.4330102801322937,-2.4694671630859375,-0.45181092619895935,2.96060848236084,-0.33705568313598633,-0.5308195352554321,-0.0468328595161438
297,-1.1067627199316348,0.3452759844062485,-2.1681965353306887,-0.8414774537086487,-0.338456392288208,-0.4211448132991791,-1.2071430683135986,-0.9235315322875977,0.49821412563323975,0.5828867554664612,-0.5974414348602295,0.12517011165618896
298,-1.1242280041731056,0.39398632367768305,-2.2416060690752646,-0.8328337669372559,-0.3838723599910736,-0.39878547191619873,0.26956063508987427,-0.3360212445259094,-1.684389591217041,0.27892452478408813,-0.564278244972229,0.10732734203338623
299,-1.1102660195739593,0.6577861847004944,-2.3361856956599434,-0.7089025378227234,-0.6113664507865906,-0.3516932427883148,0.5543625354766846,-0.27492424845695496,-3.318415641784668,-0.5468347072601318,-0.5137251019477844,-0.1556462049484253
300,-0.9364089443862077,0.9405426717180297,-2.578952280297316,-0.4746828079223633,-0.8078780174255371,-0.34929823875427246,-0.08858910948038101,0.23372355103492737,-3.2862677574157715,-0.6344633102416992,-0.12196201086044312,-0.21793195605278015
301,-0.8109243916945044,1.1368891347072914,-2.7286778485732714,-0.3047719895839691,-0.9073300361633301,-0.28959667682647705,1.1243853569030762,-0.29884710907936096,-0.8203781843185425,-0.048560529947280884,0.6499447822570801,0.14903271198272705
302,-0.8808751090767113,1.2004509540888229,-2.696282134418638,-0.27916088700294495,-0.9322023987770081,-0.2303645759820938,-0.41186851263046265,-0.25296711921691895,-0.2797672748565674,0.23799267411231995,1.1103334426879883,0.10522729158401489
303,-0.7387534658643592,1.0729860545767533,-2.790260106083495,-0.32153457403182983,-0.8786302804946899,-0.35302191972732544,-1.8000723123550415,1.7141709327697754,2.311194658279419,-0.16859298944473267,0.7998644113540649,-0.29709404706954956
304,-0.7505821248699307,0.7292870277569191,-2.432792304738061,-0.508581280708313,-0.6663382053375244,-0.5452876091003418,-0.9079309105873108,2.9293949604034424,5.550442218780518,-1.171686053276062,-0.21160680055618286,-0.7543187141418457
305,-0.7163485143341954,0.4345999611437761,-1.980961692436023,-0.5955933332443237,-0.4210475981235504,-0.6840961575508118,1.3638211488723755,2.1871814727783203,4.041574954986572,-0.6052733659744263,-0.8979374170303345,-0.14701956510543823
306,-0.581867809159176,0.3812098615382341,-1.7515341261548063,-0.5101334452629089,-0.37204375863075256,-0.7754658460617065,0.8492534160614014,2.1955573558807373,0.49225276708602905,-0.0026991963386535645,-0.8242758512496948,0.5680683851242065
307,-0.4330532289657298,0.443920547603947,-1.6996489667587125,-0.37897005677223206,-0.4294832944869995,-0.8197107911109924,0.6904640793800354,1.066247582435608,-0.994623601436615,-0.08987149596214294,-0.1348172426223755,0.6358423829078674
308,-0.20986037318705428,0.5798515783394128,-1.8789581141070721,-0.17427164316177368,-0.5478997826576233,-0.8181902170181274,1.4434292316436768,1.467516541481018,-2.537100076675415,-0.005110695958137512,0.2507806420326233,-0.04515206813812256
309,-0.07700049704554887,0.7590539234250461,-2.058598610694571,-0.05580770596861839,-0.6882354021072388,-0.7233377695083618,0.46652084589004517,-0.23739853501319885,-1.5513821840286255,-0.05350625514984131,0.41630852222442627,-0.038747191429138184
310,-0.04534047989214062,0.6963057380223058,-2.1736615273417117,-0.034774065017700195,-0.6413877606391907,-0.7664284110069275,-0.6007338762283325,-0.7747482061386108,-0.17973749339580536,-0.09707711637020111,-0.07272350788116455,-0.08618694543838501
311,-0.08638240089710486,0.7208558164930645,-2.1942598284058157,-0.06481333822011948,-0.6600278615951538,-0.7484400272369385,0.23537354171276093,-0.04119015112519264,0.16730985045433044,0.16410228610038757,0.2576841115951538,0.4276392459869385
312,-0.05212135698494842,0.7263280297207476,-2.226528449405226,-0.038949232548475266,-0.6641288995742798,-0.7466028928756714,-0.41367629170417786,0.5627045035362244,-0.25078117847442627,0.27602502703666687,0.2643333673477173,0.2943171262741089
313,-0.023455495944478315,0.6346703259709133,-2.1739406475779797,-0.018886210396885872,-0.5929120779037476,-0.8050457239151001,-0.43532896041870117,0.8072303533554077,0.4336715042591095,0.04635202884674072,0.16777169704437256,-0.026115775108337402
314,0.0259631409371965,0.5807372400415851,-2.035896653152095,0.021704263985157013,-0.5486404895782471,-0.8357766270637512,-0.8551256656646729,1.9611982107162476,2.208576202392578,0.024743497371673584,-0.28149867057800293,-0.23212498426437378
315,0.0027702808883453283,0.5558720970704217,-1.7673205546098143,0.002353186020627618,-0.5276842713356018,-0.8494372963905334,-0.87491774559021,0.4164438545703888,1.1320537328720093,0.16531038284301758,-0.05483525991439819,-0.5297740697860718
316,-0.025183047323875787,0.4256365994462399,-1.6863393838100496,-0.02293369174003601,-0.4129006564617157,-0.9104872941970825,-1.3909674882888794,-0.2046278715133667,0.6209353804588318,0.0924069732427597,0.059705495834350586,0.278666615486145
317,-0.07657394485030317,0.3260045204605837,-1.620899283016138,-0.07246988266706467,-0.32026055455207825,-0.9445534944534302,-0.008350564166903496,-0.054284822195768356,0.7936073541641235,0.16225260496139526,0.001504451036453247,0.5008279085159302
318,-0.10627106894605519,0.3799105041404372,-1.5789220881676627,-0.09850805252790451,-0.37083736062049866,-0.9234586358070374,1.0725653171539307,-0.5545393824577332,-0.30989354848861694,0.1547061800956726,-0.11806949973106384,-0.19522422552108765
319,-0.1519824523185904,0.558092525073803,-1.6380444811950556,-0.12842592597007751,-0.5295690894126892,-0.838488757610321,1.7046202421188354,-0.7574388980865479,-0.9712711572647095,-0.0074383169412612915,-0.2574334144592285,-0.24459540843963623
320,-0.10764985079248504,0.7022164105743479,-1.7607950825748404,-0.08202259987592697,-0.6459113359451294,-0.7589933276176453,1.2163246870040894,-0.05999680608510971,-1.191644310951233,-0.20395761728286743,-0.1466759443283081,-0.27431660890579224
321,-0.11346845296632672,0.8047313417575149,-1.8547744641525206,-0.07849953323602676,-0.7206444144248962,-0.6888464689254761,0.7078827619552612,-1.417028784751892,-0.418658971786499,-0.07718589901924133,0.48564380407333374,0.2933233976364136
322,-0.2708714315879176,0.8551229265233184,-1.8464911002452902,-0.1755603402853012,-0.7546516060829163,-0.6322020888328552,0.46491098403930664,-1.0859073400497437,0.09846743196249008,0.3356860876083374,0.8058143258094788,0.538848876953125
323,-0.3506701450672856,0.8077703099356691,-1.774020004671832,-0.23741568624973297,-0.7227479815483093,-0.6490525007247925,-0.8946146965026855,0.07769379764795303,1.3971425294876099,0.058964163064956665,0.7719423174858093,-0.23244774341583252
324,-0.3849074651600179,0.5011510741514149,-1.5659431595822864,-0.32930147647857666,-0.4804353713989258,-0.8128606081008911,-2.5362186431884766,1.5181888341903687,2.7388062477111816,-0.6437362432479858,-0.12712380290031433,-1.1213586330413818
325,-0.38465571883537514,0.27145826420592556,-1.2949470665218854,-0.3614990711212158,-0.268136590719223,-0.8929843902587891,0.01912977173924446,0.18658548593521118,3.2850141525268555,-0.2904479205608368,-0.4794982671737671,-0.30527299642562866
326,-0.40608068589949753,0.1756214536768894,-1.0872182565871076,-0.38893577456474304,-0.17472006380558014,-0.9045451283454895,-0.5231407284736633,0.26253360509872437,1.3890810012817383,-0.09603431820869446,-0.29218363761901855,0.4628031849861145
327,-0.468535590868314,0.16315737963936605,-1.0117930923906044,-0.44558289647102356,-0.16243445873260498,-0.8803811073303223,0.9450924396514893,-0.406859427690506,0.28559696674346924,0.03196290135383606,-0.3476821184158325,0.6434884071350098
328,-0.6014957917021762,0.2401384792582588,-0.9575625253004673,-0.549638569355011,-0.23783713579177856,-0.8008313775062561,1.3115620613098145,-2.7773518562316895,-0.8314648866653442,-0.4785749316215515,-0.6899277567863464,0.014805376529693604
329,-0.8028988375985617,0.4547938134402517,-1.01914742845131,-0.6462496519088745,-0.4392770826816559,-0.6240168809890747,-0.363214373588562,-0.9744279384613037,-3.290970802307129,-0.7970944046974182,0.08527320623397827,-0.5950382947921753
330,-0.6137271032022351,0.7746665997621694,-1.4925195235835522,-0.4115825593471527,-0.6994778513908386,-0.5842350721359253,0.49950549006462097,-2.106029987335205,-3.3102035522460938,-0.1686939299106598,0.3538205027580261,-0.2604304552078247
331,-0.7630953132015146,0.9315283403890678,-1.5413288016097046,-0.41235265135765076,-0.8025326728820801,-0.43116870522499084,1.257442831993103,-0.9198692440986633,-0.10863276571035385,0.47682103514671326,0.5331998467445374,0.19317743182182312
332,-0.8953865123105686,0.9841021360273924,-1.4972644502845762,-0.4320661127567291,-0.832775354385376,-0.34612709283828735,0.17230136692523956,-0.616117000579834,-0.36536869406700134,0.2083418071269989,0.34203749895095825,0.14562663435935974
333,-0.9022407172582128,0.9349491646709515,-1.551206546075042,-0.46601203083992004,-0.804568886756897,-0.3681056499481201,-1.5846673250198364,0.6052955985069275,0.27757760882377625,-0.13149163126945496,-0.016537070274353027,0.07013201713562012
334,-0.7613077865525717,0.7615326255432794,-1.5708934201788165,-0.49931272864341736,-0.6900315284729004,-0.5239687561988831,-0.006642065942287445,2.526552200317383,2.1391196250915527,0.07611024379730225,0.12986618280410767,-0.34236425161361694
335,-0.7252558384950566,0.6489447910369307,-1.3407714794296393,-0.5284870862960815,-0.6043460369110107,-0.5962107181549072,-0.8674296140670776,1.2522473335266113,0.9734203219413757,-0.3685007691383362,0.36946749687194824,-0.05614829063415527
336,-0.6535981496188987,0.48419727771065346,-1.3631970245634588,-0.5381512641906738,-0.46549805998802185,-0.7026413083076477,-0.06604006886482239,0.04202335327863693,1.398733377456665,0.1750836968421936,-0.04216182231903076,0.2533310055732727
337,-0.6686010777362232,0.4507376178113022,-1.2995084913841493,-0.557978093624115,-0.43562960624694824,-0.7063195109367371,-0.23275816440582275,0.6168693900108337,-0.1811467856168747,0.051462650299072266,-0.31462976336479187,0.5083825588226318
338,-0.578505023067002,0.4905836933252792,-1.400717714964832,-0.48228538036346436,-0.4711408317089081,-0.7385303974151611,0.32759764790534973,0.9554721713066101,-0.32773685455322266,-0.013014912605285645,-0.9252977967262268,0.14337658882141113
339,-0.46932993955183683,0.5799753525821132,-1.5208267040928416,-0.37832877039909363,-0.5480033159255981,-0.746029257774353,-0.1757965236902237,0.7251583337783813,-2.854299545288086,-0.8767828941345215,-0.6067665815353394,-0.620151162147522
340,-0.19284733626205092,0.6317363278287795,-1.8993066229178277,-0.15466558933258057,-0.5905468463897705,-0.7920435070991516,-0.4905903935432434,-0.30658137798309326,-2.0404582023620605,-0.26885735988616943,0.3427136540412903,-0.09379017353057861
341,-0.09669975090512122,0.6172489807334779,-2.135847362719034,-0.07873328030109406,-0.5787939429283142,-0.8116641044616699,0.5971734523773193,0.16899102926254272,-2.1327900886535645,0.11208897829055786,0.7548651695251465,0.4172396659851074
342,0.055028015304688954,0.7488273861557588,-2.3344911925632386,0.04028700292110443,-0.680780291557312,-0.7313789129257202,0.23376083374023438,0.0914120301604271,-0.8116365075111389,0.15247726440429688,0.2767886519432068,0.24825519323349
343,0.08968959686586618,0.7473354496812713,-2.342374061683206,0.06569938361644745,-0.6796867251396179,-0.7305542826652527,0.22238513827323914,-0.22320182621479034,0.6378317475318909,-0.010737225413322449,0.08573836088180542,-0.24719840288162231
344,0.008526299474230808,0.70958238845873,-2.2337217622727046,0.006468262057751417,-0.6515170335769653,-0.7586064338684082,-0.4565287232398987,0.36166468262672424,1.0151088237762451,-0.0828385055065155,0.25631439685821533,-0.2387690544128418
345,-0.1663660767746684,0.6625047796370639,-1.9735250706669485,-0.1305677443742752,-0.6150937080383301,-0.7775678634643555,-0.25895026326179504,-0.4246854782104492,3.0020127296447754,0.0246717631816864,0.2839016914367676,0.03037548065185547
346,-0.33376682692000464,0.5789988316635579,-1.6549985809431587,-0.2742083668708801,-0.5471861958503723,-0.7908204197883606,-0.08435774594545364,0.1799597442150116,2.538947582244873,0.09137758612632751,0.11284488439559937,0.30803239345550537
347,-0.43976866611523135,0.47681936999610514,-1.3954847060943125,-0.3782438635826111,-0.45895564556121826,-0.8039224147796631,-0.15872806310653687,0.453689306974411,1.9283283948898315,0.14641711115837097,-0.37032899260520935,0.35946446657180786
348,-0.4956879703265631,0.4127029423991294,-1.2739250648144416,-0.43570247292518616,-0.40108680725097656,-0.8057870268821716,0.621575117111206,-0.8317208290100098,0.2802950441837311,-0.39339908957481384,-0.8085536956787109,-0.08914095163345337
349,-0.5753071578810781,0.539681255375825,-1.3711609807422631,-0.4667620062828064,-0.5138625502586365,-0.7197766900062561,0.15610432624816895,-1.147522211074829,-3.37125563621521,-0.8140759468078613,-0.48781585693359375,-0.5969652533531189
350,-0.3742235502855091,0.7280247286363029,-1.8184592065519334,-0.2728794515132904,-0.6653963923454285,-0.6948269605636597,0.6990298628807068,-0.4616999924182892,-4.102608680725098,-0.2385646402835846,0.21756619215011597,-0.2893039584159851
351,-0.19523884941639136,0.9019699117146336,-2.1342660857544664,-0.12029328942298889,-0.7845498919487,-0.6082853674888611,1.4327092170715332,-0.6851395964622498,-1.594240427017212,0.1604086458683014,0.94342440366745,0.27452993392944336
352,-0.06708460747003223,0.9790246606947615,-2.3085797304112203,-0.03739389404654503,-0.829953670501709,-0.5565775036811829,-0.05767389386892319,0.4259636402130127,-0.9844986796379089,0.2928870618343353,0.9112372994422913,0.35261332988739014
353,-0.08249178954760757,0.93044021367188,-2.1765025331011483,-0.0492313914000988,-0.8018830418586731,-0.5954492092132568,-2.333956241607666,0.5310556888580322,2.6241323947906494,-0.04633438587188721,0.35309159755706787,-0.25618958473205566
354,-0.2707119187249858,0.6468937704647757,-1.812451756330633,-0.21338841319084167,-0.6027106642723083,-0.7688987255096436,-0.9287545680999756,0.6856859922409058,3.669753074645996,-0.32541465759277344,-0.29267507791519165,-0.9415199756622314
355,-0.3575719823709353,0.482352107786772,-1.5326232034652745,-0.31006795167922974,-0.46386420726776123,-0.829872190952301,-0.9874343872070312,0.9587088227272034,1.0016411542892456,-0.21825236082077026,-0.11613762378692627,-0.2318342924118042
356,-0.35226681209458327,0.42456729711171703,-1.3657123817625063,-0.3143938481807709,-0.4119265377521515,-0.8552619814872742,0.829802393913269,0.6432293057441711,2.0735273361206055,0.16008171439170837,0.05334499478340149,0.40984266996383667
357,-0.29953518872343876,0.45630176497015656,-1.2495623827227997,-0.26488634943962097,-0.44063127040863037,-0.8577174544334412,0.3562895357608795,1.3065537214279175,0.2135675549507141,0.08522936701774597,-0.04194319248199463,0.5029048919677734
358,-0.3045407913690805,0.4963066700791963,-1.1612557011395994,-0.26367679238319397,-0.4761810600757599,-0.8388838768005371,1.1236556768417358,-1.0314884185791016,1.5333832502365112,-0.16886410117149353,-0.4441527724266052,0.2142653465270996
359,-0.4218688838707999,0.5039584109182198,-1.2104547826712655,-0.3585605025291443,-0.4828956127166748,-0.7989031076431274,-1.1900949478149414,-1.8981295824050903,-2.693556308746338,-0.8179531693458557,-0.7388298511505127,-0.7235273122787476
360,-0.3407001103963576,0.6019414612224134,-1.6047026830613054,-0.27541664242744446,-0.5662437677383423,-0.7768614292144775,1.0174752473831177,-0.751701295375824,-3.5912840366363525,-0.19604942202568054,-0.06261670589447021,-0.23145461082458496
361,-0.294989196445427,0.8184152632757465,-1.8705877074910902,-0.19867846369743347,-0.730063796043396,-0.6538607478141785,1.5620079040527344,-1.2746391296386719,-1.778826355934143,0.23674915730953217,0.8095315098762512,0.4019075632095337
362,-0.1830378138825028,0.9396577594390142,-2.089251012260397,-0.1074020192027092,-0.8073561787605286,-0.5802074670791626,-0.8754326701164246,0.343367338180542,-1.3681094646453857,0.2295486032962799,1.1216720342636108,0.4980236887931824
363,-0.012266622324572925,0.6727057842879913,-2.1906583530488284,-0.009593957103788853,-0.6231045722961426,-0.7820796966552734,-3.7444651126861572,-0.03180498257279396,1.1933791637420654,-0.4468574523925781,-0.3695864677429199,-0.8920230865478516
364,-0.21168269162154607,0.47218413399323866,-1.812521677079399,-0.18711498379707336,-0.4548324942588806,-0.8706982135772705,-0.8478987216949463,0.1637502759695053,4.131864070892334,-0.16392871737480164,-0.2863479256629944,-0.5934436321258545
365,-0.3222080750161789,0.34816103388741043,-1.4673842920321725,-0.297662615776062,-0.3411697447299957,-0.891627848148346,0.14946067333221436,0.24427412450313568,1.891591191291809,0.008798480033874512,-0.21687468886375427,0.024303019046783447
366,-0.3330218500086901,0.3302810815689081,-1.3508605858660718,-0.30923178791999817,-0.32430893182754517,-0.893979549407959,0.18268677592277527,0.42181411385536194,0.9220888018608093,0.22575095295906067,-0.13272231817245483,0.528195858001709
367,-0.35044356459606124,0.3762938347971324,-1.2501912499852839,-0.319293737411499,-0.36747613549232483,-0.8735060095787048,1.3624378442764282,0.11024332791566849,0.6852476000785828,-0.015148401260375977,-0.43811163306236267,0.45053237676620483
368,-0.4096431157328705,0.533812273140937,-1.1514167563282662,-0.34287044405937195,-0.5088189244270325,-0.7896475195884705,1.8189743757247925,-1.0593748092651367,0.08205993473529816,-0.6131842136383057,-0.515518844127655,-0.06014496088027954
369,-0.4755452758762908,0.7213574201996378,-1.3356188140418594,-0.34378406405448914,-0.6604045629501343,-0.667591392993927,0.5170876979827881,-1.9900975227355957,-4.306501388549805,-0.7572290897369385,-0.16472971439361572,-0.7835804224014282
370,-0.24920582005334385,0.9256657204076162,-1.9063188368730255,-0.14830195903778076,-0.7990212440490723,-0.5827277898788452,1.080893635749817,-2.1762521266937256,-3.2254087924957275,0.06837642192840576,0.6499276161193848,-0.13832628726959229
371,-0.22599436728881184,1.063453616166985,-2.176733312135095,-0.10886850953102112,-0.8740386366844177,-0.4735017716884613,0.7400237321853638,-1.666886806488037,-1.0454704761505127,0.3386353552341461,1.1336517333984375,0.3533083498477936
372,-0.1428435833219311,1.0610582751660147,-2.319803558512429,-0.06946352869272232,-0.8728723526000977,-0.482978880405426,-1.442191243171692,0.8771279454231262,0.1053209900856018,0.3382318615913391,0.5751429200172424,0.07793435454368591
373,-0.2320679700001419,0.7962490469070049,-2.088011745756762,-0.16085368394851685,-0.7147377133369446,-0.6806438565254211,-2.195352077484131,1.4479304552078247,2.3806960582733154,0.03205423057079315,-0.3097373843193054,-0.9797412753105164
374,-0.2374847182476391,0.7162906724967824,-1.7241086340750322,-0.1774430274963379,-0.6565914750099182,-0.7330768704414368,1.333082914352417,1.7665408849716187,3.7456486225128174,-0.2386641502380371,-0.25882911682128906,-0.5470287203788757
375,-0.3138727221744592,0.719699706771247,-1.4025893469785105,-0.2321769744157791,-0.6591588854789734,-0.7152645587921143,0.043509289622306824,0.9840476512908936,0.7159184217453003,-0.10806348919868469,0.1990758776664734,0.40041470527648926
376,-0.30471169940386417,0.6930099121632473,-1.358407934556108,-0.2308119535446167,-0.6388556957244873,-0.7338864207267761,-0.13524757325649261,0.02972063422203064,0.14210611581802368,0.05368794500827789,0.1486213207244873,0.6110379099845886
377,-0.29976356340650884,0.6727575777726293,-1.4250426725612293,-0.23095154762268066,-0.6231450438499451,-0.747229278087616,-0.6444061398506165,-0.8114268779754639,-0.8830012083053589,0.17594362795352936,-0.17395877838134766,0.48506808280944824
378,-0.29583071105104425,0.6505517438434927,-1.5322599881034418,-0.2319885790348053,-0.605625569820404,-0.7611826658248901,-0.265911728143692,-1.0957355499267578,-1.4121004343032837,-0.5685180425643921,-0.953334391117096,-0.29113972187042236
379,-0.12308856072388866,0.6582002812069869,-1.9683155462396051,-0.0971289724111557,-0.6116940975189209,-0.7851091027259827,-0.12084915488958359,-0.37820738554000854,-4.605101108551025,-0.3949822187423706,-0.5529787540435791,-0.7523817420005798
380,0.022876383753099007,0.8669353855055559,-2.2780749736808295,0.014803523197770119,-0.7623491883277893,-0.6469964981079102,3.530226707458496,-1.2322360277175903,-0.810756266117096,-0.16057074069976807,0.6334887742996216,-0.16004085540771484
381,-0.064179069747342,1.1635891654141388,-2.337129582436856,-0.025400441139936447,-0.9182304739952087,-0.3952310085296631,1.2752052545547485,-0.7707183361053467,-0.5203470587730408,0.32804328203201294,1.451937198638916,0.2808206379413605
382,0.06814870592320836,1.0937121696160523,-2.392932318985414,0.03126905858516693,-0.8883376121520996,-0.45812514424324036,-2.20576548576355,1.4960768222808838,1.1518065929412842,0.12783434987068176,0.8441481590270996,-0.11559009552001953
383,-0.14965484620445468,0.7492922068974102,-2.003099278796755,-0.10916441679000854,-0.6811206936836243,-0.7239874005317688,-1.5347177982330322,1.0602612495422363,3.334498882293701,-0.08764345943927765,-1.036484956741333,-1.242717981338501
384,-0.24385959592417922,0.7012112764480127,-1.5963711688550561,-0.18448245525360107,-0.6451436281204224,-0.7414551973342896,1.053064227104187,1.3820507526397705,2.1696085929870605,-0.16888056695461273,-0.45518285036087036,-0.16517621278762817
385,-0.2881766602430506,0.7426513073577365,-1.3994339644064466,-0.2093672901391983,-0.6762434244155884,-0.7063002586364746,0.6061573028564453,0.6271295547485352,0.5413990616798401,0.008958354592323303,0.19868916273117065,0.5289779305458069
386,-0.37498768273247657,0.8463184806835475,-1.2666556920839038,-0.2427375167608261,-0.7488455772399902,-0.6166918277740479,1.7499040365219116,-0.4886007308959961,0.5592290759086609,0.0017249584197998047,0.23749303817749023,0.5064318180084229
387,-0.4903475265932295,0.9442710261342506,-1.2134712871360371,-0.2761235237121582,-0.810069739818573,-0.5172454118728638,0.48734670877456665,-0.870937705039978,-0.5916719436645508,0.07991078495979309,-0.0442240834236145,0.32442015409469604
388,-0.5620247352599511,0.9287589387757529,-1.2948110996081912,-0.3191160261631012,-0.8008773922920227,-0.5067153573036194,-1.9711638689041138,-0.634242057800293,-0.8359188437461853,-0.1976991593837738,-0.4640457034111023,-0.17136996984481812
389,-0.27883243716100836,0.8408216169070156,-1.718184697739127,-0.18353956937789917,-0.7451912760734558,-0.6410952210426331,-1.1657469272613525,-0.9415202140808105,-1.7747074365615845,-0.20938950777053833,-0.3562033176422119,-0.46425139904022217
390,-0.2636694323329572,0.8637311916152124,-1.855361640099759,-0.1693033128976822,-0.7602716684341431,-0.6271549463272095,1.5422240495681763,-0.7113412618637085,-0.5215522050857544,0.1351388841867447,0.49992620944976807,0.23251688480377197
391,-0.3395393050942497,1.026561064029029,-1.8318926913628284,-0.1724427193403244,-0.8555234670639038,-0.4882039427757263,0.20490455627441406,0.013491709716618061,-0.6104586124420166,0.3380158543586731,0.8558133840560913,0.5001057982444763
392,-0.18640112331741154,0.9801322052952998,-1.8841923713113868,-0.10320903360843658,-0.8305709958076477,-0.5472655296325684,-1.9070154428482056,0.27358874678611755,1.5178453922271729,-0.13446184992790222,-0.65955650806427,-0.39029544591903687
393,-0.350223761057099,0.8833835570274363,-1.6068768592303195,-0.21771563589572906,-0.7728903293609619,-0.596020519733429,0.7102058529853821,1.6009682416915894,1.1951239109039307,-0.12917765974998474,-0.8336312770843506,-0.6210814714431763
394,-0.2995973491059138,0.9460822795560117,-1.5411982219128761,-0.17261454463005066,-0.8111304044723511,-0.5588127970695496,0.48582780361175537,0.48798829317092896,0.32494935393333435,0.06708475947380066,0.4609106779098511,0.08748400211334229
395,-0.4834638977590282,0.9551375488907888,-1.2819080398922889,-0.2684485912322998,-0.8163931965827942,-0.5113096833229065,0.834904134273529,0.10779134929180145,1.7201790809631348,0.3051765263080597,0.8176290988922119,0.551302969455719
396,-0.4751191585157871,0.9117095452196748,-1.2071725074888056,-0.28013673424720764,-0.7905518412590027,-0.5445651412010193,-0.7446172833442688,1.2356483936309814,-0.7538033127784729,0.12672486901283264,0.2646729350090027,0.5365848541259766
397,-0.39139777622410493,0.8039495538280477,-1.3425573406298084,-0.2646973729133606,-0.7201021909713745,-0.6413955092430115,-0.8101434707641602,-1.8585515022277832,-0.5592916011810303,-0.2736174464225769,-0.7909451723098755,-0.2684250473976135
398,-0.4558453017309382,0.8380825502400988,-1.5537763006660577,-0.29445943236351013,-0.7433619499206543,-0.6005885601043701,-0.6634467840194702,-1.6222903728485107,-2.796175241470337,-0.416828989982605,-0.6778874397277832,-0.3631412982940674
399,-0.16820421385452927,0.8218035739037423,-2.0871391569974853,-0.11399117857217789,-0.7323750853538513,-0.6712918281555176,-0.8962149620056152,-1.065680742263794,-3.129636764526367,-0.2681346535682678,0.06574910879135132,-0.17595243453979492
400,-0.05316668047898151,0.8799554511863084,-2.3712155299779893,-0.033861082047224045,-0.7707104682922363,-0.6362851858139038,0.9303987622261047,-0.9386309385299683,-1.173508882522583,0.01590147614479065,0.8347669243812561,0.3788083791732788
401,-0.04427943897899124,0.9066759342446344,-2.4665393973341194,-0.027283454313874245,-0.7874592542648315,-0.6157625913619995,-1.0529139041900635,-0.4169529378414154,0.5190619826316833,0.3766181766986847,0.7899922132492065,0.4378756284713745
402,-0.17807151380713213,0.7362597240333912,-2.212370434286004,-0.13125216960906982,-0.6715211272239685,-0.7292683124542236,-0.919364869594574,1.1716269254684448,2.536675453186035,-0.3164712190628052,-0.133669912815094,-0.6894023418426514
403,-0.3158403780760478,0.6009616958034604,-1.8198073565797315,-0.2561931610107422,-0.5654359459877014,-0.7839944362640381,-0.6850664615631104,1.2609341144561768,2.7400929927825928,-0.5130023956298828,-0.4009794592857361,-0.6745016574859619
404,-0.3793062497754507,0.4958803529142597,-1.5901101601244203,-0.32567644119262695,-0.4758061468601227,-0.8170332908630371,-0.022433415055274963,0.04985909163951874,1.7775050401687622,0.06279799342155457,-0.16997632384300232,0.04832601547241211
405,-0.46516198009729826,0.41535386928717755,-1.4183723133545825,-0.4104274809360504,-0.40351372957229614,-0.8177566528320312,-0.548467218875885,0.10378331691026688,2.190886974334717,0.4927333891391754,0.12224847078323364,0.5808792114257812
406,-0.4127824862376551,0.3764056447326232,-1.3635669688370295,-0.3730752170085907,-0.3675801157951355,-0.8518801331520081,0.8699628710746765,1.0541858673095703,-0.6846859455108643,0.0802132785320282,-0.2643168270587921,0.46041589975357056
407,-0.3964192643001074,0.48360931238854027,-1.3665044278723004,-0.3418387472629547,-0.46497759222984314,-0.8166652321815491,1.3029258251190186,-0.9124279618263245,-0.40223586559295654,-0.6658364534378052,-0.529300332069397,-0.2810673117637634
408,-0.5441031726989926,0.607980720515182,-1.477420106008662,-0.42488953471183777,-0.5712112188339233,-0.7022724747657776,-0.3177303373813629,-2.2498748302459717,-2.452833652496338,-0.5953588485717773,-0.12286537885665894,-0.5978679060935974
409,-0.5214859584206069,0.7241484609643232,-1.7828369903525865,-0.3731604814529419,-0.6624978184700012,-0.6494981646537781,0.7890634536743164,-1.3231440782546997,-1.6947824954986572,0.2360297441482544,0.4180367588996887,-0.14591199159622192
410,-0.6399884039396506,0.8482598318144958,-1.807309351135838,-0.39491286873817444,-0.7501307725906372,-0.530422031879425,0.8016743659973145,-1.42156982421875,-0.7656499743461609,0.4330598711967468,0.765298068523407,0.21110135316848755
411,-0.6375978295118683,0.844873340585769,-1.8876038565929456,-0.3951537013053894,-0.7478870153427124,-0.5334028005599976,-1.5883582830429077,0.32672253251075745,0.03429568558931351,0.3018004298210144,0.3702930212020874,0.08578622341156006
412,-0.5181043292968844,0.6953316815120556,-1.8858448762790692,-0.38026121258735657,-0.640640139579773,-0.6670694351196289,-0.8826622366905212,1.329842448234558,2.5364432334899902,0.021084576845169067,-0.44380199909210205,-0.4678487777709961
413,-0.5072500333743796,0.49592891151625773,-1.528916081014375,-0.4272525906562805,-0.47584885358810425,-0.7687802314758301,-0.10045774281024933,2.6423282623291016,2.5268616676330566,-0.4829646944999695,-0.33541515469551086,-0.5076327323913574
414,-0.4613731644333963,0.45184574122813886,-1.430584691770408,-0.4005012512207031,-0.4366267919540405,-0.8055779337882996,0.2582186460494995,-0.03840138018131256,-0.5759116411209106,-0.05886456370353699,0.023220419883728027,-0.00860053300857544
415,-0.46726475037784393,0.5175128045768447,-1.405402381137408,-0.3914610743522644,-0.4947201609611511,-0.7758931517601013,0.9443435668945312,0.03533666580915451,0.49703511595726013,0.4268309473991394,0.2895047068595886,0.4396657347679138
416,-0.4483471283309521,0.5627029362087281,-1.3383134460319732,-0.3666415810585022,-0.533474326133728,-0.7622198462486267,0.3386857807636261,1.1418410539627075,-0.03819398209452629,0.2167544960975647,0.020107626914978027,0.4881262183189392
417,-0.41561722721552874,0.6147110019384908,-1.2825318165646236,-0.3298434317111969,-0.5767224431037903,-0.7473918795585632,0.43912678956985474,-0.6155046820640564,1.0406408309936523,-0.4613247513771057,-0.6155535578727722,0.06152456998825073
418,-0.5540556325271889,0.6579063514752806,-1.3280124725745117,-0.416321337223053,-0.6114615201950073,-0.6728977560997009,-0.05940581485629082,-2.3080334663391113,-1.7727268934249878,-0.8445581197738647,-0.5757790803909302,-0.5609890222549438
419,-0.531615786317262,0.7839879879256207,-1.6812992975464989,-0.358956515789032,-0.7061089277267456,-0.610377311706543,-0.17055237293243408,-2.1574454307556152,-3.5725739002227783,-0.021307766437530518,0.4628075361251831,-0.10924243927001953
420,-0.49086545321204456,0.9125477259253295,-2.025033988401153,-0.28836408257484436,-0.7910648584365845,-0.5395021438598633,0.292645663022995,-1.7221081256866455,-1.3107218742370605,0.554416298866272,0.9602543115615845,0.21651935577392578
421,-0.47917982986166213,0.8765643226062972,-2.051847108152966,-0.29497867822647095,-0.7685452699661255,-0.5677374005317688,-1.1183242797851562,1.2890900373458862,0.604962170124054,0.46461063623428345,0.623235821723938,0.10826480388641357
422,-0.4028945662967818,0.6899423737623188,-1.9304761703188211,-0.3024066686630249,-0.6364927291870117,-0.7095260620117188,-0.5083709359169006,0.5959091186523438,2.9011390209198,-0.1442791223526001,-0.4008760452270508,-0.7482223510742188
423,-0.39794525230758027,0.5927754525869506,-1.6399343608679422,-0.3214106261730194,-0.5586650967597961,-0.7645838856697083,0.35461369156837463,1.9325062036514282,1.8848421573638916,-0.4625401496887207,-0.28882330656051636,-0.5409581065177917
424,-0.4862446252231439,0.5058340185069236,-1.3778929517425922,-0.4087882936000824,-0.48453718423843384,-0.7733795046806335,-0.23131920397281647,-0.015635646879673004,1.6844974756240845,0.0432487428188324,0.11344343423843384,0.24089354276657104
425,-0.5052487054038327,0.48210228973352376,-1.3034155448355098,-0.4288569688796997,-0.4636428654193878,-0.775317370891571,0.5621103644371033,0.3358473777770996,0.31042271852493286,0.2935115098953247,0.09750822186470032,0.523577868938446
426,-0.47756891234614224,0.5059433941172565,-1.2690485921190893,-0.4020390212535858,-0.48463284969329834,-0.7768498659133911,0.588864803314209,0.35256507992744446,-0.20380045473575592,0.028015553951263428,-0.33265841007232666,0.3341008424758911
427,-0.5459026507419088,0.6796254954265547,-1.2552574981882751,-0.40383005142211914,-0.6285017728805542,-0.6647607684135437,1.5257673263549805,-1.5948904752731323,-0.42460083961486816,-0.29496148228645325,-0.6212693452835083,0.0489465594291687
428,-0.5001945015205325,0.7603120446551908,-1.5492737620221948,-0.3475254774093628,-0.6891475915908813,-0.6358471512794495,-1.1575825214385986,-0.8723089098930359,-3.7450003623962402,-0.5404444932937622,-0.5977329015731812,-0.45364564657211304
429,-0.33710071191907753,0.871356410899006,-1.957409319980353,-0.21293479204177856,-0.7652028799057007,-0.6075551509857178,0.8100454807281494,-2.0217578411102295,-2.301224946975708,-0.020738303661346436,0.3411611318588257,-0.11662697792053223
430,-0.3562956097551338,1.018210187858295,-2.139100896496764,-0.18308426439762115,-0.8511699438095093,-0.49192461371421814,1.0204864740371704,-1.2724610567092896,-1.462083101272583,0.16880202293395996,0.9147533178329468,0.19796407222747803
431,-0.22715461720728244,1.0787050701058478,-2.362852710502267,-0.10640318691730499,-0.8813467025756836,-0.4603329300880432,-0.5517634749412537,0.038785193115472794,-0.5120044946670532,0.2881200909614563,0.8327779173851013,0.10321617126464844
432,-0.31241568942455805,0.9176758500418265,-2.1043261822688213,-0.1867717057466507,-0.7941914796829224,-0.5782528519630432,-1.4807597398757935,1.5294773578643799,3.027592897415161,-0.3507038950920105,-0.03584086894989014,-0.7599124312400818
433,-0.49541471887086613,0.6995048537819754,-1.5703621625334314,-0.36375492811203003,-0.6438388824462891,-0.6731669902801514,-1.255969524383545,2.3395819664001465,4.014909744262695,-0.6072075366973877,0.16059309244155884,-0.6149951815605164
434,-0.4591473422709234,0.3922614308493364,-1.3214731176572587,-0.40952274203300476,-0.38227906823158264,-0.8283440470695496,-1.641958475112915,1.072231650352478,2.093538522720337,-0.47614315152168274,-0.49517759680747986,-0.21937018632888794
435,-0.4865522342981075,0.2978821298349456,-1.166438634230418,-0.4469888508319855,-0.2934962809085846,-0.8450212478637695,0.21483774483203888,-0.30653318762779236,1.654349446296692,0.07467439770698547,-0.3234165906906128,0.550389289855957
436,-0.49050903627407205,0.2762618578905009,-1.1227047278412832,-0.4532126486301422,-0.27276116609573364,-0.848645806312561,0.30088311433792114,0.24916529655456543,-0.5190818309783936,-0.004795163869857788,-0.7798969149589539,0.48812639713287354
437,-0.5439812566927569,0.4151193372603164,-1.1277233686734516,-0.4735904932022095,-0.40329912304878235,-0.7829826474189758,1.3235549926757812,-1.1566698551177979,-1.409021258354187,-0.49370989203453064,-0.58748459815979,-0.05210036039352417
438,-0.3232228988012709,0.5197663492749748,-1.7664759328554733,-0.27567723393440247,-0.49667736887931824,-0.8229906558990479,-4.678952693939209,-1.7878711223602295,-9.445149421691895,-0.8267397880554199,0.5611305236816406,-0.5721204280853271
439,-0.3958475147297787,0.2322224644295171,-2.381451540618986,-0.3752400279045105,-0.23014089465141296,-0.8979031443595886,-2.698249101638794,-4.874790668487549,1.1602458953857422,0.8971516489982605,-0.11055734753608704,-0.9566958546638489
440,-0.41998628336054417,0.13310087308219476,-2.385254548870716,-0.40414145588874817,-0.13270822167396545,-0.9050183892250061,-1.615374207496643,-0.4891861379146576,1.0006526708602905,0.36976340413093567,0.39660900831222534,0.40350770950317383
441,-0.4405607947742639,0.09780353871602203,-2.261668842381741,-0.42440879344940186,-0.09764768928289413,-0.9001900553703308,1.4241701364517212,0.7522305846214294,3.632587432861328,0.002121835947036743,-0.31801697611808777,-0.3912680745124817
442,-0.4208071511081863,0.16937153986788886,-1.9500115613833906,-0.4026520848274231,-0.16856291890144348,-0.8996987342834473,3.3629353046417236,0.6179364323616028,2.524528741836548,-0.2887846827507019,-0.6695718765258789,-0.6225790977478027
443,-0.47534238508440146,0.45631794051104635,-1.62503761327122,-0.41081735491752625,-0.4406457841396332,-0.7981606125831604,3.841660976409912,-0.06326572597026825,0.46678441762924194,-0.18468737602233887,0.045107483863830566,-0.07600009441375732
444,-0.5301104615092552,0.7334840399965292,-1.578141776430484,-0.3756044805049896,-0.6694617867469788,-0.6408917307853699,1.7869056463241577,-0.28664958477020264,-2.275346040725708,0.19996055960655212,0.40702587366104126,0.07506531476974487
445,-0.4149761748840032,0.9854487495241128,-1.7135023793292965,-0.22274599969387054,-0.8335201144218445,-0.5055971145629883,0.9974072575569153,0.924701452255249,-1.740554690361023,0.5918256044387817,1.1858150959014893,0.5479860305786133
446,-0.19863067770821136,0.9489430223104326,-1.856093709926654,-0.11495144665241241,-0.8128002285957336,-0.571088433265686,-1.9589126110076904,0.3366644084453583,0.5623401999473572,0.11249477416276932,0.20289117097854614,0.09449547529220581
447,-0.23940244495668808,0.7455708357767387,-1.8614551312553802,-0.17421382665634155,-0.6783913373947144,-0.713746964931488,-1.307831048965454,-0.3972167372703552,0.5390867590904236,0.20431943237781525,-0.5178672075271606,-0.06419187784194946
448,-0.22628941485438644,0.6508761157412694,-1.9489386022203838,-0.17849279940128326,-0.6058836579322815,-0.7752711772918701,0.05907334387302399,-0.5385791659355164,-0.9493816494941711,-0.45886683464050293,-1.0678834915161133,-0.5130894184112549
449,-0.23019313015136017,0.7370022293468838,-2.086018504797033,-0.168953537940979,-0.672071099281311,-0.7209542989730835,1.629728078842163,-1.2894303798675537,-1.4890886545181274,-0.0331491082906723,0.1268288493156433,0.04778236150741577
450,-0.2740695417863295,0.9851684811100773,-2.212069725575407,-0.14959515631198883,-0.8333652019500732,-0.5320937633514404,1.648020625114441,-1.0410698652267456,-1.1508982181549072,0.3409861624240875,1.0031192302703857,0.43207240104675293
451,-0.08601833254937634,0.9797288361121309,-2.388546820373268,-0.04787443205714226,-0.8303462862968445,-0.5551874041557312,-1.559564232826233,1.6059075593948364,-0.5836371183395386,0.19585417211055756,0.814400851726532,0.1337854266166687
452,-0.08265072139152814,0.6673726546118806,-2.2685555246689586,-0.06484416872262955,-0.6189244985580444,-0.7827693223953247,-2.419651985168457,0.48076313734054565,2.6834259033203125,0.07961466908454895,-0.16815441846847534,-0.7097996473312378
453,-0.2599378474010831,0.44665035937548675,-1.912786196323656,-0.23180653154850006,-0.43194693326950073,-0.8716005682945251,-0.6977493166923523,-0.26961076259613037,2.21221923828125,-0.37091565132141113,-0.36009106040000916,-0.5862088203430176
454,-0.345165019224545,0.3214623235281464,-1.7782397961887257,-0.3210196793079376,-0.315954327583313,-0.892815351486206,-0.4442565143108368,-0.8073464035987854,1.8917019367218018,0.23074871301651,-0.2041109800338745,0.26689982414245605
455,-0.42837578114059244,0.19754257873255104,-1.6525463520987094,-0.4073152542114258,-0.19626030325889587,-0.891950786113739,-0.7733585238456726,0.2285241186618805,-0.02581491507589817,0.21108722686767578,-0.12373177707195282,0.444746196269989
456,-0.3724041236987625,0.22047553738677658,-1.6649566722921094,-0.35504817962646484,-0.21869367361068726,-0.9089080691337585,1.0780164003372192,0.5138567090034485,0.3142254054546356,0.15012264251708984,-0.6507063508033752,0.046893298625946045
457,-0.39774839138574825,0.43438302864523104,-1.5731514956438164,-0.35137084126472473,-0.42085081338882446,-0.8363152146339417,2.0017049312591553,-0.4699617922306061,-0.05076195299625397,-0.3196648955345154,-0.48480409383773804,-0.09163278341293335
458,-0.3602868279863347,0.5456046414267134,-1.8222977249883683,-0.30135828256607056,-0.5189350247383118,-0.799930989742279,-0.05481812730431557,-1.536859154701233,-3.989091396331787,-0.36821264028549194,-0.12097275257110596,-0.5684161186218262
459,-0.33761207834257845,0.7528569125833634,-2.094246398476139,-0.24171486496925354,-0.6837263703346252,-0.6885434985160828,2.2216789722442627,-1.181960105895996,-1.4822932481765747,0.20857277512550354,0.5691481232643127,0.10553568601608276
460,-0.4143492260521928,0.9422735450803077,-2.1296474335978646,-0.23670554161071777,-0.8088968992233276,-0.5381972789764404,1.2014080286026,-0.5522890090942383,-0.6142019033432007,0.21331381797790527,0.6987437009811401,0.21381068229675293
461,-0.46942419683826164,0.9985020444120756,-2.029496677579756,-0.2449880838394165,-0.8406606912612915,-0.4829809367656708,-0.429280161857605,1.0314399003982544,1.7338002920150757,0.239449143409729,0.5902639627456665,0.1381627917289734
462,-0.4714609952873638,0.7548091349278566,-1.8278637761677998,-0.3308318853378296,-0.6851496696472168,-0.6489377617835999,-1.39102041721344,2.193605899810791,2.9555506706237793,-0.2066132128238678,0.2313990592956543,-0.42296165227890015
463,-0.5189788952288799,0.4731528469372687,-1.523043037918743,-0.4415018856525421,-0.4556950032711029,-0.7729282975196838,-1.2645411491394043,-0.05373087525367737,2.7478044033050537,-0.6032674312591553,-0.4383632242679596,-0.48711198568344116
464,-0.6408049961183734,0.2933506258881473,-1.3547082723865722,-0.5723013877868652,-0.2891613245010376,-0.7673701047897339,-0.16410617530345917,-0.6718985438346863,1.52774977684021,0.25595617294311523,-0.3227618932723999,0.3369807004928589
465,-0.6200450637662369,0.25803418060941913,-1.3645098695953606,-0.5618345737457275,-0.255180299282074,-0.7869084477424622,-0.6050859093666077,0.7146938443183899,-0.5675463080406189,0.34358811378479004,-0.5394211411476135,0.44364672899246216
466,-0.5472990119022818,0.32723276124083445,-1.3978582516698852,-0.492768794298172,-0.32142385840415955,-0.8086196184158325,1.5959898233413696,0.38837990164756775,-0.549127459526062,-0.262968510389328,-0.6035791635513306,-0.03731238842010498
467,-0.5649534033970046,0.4799000052690772,-1.4540299657593825,-0.4749009311199188,-0.4616904854774475,-0.7492069005966187,-0.6964243054389954,-0.6214548945426941,-3.0657498836517334,-1.0000746250152588,-0.309259831905365,-0.5669704675674438
468,-0.4402734269381394,0.662025196534999,-1.8142233502032816,-0.33615440130233765,-0.6147154569625854,-0.7135300040245056,1.2752599716186523,-1.1966497898101807,-2.8410017490386963,-0.08869603276252747,0.3359679579734802,-0.2067732810974121
469,-0.526830162120689,0.8825068236736338,-1.9066143632589794,-0.31938451528549194,-0.7723336815834045,-0.5490849614143372,1.8027423620224,-1.436859369277954,-1.1797975301742554,0.27432531118392944,0.855692446231842,0.09460186958312988
470,-0.47480273390637445,1.0051862548339694,-2.018475227791521,-0.24500782787799835,-0.8442618250846863,-0.47664788365364075,-0.5070702433586121,0.7164872288703918,-1.0470560789108276,0.33335620164871216,0.7236410975456238,0.21976613998413086
471,-0.41408286114144266,0.8605987731807172,-1.9818397709156128,-0.26232588291168213,-0.7582330703735352,-0.5968815684318542,-2.2455332279205322,0.7703424096107483,2.8678674697875977,-0.01668110489845276,0.15155893564224243,-0.303997278213501
472,-0.4301725452713446,0.5900724923598398,-1.733990979866427,-0.3465084135532379,-0.5564212799072266,-0.7552001476287842,-0.6250653266906738,1.1892454624176025,3.837935209274292,-0.4049259126186371,-0.17931175231933594,-0.6255829334259033
473,-0.5025798564427377,0.3762968528458757,-1.4556569704644267,-0.4479851722717285,-0.36747896671295166,-0.8150267004966736,-1.6435339450836182,0.5405553579330444,2.044938564300537,-0.21316289901733398,-0.11460721492767334,-0.10881668329238892
474,-0.5043665371792332,0.2683633344014189,-1.3653188146012294,-0.4659554660320282,-0.265153706073761,-0.8441439867019653,-0.1353183090686798,0.15420854091644287,1.2781144380569458,0.2554757297039032,-0.2452680468559265,0.39407074451446533
475,-0.46349939311169513,0.2629922598512408,-1.3159117336403592,-0.43170878291130066,-0.25997108221054077,-0.8637375831604004,0.51200270652771,0.4898909032344818,-0.18009768426418304,-0.10294395685195923,-0.6740499138832092,0.2526383399963379
476,-0.4884680162518767,0.4066839294264712,-1.2839871520716157,-0.4309985339641571,-0.3955658972263336,-0.8110288977622986,2.0035009384155273,-0.8666278123855591,-0.4048275947570801,-0.354722261428833,-0.5524321794509888,0.05330801010131836
477,-0.5257610616294471,0.5460319958561498,-1.4016654624131117,-0.4288952350616455,-0.5193002820014954,-0.7391725778579712,-0.7307042479515076,-0.7912557721138,-3.51115083694458,-0.9366443157196045,-0.29757899045944214,-0.5770353078842163
478,-0.44076844026144,0.7370769662748534,-1.7729084147387486,-0.31589576601982117,-0.6721264719963074,-0.6696684956550598,1.236878514289856,-2.2580482959747314,-2.3154218196868896,-0.07469868659973145,0.5419079661369324,-0.10811769962310791
479,-0.6131815062067345,0.9152600913968965,-1.8997889632711715,-0.35079893469810486,-0.792721152305603,-0.49853113293647766,0.7701767086982727,-2.3682093620300293,-1.1881740093231201,0.5481408834457397,1.050503134727478,0.22661954164505005
480,-0.6069753252640294,0.9335105276997017,-2.000863654448127,-0.33938875794410706,-0.8037137389183044,-0.4887326657772064,-1.4746015071868896,1.291448712348938,0.3133437931537628,0.30751311779022217,0.31949132680892944,0.015084564685821533
481,-0.5299524322484208,0.7084326542089566,-1.926030809622405,-0.38386204838752747,-0.6506443619728088,-0.6552189588546753,-0.6469090580940247,0.9614730477333069,3.1105546951293945,0.15101292729377747,-0.30928605794906616,-0.6836177110671997
482,-0.573820572922082,0.5629843820387763,-1.5458662105781986,-0.4590652883052826,-0.5337123870849609,-0.7102183699607849,0.270254909992218,1.9019372463226318,3.077526330947876,-0.4786025285720825,0.14182090759277344,-0.2870197296142578
483,-0.5066931231221925,0.36137593578478017,-1.4532634987214548,-0.4539443552494049,-0.3535616397857666,-0.8178806304931641,-1.1199356317520142,0.3242826759815216,0.9091242551803589,-0.09085547924041748,-0.2565915584564209,0.10584449768066406
484,-0.5635714655156381,0.30216343284026076,-1.4037927539633555,-0.5100063681602478,-0.2975863218307495,-0.807053804397583,-0.10153763741254807,-0.4590727984905243,0.07590073347091675,0.23077058792114258,-0.1852475106716156,0.4823163151741028
485,-0.5525808471832847,0.29187700538653766,-1.4158039245597527,-0.5026859045028687,-0.28775036334991455,-0.8151727318763733,0.1688457578420639,0.17070643603801727,-0.06501534581184387,0.007263600826263428,-0.48466476798057556,0.18113958835601807
486,-0.6011052871379248,0.36104165071150407,-1.3713639832708253,-0.5290927290916443,-0.3532489240169525,-0.7715413570404053,1.0813772678375244,-0.9729236960411072,-0.182329922914505,-0.4025784134864807,-0.4203411638736725,-0.19141030311584473
487,-0.5791303620108537,0.4430920203142673,-1.5858597782388233,-0.4944440722465515,-0.4287349283695221,-0.7561159729957581,0.000371001660823822,0.1582745760679245,-3.081350564956665,-0.3053300976753235,-0.3397892117500305,-0.36157506704330444
488,-0.5855097751650649,0.6255302411662353,-1.7128054631153693,-0.4479864537715912,-0.5855271816253662,-0.6756227612495422,1.5390589237213135,-1.5232213735580444,-1.5388197898864746,0.008548587560653687,0.2728440761566162,0.07741719484329224
489,-0.6014693138850499,0.8202934901834618,-1.879488596009637,-0.3859165608882904,-0.7313460111618042,-0.562317967414856,0.012809038162231445,-0.6943864822387695,-2.7893104553222656,0.0859135091304779,0.6087874174118042,0.18226730823516846
490,-0.2940733271145031,0.9093862927721539,-2.2940742684545175,-0.17803651094436646,-0.7891269326210022,-0.5878620147705078,0.0367644801735878,0.3263276517391205,-1.3417942523956299,0.20681458711624146,0.3974643349647522,0.022966384887695312
491,-0.3623347836608155,0.8313694318515281,-2.1492788099862374,-0.2388569563627243,-0.7388548851013184,-0.630111813545227,-0.8384042978286743,1.0725815296173096,2.68599796295166,0.2514912486076355,0.46788930892944336,-0.04054248332977295
492,-0.44700216852306207,0.6261614939977018,-1.7549858915800995,-0.3502563238143921,-0.5860388278961182,-0.7306702136993408,0.1255626529455185,1.0382850170135498,3.9312543869018555,-0.4556671380996704,-0.042424917221069336,-0.5052154064178467
493,-0.5328260213683333,0.4267512410317167,-1.4903287153376323,-0.4624125063419342,-0.41391560435295105,-0.7841228246688843,-1.684844970703125,0.5908846259117126,1.6389734745025635,-0.0799611508846283,-0.04674723744392395,0.13112294673919678
494,-0.5026031893838548,0.30822943586684404,-1.507586824417699,-0.45900657773017883,-0.30337199568748474,-0.8350319862365723,-0.41114792227745056,-0.11005561053752899,0.39518865942955017,0.26731041073799133,-0.38835468888282776,0.30941247940063477
