,attitude.roll,attitude.pitch,attitude.yaw,gravity.x,gravity.y,gravity.z,rotationRate.x,rotationRate.y,rotationRate.z,userAcceleration.x,userAcceleration.y,userAcceleration.z
0,-0.80619523076681,1.2276303806485644,3.0716375658021615,-0.24281644821166992,-0.9416941404342651,-0.2329210788011551,0.7373541593551636,0.9823576211929321,-0.08221978694200516,0.112399622797966,0.2770060896873474,0.049449458718299866
1,0.14136654635188,0.460823650954577,1.9533836644954348,0.12619878351688385,-0.44468599557876587,-0.8867514729499817,-0.1671905517578125,0.04960343986749649,0.014766291715204716,-0.008187323808670044,0.02148348093032837,0.2534354329109192
2,0.18018595904252124,0.4613410344385816,1.924053866772501,0.16047698259353638,-0.44514933228492737,-0.8809592127799988,0.02790890820324421,-0.010342284105718136,-0.15964314341545105,0.01951567828655243,0.011677712202072144,0.17049479484558105
3,0.2356034214025919,0.4831701427257923,1.8831064361553649,0.20670826733112335,-0.4645887613296509,-0.8610627055168152,0.377154141664505,0.6385453939437866,-0.21472343802452087,-0.046964019536972046,-0.02491319179534912,0.11708992719650269
4,0.2932084010781901,0.49472144292294745,1.8432079258537373,0.2543713450431824,-0.47478652000427246,-0.8425396084785461,0.08590637892484665,0.9557260870933533,-0.22807277739048004,0.19872313737869263,-0.22084641456604004,-0.17476385831832886
5,0.4418232756173098,0.5131184877595844,1.755577463964955,0.37252262234687805,-0.4908965229988098,-0.7875578999519348,0.7998281717300415,1.7192907333374023,-1.1434756517410278,0.18738335371017456,0.0431426465511322,0.06003415584564209
6,0.6302955420528533,0.5074207719996002,1.6092246127192227,0.5151216387748718,-0.485924631357193,-0.7060644030570984,0.9170065522193909,0.4689253568649292,-1.362441897392273,-0.046814143657684326,0.3311395049095154,0.03524225950241089
7,0.990856241333121,0.4553779672411833,1.1280053415350335,0.7512522339820862,-0.43980178236961365,-0.49213242530822754,3.699359655380249,1.1605358123779297,-4.5644097328186035,-0.08311569690704346,0.6434608697891235,0.3622954189777374
8,1.1679646908259296,-0.006047533490500122,0.6284240141057481,0.919937789440155,0.006047496572136879,-0.3920177221298218,0.783058762550354,0.10408024489879608,-7.736174583435059,-0.30470341444015503,0.3751475512981415,-0.15165293216705322
9,1.0078022242675533,-0.5209588064520412,0.2252984483218328,0.7334774732589722,0.49771198630332947,-0.4629184603691101,0.5110593438148499,-3.272212028503418,-2.039402723312378,1.7914705276489258,-1.1454933881759644,-0.04399380087852478
10,0.9887031312178388,-0.42513152315042285,0.2511939820378805,0.7609577775001526,0.41244059801101685,-0.5008352398872375,0.5747129321098328,2.312279224395752,1.4583678245544434,0.47210490703582764,0.13354936242103577,-0.055774807929992676
11,1.1450711444395194,-0.14763357796919707,0.3960923059523982,0.9008324146270752,0.1470978707075119,-0.4084888994693756,-0.9462408423423767,-0.02640032395720482,5.308355331420898,-0.0733940601348877,-0.7703736424446106,-0.4261058568954468
12,1.1395921230968633,0.1352877451845113,0.626235916322464,0.9001621007919312,-0.13487543165683746,-0.41414597630500793,-0.2590159475803375,1.3218857049942017,2.252963066101074,-0.6451267004013062,0.13406671583652496,0.7490153312683105
13,1.3135016392612542,0.3485065035805744,0.7932820403669884,0.9089446663856506,-0.34149447083473206,-0.23916774988174438,-0.3829602301120758,0.7770726680755615,2.573517322540283,-0.060571253299713135,0.31720250844955444,0.20736843347549438
14,1.4662717274653223,0.5056863765878334,0.7807257513458363,0.8700675368309021,-0.48440802097320557,-0.09127611666917801,1.2152044773101807,2.4875471591949463,-0.089301198720932,0.5456428527832031,-0.014890044927597046,-0.001741461455821991
15,1.5149728068701416,0.6045256551709465,0.8400593200612668,0.8214901685714722,-0.5683718919754028,-0.04590616747736931,-0.6813409328460693,0.56349116563797,1.3566967248916626,0.46835052967071533,0.05041229724884033,-0.3756178617477417
16,1.5768456879427306,0.6086872081451222,0.7344480261819332,0.8203845024108887,-0.5717909336090088,0.004962862469255924,0.26971909403800964,-0.9328754544258118,-1.1263041496276855,0.04811537265777588,0.2030927538871765,0.18641281127929688
17,1.524453246081663,0.523912852122225,0.7422950768798656,0.864938497543335,-0.5002719759941101,-0.04011263698339462,-0.10125133395195007,-0.17627958953380585,-0.31978172063827515,-0.3780307173728943,0.2602665424346924,0.0414249412715435
18,1.558370494841023,0.38201269125562615,0.664128857318489,0.9278445839881897,-0.37278884649276733,-0.011529834009706974,0.9516087174415588,0.27566638588905334,-1.786515474319458,-0.2829776406288147,0.034806668758392334,0.11376368999481201
19,1.5439790881205044,0.3231997820919654,0.5950065391467406,0.9478830695152283,-0.317602276802063,-0.025425700470805168,0.47029781341552734,-0.2307891845703125,0.19653037190437317,0.15647178888320923,-0.33638936281204224,0.5112807750701904
20,1.5500245682867935,0.35323548326702375,0.6638006581593529,0.9380559921264648,-0.3459353446960449,-0.01948787458240986,-1.1662038564682007,0.5717071294784546,0.27497440576553345,0.6817712783813477,-0.015408039093017578,-0.5158819556236267
21,1.5506691992138222,0.4034435168695879,0.749943546705567,0.9195283055305481,-0.39258772134780884,-0.018509963527321815,-0.6297657489776611,0.3916313350200653,0.9042866230010986,-0.047061264514923096,0.13900190591812134,-0.09469503164291382
22,1.5467877132305106,0.5121224235035461,0.7659159549800575,0.8714552521705627,-0.4900284707546234,-0.020926453173160553,0.7568943500518799,-0.4374530017375946,-0.13068194687366486,-0.29099565744400024,0.5567094087600708,-0.054406166076660156
23,1.5367398031402675,0.31472987761642546,0.5813252771947438,0.9503286480903625,-0.3095596432685852,-0.03237740695476532,2.4527735710144043,-0.8310570120811462,-3.5963425636291504,-0.29798489809036255,0.4402664005756378,-0.0034959912300109863
24,1.5381420807173651,0.15845723081456,0.5277537656988148,0.9869455695152283,-0.15779495239257812,-0.03223942220211029,-0.7694441676139832,0.6940147876739502,-0.08518258482217789,0.21424156427383423,-0.4131584167480469,0.14166021347045898
25,1.5812403152258532,0.19015425865355057,0.64374329051768,0.9819214344024658,-0.1890103816986084,0.010255549103021622,-1.1181856393814087,0.5265553593635559,0.6504851579666138,0.5541502237319946,0.04052712023258209,-0.2691056728363037
26,1.6190246515441105,0.26460575529610464,0.7072122448931765,0.9640734195709229,-0.26152876019477844,0.04653172940015793,-0.5523988008499146,0.10714207589626312,1.0675582885742188,-0.04985839128494263,0.11228257417678833,0.09511566162109375
27,1.6675258334322725,0.40982386965963935,0.7403527443227647,0.9129034280776978,-0.39844778180122375,0.0885811448097229,-0.0488811731338501,0.10134410113096237,1.4292041063308716,-0.36729496717453003,0.16247060894966125,-0.24238967895507812
28,1.7347058268474758,0.5045230806057978,0.6870406561788338,0.8636720180511475,-0.4833900034427643,0.14284558594226837,1.194745421409607,0.1003790870308876,0.21694743633270264,-0.40644240379333496,0.19011610746383667,-0.0886768102645874
29,1.6908961185702245,0.4201665781352954,0.6020228536408058,0.906444251537323,-0.40791255235671997,0.10939021408557892,0.7235857248306274,-0.8157244920730591,-0.923355758190155,0.1900370717048645,0.16459590196609497,0.2422027587890625
30,1.6666756620684746,0.34544492364568047,0.5506044658884205,0.9366033673286438,-0.338615357875824,0.09007710218429565,0.56057208776474,0.0034012729302048683,-0.6379926204681396,0.451854944229126,-0.1777268350124359,0.11397875100374222
31,1.6957000825557178,0.27963721439664524,0.5115492862222,0.953667938709259,-0.2760069668292999,0.11974003911018372,-0.1777796447277069,-0.0006831921637058258,-0.01058623380959034,0.21546047925949097,-0.2776124179363251,-0.40192079544067383
32,1.6641002133477607,0.21612493833853422,0.5210945572965192,0.9724872708320618,-0.21444633603096008,0.09100107103586197,0.3372950553894043,-0.7295870780944824,-1.010884165763855,-0.19250380992889404,0.14324882626533508,0.24859857559204102
33,1.6377047320155043,0.17450158716653139,0.5521576859634099,0.9826096892356873,-0.17361731827259064,0.0658431276679039,-0.5639256238937378,0.11962956190109253,-0.4803348779678345,-0.555073618888855,0.14399999380111694,-0.08542013168334961
34,1.6144684881822335,0.08949504243776678,0.5558419580273698,0.9950484037399292,-0.08937562257051468,0.043483562767505646,-0.30549123883247375,0.11024118214845657,-0.2381374090909958,0.4797288179397583,-0.4159802198410034,0.23169350624084473
35,1.6514312298372107,0.12989994900079857,0.6853620458274974,0.9883530139923096,-0.12953492999076843,0.07986892759799957,-0.4772757291793823,0.9091531038284302,0.8089757561683655,0.9238631725311279,-0.17944028973579407,0.02675950527191162
36,1.7421989163592673,0.2562767801906029,0.6840904136460705,0.9531655311584473,-0.2534807026386261,0.1649939864873886,-0.06645093858242035,0.566901683807373,0.784671425819397,-0.0008034706115722656,0.5101182460784912,-0.034882307052612305
37,1.7324838104209899,0.25559728685736194,0.6904819551078868,0.9548932313919067,-0.2528233230113983,0.1557539403438568,-0.06918659806251526,-1.3248893022537231,-0.29023322463035583,-0.44325077533721924,0.2083134651184082,-0.3835982084274292
38,1.63364863979385,0.24096971236543124,0.7014473260091659,0.9691894054412842,-0.23864443600177765,0.06099613755941391,0.22544319927692413,-0.5729948878288269,-0.1436804234981537,-0.48594367504119873,0.15760502219200134,0.05098807066679001
39,1.5643039045589024,0.2178667098803948,0.6705990671766586,0.976340115070343,-0.2161472588777542,-0.006338901352137327,-0.0761004388332367,-1.470084547996521,0.11423948407173157,0.19603830575942993,-0.2191096842288971,0.17673379182815552
40,1.5454847858574758,0.2710047343935583,0.6843429406497092,0.9631937742233276,-0.26769962906837463,-0.024385126307606697,0.09997089952230453,0.7907024621963501,0.5803472399711609,0.5262013077735901,-0.04467824101448059,0.030030908063054085
41,1.5476696908486713,0.24158166596188665,0.681086496102621,0.9707011580467224,-0.2392386645078659,-0.022453056648373604,-0.20919577777385712,-0.9064793586730957,-0.4049527049064636,-0.07537645101547241,0.1626700609922409,-0.35691094398498535
42,1.5296381007785878,0.1784736614530931,0.7068950065289703,0.9832823872566223,-0.17752768099308014,-0.04049302637577057,0.022914620116353035,-0.44706088304519653,-0.6038036942481995,-0.23596793413162231,0.19991233944892883,-0.11996841430664062
43,1.4454858607909216,0.13433703001563493,0.7517389443665177,0.9832198023796082,-0.13393335044384003,-0.12385670840740204,-0.8210596442222595,-0.13607025146484375,0.3185328543186188,-0.1807754635810852,0.16603787243366241,-0.10880927741527557
44,1.4318275857128457,0.18584659702010073,0.785590901271084,0.9733054637908936,-0.1847786158323288,-0.13613653182983398,-0.17280499637126923,-0.933697521686554,0.3585434854030609,-0.051659464836120605,-0.03447490930557251,0.15144111216068268
45,1.4077025609935068,0.17845796722493315,0.864808547336453,0.9710589647293091,-0.1775122433900833,-0.15979298949241638,-0.9981857538223267,1.1780060529708862,0.3222063183784485,0.6187389492988586,-0.1900262087583542,-0.11549083888530731
46,1.4509762202120757,0.22029513085351296,0.7776237615426129,0.9688364267349243,-0.21851763129234314,-0.11664483696222305,1.5316438674926758,0.31853121519088745,0.38527950644493103,0.3557332754135132,0.15963396430015564,-0.33818912506103516
47,1.4534603750489485,0.2436872006741559,0.6721844657914623,0.9637821316719055,-0.24128252267837524,-0.11360815167427063,-0.08082959800958633,0.022417914122343063,0.032980434596538544,-0.23708230257034302,-0.17242902517318726,0.22666054964065552
48,1.4947278613820238,0.2524701859893533,0.6927039909596583,0.9654982686042786,-0.24979659914970398,-0.07358596473932266,0.4185367822647095,0.008472803048789501,0.04314092546701431,-0.6394637227058411,0.19567365944385529,-0.014686167240142822
49,1.4765295154998677,0.24487280222119395,0.6636563668457246,0.9658608436584473,-0.24243292212486267,-0.09131927788257599,-0.1825878620147705,-0.37244874238967896,0.038474246859550476,-0.014444828033447266,0.015305861830711365,0.062419116497039795
50,1.466914190027528,0.257820685888175,0.6766624674656857,0.9617351293563843,-0.2549738883972168,-0.10026804357767105,-0.036158010363578796,-0.7506025433540344,0.2646515667438507,0.34836912155151367,-0.2663273513317108,0.13028205931186676
51,1.4570529841067603,0.29830472008793923,0.6891743908881215,0.9496597051620483,-0.2939002215862274,-0.10848572105169296,1.7695013284683228,-1.2668853998184204,-0.34114423394203186,0.11331331729888916,0.04519721865653992,-0.39967775344848633
52,1.4342015866787987,0.2541413185941148,0.47953925844812806,0.9588640928268433,-0.25141438841819763,-0.13179650902748108,1.1676578521728516,-0.7951784729957581,-0.33916175365448,-0.26812928915023804,-0.1291702687740326,-0.02134065330028534
53,1.3427629782531088,0.2620045451090502,0.4905735621003883,0.9408690333366394,-0.2590171992778778,-0.21834734082221985,-0.6926544904708862,0.0513596348464489,0.2742008864879608,-0.6329466700553894,0.2189934253692627,0.25754719972610474
54,1.320265145008264,0.23159877479883675,0.5758704004173911,0.9429150223731995,-0.22953391075134277,-0.2412993311882019,-0.36619123816490173,-0.041399996727705,-0.5228274464607239,0.36761653423309326,-0.07071328163146973,0.1272246241569519
55,1.3522980836189464,0.21214302487834238,0.6188834661442092,0.9543390274047852,-0.21055535972118378,-0.2119043916463852,0.08320172876119614,0.49541962146759033,0.12533891201019287,0.42346858978271484,-0.42657536268234253,-0.1739140748977661
56,1.4195702805112083,0.25063950854303846,0.5695037060687853,0.9576976299285889,-0.24802353978157043,-0.1459430605173111,-0.3652777075767517,1.2860726118087769,0.8809394240379333,0.08690369129180908,0.3536601662635803,-0.20291857421398163
57,1.434608059974104,0.3095565716161151,0.633316266300326,0.9436494708061218,-0.3046363294124603,-0.12931445240974426,0.42071205377578735,-0.8237164616584778,0.05759797617793083,-0.3739932179450989,0.16752085089683533,-0.05228041112422943
58,1.4698377080276457,0.31415252813725636,0.6130282550660189,0.9462157487869263,-0.3090105950832367,-0.09585452824831009,0.1816295087337494,0.455834299325943,0.11222729086875916,-0.48132628202438354,0.23010742664337158,0.09028507024049759
59,1.4663235827627077,0.31848848603962615,0.521930734330445,0.9445317387580872,-0.3131314218044281,-0.09903840720653534,1.4429820775985718,-0.735323965549469,-0.0796477422118187,-0.014432251453399658,0.1079159677028656,0.11411404609680176
60,1.442461878546925,0.37497609061265796,0.5226099050762858,0.9228641986846924,-0.36625027656555176,-0.119089774787426,-0.03740620240569115,0.22097155451774597,0.9830052256584167,0.5423304438591003,-0.18541595339775085,0.10470075905323029
61,1.461565525751108,0.42536706549229947,0.513561921685454,0.9054586291313171,-0.41265517473220825,-0.09929921478033066,0.4636839032173157,-0.0939251184463501,-0.021891336888074875,0.10920500755310059,0.19416460394859314,-0.40036511421203613
62,1.431171460527299,0.421264548260811,0.5668103935750498,0.9036917686462402,-0.4089147746562958,-0.1270042359828949,-1.137727975845337,-0.32571569085121155,0.16640836000442505,-0.12724828720092773,0.17620298266410828,0.08295214176177979
63,1.338276360272288,0.4221303654456632,0.777164924322055,0.8876693844795227,-0.4097047448158264,-0.21020282804965973,-1.8944448232650757,0.19480669498443604,0.3656586706638336,-0.35771632194519043,0.32486581802368164,0.03852614760398865
64,1.2680758411014088,0.39620906825393026,0.9311672258851977,0.8805822730064392,-0.3859238624572754,-0.27502310276031494,-1.452987551689148,0.18895626068115234,0.05254951864480972,0.05290466547012329,-0.05484148859977722,0.33692795038223267
65,1.265443005090963,0.364325597973707,1.0779532446486377,0.8911412358283997,-0.35631924867630005,-0.2808980643749237,-1.3720242977142334,0.8744228482246399,0.01991395838558674,0.2390161156654358,-0.09686672687530518,0.16584688425064087
66,1.3331533637449529,0.3499910055913472,1.1659329554065787,0.9129751324653625,-0.34288936853408813,-0.2211407870054245,-0.2079119086265564,0.8187093734741211,0.349068284034729,0.6414834260940552,0.29606014490127563,-0.1605425328016281
67,1.3526046633871134,0.363999342448815,1.3169900534859247,0.9123244881629944,-0.3560143709182739,-0.2022818922996521,-1.8093169927597046,0.8285182118415833,0.339528888463974,0.1367173194885254,0.08872616291046143,-0.12422570586204529
68,1.319968881355968,0.35867850296883663,1.4701884928878748,0.9070603251457214,-0.3510371446609497,-0.23241017758846283,-0.631445050239563,-0.8175660371780396,0.2286001443862915,-0.8697373867034912,-0.013708919286727905,0.12135672569274902
69,1.2607637186986809,0.38150828486502464,1.504995585822373,0.8838554620742798,-0.3723207414150238,-0.28315499424934387,0.3691572844982147,-0.13209159672260284,0.08093048632144928,-0.8446251749992371,-0.0644468367099762,0.26669082045555115
70,1.2978473326569389,0.3684488389075116,1.2934264654160217,0.8983517289161682,-0.36016881465911865,-0.2514806389808655,2.278574228286743,-1.4026086330413818,0.338593065738678,2.3277835845947266,-0.6645046472549438,-0.20672550797462463
71,1.2153326266754136,0.40007728315161867,1.325817554102173,0.8634528517723083,-0.3894895315170288,-0.3205418884754181,-0.46396470069885254,1.0704013109207153,0.1537327766418457,-0.6797217726707458,0.8862241506576538,0.1394352912902832
72,1.3042867473377775,0.40254656526386384,1.2855664314218533,0.8875842690467834,-0.3917626142501831,-0.24231402575969696,-0.38542109727859497,1.3664989471435547,0.19462020695209503,-0.8063160181045532,0.433495432138443,0.22598716616630554
73,1.4229552037031683,0.39225813218140154,1.3865374804439816,0.9139679670333862,-0.3822759985923767,-0.1361151933670044,-1.591304063796997,-0.4590437412261963,-0.09758219122886658,1.1972532272338867,0.004025936126708984,-0.3698814809322357
74,1.3750588812021673,0.3726702606086893,1.5888102064569587,0.9135736227035522,-0.3641037046909332,-0.18113984167575836,-1.5389431715011597,-0.8231759071350098,0.49823087453842163,-0.621367871761322,-0.0419478714466095,-0.05294524133205414
75,1.3233954713769362,0.4000748109969927,1.620290655775239,0.8929885029792786,-0.38948723673820496,-0.2255467027425766,0.3861370384693146,-0.42705681920051575,0.18367637693881989,-1.0976394414901733,0.11383721232414246,0.23557168245315552
76,1.3740453455462216,0.3780756888481686,1.4611211174735526,0.9114460945129395,-0.36913275718688965,-0.18167829513549805,2.9220070838928223,0.23801669478416443,-1.5577338933944702,1.4048075675964355,-0.6139299869537354,-0.805687427520752
77,1.3124635034971448,0.3734533094567775,1.2588259323665998,0.9001774191856384,-0.36483287811279297,-0.23786033689975739,-1.4179126024246216,-0.5161065459251404,0.47999754548072815,0.3659968972206116,-0.20203110575675964,0.7460542917251587
78,1.3059203929058079,0.3645006599166785,1.3171129948058589,0.9017181396484375,-0.3564828038215637,-0.24459046125411987,1.0917075872421265,0.03293896093964577,-0.6527122855186462,-0.8449554443359375,0.590644121170044,0.10352295637130737
79,1.3920356801013363,0.3326009297809095,1.2679586342859048,0.9301343560218811,-0.3265025317668915,-0.16806544363498688,0.08211913704872131,1.6502032279968262,-0.3499142527580261,-0.25471943616867065,0.41958117485046387,0.08217373490333557
80,1.4666387881292324,0.29357836200062204,1.291996982786927,0.9520269632339478,-0.2893793284893036,-0.09952094405889511,-1.1313964128494263,0.23838992416858673,-0.11791007220745087,0.9101556539535522,-0.5037877559661865,0.0018188953399658203
81,1.4321973779665695,0.3129542155012524,1.4672642910540594,0.9423045516014099,-0.30787068605422974,-0.13144516944885254,-0.9412018656730652,-0.07081712037324905,0.5684739351272583,-0.6222972869873047,0.06408104300498962,0.08504319190979004
82,1.3669101595986013,0.34861752802949675,1.4341179946198286,0.9203789830207825,-0.34159883856773376,-0.1902967244386673,1.5398893356323242,-1.1687344312667847,0.03112083300948143,-1.1810753345489502,0.21934542059898376,0.1039624959230423
83,1.4342111505995176,0.32683583516569115,1.2011439449490795,0.9382426738739014,-0.32104799151420593,-0.12895293533802032,2.9970498085021973,-0.03479389473795891,-1.313164234161377,1.5518238544464111,-0.676922619342804,-0.6170187592506409
84,1.3459125776147627,0.3438252577340108,1.0615090764831616,0.9177659749984741,-0.3370909094810486,-0.20994174480438232,-0.9555501937866211,-0.22669591009616852,0.7075096368789673,0.02972865104675293,-0.052527040243148804,0.32369598746299744
85,1.344165859952994,0.36446106134087847,1.0825112178988512,0.9104247093200684,-0.3564458191394806,-0.20993655920028687,0.8662058711051941,-0.09076034277677536,-0.26324573159217834,-0.7970061302185059,0.6830296516418457,0.13172000646591187
86,1.4854268014135557,0.36523221807236345,1.0650424680405102,0.9306393265724182,-0.35716620087623596,-0.07964181154966354,-0.13854661583900452,2.6111433506011963,0.11668059974908829,0.859582781791687,0.37540048360824585,-0.23955678939819336
87,1.4854689565948997,0.33643326627501663,1.190293783767148,0.9405038952827454,-0.3301224112510681,-0.08044605702161789,-1.4482388496398926,0.9877331256866455,0.00993049331009388,0.40910547971725464,-0.395600825548172,0.06514149904251099
88,1.3897551321632708,0.3746201788954126,1.4033205012708863,0.9154368042945862,-0.3659190833568573,-0.16756650805473328,-0.5504546761512756,-0.23009026050567627,0.6211839914321899,-0.935944676399231,0.2128276526927948,0.16050173342227936
89,1.3640065829284949,0.41345245408035086,1.3814633213432983,0.8962293863296509,-0.40177327394485474,-0.18801873922348022,0.8446332216262817,-0.22408054769039154,0.04182123392820358,-0.8154799342155457,0.14064964652061462,0.16180413961410522
90,1.4447121218581007,0.36428162542548886,1.1461131663844975,0.926962673664093,-0.3562781512737274,-0.11749864369630814,2.931190252304077,-2.7710397243499756,-0.08348876982927322,1.7027063369750977,-0.6329033374786377,-0.49907851219177246
91,1.3273573856329486,0.39337966305861466,1.1814165041258227,0.8963857889175415,-0.3833121061325073,-0.222630575299263,-2.488219738006592,-0.09432168304920197,0.8479493260383606,-0.3221670389175415,0.5736044645309448,0.2121325135231018
92,1.3294747802658233,0.3825999851136442,1.3248586350643476,0.9008153080940247,-0.37333372235298157,-0.22170671820640564,-0.8468995094299316,1.0920346975326538,0.03703835979104042,-0.6775486469268799,0.5976378917694092,0.14750319719314575
93,1.4463891832871998,0.3674714457741204,1.4319029572268722,0.9260262250900269,-0.3592568337917328,-0.1158023253083229,-0.7841100692749023,-0.005634012166410685,-0.7409710884094238,1.1184532642364502,-0.2499503195285797,-0.7585415840148926
94,1.4114003466773728,0.33911213442995036,1.6394343163276681,0.9310956597328186,-0.33264991641044617,-0.14968273043632507,-2.88188099861145,0.29627957940101624,0.5678390264511108,0.2211870551109314,-0.5344460010528564,0.5097596645355225
95,1.352085287524551,0.388644588520216,1.7599854947959934,0.9033780694007874,-0.37893444299697876,-0.20079058408737183,0.8784363269805908,-1.0994621515274048,0.22777029871940613,-0.9105496406555176,0.19051885604858398,0.048416346311569214
96,1.3523552279413622,0.4104883732560475,1.6311449824782978,0.8951367139816284,-0.39905717968940735,-0.19870525598526,1.9549736976623535,0.8759124875068665,-0.862006425857544,0.12759888172149658,-0.10754990577697754,-0.006968021392822266
97,1.369104089561308,0.38775361566665134,1.3895313142220453,0.9069945812225342,-0.37810975313186646,-0.18545536696910858,0.5115865468978882,-1.4812676906585693,0.252562552690506,0.5265533328056335,-0.48625481128692627,0.3403931260108948
98,1.3176570980972226,0.4096926141014951,1.5027686533324711,0.8880116939544678,-0.39832741022109985,-0.2297184318304062,-1.1856133937835693,0.3267710506916046,0.36960941553115845,-0.4874684810638428,0.6452145576477051,-0.004336118698120117
99,1.3322736697497797,0.39056415299720165,1.5429802021523875,0.8985145092010498,-0.3807101547718048,-0.2184751033782959,-0.3210168778896332,0.9020613431930542,-0.038619235157966614,-0.8157203197479248,0.5358309745788574,0.3234555721282959
100,1.4835126377957861,0.3772028742868978,1.6527093668831496,0.9261592626571655,-0.36832141876220703,-0.0810445174574852,-2.0906875133514404,-0.3946417272090912,-0.43585994839668274,1.8946871757507324,-0.3138226866722107,-0.6868387460708618
101,1.408081504149423,0.36541986203332666,1.8477280531915554,0.9216370582580566,-0.357341468334198,-0.15130166709423065,-2.768460273742676,-0.07710349559783936,0.5984191298484802,-0.08009964227676392,-0.329578697681427,0.7551224231719971
102,1.348453306807483,0.4073807543613753,1.9755906423042031,0.8955596685409546,-0.3962058126926422,-0.20246893167495728,-0.13192026317119598,0.09562859684228897,0.5105976462364197,-0.8947968482971191,0.10163494944572449,0.04389962553977966
103,1.3866685103007284,0.4296413812853854,1.9236674260163218,0.8937477469444275,-0.4165447950363159,-0.16644912958145142,1.3179377317428589,0.8243921995162964,-0.8262953758239746,0.42064428329467773,-0.1784258484840393,-0.01925031840801239
104,1.328109734719725,0.41543189748390374,1.7861603155857344,0.8881306052207947,-0.40358513593673706,-0.21987099945545197,0.06397570669651031,-1.9939312934875488,0.4385734498500824,0.5733410120010376,-0.2689002454280853,0.6299052238464355
105,1.271942444736219,0.41281950338186646,1.8977013909161888,0.87539142370224,-0.4011935591697693,-0.2696913778781891,0.3444189131259918,0.7067523002624512,-0.4910908639431,-0.6535592675209045,0.8305912017822266,0.08077231049537659
106,1.391576996422282,0.3974070135849419,1.8926720990250543,0.9072990417480469,-0.3870287239551544,-0.1643691211938858,-0.2382998913526535,2.40868878364563,0.1832686811685562,0.33560556173324585,0.4970599114894867,0.015489116311073303
107,1.432827363689995,0.37075393754006125,2.007107337558609,0.9231975078582764,-0.3623182475566864,-0.12818700075149536,-1.3805158138275146,0.4504527449607849,-0.18081192672252655,0.45357251167297363,-0.12169057130813599,0.04337865114212036
108,1.3785829065568782,0.37677616662075497,2.141808522370866,0.9127311110496521,-0.36792469024658203,-0.1776321828365326,-0.27907487750053406,-0.5594983696937561,0.6270110607147217,-0.7920494079589844,-0.03898140788078308,0.022236719727516174
109,1.3687577983905335,0.4183379591879327,2.0881432329317886,0.8951789736747742,-0.406242311000824,-0.18336237967014313,1.5123952627182007,-0.06534598022699356,-0.42233148217201233,-0.5468513369560242,0.042549073696136475,0.057980895042419434
110,1.4248070519988296,0.378812562809412,1.8644305643338988,0.919221043586731,-0.36981746554374695,-0.1351579874753952,1.6352156400680542,-2.7993617057800293,0.3210504949092865,0.9231708645820618,-0.5183966159820557,-0.2958570718765259
111,1.3051754931312263,0.4109815476465817,1.93158608163423,0.8845792412757874,-0.39950934052467346,-0.24064910411834717,-0.5435221791267395,0.2471318244934082,0.2554504871368408,-0.5083737373352051,0.6167486906051636,0.09710964560508728
112,1.3697076735437517,0.39084360803965845,1.912794820476967,0.9059573411941528,-0.38096854090690613,-0.18467368185520172,-0.250300794839859,1.258185625076294,-0.04561564698815346,-0.6501590013504028,0.539339542388916,0.18514668941497803
113,1.4772080498408109,0.36200609958939756,1.988788690711575,0.9310956597328186,-0.35415101051330566,-0.08739494532346725,-1.938599944114685,-0.880978524684906,0.061473771929740906,1.0716661214828491,-0.41626521944999695,-0.6613080501556396
114,1.4170263020721587,0.3378771682888168,2.2030749228045736,0.9323282241821289,-0.3314850330352783,-0.1445048749446869,-1.9241827726364136,-0.17439517378807068,0.3846839368343353,-0.2814798951148987,-0.3370940387248993,0.2564586400985718
115,1.3292366559568949,0.36405682127665423,2.212821625613524,0.9073290824890137,-0.35606810450553894,-0.22353902459144592,0.8810263276100159,-0.7225824594497681,0.2038770616054535,-1.0418046712875366,0.038975149393081665,0.21522292494773865
116,1.403719723287068,0.3377071844906419,2.0265385930297017,0.9303784966468811,-0.33132466673851013,-0.15690720081329346,2.64009428024292,1.4485681056976318,-1.416053056716919,1.6343646049499512,-0.818745493888855,-0.7117146253585815
117,1.3081234246642157,0.3681517047151692,1.8519307319193752,0.9009917974472046,-0.3598915934562683,-0.24226374924182892,-0.6347228288650513,-0.8012828826904297,0.5152082443237305,0.21256405115127563,0.07175993919372559,0.6182861328125
118,1.2852542652170371,0.3841402652775599,1.9079717619787724,0.8895810842514038,-0.3747622072696686,-0.26114922761917114,0.5118569731712341,0.42663225531578064,-0.22378410398960114,-0.8168882131576538,0.6994081735610962,0.18311578035354614
119,1.4351673808033685,0.3727661619101571,1.918260519128638,0.922770619392395,-0.36419302225112915,-0.12592750787734985,-0.5253812074661255,3.36562180519104,0.25998377799987793,0.9419143795967102,0.29059991240501404,-0.26092857122421265
120,1.4908132827453626,0.34196242979134667,2.0540723182084695,0.9390864968299866,-0.3353365361690521,-0.07527157664299011,-1.3022269010543823,0.7120288610458374,-0.3368557095527649,0.5134891271591187,-0.2497158944606781,-0.0848236009478569
121,1.425468662147542,0.33780805391712654,2.2237072870586583,0.9335376620292664,-0.33141982555389404,-0.13663209974765778,-0.6478575468063354,-0.8802921772003174,0.41837015748023987,-0.8814441561698914,0.07476699352264404,-0.006205439567565918
122,1.3838895730457856,0.3704984995694532,2.17338334254796,0.915912389755249,-0.3620801568031311,-0.173211932182312,1.3013973236083984,-0.679802417755127,-0.06237323582172394,-0.9861181378364563,0.07353648543357849,0.1916140466928482
123,1.4782352019483231,0.31293580751507694,1.9426637684750174,0.9473610520362854,-0.30785319209098816,-0.08794008940458298,2.073479413986206,-2.7323226928710938,0.3906533718109131,2.103832244873047,-0.997856616973877,-0.9031335115432739
124,1.3316591625498713,0.3684512924604884,1.95840391716697,0.9063387513160706,-0.3601711094379425,-0.22096754610538483,-2.005368232727051,0.04857844486832619,0.8478472232818604,-0.2294742465019226,0.3780849277973175,0.312215119600296
125,1.3343795836869323,0.36625138852399314,2.043443694077885,0.9077047109603882,-0.3581179678440094,-0.21868617832660675,0.25065645575523376,0.27931204438209534,-0.36789464950561523,-0.8595174551010132,0.5806673765182495,0.11170685291290283
126,1.5015417962258206,0.35616049334407207,2.0218444597641305,0.9349959492683411,-0.34867826104164124,-0.06485642492771149,-1.0562421083450317,3.0150580406188965,-0.0793749988079071,2.0440995693206787,-0.009231925010681152,-0.48169809579849243
127,1.486519749883899,0.3335535692881509,2.1481427612896886,0.941531240940094,-0.327402800321579,-0.07953742891550064,-1.1280531883239746,0.7639216184616089,-0.08935544639825821,-0.05231010913848877,-0.25705456733703613,0.34861087799072266
128,1.3690520410983793,0.34590328706449464,2.2218940281836868,0.9216893911361694,-0.3390465974807739,-0.18851003050804138,0.5849255919456482,-1.489135980606079,0.4844833314418793,-1.0799230337142944,-0.011905550956726074,0.13305962085723877
129,1.3716239147967242,0.377832096866944,2.077258117926928,0.9110916256904602,-0.3689063489437103,-0.1839025467634201,2.261876344680786,1.1581053733825684,-1.6557493209838867,-0.0663803219795227,-0.13625112175941467,0.0572698712348938
130,1.372976780418499,0.3448854953330251,1.825740105033823,0.922760009765625,-0.3380889296531677,-0.18495891988277435,0.5301835536956787,-1.2912988662719727,0.4322046637535095,0.7546538710594177,-0.2227020561695099,0.44562482833862305
131,1.30705591071174,0.3681120983702483,1.9297863626351948,0.9007464647293091,-0.35985463857650757,-0.24322916567325592,0.45712679624557495,0.6503992676734924,0.06785602867603302,-0.8137408494949341,0.5636510848999023,-0.06631062924861908
132,1.3758876311517223,0.35496625822975764,1.8723728835248012,0.9199039340019226,-0.34755873680114746,-0.18160277605056763,-0.03798758238554001,1.6321474313735962,-0.049568746238946915,-0.6901066899299622,0.5486695766448975,0.17443116009235382
133,1.5253828032263763,0.32462819782308566,1.951192435540882,0.9467921853065491,-0.3189564347267151,-0.04302675276994705,-1.5537347793579102,-1.4490902423858643,-0.14171163737773895,0.8581852316856384,-0.2853831350803375,-0.42052000761032104
134,1.467974161978767,0.2877689866357678,2.092932698632541,0.9538150429725647,-0.2838136553764343,-0.09842041879892349,-1.689691185951233,-0.9135797023773193,0.2751505374908447,-0.4040104150772095,-0.4112546741962433,0.1659557819366455
135,1.3683635788572925,0.3240770080824702,2.0946919020771246,0.9285884499549866,-0.3184339702129364,-0.19058720767498016,1.5490025281906128,-0.8082995414733887,0.10586998611688614,-1.0444483757019043,0.07296586036682129,0.18427002429962158
136,1.4595677910273324,0.29633565931637923,1.8645897651686634,0.9505028128623962,-0.29201754927635193,-0.1061611995100975,2.8014075756073,1.9966659545898438,-1.0850989818572998,1.4297919273376465,-0.7049306631088257,-0.3651827573776245
137,1.3963724265512432,0.343805006373175,1.7422685477040205,0.9271935820579529,-0.33707186579704285,-0.16338501870632172,-1.3655240535736084,-0.16735796630382538,0.7588388323783875,0.21994686126708984,0.26125094294548035,0.4487396478652954
138,1.3553948862630567,0.3681317345718428,1.8719381193307687,0.9114401340484619,-0.359872967004776,-0.199419304728508,0.029319625347852707,0.36507463455200195,-0.3253069221973419,-0.8388084769248962,0.7943670153617859,0.010301858186721802
139,1.4803284853096363,0.33990148709300977,1.8842836625455452,0.9389320611953735,-0.33339422941207886,-0.08517565578222275,-0.2788065969944,3.077023983001709,-0.18603429198265076,0.6741355657577515,0.42160525918006897,-0.24157607555389404
140,1.493199786820926,0.3108618919492246,2.028423429833621,0.9492053389549255,-0.3058793246746063,-0.07380323857069016,-1.7974580526351929,0.5743727087974548,-0.017916252836585045,0.3950786590576172,-0.1861097812652588,0.08793288469314575
141,1.3839472514326099,0.31547982580248973,2.240919245686886,0.9341011047363281,-0.3102726638317108,-0.17659586668014526,-0.23922377824783325,-0.2536916136741638,0.37777605652809143,-0.9052619934082031,0.008377522230148315,0.2757474184036255
142,1.3610959602414894,0.35092880163650014,2.1471601935958895,0.9184823036193848,-0.3437701463699341,-0.1954798698425293,1.741945505142212,-0.5668361783027649,-0.17087654769420624,-0.9117379188537598,0.09482300281524658,0.2236323356628418
143,1.4591171164690797,0.3003716013530568,1.910438110071572,0.9492758512496948,-0.2958751916885376,-0.10645733773708344,1.6625291109085083,-2.6382269859313965,0.5162453055381775,1.6207771301269531,-0.8979419469833374,-0.5603517293930054
144,1.3245951174141954,0.34830536704993365,1.950224032584779,0.9116084575653076,-0.3413054347038269,-0.22908660769462585,-1.4928158521652222,-0.24956491589546204,0.596664309501648,-0.3440272808074951,0.456310898065567,0.21997714042663574
145,1.3512807429495997,0.3446702686329141,1.9790344163885336,0.918601393699646,-0.33788636326789856,-0.20494991540908813,0.012723086401820183,0.9173867702484131,-0.22725260257720947,-0.7809669971466064,0.6156573295593262,0.19071343541145325
146,1.5039541243625987,0.3167750544743764,2.0324014828716233,0.9481229186058044,-0.31150370836257935,-0.06346917152404785,-1.8419750928878784,-0.37445175647735596,-0.30994096398353577,1.3595247268676758,-0.4211012125015259,-0.7428510189056396
147,1.4723224399020658,0.28779071883141144,2.2174210328685002,0.9542279243469238,-0.2838344871997833,-0.0942714512348175,-2.0916571617126465,-0.24916888773441315,0.05389188975095749,-0.22473573684692383,-0.3340854048728943,0.4441096782684326
148,1.366142778971797,0.31169858843828524,2.2559346887919984,0.931951105594635,-0.30667582154273987,-0.19343522191047668,1.238268494606018,-0.7993123531341553,0.24656423926353455,-1.0408072471618652,-0.13042744994163513,0.0697627067565918
149,1.4355278987804447,0.3221448273853648,2.038319896038648,0.9398935437202454,-0.31660178303718567,-0.12791907787322998,2.586655855178833,1.929892897605896,-0.9755719304084778,0.9079762101173401,-0.5123776793479919,-0.17692099511623383
150,1.420928453350272,0.3496403637663622,1.8683339604621483,0.9289650321006775,-0.34255996346473694,-0.1402737945318222,-0.12465912103652954,-0.9221163988113403,0.5702224969863892,0.27695232629776,0.04127514362335205,0.4284818172454834
151,1.3483485626749725,0.3716106367546941,1.948265016137619,0.908785879611969,-0.363116592168808,-0.20555919408798218,0.1801869422197342,-0.05268038809299469,-0.3668133020401001,-0.8374510407447815,0.8060029745101929,-0.015662789344787598
152,1.4760797437111672,0.3443200881102779,1.9594767318144009,0.9370860457420349,-0.33755674958229065,-0.08902396261692047,-0.4421318471431732,3.4066579341888428,0.08291199058294296,0.49337971210479736,0.38829225301742554,-0.15269052982330322
153,1.4888199381005696,0.325674682858402,2.153962074783253,0.9442534446716309,-0.31994807720184326,-0.07758034765720367,-2.3045473098754883,0.7772989273071289,-0.13434073328971863,0.6356263160705566,-0.16181766986846924,0.18506324291229248
154,1.389107811350099,0.31495533044430696,2.3993455137528494,0.9351599216461182,-0.3097740113735199,-0.17180243134498596,-0.5671135187149048,-1.120018482208252,0.3368408679962158,-0.9321997165679932,-0.04189532995223999,0.06436526775360107
155,1.3264591443846152,0.3425301546552371,2.3462108544836817,0.9139313697814941,-0.3358713388442993,-0.22786001861095428,1.4921897649765015,-0.7277166843414307,-0.027890224009752274,-1.0027068853378296,0.05903109908103943,0.2958226501941681
156,1.4479693342242372,0.3190579469576497,2.101956274142965,0.9423778653144836,-0.31367218494415283,-0.11633505672216415,1.9214611053466797,-1.4218857288360596,-0.09050253033638,2.069035768508911,-0.9024380445480347,-0.6757334470748901
157,1.332126228249738,0.3789401531284023,2.0748619602503973,0.9027213454246521,-0.3699360191822052,-0.21963897347450256,-1.3375779390335083,-0.2112988531589508,0.5846680998802185,0.03833383321762085,0.3754597306251526,0.16882720589637756
158,1.302630471960567,0.3721739542053414,2.112379251088066,0.8982444405555725,-0.3636414110660553,-0.24682365357875824,0.3434728682041168,0.18767490983009338,-0.5687470436096191,-0.89371258020401,0.7245880961418152,0.21885430812835693
159,1.495280534012988,0.3501429195928225,2.097400769432321,0.9366466403007507,-0.3430320620536804,-0.07086637616157532,-0.2795031666755676,2.076115608215332,-0.4535370171070099,1.3435046672821045,0.13398662209510803,-0.6338760852813721
160,1.468555864670199,0.31818662412424364,2.287538007693428,0.9448445439338684,-0.31284472346305847,-0.09693934768438339,-2.538606643676758,0.448346883058548,-0.057288073003292084,0.42074090242385864,-0.21712353825569153,0.1926729530096054
161,1.3549664634103062,0.3173928094124604,2.4687382732749925,0.9280101656913757,-0.312090665102005,-0.2034614086151123,0.4818499982357025,-1.5181044340133667,-0.014062347821891308,-1.046769380569458,-0.009015321731567383,0.048905134201049805
162,1.327635577931897,0.3387378002237274,2.3136107312272234,0.9154283404350281,-0.33229687809944153,-0.22708970308303833,2.3393139839172363,-0.039761390537023544,-0.6365645527839661,-0.5023272037506104,-0.15827316045761108,0.19190293550491333
163,1.390946959965585,0.32686291367781883,2.0238209916238823,0.9317789673805237,-0.32107362151145935,-0.16941037774085999,1.5959917306900024,-1.1505998373031616,0.5126830339431763,0.8842000961303711,-0.36432069540023804,0.1925426721572876
164,1.3323806637246165,0.3779639473836671,2.126894991842647,0.9031278491020203,-0.36902889609336853,-0.2194945067167282,-1.8220762014389038,0.059134192764759064,0.6584097743034363,-0.5777341723442078,0.6325024366378784,0.038754165172576904
165,1.3460573923598418,0.3618664228010591,2.2118219783369435,0.9117186665534973,-0.3540203869342804,-0.20841947197914124,-0.5695306062698364,0.7867547273635864,-0.1958484649658203,-0.7541258931159973,0.7529919147491455,0.13867151737213135
166,1.485116074119776,0.3083073261081461,2.2343058883214764,0.9493531584739685,-0.3034462034702301,-0.08154045045375824,-1.3229148387908936,-0.31724992394447327,-0.522040605545044,1.5993070602416992,-0.4939018189907074,-0.6300226449966431
167,1.4038836793747267,0.27118034039397243,2.48648082035752,0.9500656127929688,-0.2678688168525696,-0.16006721556186676,-2.3003475666046143,-0.7293611168861389,0.45509305596351624,-0.252204954624176,-0.3155509829521179,0.25059765577316284
168,1.328869966763515,0.30105303819702195,2.5553812314031026,0.9272127747535706,-0.2965260446071625,-0.22879846394062042,0.4797115921974182,-0.8889155983924866,0.4353574514389038,-0.9506045579910278,0.013155132532119751,0.0712057501077652
169,1.3751216533049044,0.3128235853074287,2.3869447740254564,0.9333112835884094,-0.30774641036987305,-0.1849924623966217,2.5840656757354736,1.544651746749878,-1.4345670938491821,0.6511308550834656,-0.40047502517700195,-0.1263325810432434
170,1.3530408121593411,0.3173761914387678,2.224027271633325,0.9276217818260193,-0.3120748698711395,-0.20524919033050537,-0.298388808965683,-0.8437885046005249,0.6420521140098572,0.580694317817688,-0.21543675661087036,0.5809205770492554
171,1.307714341517721,0.3350297334283296,2.329874330195668,0.9119065403938293,-0.32879725098609924,-0.24559864401817322,-0.16280579566955566,0.5903751850128174,-0.05782525613903999,-0.8865312337875366,0.8015755414962769,0.1180046796798706
172,1.3962479906385776,0.3211238764820888,2.3330346820977663,0.9344630837440491,-0.3156331777572632,-0.16478590667247772,-0.3835453391075134,1.9190281629562378,0.05773255228996277,-0.5517269372940063,0.37796536087989807,0.03813798725605011
173,1.4411118162775933,0.3187748435386852,2.468043425915724,0.9416459202766418,-0.3134033679962158,-0.122806116938591,-1.6444106101989746,-1.0199307203292847,-0.06647684425115585,0.5945631861686707,-0.23243403434753418,-0.0848202109336853
174,1.4413984863700717,0.30161285656223824,2.6202129371032923,0.9468757510185242,-0.29706063866615295,-0.12321212887763977,-2.0293819904327393,0.7333707809448242,0.40415385365486145,-0.528144121170044,-0.17596179246902466,0.21883898973464966
175,1.4069389246036457,0.32783480961405126,2.6225316030139,0.9340605735778809,-0.3219939172267914,-0.15443739295005798,1.4226957559585571,-0.774182915687561,-0.015994608402252197,-1.1064238548278809,0.3395567536354065,0.05617082118988037
176,1.480670580732038,0.2680589766023051,2.326998156445377,0.960373044013977,-0.26486024260520935,-0.08678945153951645,4.2903151512146,-0.3197219967842102,-1.206253170967102,2.4635465145111084,-1.0505846738815308,-0.7547479867935181
177,1.3432357474717087,0.29979125492723774,2.178888115762081,0.9307677149772644,-0.2953207790851593,-0.21553944051265717,-1.3537707328796387,0.19139239192008972,0.747556746006012,0.11685502529144287,-0.07111907005310059,0.29180285334587097
178,1.3103003420994512,0.326240550838888,2.295829212906006,0.9152957797050476,-0.3204841613769531,-0.24397456645965576,0.5834968090057373,-0.005856499075889587,-0.33557936549186707,-1.0718357563018799,0.7513618469238281,0.06503474712371826
179,1.4347762404124895,0.3007304409601365,2.223425045025588,0.9462985396385193,-0.2962179481983185,-0.12951533496379852,0.884140133857727,2.6600043773651123,-0.32542330026626587,0.8715726137161255,0.1629171371459961,-0.20193606615066528
180,1.4897589702395764,0.27663052341109495,2.326803014728526,0.9588241577148438,-0.2731158435344696,-0.07787111401557922,-1.6196898221969604,1.5050485134124756,-0.15523238480091095,0.560905396938324,-0.218125581741333,0.012395620346069336
181,1.4196069802762052,0.25941277651185546,2.505191707503862,0.9555152058601379,-0.2565130293369293,-0.14557461440563202,-0.8384112119674683,-1.1254457235336304,0.2621338665485382,-0.9329473376274109,-0.22693121433258057,0.18857388198375702
182,1.3601835726999616,0.30253370350911,2.4185962971470465,0.9334911108016968,-0.29793980717658997,-0.19956465065479279,1.9755361080169678,-0.529787003993988,-0.18899284303188324,-1.0313458442687988,0.13908058404922485,0.4015299677848816
183,1.4739195246154764,0.2592350308285847,2.115613584137618,0.9620541930198669,-0.25634121894836426,-0.09349340200424194,2.360429286956787,-2.8400349617004395,0.05918547883629799,2.119595527648926,-0.9930179119110107,-0.6997194290161133
184,1.3563132393531243,0.2983830933497905,2.0913789493645005,0.9339120388031006,-0.2939751446247101,-0.20343752205371857,-1.9395315647125244,-0.47735291719436646,0.5960639715194702,-0.15145665407180786,0.24703910946846008,0.38011908531188965
185,1.327348197253952,0.30071136875362026,2.1874484313456466,0.9269618988037109,-0.2961997389793396,-0.23023362457752228,0.29441583156585693,0.49097487330436707,-0.28682607412338257,-1.0129908323287964,0.7340658903121948,0.18660876154899597
186,1.4847103376687392,0.29891550136825423,2.140850263316501,0.9521175622940063,-0.2944839596748352,-0.08216705918312073,0.07149183750152588,3.543074607849121,0.5867167711257935,1.8342441320419312,0.009358227252960205,-0.39837801456451416
187,1.5099950224113436,0.28734103167990416,2.2369298179899517,0.9572286605834961,-0.28340327739715576,-0.058272577822208405,-0.9804655909538269,1.6318269968032837,-0.19497564435005188,0.26669394969940186,-0.29557615518569946,0.2072288990020752
188,1.425741539687676,0.28608151244207186,2.342040903252254,0.9492818713188171,-0.28219518065452576,-0.1386718451976776,0.2024686187505722,-1.9285106658935547,0.3270803987979889,-0.9941121339797974,-0.08792200684547424,-0.037948623299598694
189,1.379836526211968,0.32835284553894345,2.275689537784516,0.9293684959411621,-0.3224843144416809,-0.17966116964817047,1.6035975217819214,-0.19207577407360077,-0.015261744149029255,-0.8547378182411194,0.16183975338935852,0.23065602779388428
190,1.4558652670749554,0.30809001829801264,2.0214561378787144,0.9466277956962585,-0.3032391369342804,-0.10927852243185043,1.889198899269104,-2.7893104553222656,0.297183632850647,1.6440703868865967,-1.075209379196167,-0.6166583895683289
191,1.3490753329154133,0.3588710306219533,2.0621873538161752,0.9133739471435547,-0.3512174189090729,-0.20589929819107056,-1.8296959400177002,0.0966445803642273,0.7425816655158997,-0.1796550750732422,0.3817502558231354,0.29162317514419556
192,1.3334250762810014,0.35760357380616004,2.0913647752259714,0.9104716777801514,-0.35003042221069336,-0.22027252614498138,0.7457129955291748,-0.16572922468185425,-0.47277340292930603,-0.8349407315254211,0.6874785423278809,0.14516878128051758
193,1.5078578372491853,0.35467966450327965,2.073726206295263,0.9359011054039001,-0.3472899794578552,-0.05898210406303406,-0.8647031188011169,2.840428352355957,0.2317311018705368,1.2826199531555176,0.12762445211410522,-0.49102091789245605
194,1.4770018568797025,0.32686099018660203,2.229181479778563,0.9428920745849609,-0.3210718035697937,-0.08869832009077072,-0.9434105157852173,0.2915925085544586,-0.3742859661579132,0.40249061584472656,-0.2909124195575714,0.2807607054710388
195,1.415605529158357,0.32140456435006026,2.36954497739409,0.9373900890350342,-0.315899521112442,-0.14665354788303375,-0.2028844952583313,-1.1658662557601929,0.2634626030921936,-0.9870727062225342,-0.1972687840461731,-0.10719168186187744
196,1.3737771893760176,0.35979107294143586,2.2868592989545493,0.9178634881973267,-0.35207870602607727,-0.18321339786052704,1.8579447269439697,0.10263373702764511,-0.22814829647541046,-0.5769516825675964,0.047696441411972046,0.18934740126132965
197,1.4580980075419947,0.3602906551341871,2.0930540603271135,0.9298579096794128,-0.35254624485969543,-0.10523934662342072,0.7569226026535034,-1.7644895315170288,0.36824896931648254,1.0020115375518799,-0.6348194479942322,-0.3196721076965332
198,1.3328224422942527,0.39800797521009884,2.145252098549184,0.8958554267883301,-0.38758280873298645,-0.2173079252243042,-1.4750304222106934,0.08290975540876389,0.5017867088317871,-0.3262753486633301,0.39811134338378906,0.3306349515914917
199,1.34888176965738,0.3946302571157571,2.1717151358592215,0.9005014896392822,-0.38446688652038574,-0.20318067073822021,0.2259330153465271,0.8141581416130066,-0.19975079596042633,-0.8322184085845947,0.6245028972625732,0.18738782405853271
200,1.5446706701381976,0.4031514987040699,2.229990172749582,0.9195152521133423,-0.39231911301612854,-0.024028407409787178,-2.3055362701416016,1.0556645393371582,0.042628876864910126,1.6332342624664307,-0.08865314722061157,-0.7365154027938843
201,1.4398814721224578,0.3649317327318635,2.4664021866391876,0.926154613494873,-0.35688552260398865,-0.1219448521733284,-2.926788806915283,-0.011719318106770515,0.0825503021478653,0.1303945779800415,-0.40884634852409363,0.5623287558555603
202,1.38290616151576,0.3755168249815763,2.5769342591854447,0.9139450192451477,-0.36675339937210083,-0.1737709641456604,0.04255475476384163,-0.8628449440002441,0.2992510199546814,-0.9515732526779175,-0.011542469263076782,0.033329084515571594
203,1.363660361497919,0.4117942204520212,2.424668991674191,0.8968150019645691,-0.40025418996810913,-0.18846578896045685,3.1128413677215576,1.2973788976669312,-0.6067348122596741,0.13885998725891113,-0.16087248921394348,0.006733611226081848
204,1.415695818753528,0.42408357352541054,2.1276616982352903,0.9004755616188049,-0.4114857017993927,-0.1407950222492218,0.9873658418655396,-1.269609808921814,0.3328098952770233,0.6015843152999878,-0.5419750213623047,0.2563650608062744
205,1.3313989262678743,0.46052203641581074,2.2177575167532786,0.8702727556228638,-0.444415807723999,-0.21241453289985657,-1.1841131448745728,-0.515754759311676,0.3741113245487213,-0.6465941667556763,0.7637364864349365,0.02500605583190918
206,1.3641754869747684,0.4397863653565086,2.2500777087627313,0.8855963349342346,-0.4257461726665497,-0.1856318861246109,-0.44985535740852356,1.205741286277771,-0.06887517124414444,-0.7385780215263367,0.6822617053985596,0.2136165052652359
207,1.536467414318511,0.43685390118199063,2.3755877779306944,0.9055533409118652,-0.42309093475341797,-0.031098879873752594,-2.8600025177001953,-0.7560574412345886,-0.2232094556093216,1.5511879920959473,-0.41240403056144714,-0.6219162344932556
208,1.4767568370619726,0.38790336467203385,2.576552413601915,0.9216139912605286,-0.378248393535614,-0.0869244933128357,-2.106696844100952,0.7211752533912659,0.10454055666923523,-0.23992758989334106,-0.251542866230011,0.2941846251487732
209,1.3491791882341855,0.40703396559533433,2.631217134405328,0.8958404660224915,-0.3958873748779297,-0.20184902846813202,0.7768760919570923,-1.3384383916854858,0.40907663106918335,-1.1777312755584717,-0.0023517608642578125,0.1905880570411682
210,1.4415537840519814,0.42943452376239405,2.4074207746072434,0.9016184210777283,-0.41635674238204956,-0.11718063801527023,3.410158157348633,2.3064122200012207,-0.5876591801643372,0.7986074090003967,-0.5797370076179504,-0.37659382820129395
211,1.391438360983845,0.4682217700626788,2.239684014881753,0.8780572414398193,-0.45130014419555664,-0.15919731557369232,-0.7114768624305725,-0.5401225686073303,0.6906863451004028,0.2916053533554077,-0.18943166732788086,0.654604434967041
212,1.3301287696514918,0.48983944481749203,2.3934142996330974,0.8569766283035278,-0.4704842269420624,-0.21032293140888214,-0.8034602999687195,0.2683260440826416,0.10709405690431595,-0.8181124925613403,0.8651375770568848,-0.14864003658294678
213,1.3743488854625805,0.46683111241310443,2.3988677075319673,0.8758231997489929,-0.4500587284564972,-0.17430119216442108,0.030942533165216446,0.8217495083808899,-0.13853462040424347,-0.4338371157646179,0.7014626264572144,0.2136688381433487
214,1.5055905731201418,0.4399783526894204,2.455039454156174,0.9028382301330566,-0.42591989040374756,-0.058953821659088135,-1.8050731420516968,-0.45050352811813354,-0.39478451013565063,0.8434692621231079,-0.3332812488079071,-0.1671203374862671
215,1.437568301474007,0.39078856009192187,2.6399814783688687,0.9164153337478638,-0.38091763854026794,-0.12281973659992218,-0.7655494213104248,-0.7144094109535217,0.1437283307313919,-0.8689757585525513,-0.17955294251441956,-0.043089091777801514
216,1.3293145865219673,0.4324330840789301,2.608004125100726,0.8816044330596924,-0.4190811514854431,-0.21712838113307953,1.516435146331787,-0.6348416209220886,0.16810739040374756,-0.9994328022003174,0.2818130850791931,0.3752704858779907
217,1.5076121546844115,0.43368994965292984,2.3284158185148733,0.9056106805801392,-0.4202219843864441,-0.05729652941226959,2.227950096130371,-0.9885602593421936,-0.19785381853580475,2.2449936866760254,-1.2334797382354736,-0.7272646427154541
218,1.393361365823426,0.4906096293295265,2.2766813028392994,0.8681974411010742,-0.47116369009017944,-0.15568584203720093,-1.2773330211639404,0.05937529355287552,0.5791652202606201,0.06161212921142578,0.26117226481437683,0.18154948949813843
219,1.3345592882214288,0.4878059010671455,2.3879663692051127,0.8588283658027649,-0.46868884563446045,-0.20674750208854675,0.0663442313671112,0.27577435970306396,-0.39092278480529785,-0.7417019605636597,0.867935061454773,0.039495959877967834
220,1.4684922782815955,0.46304829009315307,2.3623545157966066,0.890017032623291,-0.44667747616767883,-0.0913713350892067,0.8408517241477966,3.254753828048706,-0.2085670679807663,0.8626989126205444,0.09763270616531372,-0.11265390366315842
221,1.5136800500906964,0.4307853039299128,2.517348423443483,0.9071564674377441,-0.41758447885513306,-0.051869817078113556,-1.8800750970840454,0.9610855579376221,-0.41665729880332947,0.23330074548721313,-0.2908353805541992,0.10245274752378464
222,1.4253822325448522,0.41731164953128613,2.649534815907205,0.9045335650444031,-0.40530428290367126,-0.13246692717075348,-0.31756216287612915,-1.1691406965255737,0.3042832612991333,-0.9536668658256531,-0.10696378350257874,0.18984001874923706
223,1.3473912446674472,0.4583739273253217,2.5485869147557842,0.8744872212409973,-0.44249048829078674,-0.1986813247203827,2.2067711353302,-0.40140488743782043,-0.3996186852455139,-0.8746093511581421,0.19529810547828674,0.2842068076133728
224,1.4902463248062725,0.4228096703330206,2.268745730407252,0.9089828729629517,-0.4103243052959442,-0.0733773410320282,1.2747210264205933,-3.276857376098633,0.23900394141674042,1.1813033819198608,-0.9430081844329834,-0.4194815158843994
225,1.3584587337168454,0.45703710980522705,2.320047405240562,0.8772100806236267,-0.4412912428379059,-0.1891154795885086,-1.6528197526931763,0.23647284507751465,0.5376688838005066,-0.4150823950767517,0.37544959783554077,0.2490062713623047
226,1.3868185871777998,0.46321207697984657,2.3917936383259204,0.8795240521430969,-0.44682401418685913,-0.1636635810136795,-0.04214376211166382,0.8374274969100952,-0.2600453794002533,-0.7312086820602417,0.9319161772727966,0.06678546965122223
227,1.6102365715124547,0.45566272209103503,2.363559757959253,0.8972712755203247,-0.44005751609802246,0.03540696203708649,-0.37390032410621643,2.7050535678863525,-0.5851684808731079,1.5057896375656128,-0.22443220019340515,-0.5117253065109253
228,1.5526325818705493,0.3978176116316959,2.5015586871104762,0.9217565059661865,-0.3874073028564453,-0.01674439199268818,-0.925287127494812,-0.17332647740840912,-0.7193629741668701,0.1258050799369812,-0.4737223982810974,0.12715697288513184
229,1.428541559711297,0.39584049964830487,2.608767960313262,0.9133527874946594,-0.3855838179588318,-0.1308123618364334,0.17586705088615417,-1.2532432079315186,0.4771288335323334,-0.9599378108978271,-0.028127729892730713,0.1301867961883545
230,1.3852266150005115,0.446849013785636,2.427710078517764,0.886330246925354,-0.43212607502937317,-0.16639040410518646,2.7798373699188232,-0.2837599217891693,-0.48987242579460144,-0.477913498878479,-0.06495946645736694,0.16059207916259766
231,1.4816097408426518,0.4427598439882805,2.1690860543230626,0.8999815583229065,-0.428434818983078,-0.08047977834939957,1.320090889930725,-2.340587854385376,0.34766003489494324,0.9820985198020935,-0.8557754158973694,-0.15305602550506592
232,1.3762040582258899,0.48839192629607087,2.202410005185087,0.8664216995239258,-0.46920642256736755,-0.17075976729393005,-1.5068367719650269,0.050285354256629944,0.5425103306770325,-0.4037599563598633,0.5605912804603577,0.19053518772125244
233,1.395990176606725,0.4825047981056628,2.2631231254954987,0.8723356127738953,-0.463999480009079,-0.15406206250190735,-0.15161147713661194,0.8089078068733215,-0.2280983328819275,-0.7456113696098328,0.7814280390739441,0.09690260887145996
234,1.5535206740268395,0.4735149814807237,2.3303060631268346,0.8898379802703857,-0.45601731538772583,-0.015374061651527882,-2.253682851791382,0.8996388912200928,-0.5895359516143799,1.9069606065750122,-0.5578528642654419,-0.6926947832107544
235,1.4752059154248967,0.4223168780604908,2.5208893238887073,0.9079774618148804,-0.40987488627433777,-0.08705926686525345,-2.1127610206604004,-0.27202290296554565,-0.3553907573223114,-0.10344266891479492,-0.5246648788452148,0.46509575843811035
236,1.3717411309534702,0.42196835317303805,2.630671789646444,0.8942704796791077,-0.40955695509910583,-0.1803981512784958,0.30315524339675903,-1.1713461875915527,0.4515824019908905,-0.8564439415931702,0.09737738966941833,0.05063742399215698
237,1.37026475999338,0.4875482061711168,2.5951026264859465,0.8657797574996948,-0.46846118569374084,-0.17598141729831696,1.6432942152023315,2.4306890964508057,0.33169078826904297,0.7555580735206604,-0.5148456692695618,-0.31857120990753174
238,1.2686463147929585,0.4748628807243173,2.4565450406935865,0.8490665555000305,-0.4572165012359619,-0.26464858651161194,-0.828376293182373,-0.8221718668937683,-0.1513301432132721,0.25881296396255493,-0.7011238932609558,0.39909377694129944
239,1.2618979181643548,0.46578455221312953,2.552330836126175,0.8511808514595032,-0.44912391901016235,-0.2716231346130371,0.048472896218299866,-0.17796440422534943,-0.6382983922958374,-0.44337427616119385,0.7033505439758301,0.07582232356071472
240,1.3000298207618923,0.3944493894294908,2.528634874437286,0.8895722031593323,-0.3842999041080475,-0.2469305843114853,0.37870439887046814,-0.5034030079841614,-1.478141188621521,-0.5141602754592896,0.3604199290275574,0.04076912999153137
241,1.4252670212078782,0.3548028932546565,2.4623715885028528,0.9278026819229126,-0.3474055528640747,-0.13598383963108063,-2.2675108909606934,-0.11984354257583618,0.5231372117996216,1.0399858951568604,-0.1624058485031128,-1.0047937631607056
242,1.5361138187944525,0.34632240134825387,2.6203538115386484,0.9400617480278015,-0.33944085240364075,-0.03261677920818329,1.206257939338684,-0.5642393827438354,-0.20203837752342224,0.4307878613471985,-0.7872376441955566,-0.529166042804718
243,1.3499424610157462,0.3489589002144481,2.548162485137353,0.9169038534164429,-0.3419196307659149,-0.2058597356081009,2.5156078338623047,0.8656984567642212,-0.14456075429916382,-0.8022493720054626,0.0788276195526123,0.3524966835975647
244,1.6105682978495484,0.36623913658655854,2.2189813935903966,0.9329424500465393,-0.3581065237522125,0.03712453693151474,2.1099345684051514,-1.1649421453475952,-0.716461181640625,1.5227155685424805,-1.0905629396438599,-0.6450499296188354
245,1.4030519706530569,0.40130411847294095,2.176343379845435,0.9076314568519592,-0.3906191885471344,-0.15369431674480438,0.06535906344652176,-0.5737113356590271,0.31614619493484497,-0.05571800470352173,0.4291323721408844,0.4179307818412781
246,1.4017375104625607,0.3624074920861969,2.1057896112047474,0.9217156171798706,-0.3545263707637787,-0.1573258489370346,0.884492814540863,0.7662513256072998,-0.6273831129074097,-0.5880516767501831,0.06251895427703857,0.2176133394241333
247,1.5280528745755677,0.3163791592283533,2.088826696251536,0.9495000243186951,-0.3111274838447571,-0.04060964286327362,-1.1124851703643799,1.188401699066162,-0.5193346738815308,0.6202935576438904,0.34079059958457947,-0.22490853071212769
248,1.4596776732855599,0.3033947964647957,2.242492649249424,0.9484422206878662,-0.29876166582107544,-0.10582553595304489,-1.5901813507080078,-0.048060838133096695,0.2871297597885132,0.37202298641204834,0.07880619168281555,0.334478497505188
249,1.4161658596936821,0.30009016880583855,2.4218141728935674,0.9439116716384888,-0.2956063449382782,-0.1471320390701294,-0.41629132628440857,-0.105197973549366,0.09056807309389114,-0.474459707736969,0.020887106657028198,-0.1146935224533081
250,1.3751876542780592,0.3220537994555504,2.3723468967526293,0.9304974675178528,-0.3165154457092285,-0.18437090516090393,1.0508615970611572,-0.20145204663276672,0.11603263020515442,-1.0568859577178955,0.14396902918815613,0.2822713255882263
251,1.458426674835205,0.3393708042940095,2.1733765953750495,0.9370172619819641,-0.33289384841918945,-0.10573772341012955,1.3079015016555786,-1.9620118141174316,0.18343207240104675,1.4502356052398682,-1.051887035369873,-0.8297786116600037
252,1.3381615670991196,0.3547852088473542,2.144717427832708,0.9124611616134644,-0.34738895297050476,-0.21618421375751495,0.024256695061922073,0.11927858740091324,-0.997133195400238,-0.14241111278533936,0.7773358821868896,0.658704400062561
253,1.4440896382051929,0.28002906188009935,2.068694841038363,0.9533430933952332,-0.27638357877731323,-0.12144555896520615,0.02940843254327774,0.5022533535957336,-0.6264164447784424,-0.7648665308952332,0.40821951627731323,0.06791776418685913
254,1.5341576966223456,0.25842189322968473,2.056125148923862,0.9661455750465393,-0.2555551528930664,-0.03541409969329834,-0.5184319615364075,0.5457249283790588,0.09494853764772415,0.8573406934738159,0.052689582109451294,-0.7040420770645142
255,1.4009323192941754,0.32292365626538905,2.215274130735972,0.9346633553504944,-0.3173404633998871,-0.16031049191951752,-1.9882006645202637,-1.1598705053329468,1.2613240480422974,0.4931015372276306,-0.2367061972618103,0.1913316249847412
256,1.321697132199214,0.4401793888549451,2.3333371716779725,0.8767522573471069,-0.42610177397727966,-0.22303052246570587,0.4601072371006012,-0.8682013154029846,1.3985834121704102,-0.699246883392334,0.13381969928741455,0.07489827275276184
257,1.2238602395208298,0.6385859892780529,2.229203542625818,0.755099356174469,-0.5960606932640076,-0.2730138897895813,2.338559150695801,-1.3302103281021118,1.7587960958480835,-0.7468138337135315,0.36261647939682007,0.3437536358833313
258,1.3769602781373653,0.8170249508266934,1.9873779682517472,0.6715766191482544,-0.729112982749939,-0.13183097541332245,2.8686020374298096,1.7370567321777344,0.48715072870254517,0.6516808867454529,-1.233640432357788,-0.46246838569641113
259,1.3121660656321714,0.9812042062077608,2.1418413664175024,0.5375295281410217,-0.8311675190925598,-0.1422063410282135,-2.164820909500122,2.2568931579589844,0.9575795531272888,0.16443580389022827,0.4848235845565796,0.6129400134086609
260,1.351247617950014,1.0439730554151294,2.1997555840504828,0.49072086811065674,-0.8644086718559265,-0.10950221121311188,0.3942641019821167,0.17776484787464142,0.7776546478271484,-0.38546574115753174,0.581403911113739,-0.13730871677398682
261,1.4287404651918163,1.1957518673023928,2.1936363530461733,0.3626241385936737,-0.9304913282394409,-0.051862213760614395,0.26296722888946533,1.8503193855285645,2.273705244064331,0.3739939033985138,0.05401122570037842,-0.1509423851966858
262,2.0121547315926778,1.5440231851509896,1.9695459357947942,0.024201299995183945,-0.9996415972709656,0.01143368799239397,1.5459836721420288,1.9685593843460083,-0.21326538920402527,-0.23271265625953674,-0.2160564661026001,-0.3414508104324341
263,2.2814387954281816,1.4394114990510007,1.7849122918089821,0.09929576516151428,-0.9913814067840576,0.08545854687690735,-0.029389671981334686,1.2226580381393433,0.04376700147986412,-0.4553596079349518,0.4487331509590149,0.11853622645139694
264,2.832675555471733,1.4602484395582003,1.2773314303360825,0.03354118391871452,-0.9938958287239075,0.10510066151618958,0.2207796275615692,-1.1840882301330566,0.4429650902748108,-0.013201236724853516,0.88539057970047,-0.3424663543701172
265,2.7805327989517696,1.384079336095536,1.060927841687801,0.0655781626701355,-0.9826189875602722,0.173664852976799,0.543491542339325,-2.785745620727539,0.21501199901103973,-0.4284932315349579,-1.8519909381866455,0.09730064868927002
266,1.6690983751580604,1.5554192482844567,2.1257383702270007,0.015305417589843273,-0.9998818039894104,0.0015094189438968897,-1.194219946861267,1.1076240539550781,0.6119728088378906,0.21687230467796326,0.2004891037940979,0.378556489944458
267,0.20236431191387594,1.5407093731252326,-2.713802114210803,0.006046676076948643,-0.9995474219322205,-0.029471155256032944,0.44699275493621826,-0.6389659643173218,-0.5807716846466064,0.07407721877098083,0.9053396582603455,-0.004327058792114258
268,2.1730474652541028,1.4782720886737508,1.6571589809330085,0.07613753527402878,-0.9957227110862732,0.05234049633145332,1.1140061616897583,1.156451940536499,-1.4122979640960693,0.176181823015213,0.4173840880393982,-0.05957317352294922
269,2.3087653062909808,1.3053819404458886,1.7978501551530144,0.19406606256961823,-0.9649838805198669,0.17647825181484222,-2.598500967025757,1.4578832387924194,-0.1511543244123459,0.4433545768260956,-0.6250734925270081,-0.07512938976287842
270,1.870085801093391,1.471847064438437,2.3512829299028377,0.09439714252948761,-0.9951084852218628,0.029126984998583794,-0.09342943876981735,0.7659155130386353,1.2361271381378174,-0.3087525963783264,0.5467900037765503,0.13215839862823486
271,-0.19338374690150015,1.4794846262499521,-1.890307011201847,-0.01752381958067417,-0.9958339929580688,-0.08948437869548798,-1.3837428092956543,-1.6368120908737183,1.1318817138671875,-0.21598142385482788,1.057037115097046,-0.04549490660429001
272,-1.0367011877959083,1.4983213287811061,-1.3316167877643967,-0.06232661008834839,-0.9973748326301575,-0.036861907690763474,4.360520839691162,-3.653005838394165,-0.7604256868362427,-0.5263116955757141,-2.766357898712158,-0.4583010673522949
273,-0.8103116083958328,1.4238384518891287,-1.6893528469686843,-0.10608865320682526,-0.9892210960388184,-0.10093003511428833,-1.1723854541778564,0.08088215440511703,0.5175484418869019,-0.04948997497558594,0.10123586654663086,0.0663231611251831
274,-0.5420193067477342,1.3878631966144759,-1.8606547236040585,-0.0938437208533287,-0.9833143353462219,-0.15584054589271545,-0.08666049689054489,0.6186332106590271,-0.3832741677761078,0.18326020240783691,0.9290845990180969,0.14284008741378784
275,-0.12748347225553305,1.4033863309856474,-2.227590469699754,-0.021185027435421944,-0.9860196709632874,-0.1652773916721344,1.112152099609375,0.5482053756713867,-0.9701937437057495,0.2768460512161255,0.5266537666320801,-0.05185520648956299
276,1.77280922199402,1.516164883034162,2.31066577489097,0.053494516760110855,-0.998508095741272,0.010956024751067162,-2.1658201217651367,0.9904413819313049,0.12352718412876129,0.28856176137924194,-0.6000179052352905,0.0686948299407959
277,0.4353050977113678,1.5185271520051027,-2.3571015240702433,0.022030800580978394,-0.9986342787742615,-0.04737218841910362,-2.5889673233032227,1.5379339456558228,0.6685575842857361,-0.2002687156200409,0.6364059448242188,0.18810397386550903
278,-0.16528675030984086,1.429645887144641,-1.8083558487540032,-0.023147115483880043,-0.9900547862052917,-0.13876453042030334,0.3722139894962311,-2.2725319862365723,-0.20619697868824005,-0.023849932476878166,1.127185583114624,-0.11227302253246307
279,-0.9488910676190722,1.5286760376969224,-1.3231513360462517,-0.03422454744577408,-0.9991130828857422,-0.024531787261366844,2.685011863708496,-3.4037153720855713,0.026934556663036346,-0.47920316457748413,-3.529634475708008,-0.7515149712562561
280,-0.3102113698019839,1.3920685302271854,-2.0041865609962666,-0.05426842346787453,-0.9840706586837769,-0.16929225623607635,-0.6412867307662964,2.1501052379608154,-0.2198994755744934,0.11515098810195923,0.24772727489471436,0.15095120668411255
281,-0.037829285371911416,1.3640859685712048,-2.25865556423602,-0.007762289140373468,-0.9787113666534424,-0.20509470999240875,0.7086336612701416,0.18233826756477356,-0.34027883410453796,0.13827073574066162,0.8739750981330872,0.22909677028656006
282,-0.16394252363729375,1.4663655909312217,-2.012764599674546,-0.017013218253850937,-0.9945520758628845,-0.10284410417079926,2.2513766288757324,1.443781852722168,0.493680864572525,0.38143888115882874,-0.25148069858551025,-0.23309338092803955
283,0.7577688094941073,1.5341850727770558,-2.8974370823003786,0.025156525894999504,-0.9993298649787903,-0.026586515828967094,-1.168816328048706,0.42853039503097534,0.2931913733482361,-0.04030850529670715,-0.6883684396743774,0.34805870056152344
284,-1.4006475867873998,1.4817369524823003,-0.6834129785258742,-0.08765794336795807,-0.9960368275642395,-0.01506050769239664,-0.8611149191856384,-0.1213390976190567,0.9001907706260681,-0.4009742736816406,0.852527916431427,0.35783398151397705
285,-0.9489605131706854,1.3911107473183075,-1.3354483858436468,-0.14526565372943878,-0.9838999509811401,-0.10410958528518677,-0.479277104139328,-4.1134490966796875,0.1732046753168106,-0.10830490291118622,1.0575236082077026,-0.057084254920482635
286,-2.5062545172179096,1.4502516715274436,-0.17497512539167645,-0.0713641569018364,-0.9927433133125305,0.09678822755813599,-1.227575421333313,-1.2041312456130981,0.09309674054384232,0.0190265029668808,-1.5466091632843018,0.16331303119659424
287,-0.9118846758850395,1.3388773476641334,-1.9209120404640208,-0.18172962963581085,-0.9732271432876587,-0.14072459936141968,-0.6703998446464539,1.598113775253296,0.3064115047454834,0.05676014721393585,0.6344361901283264,0.7237018942832947
288,-0.4402836946069784,1.3555899357780108,-2.2899022263272757,-0.09101391583681107,-0.9769323468208313,-0.19318334758281708,-0.38721925020217896,0.4965466558933258,-2.255641222000122,0.5342206954956055,0.8329961895942688,0.14293617010116577
289,-0.837439162283357,1.5225546648420438,-1.818827941304124,-0.035825081169605255,-0.9988365769386292,-0.03227774053812027,4.155489921569824,1.457330584526062,-0.3651132881641388,0.25463610887527466,-1.2387731075286865,-0.5904334187507629
290,1.908097183458322,1.5542805424644102,1.8646376743529576,0.015591178089380264,-0.9998636245727539,0.005467871204018593,-0.6652305722236633,-0.005041631869971752,-0.3036133348941803,-0.07474949955940247,-0.32545387744903564,-0.040318965911865234
291,-1.5444729093261116,1.483897301235995,-1.0606822037677432,-0.0867588147521019,-0.9962266683578491,-0.002284316113218665,-0.9273748993873596,-0.8599694967269897,1.3102513551712036,-0.309466153383255,0.9230455756187439,0.40056920051574707
292,-1.2213210288874237,1.4408484816334985,-1.5294564072393784,-0.12175047397613525,-0.9915686249732971,-0.04437001422047615,0.19129739701747894,-2.6169934272766113,-0.6501255035400391,-0.19634951651096344,0.9170904159545898,0.057278987020254135
293,-2.724905614077217,1.4651370848265945,-0.13436397498520486,-0.04268420860171318,-0.9944232702255249,0.09643866121768951,-1.2007548809051514,-1.052415370941162,0.8123549222946167,-0.008188586682081223,-1.50835382938385,-0.17950749397277832
294,-1.2393447876920418,1.4387600070039648,-1.6216472131271324,-0.12448723614215851,-0.9912958741188049,-0.04284197464585304,-1.7460795640945435,1.8281047344207764,0.4618645906448364,0.3660033643245697,0.6001215577125549,0.16324907541275024
295,-0.4211830347002568,1.3878986683400882,-2.401620963845973,-0.07435991615056992,-0.9833207726478577,-0.16598482429981232,0.6950648427009583,0.005696379579603672,-0.7879974246025085,0.4714241027832031,0.9900956749916077,-0.07438689470291138
296,-2.494921705817583,1.4693595338270846,-0.16801170473500807,-0.0610143281519413,-0.9948596954345703,0.08081746101379395,3.1432461738586426,4.4478230476379395,-0.8902881145477295,0.2479802817106247,-2.443082809448242,-0.29845356941223145
297,-1.2675588395768769,1.5375539042784596,-1.181167007652513,-0.031718309968709946,-0.9994475245475769,-0.009924249723553658,-0.3317107856273651,0.38504573702812195,0.17269328236579895,-0.10423749685287476,-0.13548588752746582,-0.1429229974746704
298,-1.6121640636958374,1.414936954902953,-0.9820498833574135,-0.15509703755378723,-0.9878785014152527,0.006419675424695015,-1.0703763961791992,-0.18047693371772766,0.03913411870598793,-0.5823755264282227,1.3604063987731934,0.5216412544250488
299,-1.4543677085258417,1.465100542664219,-1.227643278272069,-0.10478522628545761,-0.9944193959236145,-0.012255425564944744,1.5668092966079712,-1.165158987045288,-1.1382781267166138,-0.5868041515350342,-0.3903767466545105,0.10302996635437012
300,-2.1093293870402348,1.4965193727754076,-0.6452758187462813,-0.06370557844638824,-0.9972427487373352,0.03806008771061897,-1.5178325176239014,-2.325796604156494,1.4159332513809204,0.004135265946388245,-0.6111251711845398,-0.12543189525604248
301,-0.7314883700678073,1.385862885913153,-2.015306781808112,-0.12282878905534744,-0.9829484820365906,-0.13684111833572388,-1.338091492652893,0.25121450424194336,-0.27874210476875305,0.25178080797195435,0.9037248492240906,-0.009811103343963623
302,-0.310987861742892,1.4339995607196332,-2.489826726299748,-0.041729431599378586,-0.9906579256057739,-0.129829540848732,1.4902421236038208,0.12755540013313293,-0.8453294038772583,0.3858456611633301,0.8406029343605042,-0.1061629056930542
303,-2.8564528215759144,1.4696466121278324,0.3388739177668201,-0.028403859585523605,-0.9948887228965759,0.0968993529677391,-1.066008448600769,1.682183861732483,-0.2528652548789978,0.2912364900112152,-0.670592725276947,-0.18570555746555328
304,-2.429703282572233,1.5463412655042692,0.037796695755566795,-0.015974100679159164,-0.9997009634971619,0.018513845279812813,0.37447696924209595,-0.4482133090496063,1.580636739730835,-0.14784425497055054,0.34595346450805664,-0.09299206733703613
305,-1.219142269501805,1.4440424361670785,-1.3435546944174794,-0.11867911368608475,-0.9919774532318115,-0.04354385286569595,-0.9937741756439209,-1.0580941438674927,-0.09394073486328125,-0.6011084914207458,1.2620275020599365,0.28473949432373047
306,-2.0319879557699516,1.4755842832430621,-0.7118186348139164,-0.08513589203357697,-0.9954707622528076,0.04230690002441406,2.8749501705169678,-0.6403918266296387,-1.535908818244934,-0.7566762566566467,-1.6517460346221924,0.10228538513183594
307,-1.958901436755826,1.4687877531894775,-0.8176934480777357,-0.09425950050354004,-0.9948016405105591,0.038537200540304184,-1.3330944776535034,-0.20033271610736847,1.0441408157348633,0.29384446144104004,-0.25879955291748047,0.2540196180343628
308,-0.7962498305458308,1.4056788549055659,-1.9538498964364814,-0.11748005449771881,-0.9863990545272827,-0.11495762318372726,-1.3602502346038818,-0.6800984144210815,-0.5129489898681641,0.2593715488910675,0.985895574092865,-0.13621729612350464
309,-0.4145558353531053,1.4499532801512967,-2.401676937173068,-0.04855573922395706,-0.992707371711731,-0.11033929884433746,1.662137508392334,-0.509401798248291,0.3431808054447174,0.534746527671814,0.7622537612915039,-0.19726265966892242
310,-2.781619337917301,1.4014776231047332,0.22353730795404672,-0.059357862919569016,-0.9856997728347778,0.157710462808609,-0.8853822350502014,2.2976787090301514,-0.4640008211135864,0.21429559588432312,-0.7512691617012024,-0.17559385299682617
311,-2.1323567313477136,1.4797063845597933,-0.2566592514901619,-0.07699540257453918,-0.9958541989326477,0.048439763486385345,0.0853784903883934,0.04640613868832588,1.9417273998260498,-0.11480758339166641,0.39952534437179565,-0.07408975809812546
312,-1.4192816867891085,1.4193540945374712,-1.105174014795888,-0.1491355150938034,-0.9885545372962952,-0.022770728915929794,-0.8507989048957825,-1.5109435319900513,-0.5165696740150452,-0.4449349045753479,1.251051425933838,0.1954086422920227
313,-2.783067434629611,1.4350137291435492,0.11554611070277641,-0.04749920219182968,-0.9907956719398499,0.12675917148590088,4.1499505043029785,2.055117130279541,-2.2742671966552734,-0.9522414207458496,-2.894824504852295,0.17035996913909912
314,-1.9701829380587743,1.5051492752334406,-0.7889191627577715,-0.0604364387691021,-0.9978460073471069,0.02550842985510826,-1.0912553071975708,-0.7545526623725891,0.8561787009239197,-0.017032425850629807,-0.008776247501373291,0.24892091751098633
315,-0.5959616378796717,1.4477659816812694,-2.1230929174478628,-0.06888379901647568,-0.9924412965774536,-0.10156487673521042,-0.8889659643173218,-0.28829628229141235,-0.5629177093505859,0.21967114508152008,0.9768468141555786,-0.051373958587646484
316,0.1513236356737047,1.550094888095261,-2.9212108972266235,0.003121084300801158,-0.9997857213020325,-0.02046755515038967,4.192404270172119,1.9089622497558594,-0.4915607273578644,0.5635293126106262,-0.53025883436203,-0.43868470191955566
317,3.058841192712369,1.4460697218405336,0.7502469446854343,0.01028294488787651,-0.9922317266464233,0.12397923320531845,-2.142011880874634,1.61578369140625,-1.03282630443573,0.06312710046768188,-0.4398667812347412,0.12301482260227203
318,-2.571204372057209,1.4688533419440286,0.1330577475481774,-0.0549498088657856,-0.9948083162307739,0.08565611392259598,-0.5951234102249146,-2.6708781719207764,1.6303651332855225,-0.318844735622406,0.7714349031448364,0.2207556962966919
319,-1.3801493327563892,1.4669599026743447,-1.241374617195518,-0.10177288204431534,-0.9946138262748718,-0.01964123547077179,-0.3461874723434448,-1.5359748601913452,-0.08092726767063141,-0.30794090032577515,1.2006378173828125,0.1018250584602356
320,-3.032543792418373,1.4160449384184328,0.283941709172318,-0.016774868592619896,-0.9880498647689819,0.15321868658065796,1.7076284885406494,-0.14017678797245026,-1.1176857948303223,-0.44436100125312805,-2.7801995277404785,0.10340367257595062
321,-1.6491375713915102,1.4839464015934078,-1.1548970743000966,-0.0864749327301979,-0.9962309002876282,0.00678844703361392,-1.9111076593399048,1.3016077280044556,0.7015567421913147,0.2619205117225647,0.24755841493606567,0.3384110927581787
322,-0.5130901105089721,1.4244509823627456,-2.2325859650373276,-0.07158061116933823,-0.989310622215271,-0.12704601883888245,-0.04501070827245712,-1.1962748765945435,-0.9526238441467285,0.24023601412773132,1.0181039571762085,-0.13853323459625244
323,-1.641143590854802,1.5142514647210106,-1.18423881981157,-0.056375764310359955,-0.9984017610549927,0.003972435835748911,3.5740480422973633,1.9745335578918457,0.4736953377723694,0.6153051853179932,-0.5007132291793823,-0.06380212306976318
324,3.0771458985970126,1.4682295064467012,0.727738709895044,0.006593917962163687,-0.9947446584701538,0.1021740585565567,-1.6378978490829468,1.9792507886886597,-1.3011224269866943,0.045026570558547974,-0.4005189538002014,0.007002584636211395
325,-1.958872342482884,1.4691524183018825,-0.5355762760062852,-0.0939241275191307,-0.9948387145996094,0.03839689865708351,-1.4221065044403076,-3.537813663482666,1.5991997718811035,-0.6677488088607788,0.9986228942871094,0.226892352104187
326,-1.2376878242195828,1.4293859018058361,-1.4827866324673984,-0.13319295644760132,-0.9900181889533997,-0.04608500003814697,0.13429439067840576,-1.3781547546386719,-0.005733019672334194,-0.13234052062034607,0.9962131381034851,0.21174967288970947
327,-2.793168663534416,1.4179720516952976,0.05945859342102229,-0.051974039524793625,-0.9883450865745544,0.14308318495750427,1.1838998794555664,0.24789805710315704,-1.2232939004898071,-0.2652256488800049,-2.6461305618286133,-0.11749410629272461
328,-1.3687589518737813,1.4611765266786787,-1.4026858045419652,-0.10717516392469406,-0.9939977526664734,-0.021952904760837555,-2.092136859893799,0.9346205592155457,0.606670618057251,0.39185839891433716,0.30071473121643066,0.5799973607063293
329,-0.36581196769258906,1.4174431527403857,-2.34108443754184,-0.05464080721139908,-0.9882644414901733,-0.14264559745788574,0.6763817071914673,-0.7234229445457458,-1.2196531295776367,0.34129244089126587,0.9513229131698608,-0.053796038031578064
330,-2.6987647011652705,1.5222789213671244,-0.028782190077685278,-0.020780611783266068,-0.9988232851028442,0.043818775564432144,4.112858772277832,1.4605673551559448,-0.4931790828704834,0.43278318643569946,-0.886369526386261,-0.3716691732406616
331,2.7103348055051426,1.4887758812165202,1.0916198596918911,0.034247927367687225,-0.9966381788253784,0.07442867010831833,-1.573133111000061,2.101315975189209,-0.5830487012863159,0.017982903867959976,-0.32062268257141113,-0.13109982013702393
332,-1.884840938138736,1.5052681370218777,-0.5386803983029407,-0.06227891892194748,-0.9978538155555725,0.02022775448858738,-1.0993388891220093,-2.6839025020599365,1.551027536392212,-0.6066816449165344,0.98923259973526,0.28964781761169434
333,-0.9845300835730875,1.4747462736441113,-1.677531652724809,-0.07988814264535904,-0.9953907132148743,-0.05305862799286842,0.48101806640625,-2.4608590602874756,-0.519344687461853,-0.35625386238098145,0.784453272819519,0.09399795532226562
334,3.1330664487253976,1.4405941654052616,0.3983704976759686,0.0011069788597524166,-0.9915356636047363,0.12982939183712006,-1.8203078508377075,-0.3865997791290283,0.29535719752311707,0.12351155281066895,-1.1870684623718262,-0.012626662850379944
335,-0.9521427786784621,1.4986345047795684,-1.7888720920245225,-0.05873622000217438,-0.9973974823951721,-0.04181303828954697,-1.6108392477035522,0.661983072757721,0.11083636432886124,0.3334401845932007,0.6195440888404846,0.18642055988311768
336,-0.14040358623175198,1.450265214019565,-2.5161850794369567,-0.016826696693897247,-0.9927449226379395,-0.11905665695667267,0.39430102705955505,0.1443907618522644,-0.3533899486064911,0.45620352029800415,1.028252124786377,-0.036384642124176025
337,3.006119923933289,1.4114937152253642,0.6625231038969913,0.02142445370554924,-0.987338125705719,0.15717720985412598,2.1772620677948,2.1268415451049805,-1.6040730476379395,0.33619579672813416,-2.2938661575317383,0.3173863887786865
338,2.24098524948138,1.5159749790153243,1.633919055568161,0.04294322431087494,-0.9984976649284363,0.03403515741229057,-0.8640386462211609,2.031933307647705,0.7003379464149475,-0.12326547503471375,-0.03350001573562622,-0.1518329381942749
339,-1.1784548982199194,1.477186962178005,-1.3399369065523268,-0.08637034893035889,-0.9956218600273132,-0.035739585757255554,-1.6748982667922974,-2.9007411003112793,0.3662540912628174,-0.6599980592727661,1.265122652053833,0.5995823740959167
340,-1.0293814507173966,1.478923283380122,-1.6644338691463845,-0.07862312346696854,-0.9957826137542725,-0.04728037118911743,1.9148541688919067,-1.2707159519195557,-0.7932016253471375,-0.49826592206954956,0.14972853660583496,0.35060983896255493
341,-2.3535743258140878,1.500971294161406,-0.383860788488662,-0.04946117475628853,-0.9975632429122925,0.049202658236026764,-2.2338316440582275,0.0854826271533966,0.9730380177497864,0.13056164979934692,-0.598383903503418,-0.23008036613464355
342,-0.4504407255409511,1.4120766853631581,-2.2805477320624092,-0.06881079077720642,-0.9874304533004761,-0.14228901267051697,-1.3033462762832642,1.1537730693817139,-0.17098718881607056,0.4083493649959564,0.6958960294723511,0.21792685985565186
343,0.008970958309105303,1.4623977120307332,-2.7986332811362487,0.0009705269476398826,-0.9941306114196777,-0.10818252712488174,1.3265395164489746,-1.402543306350708,-0.4089851379394531,0.2903960347175598,0.9452109336853027,0.022962212562561035
344,3.0870345409169997,1.3699683087855905,0.5123677371236843,0.010877911932766438,-0.9799017310142517,0.19918425381183624,-0.8765097856521606,2.87156343460083,-0.689062774181366,0.39215248823165894,-1.309633731842041,-0.08698642253875732
345,-2.4990236124046294,1.5336610953104077,0.01696837429971571,-0.022249452769756317,-0.9993105530738831,0.02972361445426941,-0.7511206865310669,1.7807317972183228,1.3158941268920898,-0.032178670167922974,0.11323267221450806,0.0514988899230957
346,-1.1472639424915758,1.4102270574099645,-1.4737328517125732,-0.14575345814228058,-0.9871364235877991,-0.06570800393819809,-1.1308586597442627,-2.7960429191589355,0.3209714889526367,-0.4567245841026306,1.2046352624893188,0.2628820538520813
347,-1.6851607754656739,1.4634592208762562,-1.1141190059766575,-0.10643099993467331,-0.9942448735237122,0.012225267477333546,3.990283727645874,-0.21430490911006927,-0.9860870242118835,-0.9608297348022461,-1.632464051246643,-0.23865044116973877
348,-1.884011400144483,1.4628716167953042,-0.9609683313874599,-0.10247636586427689,-0.994181752204895,0.03318965062499046,-2.7808399200439453,0.23720505833625793,1.244084358215332,0.3926374912261963,-0.32407093048095703,0.009107712656259537
349,-0.44571528491159135,1.343134291029464,-2.3290944647442027,-0.09730048477649689,-0.97419673204422,-0.20365062355995178,-0.21261177957057953,0.553330659866333,-1.2881122827529907,0.3259534239768982,0.975386917591095,0.00041878223419189453
350,-0.5108648161977326,1.4955740249986484,-2.316406211677847,-0.03674330562353134,-0.9971721172332764,-0.065555140376091,2.942549705505371,-0.5818231105804443,0.291527658700943,0.38023391366004944,0.4423931837081909,-0.1615566611289978
351,-3.1208015661742827,1.4842963512523615,0.48215940031529636,-0.001796051161363721,-0.9962611794471741,0.08637318015098572,-2.317293405532837,3.0448060035705566,-0.11392547935247421,0.27781230211257935,-0.7444766759872437,-0.5291680097579956
352,-0.4458237815022094,1.4961205618672047,-1.9712837219036459,-0.03216972202062607,-0.9972130656242371,-0.06731268763542175,-1.6064329147338867,0.8383615612983704,1.0153543949127197,-0.16265448927879333,0.6068933606147766,0.26531070470809937
353,-0.7199822889701445,1.3585783252586756,-1.8430089170479438,-0.13888242840766907,-0.977566123008728,-0.15835419297218323,-0.11902781575918198,-1.829105257987976,-0.3827516734600067,-0.47322386503219604,1.36674165725708,0.3087906241416931
354,-2.640443198419596,1.464619254315322,-0.1073487567898337,-0.05091550573706627,-0.9943684935569763,0.0929461196064949,3.9841020107269287,-2.4677653312683105,-1.1330069303512573,-0.4751770496368408,-1.925339698791504,-0.19525635242462158
355,-0.9814955973505396,1.4709865542213594,-1.8192763753881371,-0.08283732831478119,-0.9950231313705444,-0.05538034439086914,-2.791078805923462,0.3889847993850708,0.6558213233947754,0.1994297206401825,0.22791802883148193,0.23303842544555664
356,-0.17229300756028462,1.3342643317321874,-2.5553460455352135,-0.040174417197704315,-0.9721564650535583,-0.23086313903331757,0.28687751293182373,0.11841119080781937,-1.2811614274978638,0.2018870711326599,1.0679664611816406,0.08041149377822876
357,0.14119781832405004,1.527034905586837,-2.8719766532325135,0.00615675700828433,-0.9990426301956177,-0.043313611298799515,5.344555854797363,2.4337124824523926,0.5383720993995667,0.6147691607475281,-1.1294821500778198,-0.4275115728378296
358,2.2078959286882966,1.5271567935217487,1.6661241754115401,0.035064831376075745,-0.9990479350090027,0.025949563831090927,-1.5057176351547241,2.5778682231903076,-0.08316050469875336,0.12150558829307556,-0.4783841371536255,-0.2096959352493286
359,-1.403569535046852,1.4699306703433412,-0.8975342769559508,-0.09929092973470688,-0.9949173927307129,-0.016760632395744324,-0.8757590055465698,-1.9764517545700073,1.736629605293274,-0.4575023055076599,0.9882034063339233,0.20741921663284302
360,-0.9264461223972549,1.4236664223782312,-1.507481596105278,-0.11720509827136993,-0.9891958832740784,-0.08805941790342331,0.11610186845064163,-0.9865138530731201,-0.4208216667175293,-0.27897408604621887,1.0879966020584106,0.005616195499897003
361,3.05974480789369,1.4541365013321756,0.6915258476535856,0.009515983983874321,-0.9932029843330383,0.116004578769207,0.24634024500846863,0.5156616568565369,-0.8248627781867981,0.15256288647651672,-2.83939266204834,0.4641803205013275
362,-0.3632045894703745,1.4626617641270439,-2.187108452319969,-0.03834225609898567,-0.9941591620445251,-0.10088317841291428,-1.9294195175170898,-0.009319283999502659,-0.017951346933841705,0.25510862469673157,0.5446810126304626,0.4438397288322449
363,0.09132191887381473,1.3221481102643051,-2.6273143121982883,0.022442542016506195,-0.969245970249176,-0.24506843090057373,0.19620294868946075,-0.19993837177753448,-1.01384699344635,0.2084992527961731,1.1011277437210083,0.30839240550994873
364,0.7337671570955087,1.5569671997625494,3.030628063914862,0.009264755062758923,-0.9999043941497803,-0.010274482890963554,6.541522026062012,1.5581562519073486,-0.670383095741272,0.4661228358745575,-1.7867168188095093,-0.4703010320663452
365,2.4043330308824866,1.4690345240411657,1.468225378115216,0.06829297542572021,-0.9948267340660095,0.07520615309476852,-2.227703332901001,2.262005567550659,0.32540205121040344,0.06503832340240479,-0.386261522769928,-0.22257554531097412
366,-1.137437968933905,1.5104661368495917,-1.1844063367578828,-0.054720524698495865,-0.9981806874275208,-0.025318751111626625,-0.7232657074928284,-2.01180362701416,1.470768928527832,-0.42176568508148193,0.9328883290290833,0.02031385898590088
367,-0.675732625628533,1.4644368640743528,-1.9177647688215733,-0.06639884412288666,-0.9943491816520691,-0.0828300341963768,0.11747658252716064,-2.344287872314453,-0.9044116735458374,-0.43027472496032715,0.7855937480926514,0.1989646553993225
368,2.8247624227904438,1.4739830936294755,0.7355091160595449,0.03011626936495304,-0.995317280292511,0.0918528363108635,-1.5520873069763184,-1.0369092226028442,-0.001975120510905981,0.12218170613050461,-1.1708664894104004,-0.021875955164432526
369,-0.30845194078155985,1.4788575448524657,-2.439172536528114,-0.027871841564774513,-0.9957765936851501,-0.08747635781764984,-1.457279086112976,0.24249020218849182,-0.022207772359251976,0.27263808250427246,0.6228976249694824,0.19677501916885376
370,0.05990612247400001,1.4531463180539876,-2.7546563167308675,0.0070274933241307735,-0.9930872321128845,-0.11716806888580322,0.8155027627944946,0.13618957996368408,0.10204054415225983,0.4668799638748169,1.0550074577331543,0.05547678470611572
371,2.849754541311409,1.4074735177608504,0.8285266467048829,0.0467815101146698,-0.9866924285888672,0.15572258830070496,0.4374178349971771,-0.2068353295326233,-1.303840160369873,0.5147418975830078,-2.048067092895508,-0.09003353118896484
372,2.2319704156713365,1.533634723778324,1.6517859351932176,0.02932521514594555,-0.9993095993995667,0.022814663127064705,-0.478181391954422,2.229454278945923,1.3311808109283447,-0.0831734836101532,0.11303335428237915,-0.08282744884490967
373,-1.0004681951041834,1.4647161136045779,-1.494245464051801,-0.08912219852209091,-0.9943787455558777,-0.05716579034924507,-1.5200021266937256,-2.2532989978790283,-0.657078742980957,-0.8404584527015686,1.4532716274261475,0.523047149181366
374,-1.1246736571414921,1.5128173846643524,-1.5867625008376325,-0.052274420857429504,-0.998319685459137,-0.02500190958380699,2.5732293128967285,-1.8860275745391846,-0.4496549367904663,-0.6528647541999817,-0.36294734477996826,0.11689037084579468
375,-2.9248184017490426,1.4928277819686366,0.21808682754519454,-0.0167526938021183,-0.9969620108604431,0.07606742531061172,-2.212459087371826,0.9167455434799194,0.794459342956543,0.376188725233078,-0.5998550057411194,-0.38691937923431396
376,-0.46245143715225584,1.4322798647271395,-2.150483576302114,-0.06160074099898338,-0.9904219508171082,-0.12357079237699509,-1.4981086254119873,2.0662460327148438,0.16830624639987946,0.4250193238258362,0.9223677515983582,0.13306176662445068
377,-0.580955095100996,1.4448282223560194,-2.0278821818258073,-0.06895114481449127,-0.9920765161514282,-0.10502289980649948,2.178684711456299,-0.14710086584091187,0.3476680517196655,0.5522580146789551,0.603892982006073,-0.12285184115171432
378,2.740302242019967,1.4958007488682348,1.082681444269682,0.02926628850400448,-0.9971891641616821,0.06897300481796265,-2.0301666259765625,2.350545644760132,-0.8148723840713501,0.22039800882339478,-0.7772554159164429,-0.24483060836791992
379,-2.3455214387353087,1.5287998660349433,0.09345289466838107,-0.030003340914845467,-0.9991182684898376,0.029369626194238663,-0.5001968741416931,-1.5273516178131104,1.7411057949066162,-0.3148605525493622,0.6552919745445251,-0.19375252723693848
380,-0.539733614561678,1.4724702550198523,-1.9572057005950012,-0.05044955760240555,-0.9951698780059814,-0.08421346545219421,-0.5016523599624634,-1.8690605163574219,-0.4519815444946289,-0.42686063051223755,1.0754005908966064,0.2341005802154541
381,3.0247928168071887,1.4562685653035563,0.532773495267991,0.013317277655005455,-0.9934488534927368,0.1134989932179451,3.2700371742248535,-1.6616772413253784,-1.3417140245437622,-0.5161096453666687,-2.2681171894073486,-0.055195100605487823
382,-2.643259889706944,1.5397276121038166,-0.08521561679674855,-0.014848312363028526,-0.9995173811912537,0.027287688106298447,-1.6837667226791382,-0.506636917591095,0.179052472114563,0.24377591907978058,0.35820573568344116,-0.18993115425109863
383,-0.22271963667031722,1.4532059228038172,-2.5287002015973084,-0.025914054363965988,-0.9930942058563232,-0.11442255973815918,-0.7448735237121582,-0.2397761195898056,0.41959935426712036,0.4262588918209076,1.0034548044204712,-0.019656434655189514
384,-1.7519756737299477,1.50538684854654,-0.8837836565713464,-0.06429442763328552,-0.9978615641593933,0.01177797932177782,4.7969441413879395,2.9875214099884033,-0.37033718824386597,0.6587768197059631,-1.3440117835998535,-0.41215336322784424
385,-2.7553248787273983,1.5046288038064952,0.24659243475173231,-0.02490879036486149,-0.9978117346763611,0.061246294528245926,-1.3268365859985352,2.595240354537964,0.4752403497695923,-0.005395170301198959,-0.33507388830184937,0.05102788656949997
386,-1.4925679543569603,1.3952202427214329,-0.9792315491387528,-0.17414088547229767,-0.984626054763794,-0.013650614768266678,-1.826316237449646,-3.869724750518799,0.2393055111169815,-0.647071897983551,1.3046945333480835,0.12751173973083496
387,-1.0318672984457613,1.4154617737993502,-1.667850725150041,-0.1327819675207138,-0.9879598021507263,-0.07940026372671127,0.43857309222221375,-2.912198305130005,-0.5326114296913147,-0.2538604736328125,0.8347158432006836,0.06665915250778198
388,-2.8542376815116315,1.3981327395307466,0.021223055617384853,-0.0486929714679718,-0.9851306676864624,0.16476240754127502,-1.1760237216949463,0.6639317870140076,0.19607827067375183,0.0650656521320343,-1.71746027469635,0.09121906757354736
389,-1.372105826173037,1.4509456701197434,-1.3588668666809733,-0.11721133440732956,-0.992826521396637,-0.02360016107559204,-1.5931421518325806,1.8132528066635132,0.3136405944824219,0.43180179595947266,0.5586529970169067,0.22518402338027954
390,-0.8054477399146143,1.3873835788905335,-1.7585875147334216,-0.13152630627155304,-0.9832269549369812,-0.12635518610477448,0.3799888491630554,0.9516881704330444,0.2199261635541916,0.6114457249641418,1.067302942276001,0.15641498565673828
391,-2.714018340219919,1.436498435761782,0.22419181381599246,-0.05552133172750473,-0.9909955859184265,0.12184056639671326,3.841860771179199,-0.5393123626708984,-2.6921935081481934,0.5494331121444702,-1.5801713466644287,-0.12728798389434814
392,-3.0395485708611307,1.4608888767325605,0.6854676180640729,-0.011173517443239689,-0.993966281414032,0.10911664366722107,-0.9431524872779846,1.9554251432418823,1.8342000246047974,-0.07757160067558289,-0.16283321380615234,-0.34141647815704346
393,-1.6675452615155502,1.3925468417476559,-0.8114353783979538,-0.1764780730009079,-0.9841555953025818,0.017127538099884987,-2.302023410797119,-3.450573205947876,-0.023580854758620262,-0.5687001347541809,1.336206316947937,0.33387041091918945
394,-1.2733841196203592,1.395979987303704,-1.4311696147058754,-0.16629090905189514,-0.9847584962844849,-0.050968676805496216,1.0821424722671509,-2.384783983230591,-1.1356374025344849,-0.44909602403640747,0.2644827365875244,0.3065076470375061
395,-2.760349279972313,1.45589994973877,0.05606710677753649,-0.04265619441866875,-0.9934066534042358,0.10641297698020935,-2.725003480911255,0.11041545867919922,1.151085615158081,0.11196160316467285,-0.9953933954238892,-0.30662357807159424
396,-0.9203535069976809,1.4494118333229327,-1.7027352317142612,-0.09636212885379791,-0.9926419258117676,-0.07332226634025574,-1.8682037591934204,1.9742170572280884,0.23734329640865326,0.3226347267627716,0.7980924844741821,0.19252395629882812
397,-0.2487970276037957,1.414972583464724,-2.298901306953342,-0.03821466118097305,-0.9878840446472168,-0.1504153460264206,0.8932848572731018,0.33718040585517883,-0.7998830676078796,0.37111565470695496,1.0338587760925293,0.2035617232322693
398,2.933793208152914,1.3809608936779822,0.8279621110643519,0.03892955929040909,-0.9820352792739868,0.1846376657485962,3.7588911056518555,1.4527056217193604,-2.3625879287719727,0.6880906820297241,-2.137852907180786,0.2747281789779663
399,2.872615012133446,1.4241331573254716,1.0806337286505368,0.03883584961295128,-0.9892642498016357,0.14088428020477295,-0.5704590678215027,2.0683937072753906,1.7441798448562622,-0.08825907111167908,-0.3314298987388611,-0.25889575481414795
400,-1.882733755391431,1.4746987077504443,-0.6293286469445857,-0.09131957590579987,-0.9953861832618713,0.029447373002767563,-1.8991601467132568,-1.1989991664886475,0.4010523855686188,-0.6074414253234863,1.154275894165039,0.4306967258453369
401,-1.2202152069099135,1.4731391887285648,-1.3363514526455518,-0.09157208353281021,-0.9952353239059448,-0.0334867388010025,0.2637966275215149,-2.0673670768737793,-0.19165438413619995,-0.2141682654619217,1.0053671598434448,-0.05655539035797119
402,-3.070826645417622,1.4044960673378366,0.31815500958954646,-0.01170447375625372,-0.9862039685249329,0.16512064635753632,-0.24021676182746887,-0.5845347046852112,-0.3799910247325897,-0.037383049726486206,-2.482271432876587,0.20946741104125977
403,-1.9678107161766436,1.4981661743986514,-0.8182171307500256,-0.06692153960466385,-0.9973635673522949,0.028058750554919243,-1.4455236196517944,1.4871349334716797,-0.1658143848180771,0.29616957902908325,0.4254031777381897,0.4480917453765869
404,-0.11009005610127773,1.4372366157005498,-2.5564991432120063,-0.014630261808633804,-0.991094172000885,-0.13235625624656677,-0.3551976680755615,0.9298354983329773,-0.9500672221183777,0.2383088618516922,1.0128380060195923,0.12754978239536285
405,-0.9126615908701662,1.5031051232030583,-1.5497236262471785,-0.053512487560510635,-0.9977098107337952,-0.04137159883975983,3.5934717655181885,2.8197152614593506,-0.6618139743804932,0.5174559354782104,-1.4747023582458496,-0.3393656611442566
406,1.701494035311621,1.5129779529590786,2.1974486324700635,0.05729392170906067,-0.9983289837837219,0.00753111531957984,-1.0091969966888428,1.1654967069625854,0.6900133490562439,-0.05714133381843567,-0.2775499224662781,0.31699275970458984
407,-1.4352964677079019,1.4084854928788355,-1.0232201167730564,-0.16011732816696167,-0.9868564605712891,-0.02182963863015175,-1.1757036447525024,-3.236229658126831,1.2888145446777344,-0.6737297177314758,1.2125951051712036,0.18377113342285156
408,-1.0690627962451096,1.3741688954272138,-1.5334388940836892,-0.17128409445285797,-0.9807310104370117,-0.09395883232355118,0.3436730206012726,-2.124290704727173,-0.3672597408294678,-0.22675664722919464,0.8036834001541138,0.03264905512332916
409,-2.5891896567113006,1.4618593225148862,-0.11456048922450357,-0.05705060437321663,-0.9940722584724426,0.0925520583987236,-2.2480955123901367,-0.29197102785110474,0.46697109937667847,0.27889811992645264,-1.0981061458587646,-0.2535475492477417
410,-0.8949931860442687,1.4240647561241004,-1.8383934652303282,-0.11406999826431274,-0.9892542362213135,-0.09145487844944,-2.2179505825042725,1.5558520555496216,0.2585715651512146,0.33890825510025024,0.6755793690681458,0.3271726369857788
411,-0.3378402117314566,1.3838954010123143,-2.3205733264673873,-0.06158829852938652,-0.9825848340988159,-0.17531105875968933,0.8772812485694885,0.7234333753585815,-1.0793908834457397,0.23209001123905182,1.073313593864441,0.14059734344482422
412,-2.86049910610562,1.4823131976480115,0.35762016486118253,-0.024514105170965195,-0.996087908744812,0.08490066230297089,4.429358959197998,2.6691911220550537,-1.648877501487732,0.6370018720626831,-2.427358865737915,-0.4098517894744873
413,2.590100356457659,1.5304368000628372,1.3888765250865065,0.021140573546290398,-0.9991856813430786,0.034365955740213394,-0.10936514288187027,3.0901858806610107,0.7209767699241638,0.018394945189356804,-0.2738855481147766,-0.07051396369934082
414,-1.4423750764549614,1.4309513369654159,-0.8599020135823416,-0.13824179768562317,-0.9902375936508179,-0.01785142719745636,-2.2334611415863037,-1.8813544511795044,0.29798588156700134,-0.7501859664916992,1.3248629570007324,0.48658615350723267
415,-0.9503188591956664,1.4023102807684076,-1.5258089382756903,-0.13643288612365723,-0.9858397841453552,-0.09749904274940491,0.7912731766700745,-3.178496837615967,-0.4712385833263397,-0.2875020503997803,0.8153533339500427,0.031230151653289795
416,-2.840971576248233,1.4323158281303228,0.16831241444794418,-0.04087499901652336,-0.9904268980026245,0.13184764981269836,-1.9655920267105103,-1.0691766738891602,1.139950156211853,0.15919165313243866,-1.3570767641067505,-0.19504952430725098
417,-1.294797143140841,1.4554719409235497,-1.3723447502802917,-0.11071444302797318,-0.9933575391769409,-0.03135738894343376,-2.1804752349853516,2.5958969593048096,0.5420377254486084,0.4502224922180176,0.5697429776191711,0.4497838616371155
418,-0.4475292646063591,1.4052343441434936,-2.125745564173446,-0.07131822407245636,-0.9863259196281433,-0.14857609570026398,0.3956742584705353,-0.5461644530296326,-0.9417386054992676,0.38177353143692017,1.0890939235687256,0.006028488278388977
419,-2.5292292640594853,1.4920328698076717,0.030107586863633063,-0.04522639140486717,-0.9968997836112976,0.06438446789979935,4.974289417266846,2.4444127082824707,-1.0705031156539917,0.45068293809890747,-1.9590938091278076,-0.5057144165039062
420,-2.1692240924384882,1.5360584781527635,-0.08990441203639328,-0.02869647741317749,-0.9993966817855835,0.01956615410745144,-1.0534999370574951,3.1009998321533203,1.043408751487732,0.05387347936630249,-0.293099045753479,-0.02501356601715088
421,-1.2171707807752177,1.3944552778890187,-1.0697827785248641,-0.16457289457321167,-0.9844921827316284,-0.06075086444616318,-1.9668735265731812,-3.4106342792510986,-0.07109709829092026,-0.602165937423706,1.2468061447143555,0.5221003890037537
422,-1.0045672750518426,1.405697280113046,-1.4829910418378638,-0.13869991898536682,-0.9864020943641663,-0.08816615492105484,0.6697561740875244,-2.4407620429992676,-0.7581261396408081,-0.4397912621498108,0.5173164010047913,0.06564414501190186
423,-2.443762824591005,1.4651769830666628,-0.3014841465441282,-0.06774013489484787,-0.9944274425506592,0.0807790607213974,-1.7533568143844604,-0.8284671306610107,0.931533932685852,0.05704372376203537,-1.2469055652618408,-0.05839443951845169
424,-1.132015597464914,1.4371152886485261,-1.5667407818865853,-0.1206570640206337,-0.9910779595375061,-0.05662338063120842,-1.429506778717041,1.8415372371673584,0.17390179634094238,0.3439236581325531,0.5837599039077759,0.19244182109832764
425,-0.3334302541906643,1.4076863211493196,-2.2291568134006416,-0.05314714461565018,-0.9867270588874817,-0.15344388782978058,0.4131767451763153,1.1161938905715942,-1.079482913017273,0.43066486716270447,0.9872764348983765,0.06533963978290558
426,2.936127036368956,1.4681500583800635,0.910687650768118,0.020905647426843643,-0.9947364926338196,0.10031182318925858,0.6903010606765747,0.6687121391296387,-1.6858477592468262,0.5971668362617493,-2.425307512283325,0.7398828268051147
427,2.9176494901426953,1.5390145704713445,1.075707765921475,0.007057682145386934,-0.9994950294494629,0.03098689764738083,-0.02774772420525551,1.9978816509246826,1.6161588430404663,-0.06894734501838684,0.044004738330841064,-0.10804378986358643
428,-1.3818048858056073,1.4395769453785625,-0.9823821765858974,-0.12851372361183167,-0.9914031028747559,-0.02458135597407818,-2.107341766357422,-2.595520257949829,-0.466528981924057,-0.7138782739639282,1.3743529319763184,0.4454187750816345
429,-1.091085072376052,1.4478155124594185,-1.4941500128526397,-0.10882504284381866,-0.9924473762512207,-0.05661556124687195,1.9350751638412476,-3.0514121055603027,-1.10091233253479,-0.597977340221405,-0.0596613883972168,-0.03895026445388794
430,-2.5999473100374617,1.480583506199384,-0.14987080425026836,-0.046445902436971664,-0.9959335923194885,0.0771951824426651,-2.17353892326355,-0.5160783529281616,0.9351710677146912,-0.07977481186389923,-0.642906129360199,-0.2727212905883789
431,-0.7734645205948127,1.4671916096073976,-1.8670329545738549,-0.07225179672241211,-0.9946378469467163,-0.07399716228246689,-1.6353245973587036,2.336426258087158,0.08414319157600403,0.3224806487560272,0.9516842365264893,0.15378540754318237
432,-0.370575402424541,1.4447411123576495,-2.174227345223951,-0.04553016647696495,-0.9920655488967896,-0.11718714982271194,1.1065194606781006,0.732693076133728,0.6873958706855774,0.7444590330123901,0.9324495196342468,0.08280909806489944
433,2.7659986377026633,1.5150586816599791,1.1452041635190586,0.020434966310858727,-0.998447060585022,0.05182425305247307,-0.5699988603591919,0.2948951721191406,-1.2327969074249268,0.386074423789978,-1.119640588760376,-0.5908104181289673
434,-2.114036547032602,1.5048235475108165,-0.20128368018449827,-0.05643438547849655,-0.9978246092796326,0.034077491611242294,-0.33597996830940247,-0.2783585786819458,2.371203660964966,-0.20859551429748535,0.5130071043968201,-0.17609107494354248
435,-1.1160307062594172,1.4205035023908372,-1.3810136125380232,-0.13451069593429565,-0.9887272715568542,-0.06576851010322571,-0.7466035485267639,-0.9114421606063843,-0.1729116439819336,-0.27901774644851685,1.1086459159851074,0.4288514256477356
436,-2.260150901178692,1.4888979811351162,-0.409202633343355,-0.06312662363052368,-0.9966481924057007,0.052032221108675,3.3772308826446533,-0.024763744324445724,-2.198650360107422,-1.037535548210144,-2.6585030555725098,0.1986849308013916
437,-1.5665105037172697,1.495988668966994,-1.1229413645831414,-0.07473886758089066,-0.9972032308578491,-0.00032031952287070453,-1.0590076446533203,0.08146470785140991,0.4051019847393036,0.15512216091156006,0.08651280403137207,-0.02177441120147705
438,-0.4335733132205763,1.4086808884806803,-2.1699902786179024,-0.06780930608510971,-0.98688805103302,-0.14647123217582703,-0.9599884152412415,0.23350442945957184,-0.594612717628479,0.2777091860771179,0.9849044680595398,-0.11619351804256439
439,-0.4799578620676263,1.473881875736022,-2.100323897874237,-0.044679876416921616,-0.995307445526123,-0.08583085238933563,2.69826078414917,1.1110868453979492,0.4774894416332245,0.7560751438140869,0.19457197189331055,-0.07492047548294067
440,2.328334919556293,1.479479932654903,1.5118300055599603,0.06625203788280487,-0.9958335757255554,0.06265968829393387,-1.3222342729568481,1.949477195739746,-0.05674384534358978,0.07026832550764084,-0.6171730160713196,-0.07706404477357864
441,-1.9605509993003742,1.5162511123577052,-0.3723503952470248,-0.05042846128344536,-0.9985128045082092,0.02071440778672695,-0.4368048310279846,-1.7108391523361206,2.0459372997283936,-0.26730528473854065,0.697151780128479,-0.1306997537612915
442,-1.06307915066848,1.4538285379190679,-1.5458049550879873,-0.10198046267032623,-0.9931670427322388,-0.05673840641975403,-0.5201708078384399,-1.8674501180648804,-0.3375082015991211,-0.32004714012145996,1.1795990467071533,0.3129640221595764
443,-2.9974927404291667,1.4409557763291005,0.2590081804527055,-0.018593275919556618,-0.9915825724601746,0.12813609838485718,2.9081480503082275,0.7121310830116272,-2.0487687587738037,-0.7962413430213928,-3.1398110389709473,0.10156980156898499
444,-1.8880576580487958,1.5181332767622286,-0.815121265664454,-0.05000904202461243,-0.9986135959625244,0.016420606523752213,-1.287097454071045,0.11047999560832977,0.36630141735076904,0.24895313382148743,0.26768726110458374,-0.12414765357971191
445,-0.39336878735741965,1.4203991106690983,-2.21006677875081,-0.05743066966533661,-0.9887116551399231,-0.13838769495487213,-0.4154093265533447,-0.023240752518177032,-0.2780929505825043,0.3809322714805603,1.0949127674102783,-0.10566134750843048
446,-1.4931538965261246,1.5018784610471103,-1.084920716424963,-0.0686563178896904,-0.9976261258125305,-0.005341381300240755,4.34883451461792,2.0232162475585938,-0.49948832392692566,0.6961435079574585,-0.477578341960907,-0.07821571826934814
447,2.726107990777071,1.4527496558737074,1.132032673629279,0.04753728210926056,-0.9930405616760254,0.10775334388017654,-1.2545018196105957,2.2886922359466553,0.11086026579141617,0.020013362169265747,-0.5188002586364746,-0.08768796920776367
448,-1.95193367134795,1.4566516087227732,-0.417717045972216,-0.10572472214698792,-0.9934925436973572,0.04236729070544243,-1.7211153507232666,-3.3443291187286377,0.9504397511482239,-0.856326699256897,1.1966023445129395,0.05582296848297119
449,-1.1287764448455222,1.451052554292882,-1.5512571107843016,-0.10797605663537979,-0.9928392767906189,-0.05109971761703491,0.0011056414805352688,-2.8716022968292236,-0.0859367847442627,-0.1502789407968521,0.999293863773346,0.2215556502342224
450,-2.9246473072223784,1.462406159857965,0.14191656801052044,-0.023284992203116417,-0.9941315054893494,0.10564197599887848,-0.49822157621383667,-0.03324565291404724,-0.24447263777256012,-0.09642021358013153,-1.6789031028747559,-0.26170897483825684
451,-1.5911439549573472,1.4894954276671128,-1.2339208221549205,-0.08119388669729233,-0.9966968894004822,0.0016523310914635658,-1.319359540939331,0.48036131262779236,-0.05815752223134041,0.3194293677806854,0.45075273513793945,0.02369248867034912
452,-0.4654072802440313,1.4100869573515322,-2.2986611117933133,-0.07181419432163239,-0.9871140122413635,-0.14299875497817993,-0.3807164430618286,-0.04065931215882301,0.02939973957836628,0.4949404001235962,1.0242080688476562,-0.05606740713119507
453,-2.2533098497415316,1.495295801855816,-0.3446818555548955,-0.05853329971432686,-0.9971511960029602,0.047577448189258575,4.402426242828369,1.8996655941009521,-2.1497507095336914,0.6063390970230103,-1.7206833362579346,-0.5142828226089478
454,2.2344658451346655,1.5263413543250175,1.5319119324501447,0.03500521555542946,-0.9990120530128479,0.027374131605029106,-0.780326247215271,1.196239948272705,1.3934216499328613,-0.06392061710357666,-0.18539029359817505,-0.24884021282196045
455,-1.2449598930598713,1.391476639817788,-1.3458637936534577,-0.1689750999212265,-0.983965277671814,-0.05709320679306984,-1.072771430015564,-1.0966777801513672,0.40018367767333984,-0.6996924877166748,1.368380069732666,0.46412140130996704
456,-0.9587126882606025,1.3844884200481633,-1.7445506329168516,-0.15160366892814636,-0.9826948046684265,-0.10642953962087631,0.23621222376823425,-2.618438243865967,-0.5624707341194153,-0.25548556447029114,0.685987651348114,0.16838020086288452
457,-2.5747001891816437,1.4975496748212633,-0.11532800431003591,-0.03929969668388367,-0.997318685054779,0.06173441559076309,-2.09812331199646,1.0100592374801636,0.8531785607337952,0.26116248965263367,-0.849742591381073,0.018267400562763214
458,-0.7131905461798553,1.4254831668073762,-1.897723923455268,-0.09473719447851181,-0.9894605875015259,-0.10951116681098938,-1.5318307876586914,1.0759702920913696,0.06725471466779709,0.32252037525177,0.8988233208656311,0.11678962409496307
459,-0.3795623979727592,1.4192086145600487,-2.2067693484348903,-0.05595080554485321,-0.988532543182373,-0.14026084542274475,0.7688924074172974,-0.350968599319458,0.25852566957473755,0.5654723048210144,1.1214823722839355,0.04026997089385986
460,-2.7762985594180027,1.4583394879217806,0.35058000337600476,-0.040087249130010605,-0.993683397769928,0.10481446981430054,0.5546900629997253,2.2270987033843994,-2.0518250465393066,0.6688104271888733,-2.48075795173645,0.6918315887451172
461,-2.5341180872070597,1.5295814859884727,0.1826231528133967,-0.023517612367868423,-0.999150812625885,0.0338301919400692,-0.2599698007106781,0.3812396824359894,1.9916186332702637,-0.07769393920898438,0.042134881019592285,-0.2794966697692871
462,-1.4401440731922006,1.4005709076797028,-1.0848450849530207,-0.1679604947566986,-0.9855465888977051,-0.02207013964653015,-1.3364076614379883,-1.962200403213501,-0.43286561965942383,-0.7058645486831665,1.3989834785461426,0.5785276889801025
463,-1.6430763937143453,1.460255093260379,-1.0402170484505944,-0.11002838611602783,-0.9938965439796448,0.007966737262904644,2.654510021209717,0.052384234964847565,-1.7116827964782715,-0.9620541334152222,-1.337432861328125,0.2463667392730713
464,-1.9921813701324709,1.5144658047789628,-0.6712908598769224,-0.051375821232795715,-0.9984138607978821,0.023028433322906494,-1.5260918140411377,0.16415084898471832,0.9071377515792847,0.17193549871444702,-0.14829939603805542,-0.008578300476074219
465,-0.54022197046956,1.4333389129524394,-1.987632331083324,-0.07047553360462189,-0.9905676245689392,-0.11751183122396469,-0.6439696550369263,1.1177113056182861,-0.36606040596961975,0.3106031119823456,0.9611486792564392,-0.1096000000834465
466,-0.1054712297564554,1.480587066122111,-2.4286529780456116,-0.009484026581048965,-0.9959338903427124,-0.08958683162927628,1.6878379583358765,-0.4155673682689667,0.5850396752357483,0.7511069774627686,0.4959339499473572,-0.19616448879241943
467,2.6506141372699505,1.4887072182429504,1.2067477861621625,0.038661178201436996,-0.9966325759887695,0.07231176644563675,-0.793045699596405,0.22571906447410583,-0.24320079386234283,0.1064651608467102,-0.42472362518310547,-0.18704259395599365
468,-1.923801263805565,1.482022133865953,-0.44807552164463404,-0.08318968117237091,-0.996062159538269,0.03065020591020584,-0.5708150267601013,-1.2179467678070068,1.9027564525604248,-0.2059643566608429,0.7934255599975586,-0.04532921686768532
469,-1.2136636823767057,1.4514710744778663,-1.3904941845488248,-0.1115306094288826,-0.9928891658782959,-0.04161572456359863,-0.5879592299461365,-2.634944438934326,-0.5363782048225403,-0.3429676592350006,1.064620852470398,0.17780041694641113
470,-3.0369218289342923,1.4709183286799854,0.2999243393850186,-0.010417932644486427,-0.99501633644104,0.09916668385267258,-0.01875501126050949,0.7735230922698975,-0.6883994936943054,-0.15327835083007812,-1.8570802211761475,0.0798952579498291
471,-0.6445009759064869,1.4803951194933005,-2.0795356190921823,-0.054238446056842804,-0.9959166049957275,-0.07216748595237732,-1.9824445247650146,1.455740213394165,0.2244335114955902,0.2574702501296997,0.5980895757675171,0.15950877964496613
472,0.05101971126068536,1.3801791649630926,-2.7168291221195475,0.009662218391895294,-0.9818875193595886,-0.1892177164554596,0.40521952509880066,0.19783808290958405,-1.2904226779937744,0.2758144736289978,1.124236822128296,0.07891198992729187
473,2.7060980966460644,1.5233145433085042,0.9103504190618827,0.020022695884108543,-0.9988729357719421,0.043032895773649216,5.062835216522217,1.3486789464950562,-0.7804402709007263,0.5036742091178894,-2.5980050563812256,-0.5533325672149658
474,2.6843794753871477,1.4938920887002118,1.062079406514645,0.03391522541642189,-0.9970443248748779,0.0689358189702034,0.2264741063117981,0.4736337661743164,1.6235042810440063,-0.07560223340988159,-0.2898818254470825,-0.23609578609466553
475,-1.8174634983417488,1.435995379342516,-0.9184555433380643,-0.13032527267932892,-0.9909281134605408,0.032815225422382355,-1.6319730281829834,-1.6109246015548706,0.6458896398544312,-0.5437164902687073,1.207374095916748,0.33446383476257324
476,-1.4521235430052521,1.4500898193476808,-1.4190944030186738,-0.11956653743982315,-0.992723822593689,-0.014256280846893787,0.7485160827636719,-2.273766279220581,-0.8741430640220642,-0.29292431473731995,0.654253363609314,0.020726025104522705
477,-3.072940977634863,1.503501790704265,0.1997258014829717,-0.00461261672899127,-0.9977365732192993,0.06708311289548874,-2.3261468410491943,-1.5036582946777344,1.2546908855438232,0.18472735583782196,-0.9789020419120789,-0.16692139208316803
478,-0.3524958066461956,1.4263090725926544,-2.498710366464869,-0.04970981925725937,-0.9895798563957214,-0.13513264060020447,-1.4269036054611206,0.8403540849685669,-0.3484272360801697,0.21670199930667877,0.8930984139442444,-0.09255899488925934
479,0.09468258475192205,1.4282170126402889,-3.0240725718608656,0.013433942571282387,-0.989852786064148,-0.14145974814891815,1.327844262123108,-0.8834317326545715,-0.9349247813224792,0.31960439682006836,0.9234618544578552,-0.06003253161907196
480,3.0588759133287815,1.419781624957128,0.5416627166801179,0.012429784052073956,-0.9886189103126526,0.14992639422416687,-1.3948723077774048,2.805147409439087,-0.11784191429615021,0.486135870218277,-0.8106973767280579,-0.011681810021400452
481,2.690294899126053,1.5209436220780677,1.1103511487509279,0.021732177585363388,-0.9987576007843018,0.044840358197689056,0.27971047163009644,0.7784739136695862,0.7046607136726379,-0.040912482887506485,0.3215879797935486,-0.20926904678344727
482,-1.5470011417510756,1.4771878537727294,-1.105071317534654,-0.09344631433486938,-0.995621919631958,-0.002223992021754384,-1.6664979457855225,-3.1024234294891357,0.20966537296772003,-0.7878860831260681,1.3360302448272705,0.30045706033706665
483,-2.5409606395472695,1.513521160158934,-0.34188373915013137,-0.03235346078872681,-0.9983602166175842,0.04722684621810913,3.6899168491363525,-0.006256725173443556,-1.541722297668457,-0.9662122130393982,-1.3906779289245605,0.02024746686220169
484,2.671076143833715,1.5409967222695145,0.7063403197282319,0.013506943359971046,-0.9995560050010681,0.02655627764761448,-2.214674472808838,-0.41594409942626953,1.0048266649246216,0.188015878200531,-0.3285231590270996,-0.04733872413635254
485,-0.18883735172386928,1.3948762412589866,-2.7032962795397593,-0.03285311535000801,-0.9845659136772156,-0.1719028204679489,-0.9544753432273865,-0.5940799117088318,-0.19067499041557312,0.1784524917602539,0.9753496050834656,-0.06502038240432739
486,0.21424884303772695,1.4865528431432051,-3.1023463693703413,0.017890116199851036,-0.9964536428451538,-0.08222001045942307,2.660320520401001,1.4222315549850464,-0.2553224563598633,0.6515740156173706,0.3248075246810913,-0.12833601236343384
487,2.2708931812612523,1.42430769413914,1.2804238047493641,0.11163190752267838,-0.9892897009849548,0.09404473751783371,-1.0434815883636475,0.42176562547683716,-0.9994423389434814,0.11171101033687592,-0.5868822336196899,-0.09322081506252289
488,-2.628554263109048,1.484648480896201,-0.01566390820762871,-0.04223127290606499,-0.9962915778160095,0.07496392726898193,-0.42166808247566223,-1.2998541593551636,2.8381199836730957,-0.3626301884651184,0.6831812262535095,-0.12209833413362503
489,-0.9379025771604126,1.4627485446522424,-1.9121465784216114,-0.08695108443498611,-0.9941685199737549,-0.06378351151943207,-1.2132446765899658,-2.152198553085327,-0.45900699496269226,-0.1866237372159958,1.1718723773956299,0.24305903911590576
490,2.8402619152035733,1.4625533058108737,0.4214975917546895,0.03206328675150871,-0.9941474199295044,0.1031654104590416,3.390986680984497,0.9480246305465698,-2.7153806686401367,-0.7736862301826477,-3.0017480850219727,0.2215263992547989
491,0.5430086087575068,1.5420930881281718,2.7056324059864516,0.01482853852212429,-0.9995880722999573,-0.024569815024733543,-0.9827368259429932,-0.323277086019516,0.6445064544677734,0.06404414772987366,0.36569225788116455,0.021212875843048096
492,-0.2086014331662547,1.4392651497846347,-2.7599111745627622,-0.027160530909895897,-0.9913622140884399,-0.12830892205238342,-0.36622413992881775,0.1411283165216446,0.05056183785200119,0.19541919231414795,0.9737231135368347,-0.0801108330488205
493,-2.3691428923265296,1.525528574171582,-0.48489402905562784,-0.03158263862133026,-0.9989755749702454,0.032411303371191025,4.774749279022217,4.044349193572998,-0.9278312921524048,0.8104217648506165,-1.187105417251587,-0.2099626064300537
494,2.4649216912163014,1.429323481251973,1.0806273260808976,0.08829585462808609,-0.9900093674659729,0.10993418842554092,-0.22942639887332916,1.6491377353668213,-0.34364834427833557,0.02765568345785141,-0.4341545104980469,-0.03176341950893402
495,-2.155645436845621,1.4521391840627842,-0.6556370497797737,-0.09870374202728271,-0.9929684996604919,0.06535383313894272,-2.190657377243042,-3.5224931240081787,1.242894172668457,-0.8456474542617798,1.2111692428588867,0.18844568729400635
496,-1.1731778111153117,1.4623045877462268,-1.873110375061222,-0.09983222931623459,-0.9941205382347107,-0.04192842170596123,0.28493061661720276,-2.6559505462646484,-0.3438323140144348,-0.2760832905769348,0.8570203185081482,0.1861392855644226
497,2.989816042776768,1.4009108437952802,0.07374429350434006,0.02556249126791954,-0.9856041073799133,0.16712655127048492,-1.0409601926803589,0.07721314579248428,0.1947081834077835,0.05450037866830826,-2.2123939990997314,-0.016018733382225037
