,attitude.roll,attitude.pitch,attitude.yaw,gravity.x,gravity.y,gravity.z,rotationRate.x,rotationRate.y,rotationRate.z,userAcceleration.x,userAcceleration.y,userAcceleration.z
0,-1.2263710632682443,1.449548937452987,-1.8000442021446776,-0.11384627968072891,-0.9926585555076599,-0.040839362889528275,-0.11913684755563736,-3.3930299282073975,-0.655637800693512,-0.2592463493347168,0.846159040927887,0.26094740629196167
1,0.2249989812367909,0.4876456412748742,-2.4242385325789106,0.19709986448287964,-0.4685472548007965,-0.861170768737793,-1.3798964023590088,0.6159034967422485,0.30032092332839966,-0.030687496066093445,-0.0675397515296936,-0.46991443634033203
2,0.2697716746324824,0.4531594879849974,-2.402867093622502,0.2396119385957718,-0.4378083050251007,-0.866550624370575,-0.25118717551231384,0.24046862125396729,-0.32257020473480225,-0.311724990606308,0.10097053647041321,0.23415017127990723
3,0.25572673635568915,0.44699219375971017,-2.4401231434527615,0.22809672355651855,-0.43225520849227905,-0.8724261522293091,1.6908546686172485,-0.31171953678131104,-1.0899968147277832,-0.26491618156433105,0.15861934423446655,0.2758685350418091
4,0.28952934723568713,0.5398652859268337,-2.5711051283781376,0.24489663541316986,-0.5140204429626465,-0.8220758438110352,-0.985139012336731,-0.828883171081543,-0.5694787502288818,-0.08947061002254486,-0.043749332427978516,-0.8614110946655273
5,0.3722096389945956,0.3785472646010253,-2.6300900249009085,0.3379274010658264,-0.3695709705352783,-0.8655763268470764,0.6237354874610901,0.9640712738037109,-1.8324577808380127,0.17485946416854858,0.15501713752746582,-0.045678555965423584
6,0.5937018782511131,0.3398498063584739,-2.887748804853843,0.5274363160133362,-0.333345502614975,-0.7814676761627197,2.0912225246429443,3.126223087310791,-3.4626705646514893,0.07688796520233154,0.6759511232376099,0.8790628910064697
7,1.125250882388896,0.21813900928454008,2.972223299577734,0.8809911012649536,-0.21641311049461365,-0.4207374155521393,1.0925804376602173,3.545422315597534,-5.810279369354248,-0.05262202024459839,1.478894829750061,0.3603125810623169
8,1.451725653936822,-0.42006026615498904,2.7550757103110364,0.9065994024276733,0.40781548619270325,-0.10846247524023056,0.9275901913642883,0.390308141708374,-6.233114242553711,1.8280349969863892,-0.12804561853408813,-1.5169953107833862
9,0.8936859830544372,-0.6688675810674686,2.4618408680419397,0.6114476919174194,0.6200979948043823,-0.4915386140346527,1.033189296722412,-4.673660755157471,-0.4835941195487976,0.9483515024185181,-1.2941550016403198,0.9282757043838501
10,0.6993923678780675,-0.5538999483572298,2.4136178069369434,0.5474986433982849,0.5260080695152283,-0.650815486907959,1.0146253108978271,0.5419495105743408,0.6357501149177551,-0.11497300863265991,-0.3874276876449585,1.2898993492126465
11,0.9116143908373033,-0.5008710272251494,2.3412108294658394,0.6933930516242981,0.4801897406578064,-0.5372374057769775,1.2183856964111328,3.1431875228881836,-1.3013174533843994,1.1858794689178467,0.5208173394203186,-1.27079176902771
12,1.090863750855604,-0.544107222070519,2.3315474034000676,0.758930504322052,0.5176544189453125,-0.39504238963127136,-1.0523250102996826,-0.4657990336418152,0.7101232409477234,0.2651936411857605,-0.0483856201171875,-0.45963287353515625
13,1.0405632110443763,-0.4443366783734456,2.5250439630272092,0.7789186239242554,0.42985907196998596,-0.4566256105899811,-0.23862774670124054,-0.6567413806915283,2.5148465633392334,-0.7849763631820679,-0.14416873455047607,0.2476717233657837
14,1.0268763288633553,-0.24218382561003285,2.6874578007001486,0.830714762210846,0.23982329666614532,-0.5023919939994812,-1.5826358795166016,0.8696777820587158,1.957100749015808,-0.13186228275299072,0.5783224105834961,-0.0894048810005188
15,1.1182771598460708,-0.14930396404202606,2.8903528746542975,0.8893431425094604,0.14874987304210663,-0.43236827850341797,-1.6637449264526367,-1.0747504234313965,2.178067207336426,0.42485058307647705,-0.10680346190929413,-0.33455371856689453
16,1.1030516620666906,-0.08259463993265118,3.0417686676481983,0.8895446062088013,0.08250076323747635,-0.44933730363845825,-0.4843263030052185,0.5175766348838806,0.6820141077041626,-0.39226067066192627,-0.09048111736774445,0.6856807470321655
17,1.0286483475808452,-0.06454868042098162,2.8828011835971323,0.8548184037208557,0.06450386345386505,-0.5149025917053223,3.0772407054901123,-1.1152225732803345,-2.6691555976867676,-0.562353253364563,0.35950735211372375,0.06875091791152954
18,1.0280614350890198,-0.2171907258553005,2.5171721087565686,0.8361820578575134,0.21548719704151154,-0.5043459534645081,1.4379620552062988,0.22595492005348206,-1.3799538612365723,1.7910304069519043,-0.6426875591278076,-1.1559170484542847
19,1.1498174974765407,-0.18780958847192714,2.5174072406103645,0.8966401815414429,0.18670745193958282,-0.40146803855895996,-0.17072933912277222,1.9689960479736328,1.1286646127700806,-0.7233156561851501,-0.13977141678333282,0.02459123730659485
20,1.2138640020892633,-0.11611606779357239,2.5518281501733124,0.9306635856628418,0.11585531383752823,-0.34704869985580444,-0.13256216049194336,0.568275511264801,-0.02298831380903721,-0.8718104958534241,0.5807541608810425,0.30971047282218933
21,1.1867358146554092,-0.14810322193829936,2.6624299670250187,0.9170011281967163,0.14756238460540771,-0.37058645486831665,-1.7636533975601196,-0.2984550893306732,-0.32110628485679626,0.661780059337616,0.6610618829727173,-0.7050970792770386
22,1.0890947167354785,-0.20089648734307267,2.7554127357830773,0.8683844804763794,0.1995478719472885,-0.45397019386291504,-0.5123788714408875,-1.4972162246704102,0.5054664015769958,0.4983757734298706,-0.4855281114578247,0.2678435444831848
23,1.0728718681072207,-0.12106685641639564,2.874236575206534,0.872144877910614,0.12077132612466812,-0.47410714626312256,-0.4250727593898773,0.5665528178215027,1.5159281492233276,-0.5940839648246765,-0.4921092092990875,0.5282911062240601
24,1.0680310183069588,0.0021714205896331278,2.8548603868245856,0.8762514591217041,-0.0021714188624173403,-0.48184940218925476,1.9455336332321167,0.9788892865180969,-0.8592819571495056,-0.7053225040435791,0.69377601146698,0.08019226789474487
25,1.14859137712712,-0.024063414174508198,2.600565722314732,0.9119235873222351,0.024061091244220734,-0.4096541702747345,0.5666490793228149,-1.0607643127441406,-0.41417208313941956,2.080325126647949,-0.20701396465301514,-0.9817337989807129
26,1.107469497371505,-0.031773581011697846,2.5584214984320885,0.8941190242767334,0.03176823630928993,-0.4467010498046875,0.16828496754169464,-0.14927034080028534,0.31869378685951233,-0.7138822674751282,-0.15945379436016083,-0.04234310984611511
27,1.0739869749324382,0.013296111500518763,2.5368621685096095,0.8790301084518433,-0.013295719400048256,-0.476580947637558,-0.16416004300117493,-0.4307379126548767,0.8240068554878235,-0.8390520811080933,0.1885429173707962,0.6225159764289856
28,1.1476698524764868,-0.012326435882403732,2.7544658973500082,0.9117403030395508,0.012326124124228954,-0.4105819761753082,-2.370239734649658,0.36117321252822876,1.1760882139205933,1.3440275192260742,0.7699462175369263,-1.2443251609802246
29,1.0712699071156697,0.04871852268005309,3.014593274625629,0.8767680525779724,-0.04869925230741501,-0.4784415662288666,-0.9557338953018188,-1.0449459552764893,0.7509362697601318,-0.32201945781707764,-0.2240973711013794,0.01074439287185669
30,1.01149934697137,0.06763931239479912,3.101008032945127,0.8456900715827942,-0.06758774816989899,-0.5293771624565125,0.21829178929328918,-0.5460978746414185,0.7105588912963867,-0.5510886311531067,-0.179421529173851,0.601597011089325
31,0.9814369478642784,0.10036066154723097,2.968318970164048,0.827113926410675,-0.10019227117300034,-0.5530316829681396,1.8507672548294067,0.5430235266685486,-2.1335208415985107,-0.35734158754348755,0.10054321587085724,-0.21096062660217285
32,0.9825126171368657,-0.006628088188345364,2.689582368445841,0.8318760991096497,0.006628039758652449,-0.5549219250679016,0.798324704170227,-0.7019981741905212,-1.3406950235366821,1.1080806255340576,0.14504432678222656,-0.6230108737945557
33,1.1412620555976678,-0.2583919025496554,2.4695007991814264,0.8789776563644409,0.25552618503570557,-0.4026222825050354,0.48064184188842773,3.414653778076172,-4.803249359130859,-0.8031719923019409,0.14861813187599182,0.2614479660987854
34,1.1418883138003673,-0.4563436206264249,2.2745980350483594,0.8163591623306274,0.44066885113716125,-0.3733210563659668,0.6423918604850769,-1.090279459953308,-0.22845488786697388,-0.2747790217399597,-0.5996959209442139,-0.18212935328483582
35,1.250435452601375,-0.4699540177323255,2.3854117201409784,0.8462266325950623,0.4528452754020691,-0.2807694971561432,-1.2965534925460815,0.17281076312065125,2.5360708236694336,1.3107709884643555,-0.22304797172546387,-1.0511243343353271
36,1.3322431443982232,-0.2635813186292348,2.645682656947982,0.9381219148635864,0.26053985953330994,-0.22813603281974792,-1.9926986694335938,0.03859439864754677,3.31475567817688,0.18411612510681152,-0.45270904898643494,0.4016437232494354
37,1.3082467401343487,0.003523527410440444,2.8681912643059175,0.9657253623008728,-0.0035235201939940453,-0.25954198837280273,-0.566064715385437,-0.778304398059845,2.1771621704101562,-0.8358883857727051,-0.06576664745807648,0.4582267105579376
38,1.222437373570203,0.18922548455193036,2.816087661164768,0.9231566190719604,-0.1880982667207718,-0.3352626860141754,1.5420143604278564,-0.4937976598739624,-0.47301703691482544,-0.905593752861023,0.5632356405258179,-0.21147501468658447
39,1.2087953391588497,0.2361326598043976,2.6695680441405654,0.9092384576797485,-0.2339443564414978,-0.3443186581134796,-1.0973020792007446,-2.033339500427246,-0.1081039234995842,1.432771921157837,0.030941441655158997,-1.0353047847747803
40,1.2038629865069774,0.19137254910955395,2.5830212587384427,0.9163912534713745,-0.19020657241344452,-0.35220521688461304,0.9607036113739014,-0.8708637356758118,-0.8093506693840027,-0.5204867720603943,0.3628750443458557,-0.05744749307632446
41,1.1647100773748649,0.20386975482085123,2.5571847178707166,0.8996485471725464,-0.20246045291423798,-0.38683629035949707,-0.7319797873497009,0.10416588187217712,0.2885073125362396,-0.9095515012741089,0.8683539628982544,0.18697667121887207
42,1.2709484617095665,0.16300015928136752,2.666021865536869,0.9427177309989929,-0.16227932274341583,-0.2914596199989319,-2.6527459621429443,-1.4854915142059326,0.6154849529266357,1.8642432689666748,-0.17634372413158417,-1.1845992803573608
43,1.2246379279833666,0.16787748267639444,2.8353527264511578,0.927458643913269,-0.16709004342556,-0.3345167934894562,-1.0112719535827637,-0.5473994612693787,0.46201270818710327,-0.39408767223358154,-0.2031949907541275,-0.04928755760192871
44,1.1925076699396724,0.16411950490341515,2.8582396074809524,0.9168106317520142,-0.16338373720645905,-0.364367812871933,0.17094570398330688,-0.7327139973640442,0.04199661687016487,-0.6209580898284912,-0.06586430966854095,0.16598829627037048
45,1.123049860787171,0.17959573605675522,2.707488690530605,0.886926531791687,-0.17863182723522186,-0.4259719252586365,2.1728768348693848,-0.5971580147743225,-1.0829707384109497,-0.6178072690963745,-0.18973061442375183,0.055778443813323975
46,1.2616081338793004,0.13335628051473414,2.434858493658986,0.9441232085227966,-0.13296136260032654,-0.30158376693725586,1.0851986408233643,0.8006320595741272,-0.5562839508056641,1.522292137145996,-0.22160711884498596,-0.20220041275024414
47,1.3200946059640497,0.1304530058688545,2.3304161422425924,0.960507333278656,-0.13008330762386322,-0.24597586691379547,0.6182590126991272,-0.471245676279068,-0.22912999987602234,-0.6120118498802185,0.23752042651176453,-0.0024829506874084473
48,1.3003417695763635,0.14420334816055702,2.332984786226847,0.9536475539207458,-0.14370408654212952,-0.26439645886421204,-1.0793582201004028,0.6146009564399719,0.8478304743766785,-0.9503669142723083,0.2736784517765045,0.23715955018997192
49,1.4478236116501568,0.12807912388066747,2.4996628939952963,0.984319269657135,-0.12772923707962036,-0.12165828049182892,-2.7324085235595703,-0.13652116060256958,-0.2050250917673111,2.3142189979553223,0.17207130789756775,-0.6411133408546448
50,1.3808068428661189,0.1387488039269587,2.710999612384667,0.9725691080093384,-0.13830405473709106,-0.1870337277650833,-1.2920517921447754,-0.8874587416648865,0.4011700749397278,-0.32989931106567383,-0.3364426791667938,-0.3385246992111206
51,1.3468628282025106,0.14993348012505714,2.7335842634969794,0.9640927314758301,-0.14937235414981842,-0.21957528591156006,0.28904566168785095,-0.7465611696243286,0.17393076419830322,-0.7105984091758728,-0.18627522885799408,0.17253240942955017
52,1.2727031205427153,0.1583332099743975,2.5976769536973903,0.9439413547515869,-0.1576724797487259,-0.2900243103504181,2.8645052909851074,0.05304709076881409,-1.5259599685668945,-0.3572714328765869,-0.07037010788917542,-0.276641309261322
53,1.439824567244098,0.10961395551683245,2.3383967828962007,0.9854852557182312,-0.10939458012580872,-0.12981384992599487,0.8974548578262329,0.37536951899528503,0.1343385875225067,1.322925329208374,0.036488085985183716,0.22620362043380737
54,1.4473802592838967,0.11922095757617245,2.2728122441280463,0.9853495359420776,-0.11893872916698456,-0.12222917377948761,0.4582159221172333,-0.48962149024009705,-0.20624926686286926,-0.6590861082077026,0.21770885586738586,-0.019860684871673584
55,1.4448451111146006,0.11569343426012749,2.294103276310491,0.985446572303772,-0.11543551832437515,-0.12477871030569077,-1.197187066078186,0.3168374001979828,0.40136465430259705,-0.8611637353897095,0.28946200013160706,0.056297242641448975
56,1.4932687236576467,0.0890587992760544,2.497509088796232,0.9930451512336731,-0.08894111961126328,-0.07714302837848663,-2.1043386459350586,0.4377038776874542,-0.12907882034778595,1.7360657453536987,0.28349068760871887,0.05349194258451462
57,1.4785495642654323,0.09999391951792634,2.6812192574943885,0.9907742738723755,-0.0998273640871048,-0.09165585041046143,-1.0456666946411133,-0.44700634479522705,0.3988780677318573,-0.23013895750045776,-0.2539781630039215,-0.2797735929489136
58,1.4159194234194021,0.10824817333638914,2.7292677304126194,0.9822474718093872,-0.10803689807653427,-0.15335558354854584,0.1084289476275444,-0.6526845693588257,-0.130870521068573,-0.7944117784500122,-0.3327895402908325,0.06075000762939453
59,1.3480179329518138,0.10789524541538317,2.633741431755354,0.9696159958839417,-0.10768602788448334,-0.21965542435646057,2.2722675800323486,-0.3152768015861511,-1.0250216722488403,-0.38241201639175415,-0.10985852777957916,-0.15784698724746704
60,1.485418765609153,0.052390387518897186,2.386012454961905,0.9949905276298523,-0.05236642435193062,-0.0851568728685379,1.075393795967102,-0.6467245221138,0.33624687790870667,1.5909316539764404,-0.029435928910970688,-0.2932763695716858
61,1.4339798476180028,0.08398280347336477,2.301689324972644,0.9871637225151062,-0.0838841125369072,-0.13590934872627258,0.7057024240493774,0.15066945552825928,-0.24884523451328278,-0.4903680086135864,0.1847141981124878,0.33749324083328247
62,1.4501462055194514,0.08077110451951175,2.264237351284195,0.9894940257072449,-0.08068330585956573,-0.11996523290872574,-0.37185195088386536,0.4605792462825775,0.3576217591762543,-0.8023145198822021,0.19832855463027954,0.10556096583604813
63,1.510891888668341,0.12236370436664182,2.3568972972315927,0.9907427430152893,-0.12205857783555984,-0.059420984238386154,-1.478834629058838,0.3362198770046234,0.7941728830337524,1.2897902727127075,0.23062482476234436,-0.6033292412757874
64,1.4906212083953383,0.17998626684597563,2.553825729649069,0.9806855916976929,-0.17901606857776642,-0.07879548519849777,-2.189753532409668,-0.12510636448860168,0.669796884059906,-0.0657687783241272,0.1015014499425888,-0.05801479518413544
65,1.4343221857881279,0.1859016372482201,2.6412160083961447,0.9736320972442627,-0.18483270704746246,-0.13370674848556519,-0.06952488422393799,-0.7590157985687256,0.014935381710529327,-0.9575951099395752,-0.25199589133262634,-0.09338980913162231
66,1.3970699951254493,0.2065060962522758,2.528695991485483,0.9640204906463623,-0.20504148304462433,-0.16918118298053741,2.4026436805725098,-0.8105781078338623,-0.4167916476726532,-0.5991829633712769,-0.15976561605930328,-0.17502658069133759
67,1.489653416456736,0.15364758037464635,2.300632999023996,0.984967827796936,-0.1530437469482422,-0.08009903132915497,1.4376142024993896,-0.7335920333862305,-0.06512471288442612,1.5756399631500244,-0.08369635045528412,-0.5991154313087463
68,1.4732594864018775,0.16292065434515807,2.1996772840865613,0.9820677638053894,-0.16220086812973022,-0.09609270840883255,0.3472761809825897,0.31937074661254883,-0.07336302101612091,-0.3839232921600342,0.20440667867660522,0.42978715896606445
69,1.4757516120939989,0.16051229667602362,2.195720303137027,0.982690155506134,-0.159823939204216,-0.09368176758289337,-0.8247729539871216,0.31895187497138977,0.5406126976013184,-0.8268369436264038,0.2271609902381897,0.03777360916137695
70,1.527329369075344,0.17533092537990722,2.3576735347625735,0.9837387800216675,-0.17443400621414185,-0.042787082493305206,-2.5465707778930664,1.1724971532821655,-0.21158292889595032,0.8832808136940002,0.47127848863601685,-0.4056839942932129
71,1.5312110898532554,0.1552599039309812,2.5485146223816515,0.9871973395347595,-0.15463687479496002,-0.039098866283893585,-1.7516639232635498,-0.41812509298324585,-0.08760295808315277,0.3139958381652832,-0.18221615254878998,-0.178521990776062
72,1.4669750355878135,0.15953789293600348,2.575911625557656,0.9819846153259277,-0.15886197984218597,-0.10231880098581314,0.78175288438797,-0.9249001145362854,-0.07666821777820587,-0.881947934627533,-0.21774020791053772,0.06354622542858124
73,1.3887873600303617,0.13952199907413904,2.411431096642234,0.9739251732826233,-0.13906978070735931,-0.17924682796001434,2.691706657409668,-1.0699045658111572,-1.3848788738250732,-0.476351261138916,0.19824336469173431,-0.10278137028217316
74,1.5047253575988608,-0.006277703847433945,2.132992464843279,0.9977983236312866,0.006277662701904774,-0.06602159887552261,0.5700997710227966,0.3672798275947571,0.013272003270685673,1.5703320503234863,-0.8629671335220337,-0.5605958104133606
75,1.4006384714705196,0.03657078916183973,2.1372037556815577,0.9848990440368652,-0.036562636494636536,-0.16922469437122345,0.004963678307831287,0.19513612985610962,-0.030191022902727127,-0.5215964913368225,0.36064404249191284,0.7574204802513123
76,1.417664380477067,0.038105128310640085,2.164557134031544,0.9875807762145996,-0.038095906376838684,-0.1524234414100647,-1.0765310525894165,0.7493106126785278,0.7338142395019531,-0.6908125877380371,0.17772909998893738,0.1975284218788147
77,1.4878750978030257,0.09448916036689453,2.3385595743182384,0.9921185374259949,-0.09434861689805984,-0.08245676755905151,-2.9646639823913574,0.27623802423477173,0.13764335215091705,0.9576036930084229,0.46098679304122925,-0.3256853222846985
78,1.4921912176131724,0.09141951853977043,2.57235717602429,0.9927492737770081,-0.09129223227500916,-0.07819627970457077,-1.4978291988372803,-0.6574758887290955,0.03507360816001892,0.10367101430892944,-0.19593918323516846,-0.2067463994026184
79,1.4454749649067569,0.08830755500398804,2.6484479209165066,0.9882915616035461,-0.08819282799959183,-0.12450654059648514,0.09077086299657822,-0.7192659974098206,0.13213658332824707,-0.9346264004707336,-0.32368767261505127,-0.16382354497909546
80,1.2940418266568445,0.13048102894577746,2.4647072796474587,0.9537701606750488,-0.13011109828948975,-0.27091243863105774,3.388690233230591,-2.0959699153900146,-0.22985652089118958,-0.4053846001625061,0.07366885244846344,0.10572078824043274
81,1.4021015048126926,0.006620375945119991,2.1693780522278465,0.9857831001281738,-0.006620327476412058,-0.16789215803146362,1.0373749732971191,0.76211017370224,-0.4703053832054138,1.6565508842468262,-0.5807514786720276,-0.8139498829841614
82,1.3135211717250812,0.03501215068069408,2.1029912056914033,0.9664942026138306,-0.03500499948859215,-0.2542904019355774,-0.1853811889886856,-0.1307644248008728,0.03183058276772499,-0.5293909311294556,0.007874876260757446,0.4905574917793274
83,1.3437992668547294,0.04678398005071135,2.165596120985714,0.9732806086540222,-0.046766914427280426,-0.22480641305446625,-0.7959915399551392,0.8404210805892944,0.7766043543815613,-0.7781969308853149,0.15850701928138733,0.32697927951812744
84,1.4482342188746367,0.11884945436933034,2.350747670647901,0.9854973554611206,-0.11856985837221146,-0.12139307707548141,-2.4924352169036865,2.510559320449829,0.9278592467308044,0.5483008623123169,0.6583342552185059,-0.3886014223098755
85,1.463113324772338,0.11797525050674694,2.610893723176665,0.9872970581054688,-0.11770177632570267,-0.1067279577255249,-1.5053305625915527,-1.0078173875808716,-0.07301400601863861,0.5374069213867188,-0.34521937370300293,-0.0387645959854126
86,1.3978071047154246,0.09963946926188905,2.668182261296444,0.9801888465881348,-0.09947468340396881,-0.17127399146556854,-0.040630463510751724,-0.27422621846199036,-0.0020637530833482742,-0.5805153846740723,-0.30817911028862,0.25925612449645996
87,1.3437115503844612,0.1313677865915169,2.5469726793017498,0.9659317135810852,-0.13099026679992676,-0.22319822013378143,2.2319676876068115,-1.344570517539978,-0.5864444971084595,-0.8287399411201477,0.09378936886787415,-0.14263121783733368
88,1.4704445575733167,0.010933041506070083,2.285314339834114,0.9949095845222473,-0.01093282364308834,-0.10017743706703186,0.7934807538986206,-0.3605462312698364,-0.21990559995174408,2.037179708480835,-0.4711076021194458,-0.8033106923103333
89,1.399605008482041,0.05444830728293785,2.2602435415752247,0.9839223027229309,-0.05442140996456146,-0.17010392248630524,-0.45092639327049255,0.28740325570106506,-0.1364225149154663,-0.7741597294807434,0.47048279643058777,0.47924697399139404
90,1.4040162864354586,0.05104091286120757,2.2902521103300586,0.9848401546478271,-0.05101875215768814,-0.16579173505306244,-0.45842111110687256,0.5646194219589233,0.3282642960548401,-0.7962263226509094,0.20238593220710754,0.19795727729797363
91,1.5164508046492595,0.030036759144834394,2.397714846625626,0.9980733394622803,-0.030032243579626083,-0.05429427698254585,-2.6677324771881104,1.13254976272583,-0.9047536253929138,0.8539623022079468,0.3951598107814789,-0.5479243397712708
92,1.496569889087472,0.023427607138744103,2.5934898628433647,0.996972918510437,-0.02342546358704567,-0.07413795590400696,-1.7610372304916382,-0.424806147813797,0.32372793555259705,0.35854172706604004,-0.10490094125270844,0.08555155247449875
93,1.44171745581336,0.03152003524488673,2.6705922668232582,0.9911884069442749,-0.031514815986156464,-0.128656804561615,0.013929182663559914,-0.39628103375434875,0.025481320917606354,-0.7272264957427979,-0.3092597424983978,0.0998939722776413
94,1.4080306278224866,0.0574464982176734,2.5579462461440428,0.9851552248001099,-0.057414907962083817,-0.16178067028522491,2.136685609817505,-0.1499096155166626,0.08344335108995438,-0.6182575225830078,-0.09878934174776077,0.0844949334859848
95,1.5172978018122647,-0.03945072258080737,2.302441755172804,0.9977923035621643,0.03944049030542374,-0.053431399166584015,1.8999178409576416,0.2823909819126129,-0.30864858627319336,2.0987043380737305,-0.702297568321228,-0.8151141405105591
96,1.4467761700442845,0.013301371803912816,2.23131831792212,0.992231547832489,-0.013300979509949684,-0.12369152903556824,0.4695797562599182,-0.05947788432240486,0.19842658936977386,-0.4839003086090088,0.34215840697288513,0.4498481750488281
97,1.4484791847958902,0.027366181754962013,2.2003452047582694,0.992156982421875,-0.0273627657443285,-0.12196668237447739,-0.16620439291000366,0.3219342529773712,0.5518971681594849,-0.751434326171875,0.13232797384262085,0.14287126064300537
98,1.5133472212536352,0.10467096522524204,2.2823494884305426,0.9928863644599915,-0.10447993874549866,-0.057103268802165985,-1.437347412109375,0.9108467698097229,-0.29158779978752136,0.02540898323059082,0.6557494401931763,-0.14829528331756592
99,1.5447060647332023,0.05803927743139214,2.4603314539070475,0.9979764223098755,-0.05800669640302658,-0.026043375954031944,-1.7245286703109741,-0.4868951141834259,0.40588709712028503,0.6822298765182495,-0.24526172876358032,0.3052791953086853
100,1.4926593721767625,0.07923226320046711,2.586343060584632,0.9938212633132935,-0.07914938777685165,-0.07781258970499039,-0.6568034887313843,0.017134275287389755,0.02144058234989643,-0.753602147102356,-0.25196632742881775,0.07550853490829468
101,1.4596514539429348,0.09847732189115896,2.5293855809018266,0.9890145659446716,-0.09831823408603668,-0.11037878692150116,1.6595826148986816,-0.126554936170578,0.11509743332862854,-0.7864390015602112,-0.06612572818994522,0.08375216275453568
102,1.5788408449364932,0.03280711004241385,2.2566459926246245,0.9994295239448547,-0.032801225781440735,0.008040102198719978,3.1360270977020264,1.5211387872695923,-1.1034526824951172,1.8004971742630005,-0.39687100052833557,-0.5435167551040649
103,1.508659262949355,0.06432659573553019,2.2125269997100347,0.9960059523582458,-0.06428223848342896,-0.06196866184473038,-0.39478039741516113,-0.309749037027359,0.2678437829017639,-0.3256872296333313,0.32616883516311646,0.38606536388397217
104,1.498952264168208,0.07677081786242178,2.191167866097361,0.9944825768470764,-0.07669542729854584,-0.07157085090875626,0.10249453783035278,-0.0782129317522049,0.2199428677558899,-0.8209747672080994,0.03667160123586655,0.02876996248960495
105,1.5568710020711962,0.11949746712833643,2.2675875643491854,0.9927724003791809,-0.1192132756114006,-0.013825572095811367,-1.8172484636306763,0.9468590021133423,-0.12702837586402893,-0.045110106468200684,0.7211267352104187,-0.029051661491394043
106,1.5810044358534445,0.1061583109877031,2.436935214250033,0.9943187832832336,-0.10595902800559998,0.010150467045605183,-1.7241944074630737,0.35516077280044556,0.43258169293403625,0.7170765995979309,-0.15528671443462372,0.5424771308898926
107,1.5598492739462957,0.15008159676738908,2.5536445914396984,0.9886995553970337,-0.14951881766319275,-0.010823778808116913,-0.5651535987854004,0.028372488915920258,0.2621707320213318,-0.6293094158172607,-0.13913166522979736,0.004033626988530159
108,1.5248371656331678,0.16804499897378267,2.550678115698901,0.984872579574585,-0.1672552078962326,-0.04529581591486931,0.7080171704292297,-0.5855224132537842,0.2990661561489105,-0.81131911277771,-0.1033594161272049,0.0253831148147583
109,1.5605952231335365,0.1249892772868741,2.3779476217920292,0.9921474456787109,-0.12466409802436829,-0.010121350176632404,2.917661666870117,1.3858177661895752,-1.338342308998108,1.3355045318603516,-0.3215639293193817,-0.5319929122924805
110,1.5278340008258455,0.1183884233751944,2.245963943224636,0.9920840859413147,-0.11811206489801407,-0.04264848306775093,1.0505067110061646,-0.22704669833183289,0.3525451719760895,0.1093716025352478,0.21128222346305847,0.08628863096237183
111,1.5194475896395276,0.11884404109520792,2.1922017322931926,0.9916375875473022,-0.11856447905302048,-0.05096413940191269,0.16114617884159088,-0.019221387803554535,-0.12407349050045013,-0.6573328375816345,-0.01606380194425583,-0.06454485654830933
112,1.5521014272193012,0.12927444655977996,2.2564667432967283,0.9914823770523071,-0.12891468405723572,-0.018537823110818863,-1.054240107536316,0.7860795855522156,0.33125972747802734,-0.5964781641960144,0.5019768476486206,0.12003928422927856
113,1.607548113919707,0.07775410292871689,2.4155700969050957,0.9963053464889526,-0.07767578214406967,0.03663249686360359,-0.49399229884147644,-0.01706526055932045,0.37347981333732605,1.1738910675048828,-0.031500838696956635,0.15533828735351562
114,1.5842970276831032,0.12375587360378489,2.5457795735253144,0.992261528968811,-0.123440220952034,0.013397039845585823,-0.9722495079040527,-0.42803308367729187,0.41321641206741333,-0.4332711100578308,-0.1751895546913147,-0.17132556438446045
115,1.5386239539307323,0.1370668074627607,2.56014568839019,0.9901084303855896,-0.13663803040981293,-0.03186513110995293,0.5950827598571777,-0.6333693265914917,0.20849493145942688,-0.7405356764793396,-0.18266740441322327,0.004002630710601807
116,1.5486317197408264,0.13323390187070142,2.4137316496180703,0.9908941984176636,-0.13284006714820862,-0.021966377273201942,2.3695762157440186,0.8668217062950134,-1.4184017181396484,0.520244836807251,0.15078438818454742,-0.2539125680923462
117,1.5515285552545066,0.0755493129084558,2.2299341429864725,0.9969625473022461,-0.0754774659872055,-0.019211623817682266,1.5656466484069824,-0.9933578968048096,0.20978553593158722,0.667145848274231,-0.043769992887973785,-0.16157454252243042
118,1.540262147987475,0.08832388710853228,2.1095726515757867,0.9956375360488892,-0.08820909261703491,-0.03041042573750019,0.5889372229576111,0.19426074624061584,-0.22241508960723877,-0.6528642773628235,0.1014384776353836,0.06408656388521194
119,1.5593444060012571,0.11229485170227775,2.1553997271511225,0.9936364889144897,-0.11205898970365524,-0.01137954369187355,-1.0345311164855957,0.34408876299858093,0.8047865629196167,-0.7833093404769897,0.40035855770111084,0.05408889055252075
120,1.5959431578663736,0.06240401970846946,2.3188804919796797,0.9977378845214844,-0.06236352398991585,0.02509523555636406,-0.8248071670532227,-0.12437799572944641,-0.17951065301895142,1.5001869201660156,-0.026320572942495346,0.031026599928736687
121,1.5825419541423786,0.0931675729481304,2.497225328829732,0.995594322681427,-0.0930328443646431,0.011694417335093021,-1.805440902709961,-0.044377755373716354,0.5671548247337341,-0.03306996822357178,-0.17327880859375,-0.22824716567993164
122,1.5359423328578403,0.12054755427117685,2.542680083951686,0.992139995098114,-0.12025580555200577,-0.03459405153989792,0.3554193377494812,-0.6149649024009705,0.05424748361110687,-0.9103987216949463,-0.21862661838531494,0.031877998262643814
123,1.5139181691429897,0.11340423989500041,2.4276735578654467,0.9919700026512146,-0.11316132545471191,-0.05648234859108925,2.3988916873931885,0.7150406241416931,-1.085539698600769,-0.21242886781692505,-0.04752899706363678,-0.07492632418870926
124,1.562862395389364,0.028347842379156465,2.1757252894195425,0.9995667338371277,-0.0283440463244915,-0.007930660620331764,0.7202396988868713,-1.1385811567306519,0.4778423309326172,1.04195237159729,-0.2013312578201294,0.1297263503074646
125,1.502283040743774,0.06871333647614668,2.1154905755083915,0.9952996969223022,-0.06865927577018738,-0.06829815357923508,0.3089474141597748,-0.06233759969472885,0.0865321159362793,-0.5853416919708252,0.15853354334831238,0.3913114666938782
126,1.5122108457927648,0.10304041411462407,2.143685246541936,0.9929894208908081,-0.10285817831754684,-0.05824141204357147,-0.9861724972724915,0.29147353768348694,0.6412413716316223,-0.9477319121360779,0.27488577365875244,0.023649755865335464
127,1.5674147717944624,0.044063850660715546,2.289001169939316,0.9990235567092896,-0.044049594551324844,-0.003378266002982855,-1.7940329313278198,-0.10561847686767578,-0.6083463430404663,1.6938016414642334,0.08111318945884705,-0.4486938714981079
128,1.5535242154853872,0.07283577962481198,2.453781356802406,0.9971999526023865,-0.07277140021324158,-0.017225461080670357,-1.5905404090881348,0.23409302532672882,0.6725836992263794,0.1469193696975708,-0.21072164177894592,-0.1823899745941162
129,1.5371508003080947,0.12203298096408821,2.521327185265024,0.9920015931129456,-0.12173032015562057,-0.03338901698589325,-0.16574621200561523,-0.21821945905685425,0.19150425493717194,-0.7479219436645508,-0.13696718215942383,0.016924738883972168
130,1.543505168922977,0.15269108372738036,2.5113902674051682,0.9879974126815796,-0.15209844708442688,-0.026970289647579193,0.5961047410964966,0.6539193391799927,-0.012607170268893242,-0.3260710835456848,-0.043595507740974426,0.006569266319274902
131,1.5753392883397812,0.08404870852629032,2.4428043307597624,0.9964597821235657,-0.08394978940486908,0.004526909906417131,0.2375541776418686,-0.6660698652267456,0.05448325350880623,0.8972017168998718,-0.022480249404907227,-0.4081982374191284
132,1.515600505971607,0.10346352033009944,2.3210058825781474,0.9931377172470093,-0.10327903181314468,-0.0548727884888649,1.5857536792755127,-0.0318356528878212,-0.17283684015274048,-0.5016521215438843,0.2719344198703766,0.5579855442047119
133,1.550804812611383,0.061319805914040765,2.206585624937869,0.9979211688041687,-0.06128138303756714,-0.01995261199772358,0.7039167881011963,0.053804658353328705,-0.5291194319725037,-0.5645562410354614,0.05719202756881714,0.053903400897979736
134,1.575640538429127,0.019947388466873172,2.2184848158163843,0.9997893571853638,-0.019946064800024033,0.004843228962272406,-0.8652819395065308,0.5338936448097229,-0.0796571597456932,0.5088928937911987,-0.39169028401374817,0.22275686264038086
135,1.6080980516171208,0.051883923907349874,2.392351082032591,0.9979596138000488,-0.05186064913868904,0.037242889404296875,-1.3138158321380615,0.08256158977746964,0.4560375213623047,0.6119647026062012,0.09623318910598755,-0.19909286499023438
136,1.603838541146222,0.1486409419056834,2.486021272288626,0.9884335398674011,-0.14809419214725494,0.03267192468047142,-0.38093531131744385,-0.052280545234680176,0.9138150811195374,-0.07983362674713135,0.34745025634765625,-0.05084514617919922
137,1.5924595459471484,0.2873722554906439,2.5394859485371573,0.9587668776512146,-0.2834332287311554,0.020773226395249367,-0.3361142873764038,-0.5225616097450256,2.1565699577331543,-0.5012626647949219,-0.2701556086540222,-0.21976304054260254
138,1.5022443626829087,0.3590353996783819,2.631782987421817,0.9340372681617737,-0.35137128829956055,-0.06413057446479797,0.12193378806114197,-0.044975508004426956,0.18324126303195953,-0.6693430542945862,0.07588911056518555,0.17832732200622559
139,1.5226327163421691,0.3385427731033224,2.562718175889721,0.942145824432373,-0.3321129381656647,-0.04541226476430893,0.8605005145072937,-0.043679192662239075,-0.839552104473114,0.539085865020752,-0.09307324886322021,0.24681305885314941
140,1.6117114333337959,0.26999402888683977,2.486343545029048,0.9629659056663513,-0.26672568917274475,0.03942185267806053,0.9218950271606445,1.552101492881775,-0.796937108039856,0.8799448013305664,-0.21458232402801514,-0.24565958976745605
141,1.6527450181680658,0.25117585240734513,2.447596976906755,0.9653701186180115,-0.24854308366775513,0.07928838580846786,0.29997605085372925,-0.7219198346138,-0.14434072375297546,-0.21033483743667603,0.15735659003257751,-0.2853125333786011
142,1.5857254926592121,0.3175260916831555,2.404630748631551,0.9499048590660095,-0.31221726536750793,0.014182341285049915,0.6836013793945312,-0.38170167803764343,1.6027315855026245,-0.6956629753112793,0.30095627903938293,0.19472575187683105
143,1.5856103390593475,0.5230232291687281,2.351682863419307,0.866217851638794,-0.49950146675109863,0.012833100743591785,0.1327291876077652,-0.016851000487804413,1.3282289505004883,-0.286094069480896,0.1677754819393158,0.1441493034362793
144,1.565235150302303,0.5527801047392549,2.4421457204104255,0.8510547876358032,-0.5250552892684937,-0.004732914734631777,-1.0575896501541138,0.6126667261123657,-0.36619529128074646,0.47488802671432495,-0.6558375358581543,0.6751125454902649
145,1.666154031905616,0.5548894712210959,2.523784693662188,0.8460973501205444,-0.5268493294715881,0.08092734217643738,-0.9764491319656372,0.8015404939651489,0.23992210626602173,0.4090144634246826,0.07979726791381836,-0.40207910537719727
146,1.6704257763809127,0.5969755113870522,2.6170271179614994,0.8229383826255798,-0.5621436834335327,0.08226125687360764,-0.27935945987701416,0.1509667932987213,0.12477792799472809,-0.18290847539901733,0.3435310125350952,-0.1745312213897705
147,1.6772859352568934,0.7104343239107712,2.622956737358649,0.7537844777107239,-0.6521630883216858,0.08057501912117004,-0.9061521291732788,-1.3608698844909668,3.833264112472534,-0.3183596730232239,-0.1634344458580017,-0.20102787017822266
148,1.386601984396488,0.9617642258850333,2.821992055474912,0.5623968243598938,-0.820202112197876,-0.10477795451879501,-0.18964383006095886,-0.4802294671535492,0.11708743870258331,-0.6060369610786438,0.5306206941604614,0.356181800365448
149,1.468840526041628,0.8779392104658937,2.6836139180658214,0.6354212760925293,-0.7694242000579834,-0.06501030176877975,1.1194148063659668,-0.1830396205186844,-0.9295970797538757,0.3491215705871582,-0.4619600772857666,0.12393975257873535
150,1.6024192834158681,0.7679006752930141,2.549199589674811,0.7190109491348267,-0.6946265697479248,0.022744834423065186,0.20424267649650574,-1.0776399374008179,-0.6316252946853638,0.6447128057479858,-0.34970027208328247,-0.5111175775527954
151,1.4900479580218229,0.718516586568156,2.5567015811515605,0.7503302097320557,-0.6582686901092529,-0.060719966888427734,0.577537477016449,-1.5916272401809692,-0.14047417044639587,-0.19088196754455566,0.5714920163154602,-0.09295129776000977
152,1.310500010419497,0.6636804311048237,2.4786755566654666,0.7611947059631348,-0.6160202026367188,-0.20273573696613312,0.4210994839668274,-2.0757052898406982,-0.8302185535430908,-0.35662317276000977,0.36779022216796875,0.2328566312789917
153,1.2607276689659899,0.6370026261251233,2.4989954896155306,0.7655472755432129,-0.5947886109352112,-0.2452837973833084,-0.9052395820617676,0.9883667230606079,0.6039706468582153,-0.039198338985443115,-0.4851979613304138,0.22244137525558472
154,1.3297971516719447,0.7557833465692002,2.6067012762694244,0.7067030668258667,-0.685858964920044,-0.17369063198566437,-0.25606659054756165,0.33716627955436707,2.2689080238342285,0.5497666597366333,-0.687035322189331,-0.22395342588424683
155,1.4193905948521373,1.053057010484941,2.6538907929464126,0.48925524950027466,-0.8689402341842651,-0.07464732229709625,0.23383834958076477,1.0392802953720093,4.183081150054932,0.42601269483566284,0.28375041484832764,-0.23124563694000244
156,1.3410726482751991,1.4341364875028262,2.888532890856081,0.13265548646450043,-0.9906765818595886,-0.031021740287542343,0.504118025302887,1.38297438621521,2.03961181640625,0.23228894174098969,0.4355924129486084,-0.16062861680984497
157,1.4186641853976358,1.4436274635044075,2.7793259937675767,0.12536227703094482,-0.9919249415397644,-0.0192201379686594,-0.4537048935890198,-1.386725664138794,-0.8071659803390503,-0.21816621720790863,0.6300168633460999,-0.12344956398010254
158,0.965152464919827,1.3484578698768024,-3.0824731447008706,0.18129004538059235,-0.9753844738006592,-0.12553508579730988,-1.1339997053146362,0.6158682703971863,0.213768869638443,-0.16412392258644104,-0.5387299060821533,0.43158066272735596
159,1.0437339594007862,1.3991511230234985,3.1122217369263803,0.1476236879825592,-0.9853050708770752,-0.08591368794441223,2.015629529953003,-0.31378912925720215,-0.15643486380577087,-0.1439615786075592,-0.3765723705291748,-0.07869815826416016
160,1.8193935265498355,1.4242209883711765,2.2703488126135327,0.14156107604503632,-0.9892770648002625,0.03593502193689346,-0.6829120516777039,-1.363204002380371,-0.14377868175506592,0.10763019323348999,-0.24509793519973755,-0.5012669563293457
161,1.2473129517437118,1.4007660762284844,2.689002599086479,0.1604355126619339,-0.9855796694755554,-0.05378757789731026,-0.8157000541687012,-0.7719396948814392,0.8379558324813843,0.2231399267911911,0.5946953296661377,0.27941930294036865
162,0.3476010136649544,1.3520236782314896,-2.6810704777211645,0.07393047958612442,-0.9761645793914795,-0.20405185222625732,-1.3319722414016724,-0.3618570864200592,0.689214289188385,-0.17172405123710632,0.5268542766571045,0.4035147428512573
163,0.387632439672899,1.3444738363698612,-2.708993984837342,0.08482106775045395,-0.9744982123374939,-0.20774710178375244,2.1275100708007812,1.3305095434188843,-0.1884131282567978,-0.41106924414634705,-0.7413374781608582,-0.23397961258888245
164,0.9096747787557048,1.4633043067949538,-3.0428217912008138,0.08468148112297058,-0.9942283034324646,-0.06587402522563934,1.0024513006210327,1.821377158164978,-0.006163472309708595,-0.010340653359889984,-0.5337716937065125,-0.22425657510757446
165,1.5080012957897542,1.486305171738978,2.7543964082050265,0.08422380685806274,-0.9964327216148376,-0.00529579957947135,0.48693153262138367,0.6601524949073792,0.5372492671012878,0.5907029509544373,0.028811931610107422,-0.0027761459350585938
166,1.67858982744892,1.4793537897889586,2.5685276876730327,0.0907864049077034,-0.9958220720291138,0.009824264794588089,0.42293843626976013,-0.5156033039093018,-0.05360884591937065,-0.0937160775065422,0.6950254440307617,-0.030744075775146484
167,1.9224684830787706,1.4847843296370553,2.189147602301662,0.08064717799425125,-0.9963032603263855,0.029591433703899384,-0.9713411331176758,-1.143518328666687,0.6378426551818848,-0.15546102821826935,0.36841946840286255,-0.06445778161287308
168,0.2739356861798945,1.484321074055448,-2.4972802853739062,0.023364238440990448,-0.996263325214386,-0.08314678072929382,-0.2774702310562134,-0.4096802771091461,0.4828170835971832,-0.07574766874313354,-0.6967602372169495,0.5320756435394287
169,-0.7013209530071588,1.5136932034986257,-1.5670397903699131,-0.03682524710893631,-0.9983700513839722,-0.04360344633460045,0.8615148067474365,0.8876767158508301,-0.6986254453659058,-0.5571841597557068,-0.44071686267852783,-0.27443552017211914
170,-2.0474076758595023,1.5184279095631084,-0.23460892886231882,-0.04651022329926491,-0.998629093170166,0.024013753980398178,-0.763357937335968,-1.4534015655517578,0.005197915248572826,0.1463484764099121,0.1848016381263733,-0.5538599491119385
171,-0.502814266400143,1.4337543786827467,-1.954162258301408,-0.06583287566900253,-0.9906244277954102,-0.11970434337854385,-1.4787441492080688,-1.2413426637649536,0.5164870023727417,0.12903475761413574,0.5929957032203674,0.28225624561309814
172,-0.35539696806411847,1.347258700717002,-2.1142014771530953,-0.0771365612745285,-0.9751193523406982,-0.20782746374607086,-0.24202032387256622,0.4435601234436035,-0.6700361967086792,0.017917193472385406,0.33614230155944824,0.27215850353240967
173,-0.12727937274716658,1.4110881808482096,-2.277949425763014,-0.02018667384982109,-0.9872737526893616,-0.1577439308166504,0.5050120949745178,1.8433001041412354,0.6755331754684448,-0.06066963076591492,-1.0256047248840332,0.3017716407775879
174,-1.2217271157085152,1.4711967233378291,-1.0139198864292243,-0.09343913942575455,-0.9950440526008606,-0.0340094231069088,1.3544296026229858,2.2812182903289795,0.9292532205581665,0.12636759877204895,-0.44001466035842896,-0.5116753578186035
175,-1.5948711493144905,1.359877637144736,-0.5274535185003655,-0.20929846167564392,-0.9778389930725098,0.00503979716449976,0.0679023489356041,0.5499184727668762,0.6293733716011047,0.34917575120925903,0.16810071468353271,-0.05626356601715088
176,-1.838189441578468,1.3565730011446058,-0.29485173196362346,-0.20503433048725128,-0.977141797542572,0.056169889867305756,1.056264877319336,-0.8140419721603394,-0.5622242093086243,0.0952472984790802,0.8176416158676147,-0.12466656416654587
177,-2.1549039488823554,1.4050856710889963,-0.05121864036395781,-0.13760538399219513,-0.9863013625144958,0.09096474945545197,-0.8379150629043579,-0.5081044435501099,-0.5492215752601624,-0.27137595415115356,0.4590033292770386,0.00223589688539505
178,-1.8589923496217975,1.4294216445935761,-0.42556011430234364,-0.13509441912174225,-0.9900232553482056,0.04004863649606705,0.035601627081632614,-1.674477219581604,0.6042292714118958,-0.23146748542785645,-0.6170631647109985,0.32192039489746094
179,-2.520335107582837,1.3617618800655606,0.22101086924133065,-0.12078630924224854,-0.9782317280769348,0.16874092817306519,1.5119352340698242,0.13984806835651398,-0.49366486072540283,-0.11192548274993896,-0.7960144877433777,-0.31337904930114746
180,-2.628717264852363,1.3591380675183824,0.33475056175984175,-0.10308384895324707,-0.9776839017868042,0.1830519586801529,-0.9974491596221924,-0.4438339173793793,-0.16890396177768707,0.10352635383605957,0.1507490873336792,-0.5729140043258667
181,-2.026608485665635,1.4502591120694661,-0.36097898269972084,-0.10796944051980972,-0.9927442073822021,0.05293133854866028,-1.300701379776001,-1.0221529006958008,0.20540492236614227,0.2959577143192291,0.6800457835197449,0.11079549789428711
182,-1.4300030277258327,1.4803525507936146,-0.9581664638644117,-0.08942648023366928,-0.9959127306938171,-0.01267450861632824,0.19894151389598846,0.5774407982826233,-0.5332592129707336,-0.11612465232610703,0.3593466281890869,0.1295720934867859
183,-1.6161506533000145,1.5359660358943223,-0.6682656301388575,-0.034789543598890305,-0.9993934631347656,0.0015789391472935677,-0.43004006147384644,1.9907870292663574,-0.06545107811689377,-0.2833562195301056,-0.7940941452980042,0.5971454381942749
184,-2.8274954255327853,1.4712158641490114,0.6564004606956699,-0.030715158209204674,-0.9950459599494934,0.09455149620771408,1.3796277046203613,1.3161773681640625,-0.07784773409366608,-0.08197098970413208,-0.4135843515396118,-0.2985767126083374
185,-2.856295249992007,1.342982887022397,0.8143500689959393,-0.06356340646743774,-0.9741625785827637,0.2167191207408905,0.608555018901825,0.5465512871742249,-0.20412351191043854,0.5094862580299377,0.18314683437347412,-0.1102127730846405
186,-3.0414358859529957,1.3117594510261055,1.0077384618187941,-0.02561223693192005,-0.966637134552002,0.254865825176239,0.24963466823101044,-0.44669556617736816,-0.11786488443613052,-0.0933452844619751,0.5655904412269592,-0.3441603481769562
187,-2.9929947107459762,1.3840981251479678,0.94507142864599,-0.02748078852891922,-0.9826224446296692,0.18357063829898834,-1.733713984489441,0.742677628993988,0.25951099395751953,-0.2668765187263489,0.36210840940475464,0.13777948915958405
188,-2.5775207188774485,1.4623851468085,0.5302913010334827,-0.057846471667289734,-0.9941292405128479,0.09143713116645813,0.540693461894989,-0.535780131816864,0.482956200838089,-0.21894794702529907,-0.2769278287887573,0.5092861652374268
189,-2.790178187546793,1.342689816214806,0.6736659352274187,-0.07784085720777512,-0.9740962982177734,0.21231317520141602,1.2827411890029907,-0.14348992705345154,0.2719593942165375,-0.10706513375043869,-0.8049715757369995,-0.1588158905506134
190,-2.8161378610396364,1.338405469379399,0.6657322936020215,-0.0736377090215683,-0.9731185436248779,0.21821539103984833,-0.9240817427635193,-1.1868354082107544,-0.06329861283302307,0.2762134075164795,0.16502833366394043,-0.47734010219573975
191,-2.492430912224271,1.4476999087330502,0.2243074409963492,-0.07422640919685364,-0.9924331903457642,0.09781014174222946,-1.5230906009674072,-0.455824077129364,0.3908802568912506,0.17882540822029114,0.6658493280410767,0.24880850315093994
192,-2.274918786944454,1.5110455462995342,-0.002409489469660508,-0.04551387578248978,-0.9982154369354248,0.038657668977975845,0.05139056220650673,0.380103200674057,-0.759573757648468,-0.10209965705871582,0.18289262056350708,0.16092729568481445
193,2.921184078437209,1.5044819151200257,1.1864558319869603,0.014487295411527157,-0.9978020191192627,0.0646614357829094,0.17665283381938934,1.6519711017608643,-0.3348802924156189,-0.22807982563972473,-0.6432958841323853,0.38944005966186523
194,3.031665307815346,1.4084928997063324,1.1908305621442425,0.017727697268128395,-0.9868577122688293,0.16061729192733765,1.2070837020874023,1.193123459815979,0.04419645667076111,0.12552180886268616,-0.50450599193573,-0.32983720302581787
195,-2.9973432895699577,1.3293638082654262,0.9758061182130593,-0.03436969220638275,-0.9709964394569397,0.23661091923713684,0.2155819535255432,-0.09468918293714523,-0.2028389275074005,0.40360188484191895,0.3182253837585449,-0.11307570338249207
196,3.125935984844261,1.2999340918592002,1.123563845084116,0.004188964609056711,-0.9635405540466309,0.26752957701683044,0.4194946587085724,-0.17048786580562592,-0.2618206739425659,-0.10703319311141968,0.5819792747497559,-0.14935028553009033
197,3.030630676495667,1.3470016984761255,1.1755667050737146,0.024575436487793922,-0.9750623106956482,0.22056646645069122,-1.7970199584960938,-0.5843596458435059,0.0487181581556797,-0.14005395770072937,0.4201611280441284,0.019713670015335083
198,2.862190114766676,1.4885624519498775,1.3023625314020986,0.022652924060821533,-0.9966207146644592,0.07895547896623611,0.043483491986989975,-0.475195974111557,0.3088970482349396,-0.20191317796707153,-0.49430030584335327,0.5210963487625122
199,-3.115371420492116,1.3786570030294776,0.9623138597264471,-0.005006617400795221,-0.9815979599952698,0.1908937692642212,1.2807941436767578,0.617508590221405,0.06551040709018707,-0.06782358884811401,-0.8173980116844177,-0.10399496555328369
200,-3.049111239588831,1.357028238885366,0.9556204090843544,-0.019591446965932846,-0.9772384762763977,0.21123771369457245,-0.26758697628974915,-0.32402926683425903,0.016743486747145653,0.18049538135528564,0.17076557874679565,-0.5194499492645264
201,-2.9455155185241533,1.4291702455091764,0.773459090145091,-0.027499880641698837,-0.9899877905845642,0.1384483277797699,-1.2542383670806885,-1.388692855834961,0.514607310295105,0.13675281405448914,0.5790075659751892,-0.07005846500396729
202,-2.4337526820516504,1.5151231436100223,0.2055739723271289,-0.03617919236421585,-0.9984506368637085,0.0422762855887413,-0.3589538335800171,0.2053406834602356,-0.6738964319229126,-0.04978879913687706,0.32570594549179077,0.246709942817688
203,3.04632158541771,1.4981492203590125,1.0704710613716664,0.006904654670506716,-0.9973623752593994,0.07225437462329865,0.3293900191783905,1.018904685974121,-0.24406710267066956,-0.20244604349136353,-0.6047799587249756,0.4922139644622803
204,-3.1124096955526914,1.3429110041978656,1.0582224999021188,-0.006592018064111471,-0.97414630651474,0.22582174837589264,1.5993505716323853,1.8456485271453857,0.14559946954250336,0.2442629337310791,-0.34967565536499023,-0.31700825691223145
205,-2.997088220413974,1.2452229135262478,1.0345918742440605,-0.04605942219495773,-0.9474674463272095,0.3165188431739807,0.09723217785358429,-0.3127644658088684,-0.5364301800727844,0.37181931734085083,0.3364291787147522,-0.2608548104763031
206,3.0890454984086277,1.2388170756745571,1.1601022328137536,0.017118006944656372,-0.9453991055488586,0.32546478509902954,-0.2222708761692047,-1.022217035293579,-0.1131054162979126,-0.19056466221809387,0.6021985411643982,-0.32496121525764465
207,3.0257182712869417,1.3319084089173934,1.2346721828340648,0.02735716477036476,-0.9716017246246338,0.23503568768501282,-1.3886440992355347,0.5788939595222473,0.1333589106798172,-0.30131345987319946,-0.03285384178161621,0.21602940559387207
208,-3.0258721381108846,1.3554020127345274,1.0219032663556684,-0.02467815950512886,-0.9768921732902527,0.2123037874698639,0.7471104264259338,-0.413559228181839,0.8382459878921509,-0.08841997385025024,-0.4671691656112671,0.18192234635353088
209,-2.878058360200214,1.2244822554737647,0.8494707664316189,-0.08842042833566666,-0.9406301975250244,0.3277142643928528,0.4350311756134033,0.6484585404396057,0.43625813722610474,0.13640931248664856,-0.3922097086906433,-0.3269970715045929
210,-2.9077749788018554,1.2686896590001984,0.7913320601895093,-0.06893614679574966,-0.9547117948532104,0.28943613171577454,-1.4250428676605225,-1.9266501665115356,-0.2736400067806244,0.16164857149124146,0.24842822551727295,-0.31139349937438965
211,-2.7304417904755383,1.4456970629818175,0.39315847791948316,-0.04986726492643356,-0.9921852946281433,0.11437442153692245,-1.1095032691955566,-0.33391332626342773,0.28602170944213867,0.09265292435884476,0.6832864284515381,0.34807372093200684
212,-2.9647858646456293,1.4978255895037578,0.6306851097081277,-0.012823313474655151,-0.9973388314247131,0.07176993787288666,0.061016447842121124,0.7214319705963135,-0.6786025762557983,-0.09049394726753235,0.10256344079971313,0.26479315757751465
213,2.7698551057679137,1.5033147129338278,1.2845513061330154,0.024494173005223274,-0.9977239966392517,0.06282757222652435,0.3075599670410156,0.7893505692481995,-0.10511299967765808,-0.23799514770507812,-0.7142512798309326,0.25086259841918945
214,3.122447234100258,1.395309260443268,1.0321410953082129,0.003342362819239497,-0.9846416115760803,0.17455634474754333,1.4412305355072021,1.542628288269043,0.1532343029975891,0.3012688159942627,-0.20807689428329468,-0.18986082077026367
215,-3.074041331522524,1.3162574416318396,0.975621284976176,-0.01699643023312092,-0.9677795171737671,0.2512248456478119,0.20318211615085602,-0.2110084891319275,-0.09866674989461899,0.13548094034194946,0.37453311681747437,-0.16156414151191711
216,-3.068450629585191,1.3300562241657778,0.869349055416194,-0.017423151060938835,-0.9711617827415466,0.23778492212295532,-0.5257734656333923,-1.4975292682647705,0.5298698544502258,-0.09082269668579102,0.63023442029953,-0.26024574041366577
217,-2.7592778139954435,1.4324462573989332,0.5386221892355973,-0.05145002529025078,-0.9904448986053467,0.12795351445674896,-0.9406234622001648,1.3650481700897217,-0.2675960063934326,-0.3524806499481201,0.26862776279449463,0.35256099700927734
218,-2.465221268049268,1.4721364918578765,0.3129578822279037,-0.06165812909603119,-0.9951370358467102,0.07681557536125183,0.22271499037742615,-0.838559627532959,0.5365048050880432,-0.048083074390888214,-0.33660435676574707,0.2979249954223633
219,-2.7754824984352466,1.3191768458851614,0.5945647927841158,-0.08912874758243561,-0.9685105085372925,0.2324724644422531,1.3474164009094238,0.6813634037971497,-0.08168672025203705,-0.0845009908080101,-0.6505690217018127,-0.4746752083301544
220,-2.8374415294781965,1.3386640247114736,0.6275007549655136,-0.06889699399471283,-0.9731780886650085,0.21949374675750732,-1.0534329414367676,-1.2956713438034058,0.1010623574256897,0.2688329219818115,0.24968266487121582,-0.2792166471481323
221,-2.5009267324417577,1.4439629911133662,0.14301100915294734,-0.07560829818248749,-0.9919674396514893,0.10140877962112427,-0.871176540851593,-0.6898905634880066,0.1151694729924202,0.2171793431043625,0.7001584768295288,0.32791244983673096
222,-2.6790764362419788,1.494429829356993,0.30111971402589355,-0.034041132777929306,-0.9970855116844177,0.06827526539564133,0.08774709701538086,0.3184468448162079,-0.7906578779220581,-0.0511181615293026,0.12486273050308228,0.14162468910217285
223,-3.097671079443004,1.4748321084819547,0.8584944074458065,-0.004207078833132982,-0.9953989386558533,0.09572455286979675,0.46419140696525574,1.7319618463516235,-0.22112135589122772,-0.1311994194984436,-0.7216267585754395,0.26024770736694336
224,-3.031307654791627,1.394899560400687,0.9666318187258158,-0.019259808585047722,-0.9845700263977051,0.17392809689044952,0.7667539715766907,1.5069893598556519,0.20774206519126892,0.45370805263519287,-0.3338351249694824,-0.14202189445495605
225,-2.9959255124212256,1.3255204432613692,1.0108648840314365,-0.03524664789438248,-0.9700703620910645,0.24025319516658783,0.28197532892227173,-0.38087478280067444,-0.4280638098716736,0.17639046907424927,0.41135430335998535,-0.24669235944747925
226,-3.1326071597081726,1.3136023448437395,1.0664283296382018,-0.0022855924908071756,-0.9671075344085693,0.25435784459114075,-0.2820388078689575,-1.0407934188842773,0.05036451667547226,-0.26443803310394287,0.6507318019866943,-0.32770681381225586
227,3.1274012452000406,1.3778852127104615,1.0729622210758571,0.0027206353843212128,-0.9814502596855164,0.1916971504688263,-0.5528481602668762,0.9250513315200806,-0.14966320991516113,-0.3064621090888977,-0.1691843867301941,0.4725637435913086
228,-2.880926869503326,1.3974343445925512,0.8008986321715517,-0.04445613920688629,-0.9850103855133057,0.1666680872440338,1.1874713897705078,-0.8977484703063965,0.6336552500724792,0.0386883020401001,-0.22423338890075684,0.2551306486129761
229,-2.9008166297341047,1.268659459664111,0.721992889237558,-0.07095541805028915,-0.9547027945518494,0.2889777719974518,0.13774661719799042,-0.35196518898010254,0.23941902816295624,0.01855669915676117,-0.44115614891052246,-0.40618056058883667
230,-2.9037924379709197,1.3126671162939205,0.6458572630597391,-0.060133274644613266,-0.9668692350387573,0.24808844923973083,-1.0264300107955933,-0.7799075245857239,-0.10683528333902359,0.22483664751052856,0.3861349821090698,-0.20746958255767822
231,-2.6496209538149325,1.4113649340699572,0.3093677514538581,-0.07499118149280548,-0.9873177409172058,0.1399288922548294,-1.068864345550537,-0.6385582089424133,-0.07344669848680496,0.19840428233146667,0.7587258219718933,0.04241369664669037
232,-2.868084421472727,1.4504422460063633,0.5203797046743613,-0.0324304960668087,-0.9927662014961243,0.11560077220201492,0.5025587677955627,0.4940730929374695,-0.6764433979988098,-0.073496013879776,-0.26655691862106323,0.2821805477142334
233,-3.1047945849947682,1.4230921072791471,0.8913809459472298,-0.00541425496339798,-0.9891115427017212,0.14706780016422272,0.9753428101539612,1.0327430963516235,-0.12313936650753021,-0.08555865287780762,-0.7251370549201965,-0.013828054070472717
234,-3.067699500494275,1.3008908498548089,0.9535071850449162,-0.019684985280036926,-0.963796079158783,0.2659129202365875,1.4392831325531006,0.6278721690177917,0.12884734570980072,0.2774212062358856,-0.07334387302398682,-0.1157207190990448
235,-3.131483034267905,1.2528902801479427,1.0272236786977968,-0.003159989370033145,-0.9498920440673828,0.31256186962127686,-0.021895891055464745,-0.6145254969596863,-0.28795334696769714,0.01013326644897461,0.37668049335479736,-0.40808191895484924
236,3.11692407448527,1.278247125457385,1.0277252065207951,0.007113554980605841,-0.957511842250824,0.28830650448799133,-0.7756263017654419,0.042122140526771545,0.3300301134586334,-0.3180113732814789,0.490592896938324,-0.13306355476379395
237,3.1270722392381383,1.375810312239385,1.0737273040246074,0.0028132745064795017,-0.9810503721237183,0.19373254477977753,-0.570904016494751,0.5556501150131226,-0.031197277829051018,-0.26093095541000366,-0.11689579486846924,0.37462687492370605
238,-3.002165867848632,1.3399648948832772,0.8862041169988124,-0.031795747578144073,-0.9734765291213989,0.22656653821468353,1.0722612142562866,-0.7930899262428284,0.4407235383987427,-0.12689566612243652,-0.4602392315864563,-0.05507303774356842
239,-2.9555613473842945,1.2507804467849941,0.7617615083194813,-0.05818495154380798,-0.949230432510376,0.3091532588005066,-0.24956029653549194,-1.1383029222488403,0.31774425506591797,0.05229507014155388,-0.4200778603553772,-0.7319439053535461
240,-2.9684815067436747,1.3436525753378805,0.6170934193102119,-0.0387895368039608,-0.9743135571479797,0.22183021903038025,-1.604944109916687,-1.3494255542755127,0.46488481760025024,0.1329362690448761,0.37778645753860474,0.05020344257354736
241,-2.835725142917436,1.4470802100554578,0.3816630856057782,-0.037158720195293427,-0.9923568964004517,0.11767394095659256,-0.4372473955154419,-0.5990850329399109,-0.3323109745979309,0.026172399520874023,0.6896835565567017,0.07075679302215576
242,3.0827123493761444,1.4522931472016771,0.7127184233263053,0.006957086268812418,-0.9929867386817932,0.11801984906196594,0.7375345230102539,0.6510246396064758,-0.26298946142196655,-0.318205863237381,-0.40451985597610474,0.3545600175857544
243,3.0812639792478853,1.3583136886162634,0.8503203997096899,0.012714799493551254,-0.977510392665863,0.21050305664539337,1.2504624128341675,1.4782546758651733,-0.27980777621269226,-0.18617671728134155,-0.7107676863670349,-0.09665720164775848
244,-3.0622528765218116,1.2585632665617774,0.807668931397616,-0.02434636652469635,-0.9516499638557434,0.30621790885925293,0.4435839056968689,0.037588369101285934,0.3376242518424988,0.48317816853523254,-0.07056677341461182,-0.18903043866157532
245,-3.109743636626036,1.2664492637832097,0.7771781070056428,-0.009542593732476234,-0.9540427923202515,0.2995184063911438,-0.2677572965621948,-1.2273815870285034,0.1652389019727707,-0.1315096616744995,0.5647605657577515,-0.254871129989624
246,3.073252367694085,1.29624245305545,0.758279489384705,0.018513845279812813,-0.9625462293624878,0.2704848647117615,-0.706505298614502,-0.7768946290016174,0.09319374710321426,-0.29018133878707886,0.5645054578781128,-0.11266326904296875
247,2.999352497731099,1.3463312671258176,0.7872359461429332,0.031553834676742554,-0.9749132990837097,0.22033683955669403,-0.22992178797721863,-0.27655401825904846,0.19431285560131073,-0.20034655928611755,-0.6310741901397705,0.5591583251953125
248,-3.057752616125694,1.3306529459862433,0.5243091838935198,-0.019917337223887444,-0.9713038802146912,0.23700666427612305,0.9461535215377808,-1.0404200553894043,0.5095682144165039,-0.0737716555595398,-0.6616459488868713,-0.19187116622924805
249,-3.080619218647232,1.2795193351414362,0.48283856841976774,-0.01749924011528492,-0.9578779339790344,0.28664201498031616,-0.13577204942703247,-1.184624195098877,0.18041163682937622,0.16132856905460358,-0.2888414263725281,-0.47908592224121094
250,-3.024648153207602,1.3677099221103584,0.2994840451201631,-0.023533113300800323,-0.9794487357139587,0.2003149837255478,-1.4773755073547363,-0.791831374168396,0.705830991268158,0.09860634803771973,0.5320764780044556,0.017061680555343628
251,-2.530399323616828,1.4959675886063113,-0.2671938402116963,-0.04289945587515831,-0.9972016215324402,0.06122400984168053,-1.0467026233673096,-0.23371483385562897,-0.42393758893013,0.16191799938678741,0.6775758862495422,0.1671541929244995
252,3.092640134102231,1.4997830227529123,0.42526459302541125,0.003472080221399665,-0.9974796175956726,0.07087084650993347,0.9787533283233643,2.1889920234680176,-0.3681384325027466,-0.32381510734558105,-0.6828946471214294,0.5325684547424316
253,3.135547029697182,1.4297618958106961,0.5741209010028909,0.000849817181006074,-0.9900711178779602,0.14056560397148132,1.0057768821716309,1.5566964149475098,-0.2757341265678406,0.19858253002166748,-0.5511429905891418,-0.2768876552581787
254,-3.0390024969855243,1.3541957467633852,0.5844530580080514,-0.022009151056408882,-0.9766336679458618,0.21378155052661896,0.16573549807071686,0.8772696256637573,-0.35112476348876953,0.39385056495666504,0.26120996475219727,-0.013982981443405151
255,3.1373989222620047,1.3194496563380849,0.7287473183573973,0.001043013297021389,-0.9685783982276917,0.24870623648166656,0.5130375027656555,-0.3826941251754761,-0.37654539942741394,-0.02867668867111206,0.6879998445510864,-0.31155717372894287
256,3.1257430004306137,1.3517249213034888,0.6426458323360322,0.0034443563781678677,-0.9760996699333191,0.21729610860347748,-1.1109013557434082,-0.3900456428527832,0.18949075043201447,-0.4893147051334381,0.45189929008483887,0.09224367141723633
257,-2.986063491157066,1.421815150103667,0.4812622014319233,-0.022992514073848724,-0.9889228343963623,0.14664016664028168,0.13520024716854095,-0.10457904636859894,0.7826480269432068,-0.21492251753807068,-0.49958741664886475,0.5310484170913696
258,-2.9433968889784623,1.2840706482114175,0.405565018815587,-0.055686064064502716,-0.9591750502586365,0.2772763669490814,0.5534495115280151,0.06865276396274567,-0.050223398953676224,-0.0031823329627513885,-0.7179489135742188,-0.3416685163974762
259,-2.948395225375151,1.2961376208739732,0.3875569928877361,-0.05207342281937599,-0.9625177979469299,0.2661728858947754,-0.8797135949134827,-0.7971076965332031,-0.07412504404783249,0.3130139708518982,0.22249698638916016,-0.4387039840221405
260,-2.812813967332041,1.4125956486369982,0.1659529501300384,-0.050868287682533264,-0.9875123500823975,0.1491035372018814,-1.2910689115524292,-0.5285723209381104,0.4355108439922333,0.07163549959659576,0.649972677230835,0.07956469058990479
261,-2.73337469960216,1.5032876710343008,0.050033785200846045,-0.026778731495141983,-0.9977221488952637,0.0619141161441803,-0.11692950129508972,0.15683655440807343,-0.5693336129188538,-0.08088728785514832,0.20040470361709595,0.2929443120956421
262,3.0686331631344816,1.4672267753023243,0.6528997901566375,0.007536271121352911,-0.9946414828300476,0.10311056673526764,0.050004664808511734,1.5777748823165894,-0.19188033044338226,-0.08218225836753845,-0.6883878111839294,0.24138714373111725
263,3.139895941047264,1.3900462354439997,0.7143744092791698,0.0003050137893296778,-0.9837091565132141,0.17976734042167664,1.0160731077194214,1.1515101194381714,-0.042953722178936005,0.19261187314987183,-0.28125977516174316,-0.16417288780212402
264,-3.072964844794273,1.320238430155979,0.7421620584819874,-0.017002545297145844,-0.9687742590904236,0.24736101925373077,0.1598065346479416,0.22331950068473816,-0.21658724546432495,0.28108641505241394,0.2965635657310486,-0.19154441356658936
265,3.125081299608341,1.299273316999488,0.8062707570816005,0.0044281273148953915,-0.963363528251648,0.26816242933273315,0.18816260993480682,-0.5942245125770569,-0.16016462445259094,-0.09227299690246582,0.5722808241844177,-0.30574479699134827
266,3.0871779635647965,1.3402202080652748,0.8043478548916506,0.012429706752300262,-0.973534882068634,0.2282000631093979,-0.793287992477417,0.49581295251846313,0.059227362275123596,-0.30394884943962097,0.06284463405609131,0.27688121795654297
267,-2.969690640101615,1.3993214435359913,0.6071298568880077,-0.029188308864831924,-0.9853341579437256,0.1681203842163086,0.8862061500549316,-0.275482177734375,0.8151957988739014,-0.09533867239952087,-0.14435017108917236,0.5308237075805664
268,-2.913174451930761,1.2815386871816214,0.5011862731796668,-0.06458918005228043,-0.9584559202194214,0.2778322398662567,0.2667537331581116,0.47476863861083984,0.45186692476272583,-0.025819160044193268,-0.46346503496170044,-0.3296816051006317
269,-2.8571362398937006,1.29098174542191,0.3958150604072714,-0.07750510424375534,-0.9611066579818726,0.26507851481437683,-0.8989652991294861,-0.8556267619132996,-0.04279638081789017,0.20105554163455963,0.2750716805458069,-0.2464781403541565
270,-2.6206262155967903,1.3979771936090524,0.03379918250448814,-0.08558747172355652,-0.9851039052009583,0.1491471529006958,-1.4872636795043945,-0.9635714292526245,0.5191825032234192,0.1910715103149414,0.5489162802696228,0.1677320897579193
271,-2.4793764491800268,1.470629651757239,-0.14858762479000603,-0.061487335711717606,-0.9949874877929688,0.07886407524347305,0.06199498102068901,0.05738164484500885,-0.4589953124523163,-0.04479013383388519,-0.08267992734909058,0.24523261189460754
272,-2.707780437871694,1.4657500449086363,0.11902302917007353,-0.04407377168536186,-0.9944877028465271,0.09514176100492477,0.5975204706192017,0.1885131448507309,0.08887705951929092,-0.19986850023269653,-0.7263680696487427,0.07534469664096832
273,-2.9079507539009364,1.3333893346444978,0.41781028266209763,-0.0544501356780529,-0.9719510674476624,0.22879339754581451,1.4722691774368286,0.8916338682174683,-0.020256314426660538,0.4578162133693695,-0.24151939153671265,-0.18648087978363037
274,-2.991754187769037,1.294941678213869,0.5152684809973824,-0.04065882787108421,-0.9621927738189697,0.26931726932525635,0.0430334210395813,-0.2766146659851074,-0.37284785509109497,0.1441439390182495,0.419971764087677,-0.23039212822914124
275,-2.9877360781482105,1.3100891260439758,0.44279048464416254,-0.039502356201410294,-0.9662079215049744,0.2547188401222229,-0.6900269985198975,-0.43877795338630676,0.7205581068992615,-0.17796590924263,0.45590829849243164,-0.1592903435230255
276,-2.5459787796603464,1.4255809549033878,0.11017748957998352,-0.08118171989917755,-0.9894747734069824,0.1197870522737503,-1.3170464038848877,1.882503628730774,0.046653926372528076,-0.15554314851760864,-0.18322408199310303,0.3892461061477661
277,-2.32739449927949,1.4006388018038858,-0.06251123072542548,-0.12313813716173172,-0.9855580925941467,0.11624208092689514,1.6848387718200684,-0.6489859819412231,0.18722528219223022,-0.15789824724197388,-0.394461989402771,0.06864869594573975
278,-2.704519905144925,1.2810423098451722,0.26047580907160833,-0.12094080448150635,-0.9583141803741455,0.2588578164577484,-0.01976718381047249,-0.13689838349819183,-0.09884055703878403,0.008834481239318848,-0.2633349895477295,-0.2882920503616333
279,-2.68658298773837,1.3575527477743976,0.17597315781071243,-0.0930059403181076,-0.9773496389389038,0.19009949266910553,-1.0817458629608154,-0.8497279286384583,-0.0759877860546112,0.1339452564716339,0.41616177558898926,-0.20807430148124695
280,-2.1478419382502527,1.4577730447645338,-0.3788072579218183,-0.09452086687088013,-0.9936196804046631,0.06152873858809471,-0.6024662256240845,0.2693725526332855,-0.3198263943195343,0.22309145331382751,0.6535775661468506,0.17768335342407227
281,-2.713474413724585,1.4964780013193855,0.2306304085213399,-0.030825622379779816,-0.9972396492958069,0.06754887849092484,0.5961263179779053,0.5096970200538635,-0.7140790224075317,-0.23663043975830078,-0.5199264287948608,0.16981685161590576
282,-2.971256494728992,1.4625755405770304,0.5959375747885977,-0.018309306353330612,-0.9941498637199402,0.10644765943288803,1.4565439224243164,0.4324910044670105,0.29856279492378235,-0.06201297044754028,-0.7049621343612671,-0.2937798500061035
283,-3.0021743725736547,1.3831697645800707,0.6682682633092053,-0.025921164080500603,-0.9824497103691101,0.18471752107143402,-0.22386081516742706,-0.41905826330184937,0.2774115204811096,0.5155146718025208,-0.0014827251434326172,-0.10262526571750641
284,3.0893868690124218,1.382261565363159,0.8049315130986768,0.00977998785674572,-0.982279896736145,0.18716511130332947,0.6038171052932739,-0.49334925413131714,-0.13399867713451385,-0.0006247153505682945,0.5399885177612305,-0.01713643968105316
285,-3.106841633331274,1.373585094767526,0.6525029795804765,-0.006807568483054638,-0.9806168079376221,0.19581663608551025,-0.9282686710357666,-0.594943642616272,0.4579923152923584,-0.2559182643890381,0.5461381077766418,-0.1191108375787735
286,-2.8014031898742586,1.4580602576789605,0.3455617585945103,-0.03753706067800522,-0.9936520457267761,0.10605185478925705,-0.296783447265625,0.5913174152374268,0.5429840683937073,-0.2872462570667267,-0.5615697503089905,0.5409055948257446
287,-2.5585745327374845,1.373699562089746,0.0886041545929105,-0.10780967772006989,-0.9806392192840576,0.1634741574525833,1.8763377666473389,-1.1207306385040283,0.7769105434417725,-0.16843542456626892,-0.6649296283721924,-0.1896277666091919
288,-2.8400696931207436,1.3015659102472983,0.301888044870114,-0.07899203896522522,-0.9639759063720703,0.25398901104927063,-0.7671760320663452,-0.847150981426239,-0.7599006295204163,0.03568759560585022,-0.21290379762649536,-0.45642751455307007
289,-3.0286872123569983,1.4127516212429942,0.4521539571453042,-0.01773211918771267,-0.9875369071960449,0.1563849151134491,-1.1405540704727173,0.37459596991539,-0.20470760762691498,0.12170550227165222,0.6520572900772095,0.0025048106908798218
290,2.2285665934273027,1.5099469228360207,1.467238486730518,0.04812217503786087,-0.9981492757797241,0.0371762216091156,-0.6419122219085693,-0.18027707934379578,-0.9154778122901917,0.09434912353754044,0.5008196830749512,0.2594088315963745
291,2.019862357914442,1.4271539857032103,1.7309559655882447,0.12895648181438446,-0.9897011518478394,0.062144599854946136,0.46029648184776306,2.0282816886901855,-0.3996391296386719,-0.34273210167884827,-0.8930045366287231,0.4940687417984009
292,2.422046375301335,1.4046807714766216,1.4859900905780137,0.10897405445575714,-0.9862344861030579,0.12436191737651825,1.1607369184494019,1.5837678909301758,0.09958718717098236,0.11975519359111786,-0.5138568878173828,-0.31848418712615967
293,2.816604682923115,1.3725508067853647,1.2005356948628494,0.06288554519414902,-0.9804136157035828,0.18664033710956573,0.05940106138586998,0.5719774961471558,0.6794576048851013,0.4413563907146454,0.18202799558639526,-0.019083619117736816
294,2.854620342752461,1.3341758317957184,1.1612883906404983,0.06635215878486633,-0.9721357226371765,0.22483229637145996,0.5372127890586853,-0.5234626531600952,-0.04854900389909744,-0.10434654355049133,0.5166151523590088,-0.17948317527770996
295,2.8933826605265924,1.3360770078170043,1.0177262032591115,0.05713510513305664,-0.9725796580314636,0.22544188797473907,-0.780672013759613,-1.208776593208313,0.44828689098358154,-0.09828807413578033,0.45162951946258545,-0.25313669443130493
296,2.8425079609013455,1.46734430344633,1.0166965525996303,0.03042713552713394,-0.994653582572937,0.09868250787258148,-0.8832069635391235,-0.2103714793920517,0.7177934646606445,-0.23288074135780334,-0.5783291459083557,0.7164267301559448
297,-2.944178405114008,1.3547684671765627,0.4855444562153758,-0.04204174503684044,-0.9767565727233887,0.21018829941749573,1.788313627243042,-0.5913110375404358,0.5113900899887085,-0.03365710377693176,-0.8172955513000488,-0.18462979793548584
298,-2.9754748628142687,1.3214738669847932,0.5097262792641745,-0.04080096632242203,-0.969079852104187,0.24335125088691711,-0.546690821647644,-0.35391393303871155,-0.05177682265639305,0.22210592031478882,0.07305312156677246,-0.38800451159477234
299,-2.9893021404364144,1.4524831658817594,0.4172602551862015,-0.017906803637742996,-0.9930091500282288,0.11667276173830032,-2.005175828933716,-1.268236517906189,0.06346212327480316,0.12389436364173889,0.6551031470298767,0.18960167467594147
300,2.4192474657794305,1.5451129930111638,1.2658998685880585,0.016982970759272575,-0.9996702075004578,0.019271988421678543,-0.030844906345009804,0.2701142132282257,-0.5417660474777222,-0.17407220602035522,0.2065640091896057,0.20013415813446045
301,2.134029694120397,1.5055964289753796,1.6289976910731345,0.05508992448449135,-0.9978752136230469,0.03478724882006645,-0.3221471607685089,1.5329480171203613,-0.03407927602529526,-0.29665181040763855,-0.6963996887207031,0.5555599927902222
302,2.9144905410233166,1.4408770374735256,0.9504280707355024,0.029169678688049316,-0.991572380065918,0.1262272149324417,1.1183762550354004,1.4911185503005981,0.29144343733787537,0.2715200185775757,-0.32570356130599976,-0.18469883501529694
303,-3.0313100986387096,1.403709462235594,0.7011479324004259,-0.01830403134226799,-0.9860734343528748,0.16530053317546844,0.017995107918977737,0.6215620636940002,-0.709911048412323,0.3751308023929596,0.5126237273216248,-0.03261005878448486
304,3.0296561350312574,1.3440138317068984,0.9527826528665171,0.025115691125392914,-0.9743948578834534,0.22343650460243225,0.4518166482448578,-1.2304368019104004,0.3639254868030548,-0.04493686556816101,0.5040885210037231,-0.3553183078765869
305,3.0235048024176048,1.4243779936079604,0.7797177379987095,0.017188549041748047,-0.9892999529838562,0.14488008618354797,-1.307331919670105,-1.0554747581481934,0.45969805121421814,-0.29816389083862305,0.0549432635307312,0.3531820774078369
306,-2.9348973481499345,1.4371985151738638,0.5176778577199787,-0.027336278930306435,-0.9910891056060791,0.13036517798900604,0.674885630607605,0.5030548572540283,0.3879035711288452,-0.14453870058059692,-0.4295956492424011,0.25749802589416504
307,-3.0175471335843396,1.3175796976119216,0.6399896949624276,-0.03099624067544937,-0.9681115746498108,0.2485949844121933,0.5204384326934814,0.7938897609710693,-0.10758528858423233,0.018835004419088364,-0.4426398277282715,-0.2495867908000946
308,-3.136778918383301,1.3852212754328477,0.7532316551993625,-0.0008881852263584733,-0.982830286026001,0.18450918793678284,-0.699470043182373,-0.5030353665351868,-0.15996631979942322,0.1550324559211731,0.390682578086853,-0.28904712200164795
309,-2.9462588472942617,1.4743468147278227,0.5072270467270094,-0.018691536039114,-0.9953523278236389,0.09447009116411209,-1.3697535991668701,-0.8871933221817017,0.3037291169166565,0.1215205192565918,0.6907104849815369,0.08672811090946198
310,1.1353710363283245,1.557726793356011,2.6896114732839114,0.011848918162286282,-0.9999145865440369,-0.0055121625773608685,0.28762829303741455,0.1401376575231552,-0.22279591858386993,-0.09571123123168945,-0.35834646224975586,0.22465890645980835
311,2.387002158814754,1.5422742774767004,1.50507849537807,0.01953515037894249,-0.9995932579040527,0.02077748253941536,1.102941870689392,0.07915778458118439,0.28774315118789673,-0.2292519509792328,-0.7515969276428223,-0.27056384086608887
312,-3.124854746248494,1.407503484044528,0.9031649356960744,-0.0027209091931581497,-0.9866973161697388,0.16254451870918274,0.9683660864830017,2.078554391860962,0.13350309431552887,0.4222460389137268,-0.1341521143913269,-0.07111385464668274
313,3.1064722918327297,1.36249967636805,1.0425163851404526,0.007261147256940603,-0.9783845543861389,0.20666533708572388,0.6281349658966064,0.21981392800807953,-0.5624296069145203,0.15162864327430725,0.5014407634735107,-0.15771523118019104
314,3.0240343300415566,1.3304680017929817,1.0338801384996468,0.027916910126805305,-0.9712598919868469,0.23637787997722626,-0.2954230010509491,-1.3393604755401611,0.36076095700263977,-0.19190311431884766,0.5934066772460938,-0.2672770619392395
315,2.9794094845381056,1.4299542726042664,1.0717756028983927,0.022667214274406433,-0.9900981187820435,0.1385354846715927,-0.9750741124153137,-0.04129250347614288,0.3495556116104126,-0.2677538990974426,-0.5625141859054565,0.5051107406616211
316,-3.028664712399418,1.3583330926587327,0.7522311436555331,-0.02376229502260685,-0.9775144457817078,0.2095247358083725,1.7844430208206177,-0.7235670685768127,0.3995461165904999,0.008778156712651253,-0.8483063578605652,-0.19652427732944489
317,-2.9814093130909147,1.2956786198141557,0.7093160053256057,-0.04332961514592171,-0.9623932242393494,0.2681826055049896,0.09035224467515945,-0.39430466294288635,0.14052216708660126,0.2313942015171051,-0.035104334354400635,-0.37275099754333496
318,-2.9940655670103595,1.3882521680931863,0.6130914466058931,-0.02668384648859501,-0.9833850264549255,0.179560124874115,-1.724220633506775,-1.676790714263916,0.3543376922607422,0.21027761697769165,0.6724414825439453,-0.10473097860813141
319,-2.625806789042913,1.5220100082734151,0.17936540208932233,-0.02405182458460331,-0.9988101720809937,0.042420968413352966,-0.5639541745185852,0.17632107436656952,-0.6297428011894226,0.006290588527917862,0.4944767951965332,0.22480618953704834
320,2.547012347220154,1.5228128495403224,1.3747496985502037,0.026868660002946854,-0.9988490343093872,0.03973420709371567,-0.5102816224098206,1.6834568977355957,-0.03298890218138695,-0.37089332938194275,-0.8259038329124451,0.5438686609268188
321,-3.1186693666881844,1.444043535676123,0.8674399150664495,-0.0028975638560950756,-0.9919776320457458,0.12638048827648163,1.3205320835113525,1.447852373123169,0.33979570865631104,0.17364341020584106,-0.40893179178237915,-0.22808027267456055
322,-2.943685476258454,1.3415283433831786,0.7746614765025137,-0.04468434303998947,-0.9738330245018005,0.22282885015010834,0.6980212330818176,0.1501830667257309,-0.5399230718612671,0.42847341299057007,0.235185444355011,-0.061238259077072144
323,-3.1350364373279307,1.3099240075052911,0.959973345971386,-0.00169099192135036,-0.9661653637886047,0.25791823863983154,0.18707548081874847,-0.2656250298023224,-0.38735002279281616,-0.07571685314178467,0.7154634594917297,-0.30078017711639404
324,3.0090500024703504,1.3707351667927945,1.1062591192146718,0.026263106614351273,-0.9800544381141663,0.19698666036128998,-1.693848729133606,1.1249630451202393,-0.20106646418571472,-0.31022918224334717,0.19338750839233398,0.22661256790161133
325,-3.1391090257586183,1.447340503767033,0.9994144198279991,-0.0003058412403333932,-0.9923890233039856,0.12314269691705704,0.6959764361381531,-0.15973757207393646,0.6838380098342896,-0.09835746884346008,-0.24567866325378418,0.36857175827026367
326,-2.9996308458863177,1.3217837292880352,0.8084788757345095,-0.03486865013837814,-0.9691562652587891,0.2439677119255066,0.7612371444702148,-0.012363843619823456,0.2813684642314911,0.012392465025186539,-0.5515040755271912,-0.2094675600528717
327,-3.0936471675433315,1.3273320000292628,0.858451099644352,-0.011553613469004631,-0.9705086946487427,0.2407892793416977,-0.7574777007102966,-1.165183424949646,-0.15522567927837372,0.22642788290977478,0.15851223468780518,-0.37567687034606934
328,-3.1014940402314735,1.4570044102016426,0.7576110555800445,-0.004551799036562443,-0.993532657623291,0.11345428228378296,-1.3551744222640991,-0.45373889803886414,0.20554257929325104,0.04546061158180237,0.6685968637466431,0.17180870473384857
329,2.524318562204161,1.5138503282201672,1.424006789130771,0.032943256199359894,-0.9983789920806885,0.0464119091629982,-0.10270745307207108,0.4963749647140503,-0.6575008630752563,-0.14742997288703918,0.09855300188064575,0.14116430282592773
330,2.365155471480916,1.4784474671286838,1.679072448220702,0.06462077051401138,-0.9957388639450073,0.06578940153121948,0.22627823054790497,1.135017991065979,-0.20418478548526764,-0.2177427113056183,-0.6700936555862427,0.4524754285812378
331,2.8640560866014515,1.38276444644068,1.2887388666372819,0.0512150414288044,-0.9823740124702454,0.17977187037467957,0.8869092464447021,1.3565409183502197,0.13681955635547638,0.3251887559890747,-0.41888612508773804,-0.18462422490119934
332,3.003169595265063,1.3285867111104983,1.223432352628456,0.03309473767876625,-0.9708103537559509,0.23755501210689545,0.3779633045196533,-0.12073138356208801,-0.6267470121383667,0.25914159417152405,0.3600466251373291,-0.20729678869247437
333,2.874602706439812,1.2883262279390046,1.304271745556939,0.07353668659925461,-0.960369884967804,0.2688528299331665,0.23894786834716797,-0.8500983715057373,0.09988640248775482,-0.1662490963935852,0.5955933928489685,-0.3370138704776764
334,2.7624479904132566,1.3518161329222873,1.3987065168050012,0.08040409535169601,-0.9761195182800293,0.20180673897266388,-1.1777849197387695,0.21304911375045776,0.13976113498210907,-0.22751405835151672,-0.04829460382461548,0.3026794195175171
335,2.91517546776835,1.3897329579947457,1.2290614267855056,0.040424685925245285,-0.9836527705192566,0.17547929286956787,0.9623527526855469,-0.19641488790512085,0.7623109817504883,-0.04132494702935219,-0.23096203804016113,0.26192915439605713
336,3.094166215303643,1.275976429119257,1.0012140871479858,0.013775424100458622,-0.9568544626235962,0.29024094343185425,0.4266594648361206,-0.21265940368175507,0.06665018200874329,-0.046932756900787354,-0.4350370168685913,-0.367694616317749
337,3.022030142713751,1.3201752347061706,0.9816047950078635,0.02958155982196331,-0.9687585830688477,0.2462349236011505,-1.173624873161316,-1.143680453300476,0.2964980900287628,0.09523531794548035,0.23940378427505493,-0.14622880518436432
338,2.995061063709089,1.4793253202920458,0.9137251695712155,0.01333685778081417,-0.9958194494247437,0.09036459028720856,-0.7819222211837769,-0.3889271914958954,-0.052364662289619446,0.06973198056221008,0.7501376867294312,0.21392619609832764
339,2.5453288530585403,1.4749243950466635,1.3703486492587604,0.05375554412603378,-0.9954078197479248,0.07920767366886139,0.4403071999549866,0.2500092387199402,-0.3673788905143738,-0.20042303204536438,-0.34149110317230225,0.1752936840057373
340,2.679079293564797,1.4484819779525662,1.3365573972307392,0.054440371692180634,-0.9925289154052734,0.1091901883482933,1.215461015701294,0.6886298656463623,0.28526148200035095,-0.14593204855918884,-0.7990970015525818,-0.019544847309589386
341,3.0989872380710146,1.3400780370601697,0.999378952188678,0.009739900007843971,-0.9735023975372314,0.22846874594688416,0.6721029877662659,0.35424602031707764,0.838559627532959,0.5613660216331482,0.057685256004333496,-0.15856829285621643
342,3.049285340660995,1.3015926418814276,1.0511220097888914,0.024515556171536446,-0.9639829993247986,0.2648315131664276,0.2915097177028656,-0.3921170234680176,-0.32153579592704773,-0.08416217565536499,0.4615568518638611,-0.285919189453125
343,2.9282728877822493,1.2968270522115821,1.1294698947439474,0.0572778545320034,-0.962704598903656,0.2644217908382416,-0.7133243680000305,-0.2846018970012665,-0.11731333285570145,-0.2258874624967575,0.5351839661598206,-0.18466418981552124
344,2.8309497861616366,1.4050704032813977,1.2124799647000595,0.05042612552642822,-0.9862988591194153,0.15707288682460785,-0.5064767599105835,-0.4870277941226959,0.2791379988193512,-0.14979135990142822,-0.3640124797821045,0.517579197883606
345,-3.1366684465661594,1.381928641061725,0.8441387295441943,-0.0009245002875104547,-0.9822174310684204,0.18774451315402985,0.8324481248855591,-0.6984838843345642,0.5221427083015442,0.0006650984869338572,-0.5076659321784973,-0.050735846161842346
346,-3.041416083886961,1.3018883811169952,0.7162782728153497,-0.026570264250040054,-0.9640616178512573,0.26434648036956787,-0.07752962410449982,-0.05020933598279953,-0.04576103761792183,0.14246076345443726,-0.19430923461914062,-0.44368305802345276
347,-3.09967818380979,1.3869888182346497,0.6991577680125659,-0.007658645510673523,-0.9831548929214478,0.1826137900352478,-1.6805740594863892,-0.8709760308265686,0.1849117875099182,0.04603448510169983,0.42065489292144775,0.06219816207885742
348,-3.035290622605558,1.5008923142431698,0.6024409516810827,-0.007410918362438679,-0.9975576996803284,0.06945288181304932,-0.21766318380832672,0.12243665754795074,-0.3992273509502411,0.005991846788674593,0.6252127885818481,0.08499657362699509
349,2.6371648019268696,1.4867574537058277,1.2598090412121299,0.04056893289089203,-0.9964708089828491,0.07348568737506866,0.2273448258638382,0.9834879040718079,-0.317390114068985,-0.32070502638816833,-0.6202284097671509,0.2337958812713623
350,2.7641895512243653,1.4415894522091244,1.277210959079867,0.04748181998729706,-0.9916644096374512,0.11978118866682053,1.1739944219589233,1.1451164484024048,0.1265212446451187,-0.10627391189336777,-0.6870313882827759,-0.22082482278347015
351,3.020370333484477,1.3668764092818189,1.0987542707032154,0.024488545954227448,-0.9792802929878235,0.20102301239967346,0.2212156355381012,0.21390105783939362,0.3372882008552551,0.5938128232955933,0.06878846883773804,-0.009342104196548462
352,2.8483884735114726,1.3444487684837472,1.2450119229919216,0.06486211717128754,-0.9744925498962402,0.21484234929084778,0.03212606906890869,-0.7040849924087524,-0.21548454463481903,-0.14315497875213623,0.5012106895446777,-0.1635880470275879
353,2.775491088711634,1.3645403236360285,1.2596247921872412,0.07331286370754242,-0.9788045287132263,0.19122517108917236,-0.6679695248603821,0.023072868585586548,0.17569252848625183,-0.2270756959915161,0.5744771361351013,0.004529833793640137
354,2.596258916032667,1.4368119518381364,1.446836406371227,0.06929082423448563,-0.9910374879837036,0.11420877277851105,-0.23841074109077454,-0.027576006948947906,0.34032243490219116,-0.13908454775810242,-0.45644181966781616,0.4673495292663574
355,3.099991112421177,1.402835639474349,0.9001702241895031,0.006952644791454077,-0.9859277606010437,0.1670282632112503,1.0830070972442627,-0.17442990839481354,0.37870755791664124,-0.052957892417907715,-0.7250404357910156,-0.10722909867763519
356,3.135872083921194,1.3555951970581506,0.8164777174090566,0.0012215888127684593,-0.976933479309082,0.21354088187217712,-0.18250036239624023,-0.9208177924156189,0.013404718600213528,0.18977266550064087,-0.10055077075958252,-0.3744295537471771
357,-3.1244984548532035,1.4591194581184797,0.7100802942881601,-0.001904954551719129,-0.9937705993652344,0.11142780631780624,-1.5573302507400513,-0.41681361198425293,0.44334524869918823,0.013226985931396484,0.5077325105667114,0.12428997457027435
358,3.083632999135561,1.540206381780664,0.7744667061863629,0.0017717004520818591,-0.999532163143158,0.03053358569741249,0.02455173060297966,0.2506934404373169,-0.47602230310440063,0.0311262309551239,0.46707671880722046,0.1560204029083252
359,2.4670563023645236,1.4901828631904597,1.4657921525625206,0.05029086023569107,-0.9967525005340576,0.0628899484872818,0.22116196155548096,1.6556634902954102,-0.160283625125885,-0.337018758058548,-0.5632907152175903,0.4028846025466919
360,2.8494647175000787,1.4261993031260862,1.2242747765262012,0.04149773344397545,-0.989564061164856,0.13798922300338745,0.587222695350647,1.690839409828186,-0.3079861104488373,0.30457159876823425,-0.599699854850769,-0.22819912433624268
361,2.8631983256963154,1.4126948718182368,1.2902605088018853,0.04326752573251724,-0.9875279664993286,0.15138208866119385,0.2620333731174469,0.025937357917428017,-0.5963776111602783,0.18131133913993835,0.3671361207962036,-0.06472742557525635
362,2.808478987365028,1.363511157011697,1.3001598655140223,0.06729555130004883,-0.9785932302474976,0.19449155032634735,0.561173141002655,-0.42970627546310425,0.06548058986663818,-0.15758180618286133,0.701066255569458,-0.13714894652366638
363,2.6726398036459567,1.4182370930839656,1.3915622798211211,0.06868226081132889,-0.9883853793144226,0.1355617642402649,-1.3081291913986206,0.06938042491674423,0.17314639687538147,-0.15625247359275818,0.12769818305969238,0.2224552482366562
364,2.774819923068146,1.5202898647929362,1.3078506453944474,0.01810421422123909,-0.9987248182296753,0.047127366065979004,0.8132299780845642,0.48546934127807617,0.9788162708282471,0.007042288780212402,-0.3018428087234497,0.331015944480896
365,-3.0118882644380576,1.3706483214949663,0.825975052470532,-0.025714855641126633,-0.9800371527671814,0.19714437425136566,0.3550620973110199,-0.30020344257354736,-0.12138403952121735,0.22883984446525574,-0.5830121636390686,-0.31591880321502686
366,3.067653653900328,1.399893966091472,0.9572932586262705,0.01256350427865982,-0.9854317307472229,0.16960740089416504,-0.925241231918335,-0.7814399600028992,-0.06958185881376266,0.1257879137992859,0.33627694845199585,-0.16670821607112885
367,3.1137240135335866,1.5233759278140084,0.8499453667036869,0.0013209609314799309,-0.9988758563995361,0.04738727584481239,-1.112403392791748,-0.10018676519393921,-0.015303661115467548,0.009161829948425293,0.7057849168777466,0.26752352714538574
368,1.3831311927459382,1.5197478687295383,2.598850468089768,0.0501333512365818,-0.9986972808837891,-0.00952030811458826,-0.03855293244123459,-0.21910366415977478,-0.6953946948051453,-0.07996427267789841,-0.191167950630188,-0.04600638151168823
369,1.3366597376207634,1.4957238442896528,2.717829119666858,0.0729563981294632,-0.9971833825111389,-0.01740090176463127,0.3932493031024933,1.043227195739746,-0.21395857632160187,0.023677527904510498,-0.5866636633872986,0.47646158933639526
370,2.737973233343383,1.4072012470070958,1.4450648356362097,0.06396575272083282,-0.9866481423377991,0.14977948367595673,1.4611091613769531,1.963459849357605,0.351489782333374,0.338835746049881,-0.3083195090293884,-0.1123955249786377
371,2.9045174222993393,1.3607923183969786,1.3424865690304393,0.04896000400185585,-0.9780300855636597,0.2026330828666687,0.29183289408683777,-0.2574038803577423,-0.3652448058128357,0.08943721652030945,0.44641387462615967,-0.258983850479126
372,2.7822654848523802,1.3466631602560653,1.3941538454287714,0.0781569853425026,-0.9749871492385864,0.20806635916233063,-0.7191891670227051,-0.4004881978034973,-0.20960892736911774,-0.289826899766922,0.5619164705276489,-0.13015496730804443
373,2.3190381409999756,1.4559914529131297,1.8796190480338024,0.08395403623580933,-0.9934171438217163,0.07793602347373962,-0.5104585289955139,0.12064284086227417,0.08518016338348389,-0.18240374326705933,-0.3151307702064514,0.615942120552063
374,2.988195358811647,1.403401902770379,1.1765326718000533,0.025457972660660744,-0.9860222339630127,0.16465725004673004,1.3874934911727905,-0.10393597185611725,0.5325299501419067,0.03455483913421631,-0.5577399134635925,-0.10151638090610504
375,3.13616944682216,1.3234201365814753,1.0130349325897516,0.0013279251288622618,-0.9695582389831543,0.24485735595226288,-0.03739902377128601,-0.6271626949310303,-0.01273755356669426,0.24386554956436157,-0.2288212776184082,-0.41345179080963135
376,2.9161064713164335,1.4219159051939123,1.1216257744405507,0.03316371515393257,-0.9889377951622009,0.1445753425359726,-1.5552829504013062,-0.7641986012458801,-0.05086766928434372,0.07164891809225082,0.505768358707428,0.23066875338554382
377,2.3952744066626277,1.4923649213790164,1.6144586233794935,0.05319642275571823,-0.9969258308410645,0.057525634765625,-0.39648255705833435,0.056486207991838455,-0.4021152853965759,0.014888323843479156,0.6017688512802124,0.021438606083393097
378,2.176320844865481,1.438731840062655,1.8836495408348883,0.10826931893825531,-0.9912921786308289,0.07495245337486267,-0.1478884071111679,1.1447139978408813,-0.5274872779846191,-0.25641685724258423,-0.636591911315918,0.17729055881500244
379,2.47438308191866,1.3997865085938306,1.7206489363019586,0.10530570894479752,-0.9854134321212769,0.13368380069732666,1.3823679685592651,1.3688690662384033,0.030134910717606544,0.14120005071163177,-0.6382744312286377,-0.24058686196804047
380,2.8444566743156425,1.3549302734372757,1.463445453930293,0.06271223723888397,-0.976791262626648,0.20480746030807495,0.38316482305526733,0.529472827911377,-0.06352411955595016,0.4538435637950897,0.39410388469696045,-0.11424648761749268
381,2.816255966295301,1.3036103969286006,1.4646950663227603,0.0843876376748085,-0.9645176529884338,0.2501688599586487,0.3841334283351898,-0.380757212638855,-0.21731901168823242,-0.2078922688961029,0.5248661637306213,-0.1919260025024414
382,2.701565940137177,1.3244574529355133,1.5443738132217857,0.10387319326400757,-0.9698116779327393,0.22062507271766663,-0.7747633457183838,-0.09987455606460571,-0.020033296197652817,-0.26940053701400757,0.3924649953842163,0.08232280611991882
383,2.6372150000611607,1.3629641563971608,1.5769613901384496,0.09971603751182556,-0.9784805178642273,0.1806448996067047,0.7700247168540955,-0.840786874294281,0.5859950184822083,-0.15075668692588806,-0.3456924557685852,0.2877999544143677
384,2.8868970919693266,1.2986359621107804,1.2894588261757118,0.0677274614572525,-0.9631924033164978,0.26014038920402527,0.7910478115081787,0.2735527753829956,0.30501794815063477,0.1686311513185501,-0.6013673543930054,-0.19558054208755493
385,2.9252669787633336,1.256564268152128,1.194274840312084,0.0663430467247963,-0.9510340094566345,0.30188241600990295,-0.5959817171096802,-1.027911901473999,-0.014874529093503952,0.0437643826007843,-0.05450493097305298,-0.5185114145278931
386,2.6576033442884346,1.3929111079237322,1.2988776857805784,0.08233709633350372,-0.9842200875282288,0.1566261202096939,-1.57655930519104,-1.062827706336975,0.3055548369884491,-0.04356449097394943,0.5995458960533142,0.3060814142227173
387,2.323474780068296,1.4367097751996538,1.5975551810358082,0.09757205098867416,-0.99102383852005,0.09138715267181396,-0.21654340624809265,-0.1506105214357376,-0.407749205827713,-0.09218567609786987,0.26897794008255005,0.044660210609436035
388,2.2206269882256104,1.411778377311193,1.7401766124376525,0.12607473134994507,-0.987383246421814,0.09580887854099274,-0.11645059287548065,1.6416795253753662,-0.2925005853176117,-0.15865226089954376,-0.5449348092079163,0.32696640491485596
389,2.6026324186381573,1.3620222036339689,1.5194150253433372,0.10637518018484116,-0.9782857298851013,0.17787982523441315,0.6790210008621216,1.3702232837677002,-0.27262869477272034,0.24285270273685455,-0.5882272720336914,-0.27121782302856445
390,2.792348774923502,1.3297553815769696,1.3905263732353443,0.08168452978134155,-0.9710900187492371,0.22430215775966644,0.21787866950035095,-0.025505010038614273,-0.5028855800628662,0.37006717920303345,0.1768244504928589,-0.08311264216899872
391,2.6413096211549716,1.3130385994840599,1.4893538864431053,0.12227530777454376,-0.9669640064239502,0.22367295622825623,-0.02070397324860096,-0.786507248878479,-0.007723633199930191,-0.23770804703235626,0.5060111284255981,-0.06662949919700623
392,2.5975333004937133,1.3397845281972423,1.4811744829630014,0.11851396411657333,-0.9734352231025696,0.1959034651517868,-0.4458446800708771,-0.3434749245643616,0.042773839086294174,-0.16154377162456512,0.49639981985092163,0.07077428698539734
393,2.572721241928653,1.38177999543596,1.471853483904024,0.10121430456638336,-0.9821895360946655,0.15830133855342865,-0.20104725658893585,-0.41574758291244507,0.7319033145904541,-0.10090915113687515,-0.5260196328163147,0.34014225006103516
394,3.01460415512886,1.3636216256008813,0.9602850167584972,0.026050882413983345,-0.9786159992218018,0.20403972268104553,1.334501028060913,-0.5167208909988403,0.6796266436576843,0.06150403618812561,-0.5626742839813232,-0.12187111377716064
395,3.0716956395755886,1.318078066591486,0.845871264433636,0.01746257394552231,-0.9682363271713257,0.24942590296268463,-0.38798239827156067,-0.8701372146606445,0.008020667359232903,0.15238302946090698,0.011571407318115234,-0.3032436668872833
396,3.0646970140331344,1.4376178524075587,0.7863769474677559,0.01020053867250681,-0.9911448359489441,0.1323927640914917,-1.3323758840560913,-0.30046653747558594,0.3077090382575989,0.09149929881095886,0.5809885859489441,0.1278611421585083
397,2.9627749886271473,1.4957528875206256,0.9050701473265036,0.013335354626178741,-0.9971855878829956,0.07377859205007553,-0.12304797023534775,0.503576934337616,-0.4471110999584198,-0.03433147072792053,0.42226481437683105,0.06628180295228958
398,2.5439185691235826,1.4822420365503675,1.411623155268738,0.049765445291996,-0.9960816502571106,0.07310624420642853,0.08182277530431747,1.5199795961380005,-0.11180830746889114,-0.2406681478023529,-0.5907559990882874,0.4970078468322754
399,2.8596476670351483,1.385713688233337,1.2250981519170048,0.05120125040411949,-0.9829210638999939,0.17676247656345367,1.4470221996307373,1.6655974388122559,-0.235974982380867,0.1591869294643402,-0.34920185804367065,-0.2492264360189438
400,3.001160678070171,1.309657569110593,1.152315839028715,0.03613778576254845,-0.9660965800285339,0.2556391954421997,-0.12757518887519836,-0.05631529539823532,-0.5546461939811707,0.23321035504341125,0.1398637294769287,-0.0761806070804596
401,2.889531679355372,1.2927135086721822,1.2345753307781933,0.06846371293067932,-0.9615834951400757,0.2658388316631317,-0.1555287092924118,-0.4050358533859253,-0.02578442171216011,-0.2767614722251892,0.5067188739776611,-0.1897585093975067
402,2.792988763644487,1.3648159300418263,1.3255276653798578,0.06986355781555176,-0.9788609147071838,0.19222480058670044,-0.8695142269134521,0.04673616588115692,0.008301574736833572,-0.18436551094055176,0.3277074098587036,0.18648314476013184
403,2.9126204289189443,1.4058982140765353,1.1854681925490096,0.03725866228342056,-0.986435055732727,0.15986759960651398,0.046630505472421646,-0.3158732056617737,0.5920713543891907,0.016498059034347534,-0.2533262372016907,0.358443021774292
404,3.087993341562141,1.3135039101688915,0.9536130141930605,0.013632516376674175,-0.9670825004577637,0.2540976405143738,1.0866366624832153,-0.4604378044605255,0.3926806151866913,-0.050009459257125854,-0.5297741889953613,-0.30555033683776855
405,3.061657946198516,1.3135115775646353,0.9047757782539626,0.02031823620200157,-0.9670844674110413,0.25364378094673157,-0.8033317923545837,-0.9623941779136658,0.045716602355241776,0.06754186749458313,0.015149474143981934,-0.31803593039512634
406,2.964502267630185,1.460509150414061,0.9257589562793321,0.019389517605304718,-0.9939245581626892,0.10834242403507233,-1.1115893125534058,-0.30320265889167786,0.14597630500793457,0.07266676425933838,0.6875585913658142,0.16788744926452637
407,2.4145245623350267,1.4931321458673812,1.460354452601651,0.051570743322372437,-0.996985673904419,0.05796736478805542,-0.03492452949285507,0.2423829287290573,-0.6744056344032288,-0.055583804845809937,0.14662855863571167,0.18914878368377686
408,2.350805914427105,1.4501226869813404,1.6075443325736674,0.08558017015457153,-0.9927277565002441,0.0846627950668335,0.2598860561847687,1.3941775560379028,-0.22333510220050812,-0.21618014574050903,-0.6474242210388184,0.412636399269104
409,2.7486874196745115,1.361131421910911,1.3263184418772613,0.07968834787607193,-0.9781007170677185,0.19227255880832672,0.9097908139228821,0.8895390033721924,0.11171212047338486,0.26802894473075867,-0.4115171432495117,-0.22938194870948792
410,2.884801853805579,1.3361049455119347,1.2216813611303188,0.05906081944704056,-0.9725861549377441,0.22491806745529175,0.15053145587444305,-0.5934177041053772,-0.489032506942749,0.20393967628479004,0.26466989517211914,-0.15658915042877197
411,2.7659145766656823,1.3121261520214622,1.2555002353703189,0.09385182708501816,-0.9667310118675232,0.23795504868030548,-0.16388148069381714,-0.682114839553833,0.21632800996303558,-0.36672475934028625,0.5633346438407898,-0.12984663248062134
412,2.6988232335252635,1.3871019281708878,1.2935333963905558,0.0782611295580864,-0.9831755757331848,0.16504931449890137,-0.6910333633422852,-0.33200010657310486,0.2715229392051697,-0.131361722946167,0.061163127422332764,0.31264233589172363
413,2.958711929911304,1.3838562530184344,1.003344987778524,0.03379979357123375,-0.9825775027275085,0.18275372684001923,0.9671539664268494,-0.48656630516052246,0.5749296545982361,0.09156641364097595,-0.3492858409881592,0.0751349925994873
414,3.1162532656152546,1.292047035366665,0.823708833997532,0.006971477530896664,-0.9614003300666809,0.27506527304649353,0.35024112462997437,-0.1992553174495697,0.11349986493587494,0.12690913677215576,-0.29432177543640137,-0.3853100538253784
415,3.0485411713536505,1.3416427443895311,0.8337270158551903,0.021106459200382233,-0.9738590121269226,0.22617055475711823,-1.6176083087921143,-0.8183349967002869,0.20450182259082794,0.09116771817207336,0.1841403841972351,-0.13490772247314453
416,2.9628067774399276,1.480227547724567,0.8888611637454034,0.016084255650639534,-0.9959014654159546,0.08900320529937744,-0.37154850363731384,0.1656845062971115,-0.353347510099411,0.09991306066513062,0.6978973150253296,0.15380990505218506
417,2.6273452026190793,1.4626307830378673,1.2704897819528231,0.053101394325494766,-0.9941558241844177,0.09399334341287613,0.34185829758644104,0.7656985521316528,-0.3061502277851105,-0.14755329489707947,-0.1792452335357666,0.13278283178806305
418,2.7072835079535347,1.421654396941305,1.3125755778167887,0.06252434104681015,-0.9888989329338074,0.13479521870613098,1.2549246549606323,1.2034409046173096,-0.09512955695390701,-0.08098748326301575,-0.6168444752693176,-0.038725852966308594
419,3.0470279444192467,1.3142735888079011,1.1066373250635453,0.02395712211728096,-0.9672780632972717,0.25258541107177734,0.20303913950920105,0.27166512608528137,0.5150517225265503,0.6198722720146179,-0.10236316919326782,-0.17148491740226746
420,2.9032948803334007,1.2979431985857168,1.2396279030135477,0.06361062079668045,-0.9630059599876404,0.2618655264377594,0.3780168294906616,-0.5568677186965942,-0.1184503436088562,-0.20174843072891235,0.37459641695022583,-0.16446861624717712
421,2.8564068821068207,1.3085664407480948,1.246270767697134,0.07293209433555603,-0.9658142924308777,0.24876442551612854,-0.7548313736915588,-0.11930181831121445,-0.0026103085838258266,-0.26433834433555603,0.5605713129043579,-0.09980806708335876
422,2.8010075259429827,1.389605711408232,1.3014113713694144,0.060194019228219986,-0.9836298227310181,0.1698499172925949,-0.30695608258247375,0.04860494285821915,0.26483672857284546,-0.08752253651618958,-0.32693225145339966,0.39420652389526367
423,3.0781090520262793,1.3590143836610107,0.9909077756265344,0.013335459865629673,-0.9776579141616821,0.20977921783924103,1.2333266735076904,-0.31264328956604004,0.4708670377731323,-0.031249282881617546,-0.5924868583679199,-0.13372942805290222
424,3.1236803304124274,1.2981856830250402,0.9059676108102953,0.00482257641851902,-0.9630712866783142,0.2692035138607025,-0.054366953670978546,-1.0493416786193848,0.028626699000597,0.16998213529586792,-0.2363153100013733,-0.27506279945373535
425,3.078329157647459,1.399420219287548,0.84449134221286,0.01078162994235754,-0.985351026058197,0.1701967567205429,-1.439683198928833,-0.8555572032928467,0.22562403976917267,0.12654748558998108,0.5371089577674866,0.0931241363286972
426,2.8804502383596082,1.468161328399806,0.9970653354525586,0.026452256366610527,-0.9947376251220703,0.09898123145103455,-0.29430314898490906,-0.12802205979824066,-0.4736807644367218,0.026556789875030518,0.4360066056251526,0.024798035621643066
427,2.478683203916682,1.4682653823016345,1.4258630960461123,0.0629887655377388,-0.9947482943534851,0.0806744247674942,-0.23306353390216827,1.1013498306274414,-0.28080105781555176,-0.2576451301574707,-0.3728511929512024,0.281752347946167
428,2.7280003729886784,1.4208242979394443,1.294440308882405,0.06004836782813072,-0.9887752532958984,0.13681286573410034,1.263612151145935,1.3352432250976562,-0.16271063685417175,0.02479049563407898,-0.5397739410400391,-0.09498846530914307
429,2.99033514071205,1.3499739120684728,1.1365541964439563,0.033004023134708405,-0.9757176637649536,0.21653100848197937,0.17736077308654785,0.4051602780818939,-0.2802683711051941,0.6637275218963623,0.10485285520553589,-0.09345366060733795
430,2.7798909585478393,1.3307315659277539,1.346248221905906,0.08413713425397873,-0.9713225960731506,0.22238093614578247,0.08760175853967667,-0.346678763628006,-0.32659605145454407,-0.14646926522254944,0.4904876947402954,-0.09121635556221008
431,2.672942409872773,1.3655409053162892,1.4341987888317846,0.09206072986125946,-0.9790089726448059,0.18184152245521545,-0.893563449382782,0.2355388104915619,0.04785512015223503,-0.25151509046554565,0.5122120976448059,0.05351005494594574
432,2.580096433170579,1.4276890827569455,1.5256219406125602,0.0759374350309372,-0.9897776246070862,0.12072036415338516,0.14235742390155792,-0.2860524654388428,0.6676628589630127,-0.10755367577075958,-0.373640775680542,0.40776774287223816
433,3.068579236176679,1.3730080489765015,0.9523047544438029,0.014334519393742085,-0.9805035591125488,0.19597820937633514,1.4375966787338257,-0.37700924277305603,0.3960067927837372,-0.022925227880477905,-0.6546740531921387,-0.11277198791503906
434,3.034576484013496,1.3331661315610197,0.9450498381741446,0.025143587961792946,-0.9718985557556152,0.23405368626117706,-0.5661799907684326,-0.5962101221084595,-0.10103746503591537,0.1725950539112091,-0.14701330661773682,-0.40014562010765076
435,2.9233975787002646,1.4471142792501335,0.9867966233530702,0.0267048217356205,-0.9923611283302307,0.12044118344783783,-1.656874418258667,-0.7479508519172668,0.3779333829879761,0.08184617757797241,0.5846158266067505,0.15113472938537598
436,2.3086318395541845,1.519918715103677,1.5464435951384263,0.03762749210000038,-0.998706042766571,0.03420821577310562,-0.14106497168540955,0.38123536109924316,-0.4509746730327606,-0.07858208566904068,0.7395661473274231,0.09192096441984177
437,2.270796317461055,1.4493454976016646,1.5964155470799812,0.09266133606433868,-0.9926339387893677,0.07804756611585617,0.6457013487815857,1.5096195936203003,-0.5116997361183167,-0.4884743094444275,-1.5680654048919678,0.641633152961731
438,2.5994778295336376,1.3773374474773359,1.4280696462777833,0.09919386357069016,-0.9813451170921326,0.16468960046768188,0.9230831265449524,1.3697195053100586,-0.2585460841655731,0.24240465462207794,-0.555520236492157,-0.42669832706451416
439,2.87180174203305,1.3309710161212522,1.220492295845474,0.0633096694946289,-0.9713794589042664,0.2289406955242157,0.44705691933631897,-0.06417270004749298,-0.25002798438072205,0.3383321762084961,0.32225537300109863,-0.08312773704528809
440,2.806818027784537,1.27170572340164,1.2215055985390166,0.09680959582328796,-0.9556048512458801,0.2782936990261078,0.36165207624435425,-1.1986753940582275,0.12043562531471252,-0.21089956164360046,0.5811083912849426,-0.3416175842285156
441,2.742755395129046,1.3151792986862636,1.2225678576112469,0.09819044917821884,-0.9675074815750122,0.23299719393253326,-1.430761456489563,0.4828008711338043,0.24388720095157623,-0.2966462969779968,0.21550869941711426,0.20670005679130554
442,2.7868316406590643,1.4021530095886083,1.1586260798107249,0.05830402672290802,-0.9858133792877197,0.15739412605762482,1.232103705406189,-0.16929732263088226,0.8165974020957947,-0.07563798874616623,-0.2704123258590698,0.4918825626373291
443,3.0688953387823763,1.2553335395628038,0.8397527140616099,0.022534940391778946,-0.9506528973579407,0.3094368577003479,0.3708362877368927,-0.059714317321777344,0.2662745714187622,0.018312841653823853,-0.6439820528030396,-0.4274330139160156
444,3.0743266986692372,1.2859942032720144,0.7765320042473243,0.018885308876633644,-0.9597172737121582,0.2803322374820709,-1.0591477155685425,-0.6926921010017395,0.11221130937337875,0.1080983579158783,0.3171238899230957,-0.23901140689849854
445,3.0689976692794136,1.4468646565919514,0.7032309858801232,0.00896582379937172,-0.9923303127288818,0.12328769266605377,-1.1963558197021484,-0.20006495714187622,-0.05680830776691437,0.09348168969154358,0.7217006087303162,0.14969202876091003
446,2.560349343717225,1.4736168208041212,1.1970821126480589,0.05327408388257027,-0.9952818155288696,0.0810934379696846,0.19326479732990265,0.5686222314834595,-0.5824363231658936,-0.12352555990219116,-0.058658063411712646,0.2030099630355835
447,2.598457396044712,1.4395274548319539,1.2792008826953059,0.06764781475067139,-0.9913966059684753,0.1120554506778717,0.900424599647522,1.2365137338638306,-0.05268559232354164,-0.2086542844772339,-0.5713322162628174,0.2250417321920395
448,3.0083709132777368,1.3194543698962988,0.9875850375224601,0.03303489834070206,-0.9685795307159424,0.24650055170059204,0.7313088178634644,0.8103325366973877,0.5009693503379822,0.39524880051612854,-0.18225359916687012,-0.16607153415679932
449,2.9413084278829023,1.297843084193764,1.023396029106567,0.053631700575351715,-0.9629789590835571,0.2641878128051758,0.25233039259910583,-0.7638760209083557,-0.2991437017917633,-0.03707590699195862,0.2894255518913269,-0.15968036651611328
450,2.8308358118997385,1.280992265173358,1.0491370751652451,0.08738084137439728,-0.9582998752593994,0.27207696437835693,-0.3953225016593933,-0.7515603303909302,0.08267468959093094,-0.30336901545524597,0.5136435031890869,-0.19634771347045898
451,2.7280898064298498,1.3655753738721421,1.1223521691991294,0.08188403397798538,-0.9790160059928894,0.18660812079906464,-0.8546532988548279,-0.19035358726978302,0.27605023980140686,-0.12822496891021729,0.02691340446472168,0.36594319343566895
452,2.9752686523063545,1.3654971661440973,0.8213264059581382,0.03375059738755226,-0.9790000319480896,0.2010461390018463,1.2989962100982666,-0.55293208360672,0.5574028491973877,0.11488524079322815,-0.5407141447067261,-0.053280025720596313
453,3.0880717356725205,1.273219077426238,0.651348734108288,0.015685131773352623,-0.9560496807098389,0.2927855849266052,0.24618971347808838,-0.910947322845459,0.2555304765701294,0.17294400930404663,-0.2879689931869507,-0.44879135489463806
454,3.0115982195194118,1.3619192374455649,0.6275128229875326,0.02688003145158291,-0.9782643914222717,0.20561227202415466,-1.6928428411483765,-0.6128436923027039,0.2972548305988312,0.07411789894104004,0.35028892755508423,0.10154712200164795
455,2.8176674238467165,1.4724402418950289,0.8013690735835505,0.031255267560482025,-0.9951669573783875,0.09309051185846329,-0.23835399746894836,0.041700977832078934,-0.5062368512153625,0.06025169417262077,0.6603891253471375,0.13527250289916992
456,2.3592859858445934,1.4542743464802559,1.2936947538324712,0.08195312321186066,-0.9932190179824829,0.082461416721344,0.0845130980014801,0.8499321937561035,-0.377399206161499,-0.21658141911029816,-0.29395145177841187,0.22134113311767578
457,2.447405981153414,1.4221600567197716,1.3359248724603294,0.09474240988492966,-0.9889739751815796,0.11381849646568298,0.9335779547691345,0.8607281446456909,0.0720118060708046,-0.19839537143707275,-0.745431661605835,-0.11235366761684418
458,2.8950161450085323,1.3272082554689266,0.984606915878404,0.058870069682598114,-0.9704788327217102,0.2338913232088089,0.5669821500778198,0.19440844655036926,0.6174248456954956,0.5775282382965088,-0.1468307375907898,-0.16391444206237793
459,2.870838189346759,1.3148704294750506,0.9920817201407796,0.06770484894514084,-0.9674293398857117,0.24391943216323853,0.2563914954662323,-0.26809272170066833,-0.0496811643242836,-0.10701148957014084,0.3994970917701721,-0.10152444243431091
460,2.8237409286165946,1.2816512658499286,0.9860978407465268,0.0891118049621582,-0.9584879875183105,0.27085086703300476,-0.25001397728919983,-0.5506576895713806,0.029518764466047287,-0.3023076057434082,0.502280592918396,-0.19583866000175476
461,2.7330850092186987,1.3664199866946678,1.0507375453809615,0.08062274754047394,-0.9791877269744873,0.1862567663192749,-0.6943998336791992,-0.4993288218975067,0.3243780732154846,-0.14097127318382263,-0.01432734727859497,0.2940899133682251
462,2.9990310833644815,1.351268947825815,0.7164795022144769,0.030940406024456024,-0.9760004878044128,0.21555958688259125,1.1237367391586304,-0.6159302592277527,0.47410848736763,0.07011856138706207,-0.7089361548423767,-0.041090577840805054
463,3.0088334364479996,1.3013957821684974,0.6318274487240433,0.03523056209087372,-0.963930606842041,0.26381099224090576,0.1550067663192749,-1.0612653493881226,0.037789326161146164,0.11189467459917068,-0.29812365770339966,-0.35899537801742554
464,2.857145009703512,1.3813282437069399,0.716034791941732,0.05285251885652542,-0.9821045398712158,0.18076904118061066,-1.581202745437622,-0.5966265201568604,0.36233410239219666,0.048404812812805176,0.3324615955352783,-0.04430973529815674
465,2.3580146864712552,1.5022815189433283,1.1759438140330174,0.048321016132831573,-0.9976537823677063,0.04849724471569061,-0.27049151062965393,0.04011606425046921,-0.3799930512905121,-0.026012666523456573,0.6382178068161011,0.16749095916748047
466,2.1758458365624627,1.4593609086147896,1.3901667640386153,0.09146459400653839,-0.9937974810600281,0.06325466930866241,0.3546193838119507,0.7469742298126221,-0.36073291301727295,-0.2089572548866272,-0.3091201186180115,0.0899587944149971
467,2.405769067217352,1.420954800814406,1.2998153298220718,0.10019780695438385,-0.98879474401474,0.11065954715013504,1.3607256412506104,1.4193850755691528,-0.18914780020713806,-0.13495729863643646,-0.6726738810539246,0.032879963517189026
468,2.8509621998923804,1.3379071353105088,0.9744601565873898,0.06613428890705109,-0.9730036854743958,0.22111132740974426,0.23945105075836182,0.45942139625549316,0.5587392449378967,0.6589328050613403,0.0022699832916259766,-0.08141708374023438
469,2.7472116905787196,1.2963365238294748,1.0831992838351467,0.10413889586925507,-0.9625717401504517,0.250222384929657,0.3086678385734558,-0.48400676250457764,-0.2794514000415802,-0.15243291854858398,0.42738473415374756,-0.19391733407974243
470,2.620728134814073,1.3119479442138597,1.1617791999611065,0.1273770034313202,-0.96668541431427,0.22202318906784058,-0.9860653877258301,-0.037373900413513184,-0.002849551849067211,-0.2986721992492676,0.4363052248954773,-0.0018998533487319946
471,2.5434488966154483,1.3860820012409951,1.2418081259658522,0.1034240648150444,-0.9829887747764587,0.15177832543849945,0.3710455596446991,-0.14257478713989258,0.6111630797386169,-0.084808349609375,-0.13636547327041626,0.40861594676971436
472,2.9335580262812897,1.3292596718227259,0.8438578650501409,0.04940268397331238,-0.9709715843200684,0.2340376228094101,0.6569266319274902,0.2217915952205658,0.2108318954706192,0.08812478184700012,-0.7269043922424316,-0.11257769167423248
473,2.9936625523623173,1.3124089570479303,0.7411873891013363,0.03766172379255295,-0.9668033123016357,0.2527315318584442,-0.4477055072784424,-0.8525445461273193,-0.033545371145009995,0.09331971406936646,-0.12407815456390381,-0.30319222807884216
474,2.8810596576756775,1.4208213761091204,0.7927922681524611,0.0384882390499115,-0.988774836063385,0.1443711370229721,-1.0731104612350464,-0.21592487394809723,0.12951458990573883,0.0955449640750885,0.5837302803993225,0.2009657472372055
475,2.5664380529496262,1.4419955923462116,1.1144835691462542,0.06986948102712631,-0.9917166233062744,0.10777918994426727,-0.18917451798915863,0.17374156415462494,-0.679286777973175,-0.02314707636833191,0.3205130696296692,0.0033353567123413086
476,2.2975689113245457,1.4197832418134495,1.4552890475645037,0.1124267578125,-0.9886191487312317,0.09996110945940018,-0.22795119881629944,1.7537740468978882,-0.4232069253921509,-0.3202362060546875,-0.38407665491104126,0.43975746631622314
477,2.675702719766392,1.3707929187620582,1.2175684260513533,0.08924700319766998,-0.9800658822059631,0.17749787867069244,0.9643188118934631,1.1243544816970825,0.34914490580558777,0.2558152675628662,-0.43305039405822754,-0.20761874318122864
478,2.933168329791497,1.3120902684552878,0.9641483398257148,0.05293601378798485,-0.9667218327522278,0.2502935230731964,0.2614859640598297,-0.6069673895835876,-0.15646307170391083,0.16888099908828735,-0.06597781181335449,-0.12855887413024902
479,2.8867095622436905,1.2905606882385745,1.0162928567606926,0.06973513960838318,-0.960990309715271,0.2676459848880768,0.11170598864555359,0.6499351859092712,-0.14548297226428986,-0.08737430721521378,0.43561506271362305,-0.004004746675491333
480,2.917319279351376,1.3123369048632443,1.0210025386239638,0.05684293434023857,-0.9667848944664001,0.24919001758098602,-0.5617667436599731,0.1381382793188095,0.03484157845377922,-0.14787688851356506,0.3692050576210022,-0.01566961407661438
481,2.941349663332804,1.360890623198544,0.9987898132125574,0.041445884853601456,-0.9780505895614624,0.20420411229133606,0.17774245142936707,0.12023342400789261,0.5399810671806335,-0.10762324929237366,-0.2621532678604126,0.33847475051879883
482,3.1143873962777398,1.3073445108274928,0.8134313913199532,0.007083766162395477,-0.965496838092804,0.26031801104545593,0.9650900363922119,-0.04555506631731987,0.20449072122573853,0.027416346594691277,-0.4659300446510315,-0.2073701024055481
483,3.122620168131831,1.299145281376893,0.7683282027556,0.005090435966849327,-0.9633291959762573,0.2682740390300751,-0.6058865785598755,-1.0597666501998901,0.15679877996444702,0.13110953569412231,-0.027942776679992676,-0.21061110496520996
484,3.093149851452075,1.4141690456934795,0.7020736782433282,0.007553486619144678,-0.987758994102478,0.1558038890361786,-0.7939824461936951,-0.28316059708595276,0.18262216448783875,0.04069480299949646,0.5700192451477051,0.18837331235408783
485,2.991875388430757,1.4441291628017743,0.762086991790487,0.01884300448000431,-0.9919884204864502,0.1249154731631279,-0.18551528453826904,-0.2957790493965149,-0.2471190094947815,-0.09683069586753845,0.3062889575958252,-0.037513136863708496
486,2.970897910129764,1.4418820872643812,0.8052353163566021,0.021837711334228516,-0.9917020797729492,0.1266893446445465,0.03434146195650101,1.4185363054275513,0.21953605115413666,-0.3322014808654785,-0.5901155471801758,0.5048108100891113
487,-3.079265851847519,1.3484090853974076,0.6798723869332902,-0.013737834990024567,-0.9753736853599548,0.22013068199157715,1.1906875371932983,1.2573672533035278,0.16238166391849518,0.26965823769569397,-0.18615585565567017,-0.17876410484313965
488,-2.9772003640160567,1.298985821653682,0.6576605311076429,-0.04393692687153816,-0.9632863998413086,0.26485681533813477,-0.1435975432395935,-0.04038332775235176,-0.6343539953231812,0.33766859769821167,0.09583938121795654,-0.08993002772331238
489,-3.0872833087642975,1.3047674077996758,0.7619900244147007,-0.014271046966314316,-0.96482253074646,0.2625149190425873,0.12588796019554138,0.14934366941452026,-0.10339504480361938,-0.18249103426933289,0.4153228998184204,-0.00454983115196228
490,-3.118579306082957,1.3197255412515785,0.7932924896176649,-0.005716965068131685,-0.9686469435691833,0.24837566912174225,-0.6500210762023926,-0.2851693332195282,-0.21328631043434143,-0.1478779911994934,0.30804818868637085,0.027472734451293945
491,-3.0926634362834213,1.3588382535230854,0.7257972210992328,-0.010289345867931843,-0.9776208400726318,0.21012257039546967,0.10303308814764023,-0.18530482053756714,0.6152731776237488,-0.04278072714805603,-0.2117100954055786,0.32970282435417175
492,-3.0443384134743536,1.3138281291076588,0.6514585807854814,-0.024678193032741547,-0.967164933681488,0.25294873118400574,1.0582174062728882,-0.5618675947189331,0.04564966633915901,0.008900612592697144,-0.43298155069351196,-0.21768569946289062
493,-3.0688851345104218,1.2750828564107863,0.6045722621074647,-0.021169954910874367,-0.9565944671630859,0.29065272212028503,-0.5703691840171814,-0.7910146713256836,0.09691208600997925,0.053777992725372314,-0.19193458557128906,-0.4197268486022949
494,-3.065110361128412,1.3961221900927414,0.5380726786170392,-0.013278675265610218,-0.9847832322120667,0.17327898740768433,-1.0445748567581177,-0.18333257734775543,-0.038050923496484756,0.13295334577560425,0.5321007966995239,0.2650601863861084
495,3.0366218368496734,1.4357657841317635,0.7012790769484497,0.01410527341067791,-0.9908972382545471,0.1338793784379959,-0.42568206787109375,0.06776890903711319,-0.5421251058578491,-0.00653690192848444,0.3733130693435669,-0.13625968992710114
496,2.868841364472283,1.430674749157275,0.9193620178108283,0.037622854113578796,-0.9901990294456482,0.1345006674528122,0.2796100378036499,1.1251699924468994,0.03858382999897003,-0.4278969168663025,-0.4218645691871643,0.25502562522888184
