,attitude.roll,attitude.pitch,attitude.yaw,gravity.x,gravity.y,gravity.z,rotationRate.x,rotationRate.y,rotationRate.z,userAcceleration.x,userAcceleration.y,userAcceleration.z
0,1.1138030797861587,-1.4286552381987223,-1.4736976378696232,0.12712597846984863,0.9899149537086487,-0.06250905245542526,-0.48881131410598755,1.180042028427124,-0.1636379212141037,0.04508471488952637,-0.20369058847427368,0.48687124252319336
1,0.05280521061146543,0.33190884378837565,-2.4185919158568163,0.04990001395344734,-0.3258482813835144,-0.9441042542457581,-0.9837688207626343,0.26743805408477783,-0.8029376864433289,-0.11621471494436264,-0.009127914905548096,-0.21017730236053467
2,0.019988783572593958,0.2883811791984266,-2.4423836636025804,0.01916208118200302,-0.28440061211586,-0.9585140347480774,0.07260069996118546,-0.26498404145240784,0.3022638261318207,-0.15769663453102112,0.07814759016036987,0.09842187166213989
3,0.01078869634118323,0.30665074187304603,-2.467900174442045,0.010285203345119953,-0.3018673062324524,-0.9532944560050964,0.11568671464920044,-0.025368116796016693,-0.3222828209400177,0.013259105384349823,-0.00428500771522522,0.47340553998947144
4,0.00821339595037507,0.30617731043703955,-2.499622717835086,0.007831325754523277,-0.30141595005989075,-0.9534605741500854,-0.3300318121910095,-0.07135099172592163,-0.21519805490970612,0.016674287617206573,-0.13056036829948425,0.11581414937973022
5,0.006356143295319944,0.3762011227363984,-2.484468280274895,0.00591159937903285,-0.3673899173736572,-0.9300482273101807,1.1486560106277466,0.03197284787893295,0.5436399579048157,0.0012752935290336609,-0.08382773399353027,-0.14192748069763184
6,-0.004422200775702587,0.3916792298096264,-2.502990827230269,-0.004087291192263365,-0.3817410171031952,-0.9242603182792664,-0.17695008218288422,-0.6364420056343079,-0.40202993154525757,0.06069739907979965,0.0023617446422576904,-0.44451409578323364
7,-0.03823912396363189,0.4227584845802868,-2.5332306798161315,-0.03486407920718193,-0.4102776348590851,-0.9112939834594727,-0.3506171405315399,0.7875210642814636,0.059860508888959885,0.05877459794282913,0.16961604356765747,0.17534732818603516
8,-0.013656824791718803,0.41187698405948003,-2.5413939130634056,-0.012514329515397549,-0.4003300368785858,-0.9162855744361877,0.7407618761062622,-0.5442270636558533,0.3340533375740051,0.09674284607172012,0.19934126734733582,0.17020708322525024
9,-0.06560991957163849,0.463662863326994,-2.530033602311922,-0.05864075571298599,-0.44722723960876465,-0.8924959897994995,-0.6713830828666687,1.2824254035949707,0.24935996532440186,-0.07081480324268341,-0.06449151039123535,0.4091891050338745
10,-0.016037950509714946,0.48412086474913235,-2.567398146384801,-0.014194332994520664,-0.46543043851852417,-0.8849706649780273,0.8843766450881958,-0.6820266842842102,-0.5903614163398743,-0.10464112460613251,-0.09047776460647583,-0.18982791900634766
11,-0.010192037237920882,0.47285181302046075,-2.6353861198740707,-0.009073539637029171,-0.45542702078819275,-0.8902269005775452,-0.5030471086502075,0.2503208518028259,-0.4757631719112396,-0.13254328072071075,0.014921069145202637,-0.14988845586776733
12,-0.00628407450344282,0.42737026191022637,-2.6420512114139405,-0.0057188402861356735,-0.41447901725769043,-0.9100409150123596,0.3402075171470642,-0.3075743019580841,0.14230868220329285,-0.19293533265590668,0.07240751385688782,-0.02378171682357788
13,0.020058924232828953,0.4036027838020726,-2.6429794606353196,0.018445992842316628,-0.39273419976234436,-0.919467031955719,-0.48727595806121826,0.30046698451042175,-0.12117238342761993,0.005830742418766022,0.08731427788734436,0.3653746247291565
14,-0.003589537837138322,0.3645041725657385,-2.655593121870683,-0.0033537002746015787,-0.35648608207702637,-0.934294581413269,-1.2210758924484253,0.45791637897491455,-0.19756388664245605,0.012310609221458435,-0.08463025093078613,0.28176772594451904
15,0.047414193309598576,0.2982862213643994,-2.613680809892388,0.045303475111722946,-0.2938825488090515,-0.9547673463821411,0.24761895835399628,0.18694083392620087,0.527509868144989,-0.0036012083292007446,-0.1254900097846985,-0.3658198118209839
16,0.015358870662082575,0.2911277360609945,-2.5523000242657234,0.01471200305968523,-0.28703269362449646,-0.9578077793121338,-0.36290910840034485,-0.7468135952949524,-0.10020388662815094,-0.047640472650527954,-0.03051796555519104,-0.5656907558441162
17,0.00013656958443922554,0.30456446374743124,-2.533439028898029,0.00013028433022554964,-0.29987770318984985,-0.953977644443512,-0.19570469856262207,0.28589674830436707,0.16948696970939636,-0.00283108651638031,0.06956154108047485,0.11488157510757446
18,0.04706672521721089,0.2558412448614736,-2.524482136516398,0.0455179288983345,-0.25305935740470886,-0.9663793444633484,-0.1779046654701233,0.6883617043495178,0.4374334514141083,0.0309286005795002,0.09667205810546875,0.28450989723205566
19,0.09518770637770159,0.2744708367630286,-2.462235680737988,0.09148640930652618,-0.27103760838508606,-0.9582112431526184,0.19685067236423492,0.3197377324104309,0.5050450563430786,0.06708292663097382,0.02431824803352356,0.21678674221038818
20,0.10588163839463884,0.2591684200841805,-2.410735481180539,0.1021544337272644,-0.25627684593200684,-0.9611902236938477,-0.20571602880954742,-0.013366488739848137,0.7487229704856873,0.10156566649675369,0.025258779525756836,-0.11473751068115234
21,0.0682243964261359,0.16205140460390416,-2.379743820284785,0.06727832555770874,-0.1613430678844452,-0.9846024513244629,-1.3435276746749878,0.4179685413837433,0.2861545979976654,-0.10165638476610184,0.09527252614498138,-0.33642715215682983
22,0.07589915541092049,0.1271905107768314,-2.2958664622615594,0.07521379739046097,-0.12684784829616547,-0.989066481590271,0.6893996596336365,-0.35250458121299744,1.1447319984436035,-0.30699479579925537,0.20210419595241547,-0.023460984230041504
23,0.08948464068172744,0.1379439842979221,-2.260505393429282,0.08851636946201324,-0.13750691711902618,-0.986537754535675,-0.5060638785362244,0.8597589731216431,0.06756407022476196,-0.10321058332920074,-0.15035012364387512,0.24807339906692505
24,0.11407055159671489,0.13312809596138606,-2.257979145045945,0.11281616985797882,-0.1327352076768875,-0.9847100377082825,0.24197275936603546,-0.8747960329055786,0.43792247772216797,-0.05303224176168442,0.05898948013782501,0.19482362270355225
25,0.012375092257157183,0.1813381428835417,-2.204292810556599,0.012171870097517967,-0.18034593760967255,-0.9835279583930969,0.20657438039779663,-0.5553419589996338,-0.06233390420675278,-0.23313438892364502,-0.20654065907001495,0.030875980854034424
26,0.12236578134481335,0.06910080644190374,-2.203501173976804,0.12176933884620667,-0.06904582679271698,-0.990153968334198,-1.8737473487854004,1.5560353994369507,-0.2775813937187195,0.18468818068504333,0.020141415297985077,-0.4520151615142822
27,0.20875903111679972,0.03519023958471226,-2.1513271355461727,0.2071177214384079,-0.035182975232601166,-0.9776831865310669,-0.2259427309036255,-0.056617822498083115,0.856705904006958,0.1889851838350296,0.21804431080818176,-0.022942423820495605
28,0.22901128782782573,0.02948680076548791,-2.0359934814583127,0.22691605985164642,-0.029482528567314148,-0.9734679460525513,-0.5393903255462646,0.2514967620372772,1.0427613258361816,-0.13978837430477142,0.05491892993450165,0.20576781034469604
29,0.22696092595618078,0.09662045890300527,-1.972548742230426,0.22396792471408844,-0.0964701920747757,-0.9698102474212646,1.872829556465149,-0.642826497554779,0.9795495867729187,-0.14996278285980225,-0.1188923567533493,-0.05939507484436035
30,0.26854405737430137,0.08448103172646078,-1.8975292466798195,0.2643817067146301,-0.08438057452440262,-0.960719645023346,-0.6711742281913757,1.4223105907440186,0.5920593738555908,0.03585022687911987,0.02188057452440262,-0.09291499853134155
31,0.3104336848468762,0.05824161610634494,-1.9097167507731032,0.3049536645412445,-0.05820869654417038,-0.9505866765975952,-1.141478180885315,0.42347589135169983,-0.6301911473274231,0.008568674325942993,-0.14799857139587402,-0.2632805109024048
32,0.3282011743646138,-0.07841119513133088,-1.8915302408943908,0.3213503360748291,0.0783308669924736,-0.9437151551246643,-0.1538710594177246,0.24655002355575562,-0.02753773331642151,-0.0800631046295166,0.2654038667678833,-0.0867108702659607
33,0.3657939908131112,-0.020564450474724445,-1.846015632628029,0.35761523246765137,0.020563000813126564,-0.933642566204071,0.06182422861456871,0.4419093430042267,1.0922874212265015,-0.14647936820983887,-0.2741793394088745,0.3176910877227783
34,0.3789239096497089,-0.06651704884894458,-1.7723910200673207,0.3691028654575348,0.0664680078625679,-0.9270086884498596,0.018438462167978287,-0.3980494439601898,0.2878066897392273,-0.01282539963722229,-0.017411008477211,-0.07151120901107788
35,0.29871206736179645,0.06482097766984635,-1.743928470909049,0.29367148876190186,-0.06477559357881546,-0.9537091851234436,1.86008620262146,-1.2642796039581299,0.5311147570610046,0.07038792967796326,0.16830646991729736,-0.4243273138999939
36,0.2125918225261022,0.21162198952448352,-1.7226732136183298,0.20628711581230164,-0.2100459784269333,-0.9556810855865479,0.4506467878818512,-0.11909395456314087,0.4933491051197052,0.06200815737247467,0.1435176581144333,-0.21254706382751465
37,0.1982698622280344,0.21880320958663968,-1.6791348997023834,0.19227713346481323,-0.21706151962280273,-0.9570338726043701,-0.17675118148326874,0.2348385900259018,0.07573208212852478,-0.09036368131637573,0.21063758432865143,0.4083888530731201
38,0.25048130411561886,0.20471742519705433,-1.672836599760155,0.24269436299800873,-0.20329049229621887,-0.9485633373260498,-0.005844668485224247,0.490654855966568,-0.28311392664909363,-0.05173061788082123,0.24239878356456757,0.3944556713104248
39,0.3026827272076048,0.23716334603464645,-1.7299556275581687,0.2897382378578186,-0.2349463254213333,-0.9278210997581482,1.0741146802902222,0.2548317611217499,-0.45557501912117004,-0.2250409722328186,0.10028751194477081,0.3053845763206482
40,0.36048953692580465,0.2892037221949125,-1.789785763056253,0.33808383345603943,-0.28518909215927124,-0.8968648314476013,0.34783127903938293,1.0348588228225708,-0.4557528793811798,-0.015009492635726929,-0.07609325647354126,-0.06800943613052368
41,0.5172944327939771,0.35892600305622296,-1.8566333443782106,0.46301624178886414,-0.3512688875198364,-0.8137727975845337,1.6694492101669312,1.5798463821411133,0.22065749764442444,0.19298961758613586,-0.20827090740203857,-0.1813596487045288
42,0.6992824698588728,0.3909704605975695,-1.9071658389783932,0.5950973033905029,-0.3810858130455017,-0.7075541615486145,-0.5734350085258484,2.1224722862243652,-1.422059416770935,-0.05981898307800293,0.3583960235118866,-0.0400959849357605
43,0.9541423776642961,0.36727607439784027,-1.9884437088013907,0.7614102363586426,-0.35907450318336487,-0.5397405624389648,1.2199305295944214,1.254690170288086,1.0183027982711792,-0.17051368951797485,-0.011790364980697632,0.05658632516860962
44,1.0853771932582381,0.41403335487461196,-2.0975203519053434,0.8097459077835083,-0.40230515599250793,-0.4271557927131653,0.3079693019390106,0.885155439376831,-1.392466425895691,-0.2051469087600708,0.15468555688858032,0.09517031908035278
45,1.1260904709201427,0.3432766381563461,-2.0816598193292504,0.8500686883926392,-0.33657437562942505,-0.40509358048439026,-1.1060220003128052,-0.6951733231544495,0.177016481757164,0.14906150102615356,-0.25865575671195984,-0.33433201909065247
46,1.172101306365192,0.2864242811824644,-2.030276367841488,0.884023904800415,-0.2825239896774292,-0.3724001944065094,-0.9475110173225403,1.1202119588851929,-1.270880103111267,-0.11414176225662231,0.2245863974094391,-0.2489987313747406
47,1.1655619209449744,0.0745374618731638,-1.8319280719972746,0.916458249092102,-0.0744684636592865,-0.3931395411491394,-4.050382614135742,-0.09572336077690125,-2.067579746246338,-0.03738415241241455,0.6682642698287964,0.029034316539764404
48,1.2366870643921368,-0.3422565062188794,-1.680077878807504,0.8899098038673401,0.33561357855796814,-0.3089079260826111,-2.786299228668213,0.6048816442489624,-3.4742088317871094,0.1824015974998474,0.45097699761390686,-0.10576489567756653
49,1.3658721323684815,-0.6905103312555704,-1.6360830709855838,0.7547904849052429,0.6369307041168213,-0.15687696635723114,0.392371267080307,1.6091725826263428,-2.45027232170105,0.008606553077697754,-0.06582480669021606,-0.06385670602321625
50,1.5041374001468175,-0.9363865185617656,-1.7121319601068667,0.5913858413696289,0.8054216504096985,-0.03947963938117027,-0.0955083891749382,2.1283581256866455,-2.2058169841766357,0.3511342406272888,-0.04472529888153076,0.3735250234603882
51,1.8988953801299546,-1.2121725840412323,-1.6815528678257832,0.3322632610797882,0.9363807439804077,0.11310316622257233,0.08881218731403351,4.031195163726807,-2.2251908779144287,0.9690215587615967,-0.060404181480407715,0.12101244926452637
52,2.043130087183196,-1.2663363373549212,-1.8834152265522872,0.2669554054737091,0.9540089964866638,0.13638892769813538,0.7171375155448914,1.2734748125076294,1.8619352579116821,0.3334932327270508,0.022339999675750732,-0.1103116124868393
53,1.869334989281436,-1.0738552968644477,-1.9848095240929102,0.4556516706943512,0.8790450096130371,0.14022032916545868,-1.2946394681930542,-2.243612289428711,1.690205693244934,-0.06473669409751892,0.13119375705718994,-0.1730877012014389
54,1.8471374915464362,-0.8782578825619467,-1.8966446695552166,0.614268958568573,0.7696276903152466,0.17420490086078644,-1.0412884950637817,-0.4267987012863159,1.2540785074234009,-0.30631595849990845,-0.34056568145751953,-0.2291516810655594
55,1.7838787431150382,-0.7546718414607225,-1.7855906105432742,0.712020754814148,0.6850496530532837,0.1540578156709671,-0.0564580075442791,-1.598657250404358,1.2604119777679443,-0.06761151552200317,-0.5692811608314514,-0.08800242841243744
56,1.572290039232715,-0.5047166147871177,-1.9008071175703356,0.8753106594085693,0.48355939984321594,0.0013074633898213506,1.3546918630599976,-1.2704342603683472,3.1487855911254883,0.39147400856018066,-0.038429975509643555,-0.26891613006591797
57,1.4218782251356197,-0.3703519253632938,-1.8443425705422303,0.921882688999176,0.3619435131549835,-0.13830894231796265,-0.9777263402938843,-0.4327479600906372,1.1937648057937622,0.4506149888038635,0.6943767070770264,-0.029263094067573547
58,1.4530627756262842,-0.3693463114241007,-1.6849190922268547,0.9261077642440796,0.36100590229034424,-0.10954054445028305,-0.49399781227111816,0.03283657506108284,1.1203498840332031,0.3923736810684204,-0.49975407123565674,0.08755260705947876
59,1.4716086635944978,-0.2617664023057333,-1.6471548914946301,0.9611868262290955,0.2587871849536896,-0.09565176069736481,-0.3225864768028259,0.8223435282707214,0.15674357116222382,-0.3612569570541382,0.18718144297599792,0.026300549507141113
60,1.5666292584937398,-0.22740512608310867,-1.5725808924100124,0.9742463231086731,0.22545021772384644,-0.004059774335473776,-0.4420580267906189,1.0583300590515137,-0.5976485013961792,-0.11038511991500854,0.03516995906829834,0.018097877502441406
61,1.663929636251441,-0.34906194139748087,-1.6117742645790605,0.9356216192245483,0.34201645851135254,0.08739035576581955,0.7951085567474365,0.6809029579162598,-1.8390233516693115,-0.00439298152923584,-0.06189560890197754,-0.3027987480163574
62,1.5544718207476858,-0.45819186787260585,-1.7457146457471902,0.8967341184616089,0.44232720136642456,-0.014640042558312416,1.1435467004776,-2.5546250343322754,1.4801453351974487,0.8371829986572266,-0.3048456013202667,-0.09290391206741333
63,1.2558234798657657,-0.2926637351329337,-1.7669405151953481,0.9103754162788391,0.2885037064552307,-0.2966179847717285,1.5854077339172363,-0.9341979622840881,1.1457765102386475,0.012628734111785889,0.4896182417869568,0.23250055313110352
64,1.219494710316029,-0.3952520668795622,-1.8119342163557632,0.8665339946746826,0.385040819644928,-0.3175883889198303,0.10981051623821259,-3.1195051670074463,1.0658791065216064,0.005780398845672607,-0.5902563333511353,-0.3583149015903473
65,1.184964246508619,-0.47454310159221386,-1.7116218879040228,0.8241103291511536,0.45693209767341614,-0.33474624156951904,-1.755313754081726,-1.3783564567565918,-1.0643601417541504,-0.6316971182823181,0.037681519985198975,0.33489885926246643
66,1.12855942680215,-0.6107571113757659,-1.6649240093545694,0.7404029369354248,0.5734878778457642,-0.350592702627182,1.5205869674682617,0.43046748638153076,1.7949905395507812,1.2246239185333252,0.15717923641204834,-1.2550592422485352
67,1.1159866997562655,-0.6117978336829969,-1.664593705844451,0.7354000210762024,0.5743401050567627,-0.3596112132072449,2.6449131965637207,-2.147617816925049,-2.0017249584198,0.6098300814628601,0.2319343090057373,-0.7076342105865479
68,1.3607078451747285,-0.8052199549673513,-1.5304167788519303,0.6777162551879883,0.72098308801651,-0.14451278746128082,-2.5298445224761963,-0.28277331590652466,-1.2965258359909058,-0.6222658753395081,-0.023000359535217285,0.6389433145523071
69,1.8266222436562187,-1.2059098412774085,-1.0907845599339372,0.3452296555042267,0.93416428565979,0.09029723703861237,-2.78483247756958,1.160337209701538,-5.803465366363525,-0.030303508043289185,-0.15993332862854004,0.3736919164657593
70,2.8672894081296136,-1.2391692407927657,-0.15882467471169842,0.08819251507520676,0.9455138444900513,0.31341007351875305,-0.8595630526542664,4.391913414001465,-0.12472908198833466,0.13255639374256134,0.05865192413330078,0.19414308667182922
71,-2.8437506401320434,-1.1840254568786728,0.1633745308204686,-0.11069224029779434,0.9261319041252136,0.3605923354625702,0.21688877046108246,1.8870015144348145,-0.5677776336669922,0.6702167987823486,0.4317781329154968,-0.5216792821884155
72,-2.8450552384677357,-1.3163864263237741,0.19661763928658998,-0.07354193180799484,0.9678120017051697,0.24068991839885712,4.026928424835205,-0.33789438009262085,0.5387301445007324,0.16761237382888794,0.4978709816932678,-0.7847572565078735
73,0.0020365444546858007,-1.4758978236022673,3.1110744203851732,0.00019297348626423627,0.9955005049705505,-0.09475522488355637,2.7815141677856445,1.1744335889816284,-1.2169685363769531,-0.2763770520687103,0.9795665740966797,0.18853574991226196
74,0.1338494429693314,-1.3065125313238966,-3.0322835296497517,0.03485953435301781,0.9652798175811768,-0.25888124108314514,3.357174873352051,-2.502338171005249,1.4036760330200195,-0.1380852460861206,-0.3680051565170288,0.5988622903823853
75,0.0371942063602925,-1.1536684552757792,-2.820801855180683,0.015065246261656284,0.9142563343048096,-0.40485602617263794,-0.8962991833686829,-1.5186618566513062,0.7445923089981079,-0.3969927430152893,-1.2887375354766846,0.9026282429695129
76,0.06717849617567617,-1.2381591722558527,-2.737457750119168,0.02191975712776184,0.9451845288276672,-0.3258002996444702,-0.10703767091035843,-2.7850210666656494,0.3260546028614044,0.8448100090026855,3.36281418800354,-1.6088768243789673
77,-0.08588784818101372,-1.19833897035826,-2.783746539616725,-0.031216643750667572,0.9314359426498413,-0.3625640571117401,-1.74104642868042,-0.30862635374069214,-0.7521533370018005,0.034787192940711975,1.0883547067642212,2.5994873046875
78,-0.2970872680071185,-1.4745648074678614,3.0310124887887624,-0.028127269819378853,0.9953733086585999,-0.09187484532594681,-2.841939926147461,2.428302526473999,-1.8850433826446533,-0.1120704784989357,0.33877891302108765,0.3697984218597412
79,-2.332455046194194,-1.4363374861620883,0.9340111411773218,-0.09701379388570786,0.9909740090370178,0.09251367300748825,-2.231417655944824,-0.2756269872188568,-0.5032517910003662,0.31425318121910095,-0.0356365442276001,0.12556493282318115
80,-2.6640897619269595,-1.2328985520717584,0.446964072299854,-0.15234705805778503,0.9434536695480347,0.2944239675998688,-2.093600273132324,0.8559228181838989,-0.5371208190917969,-0.22456029057502747,-0.012682795524597168,-0.5489101409912109
81,-2.506042603320181,-1.088409009151321,0.5104851306935709,-0.2753777503967285,0.885890007019043,0.3733177185058594,-0.502814531326294,0.14224565029144287,-0.5087910294532776,0.7872796058654785,0.42761707305908203,-0.24653244018554688
82,-2.318643200281223,-1.18167451296531,0.6808802388254191,-0.2781412601470947,0.9252426028251648,0.2579990327358246,3.9225411415100098,0.9392646551132202,0.5932128429412842,0.2730143368244171,0.46147608757019043,-0.5323978662490845
83,-1.1946736714309518,-1.3858297014640857,1.8731692489373795,-0.17105834186077118,0.9829424023628235,-0.0675550028681755,2.7958502769470215,0.856697678565979,0.046348731964826584,-0.4802020490169525,0.8020003437995911,0.2185407280921936
84,-0.13636078749349165,-1.3113560748710773,2.9090135744419117,-0.034873589873313904,0.9665337204933167,-0.2541579008102417,3.3152949810028076,-2.3194591999053955,1.8972724676132202,-0.018288027495145798,-0.3167230486869812,0.4606246054172516
85,-0.13662346769936307,-1.1337694607727054,-3.0661135033527436,-0.057645831257104874,0.9060140252113342,-0.4193035960197449,-0.11245319247245789,-2.179068088531494,0.5001049637794495,-0.24582095444202423,-1.344978928565979,0.9679486751556396
86,-0.2136322337605413,-1.265250340370542,-3.0791094325493344,-0.06377582252025604,0.9536828398704529,-0.29397550225257874,1.426125407218933,0.00032562296837568283,0.6280598640441895,0.41494160890579224,3.686835289001465,-2.840637445449829
87,-0.10924120517537975,-1.2212273840754668,-2.880166053242242,-0.0373399443924427,0.9395204186439514,-0.3404511511325836,-0.9902613162994385,2.4795517921447754,-1.8662503957748413,-1.0171644687652588,1.7542356252670288,0.1480531394481659
88,-0.4960662913620517,-1.4356448476793693,2.88884005198005,-0.06413233280181885,0.9908809065818787,-0.11849899590015411,-2.561112403869629,1.62374746799469,-0.9072105884552002,-0.11727941036224365,0.15293312072753906,0.5380241274833679
89,-2.1561712673574087,-1.4003814788724334,1.1490362764580775,-0.14135542511940002,0.9855145215988159,0.09370137006044388,-1.7734838724136353,-1.4899650812149048,-0.44679105281829834,0.26954448223114014,-0.07070422172546387,-0.12249469012022018
90,-2.616376151638249,-1.2357939321011904,0.5840004458984135,-0.1648462414741516,0.9444095492362976,0.28445833921432495,-2.3377909660339355,1.1645934581756592,-0.2575511038303375,-0.1863347887992859,0.002718806266784668,-0.3635598421096802
91,-2.5529239326092106,-1.0723251217417464,0.536016357518411,-0.2654579281806946,0.8783144950866699,0.3976127803325653,-0.59848952293396,1.565158724784851,-0.38638317584991455,0.3529670834541321,0.3399472236633301,-0.3927605152130127
92,-2.3913544110663096,-1.1362913461681226,0.6356829392195427,-0.287017285823822,0.9070785641670227,0.30794474482536316,3.6338205337524414,1.1677584648132324,0.5056421756744385,0.07257020473480225,0.6745104193687439,-0.9847788214683533
93,-1.3806349203982327,-1.3832723014237271,1.6796293479619653,-0.18306666612625122,0.982468843460083,-0.03523799404501915,2.9862072467803955,1.2433065176010132,0.6342775821685791,-0.4843222498893738,0.9958789348602295,0.16509032249450684
94,-0.1861184046076315,-1.3546842638291607,2.814254072236193,-0.03968008607625961,0.9767385125160217,-0.210730642080307,2.9343955516815186,-1.6553418636322021,1.554577112197876,0.0013347528874874115,-0.3465811014175415,0.3498297929763794
95,-0.17635180293371308,-1.1633363640194059,3.136182720904956,-0.06952275335788727,0.9181303381919861,-0.3901323080062866,-0.31366899609565735,-1.4103227853775024,0.39704689383506775,-0.3338128328323364,-1.3353514671325684,0.9508012533187866
96,-0.2132584429524639,-1.2675838467347686,3.1338833035393834,-0.06319475919008255,0.9543821811676025,-0.29182350635528564,0.500847578048706,-1.4185822010040283,0.8766728639602661,0.635948657989502,3.303964376449585,-1.7171486616134644
97,-0.2117859477130015,-1.2183459722647878,-3.0886735768176776,-0.07256294041872025,0.9385296702384949,-0.3374859690666199,-1.5812386274337769,0.451488196849823,-1.497730016708374,-0.30803704261779785,1.5398638248443604,1.7120282649993896
98,-0.8688982092138443,-1.4280910804426314,2.373809208169951,-0.10860273241996765,0.9898348450660706,-0.09182777255773544,-2.2900538444519043,1.058234691619873,-1.6246000528335571,-0.11905840039253235,0.33784759044647217,0.17012059688568115
99,-2.093432378337724,-1.369911879478116,1.0952871524820973,-0.17289917171001434,0.9798904657363892,0.09960156679153442,-2.2391445636749268,-0.36215710639953613,-0.24887718260288239,0.32148927450180054,0.026823341846466064,-0.019996531307697296
100,-2.525519868975211,-1.2106259766572607,0.5616320317116235,-0.20364812016487122,0.9358367919921875,0.28763988614082336,-2.0926623344421387,1.2412996292114258,-0.44556647539138794,-0.1319994330406189,0.007827579975128174,-0.42733412981033325
101,-2.4617344990951713,-1.0516337728499237,0.5189127357334865,-0.31192293763160706,0.8682349920272827,0.38583946228027344,-0.4827589690685272,1.314590573310852,-0.36208584904670715,0.36583226919174194,0.4597221612930298,-0.43115806579589844
102,-2.2058797844779576,-1.1544643676523747,0.737808934391754,-0.3255581855773926,0.9145784974098206,0.2399134784936905,3.850598096847534,0.6116953492164612,0.8141505122184753,0.3945431411266327,0.45325005054473877,-0.2165369689464569
103,-1.1623836420720597,-1.3567536664390702,1.8320656622279803,-0.19494134187698364,0.9771801829338074,-0.08435995131731033,1.5366368293762207,1.155928611755371,0.4927525818347931,-0.7161151766777039,0.9218523502349854,0.45130330324172974
104,-0.10572910096385382,-1.3082980763300396,2.863548990801124,-0.027384977787733078,0.9657447338104248,-0.25804492831230164,2.9106292724609375,-2.7632622718811035,1.3223693370819092,0.028880342841148376,-0.3270423412322998,0.3451573848724365
105,-0.21792232339066234,-1.1176222774913744,3.1059096839175373,-0.09465768188238144,0.8990619778633118,-0.42746642231941223,-0.559089183807373,-1.964314579963684,0.45344093441963196,-0.29868337512016296,-1.409956693649292,0.9697027802467346
106,-0.31996397544795663,-1.2326531324946695,3.0782907464260223,-0.10434168577194214,0.9433722496032715,-0.3148992359638214,0.7586627006530762,-1.5349806547164917,0.5056331157684326,0.47746485471725464,3.166445255279541,-1.441356897354126
107,-0.2754751736948268,-1.178812983560756,-3.093606823284491,-0.1039116382598877,0.924153208732605,-0.3676184117794037,-0.7251830697059631,1.1986209154129028,-1.2668753862380981,-0.7658698558807373,1.2696791887283325,-0.3608514666557312
108,-0.5781470366396052,-1.3909152827284073,2.744143409978345,-0.09777124971151352,0.983864963054657,-0.14983563125133514,-2.4245734214782715,1.879359483718872,-1.181353211402893,-0.26102393865585327,0.26171010732650757,0.39873695373535156
109,-1.9436853114037966,-1.3812646645939577,1.2643514744430755,-0.17545166611671448,0.982092559337616,0.06863502413034439,-2.338355302810669,-0.4455326199531555,-0.3054998815059662,0.22778931260108948,0.03577542304992676,0.04727065563201904
110,-2.477987311105045,-1.2180631972819538,0.6558975221971239,-0.212792307138443,0.9384320378303528,0.27214837074279785,-2.314967632293701,1.3759040832519531,-0.12720628082752228,-0.04085454344749451,-0.017945587635040283,-0.32361626625061035
111,-2.461811120412723,-1.0470787065738953,0.556120226897158,-0.31437599658966064,0.8659659624099731,0.38893476128578186,-0.8840608596801758,1.294362187385559,-0.3433097302913666,0.5484611988067627,0.35751408338546753,-0.40611621737480164
112,-2.298835077253425,-1.0938723207824732,0.6519961160444857,-0.3426707684993744,0.8884111642837524,0.305453896522522,3.3463079929351807,0.8604297041893005,0.4950161278247833,0.36362114548683167,0.6786052584648132,-0.8713566660881042
113,-1.4937566227693058,-1.355230990161596,1.5366675970744097,-0.21326521039009094,0.9768556356430054,-0.016462471336126328,2.85032057762146,0.9719709157943726,0.6765474677085876,-0.5559303760528564,1.0133482217788696,0.24130070209503174
114,-0.19813427930232877,-1.3563943062219124,2.7622515872566753,-0.04188033938407898,0.9771037697792053,-0.2086002677679062,2.487647533416748,-1.3101646900177002,1.521848201751709,-0.018285062164068222,-0.4076306223869324,0.12431076169013977
115,-0.20917828771806504,-1.144307804082119,3.085034276135455,-0.08590249717235565,0.910423994064331,-0.4046592116355896,0.08615688979625702,-2.090123176574707,0.427372545003891,-0.37122029066085815,-1.4428184032440186,1.0443840026855469
116,-0.2809218649001588,-1.2221676779017208,3.0991162783945825,-0.09470824897289276,0.9398420453071594,-0.3282182216644287,0.45048511028289795,-2.4886655807495117,0.6371350884437561,0.8111236691474915,3.7166519165039062,-1.1484053134918213
117,-0.37157160540510203,-1.179077939073506,3.107745794402544,-0.1386157125234604,0.9242543578147888,-0.3557237982749939,-2.1829018592834473,0.5322431325912476,-1.357708215713501,-0.10415162146091461,0.6857309341430664,2.511104106903076
118,-1.0334066354704472,-1.3991784122480595,2.2785731388721286,-0.14670471847057343,0.9853097796440125,-0.08741942048072815,-1.8610395193099976,1.508673071861267,-0.6701256036758423,-0.02239316701889038,0.014568030834197998,0.30894649028778076
119,-2.0717493435713537,-1.3267243804163573,1.1735573269580217,-0.21196304261684418,0.9703620076179504,0.1160583645105362,-2.175105333328247,-0.12843120098114014,-0.5590376853942871,0.2980988621711731,0.013585865497589111,0.026153579354286194
120,-2.458256444159954,-1.155762497254102,0.7113503651142224,-0.25458717346191406,0.9151026606559753,0.3126860558986664,-2.3390979766845703,0.9499420523643494,-0.26668354868888855,-0.15619471669197083,0.033658385276794434,-0.4841795861721039
121,-2.3654322415159075,-1.0200236606561826,0.6685598472727129,-0.36662688851356506,0.8521203994750977,0.37346386909484863,-0.30879291892051697,0.2794531583786011,-0.1869591325521469,0.7642405033111572,0.582480251789093,-0.7020314335823059
122,-2.028807178495121,-1.1735813116460263,1.0069273407255657,-0.3469802439212799,0.922141969203949,0.17105215787887573,3.81033992767334,-0.06983645260334015,1.2349650859832764,0.4051620364189148,0.30635833740234375,0.27201735973358154
123,-1.0389031538632492,-1.3336075891224457,2.0506886175930212,-0.20250923931598663,0.972002387046814,-0.11916918307542801,0.40061599016189575,0.34726741909980774,1.4214993715286255,-0.5321861505508423,0.6045356392860413,0.5810984969139099
124,-0.07918810023161438,-1.267017834234362,3.064162823822453,-0.023662611842155457,0.95421302318573,-0.2981903851032257,2.9307570457458496,-3.462740421295166,0.9901252388954163,-0.04924388229846954,-0.4322556257247925,0.6373475193977356
125,-0.2696517022892693,-1.1276753393678838,-3.0207862768984093,-0.11422014236450195,0.9034178853034973,-0.4132673144340515,-1.316041111946106,-2.230004072189331,0.42501214146614075,-0.29145002365112305,-1.313330054283142,0.860304057598114
126,-0.379619434955659,-1.250696013823702,-3.0512391224975994,-0.11660344898700714,0.9492038488388062,-0.292260080575943,0.9269327521324158,-4.4545392990112305,0.7501039505004883,1.2019305229187012,2.161987066268921,-1.4399787187576294
127,-0.35926914383244946,-1.226004176080759,-3.010765074641047,-0.11883791536092758,0.9411457180976868,-0.3164212703704834,-1.9993767738342285,0.09078758209943771,0.5835323333740234,0.12372073531150818,-0.32359200716018677,1.7580716609954834
128,-1.2512816833297937,-1.4042381873380139,2.171459154869199,-0.15739750862121582,0.9861612319946289,-0.05207509547472,-2.393571138381958,0.012081142514944077,-1.2056115865707397,0.054370179772377014,0.20057570934295654,0.047405906021595
129,-2.261164567136903,-1.3084818446889017,1.0952989789371992,-0.19993628561496735,0.9657923579216003,0.16513845324516296,-2.244325876235962,1.1884996891021729,-0.16118267178535461,0.38023412227630615,-0.15791571140289307,0.018913045525550842
130,-2.4741804322635863,-1.1339858383679426,0.7314139828986074,-0.2618502676486969,0.9061055779457092,0.3322758972644806,-1.4468696117401123,0.6413894891738892,-1.2194138765335083,-0.1721097230911255,0.37563270330429077,-0.6283726692199707
131,-2.390340286189093,-1.038337752523125,0.7506481168497949,-0.346500962972641,0.8615615963935852,0.3710104823112488,0.30849555134773254,0.17838889360427856,-0.05974552407860756,0.4376721978187561,0.6738235950469971,-0.8153159618377686
132,-1.930087561599547,-1.2679135986495802,1.228829473883277,-0.27922725677490234,0.9544805884361267,0.10487604141235352,3.622161388397217,-1.766396403312683,2.073228359222412,0.24002742767333984,0.4984613060951233,0.443326473236084
133,-0.7566686747110231,-1.3775950195935105,2.3579137081448165,-0.1318100541830063,0.9813945889472961,-0.1396099478006363,1.315664529800415,1.1231019496917725,2.712048053741455,-0.1725417673587799,-0.11103314161300659,0.5477215051651001
134,-0.013027853062113983,-1.1994748216148385,-3.014261325348276,-0.0047269850037992,0.9318486452102661,-0.36281630396842957,2.4333341121673584,-4.220144271850586,0.7766475677490234,-0.07246722280979156,-0.6994878053665161,0.7611775398254395
135,-0.21242578331069642,-1.234330106600108,-2.9281100905844193,-0.06960682570934296,0.9439272284507751,-0.3227322995662689,-3.1878459453582764,-1.969388484954834,-0.24646751582622528,-0.21315380930900574,-0.7939334511756897,0.017663389444351196
136,-0.21614880656376084,-1.2200069295534812,-2.8243711661221345,-0.0737001821398735,0.9391017556190491,-0.3356429636478424,0.4730607867240906,0.8996685743331909,0.677891194820404,-0.4154050350189209,-0.6625972390174866,1.83515465259552
137,-0.2673062992748318,-1.3307056969855589,-2.983480482534597,-0.06280861049890518,0.9713164567947388,-0.22934547066688538,-3.3273401260375977,1.9839801788330078,0.20198240876197815,0.059222809970378876,-0.39303892850875854,0.999761700630188
138,-1.6400408936400324,-1.41141480516387,1.8164090843705127,-0.15832705795764923,0.9873256087303162,0.01098084356635809,-1.9175435304641724,0.5787414312362671,-0.29531562328338623,0.005861222743988037,-0.04106712341308594,0.14368224143981934
139,-2.4224513681400244,-1.2889822659563883,0.9834401438053801,-0.18319468200206757,0.9605525135993958,0.20923388004302979,-2.3056681156158447,1.1097736358642578,-0.06041257083415985,0.10955573618412018,-0.24284005165100098,-0.2350822389125824
140,-2.533460918251915,-1.104795617577926,0.7584687432619357,-0.25671082735061646,0.8933723568916321,0.368762344121933,-0.8567091822624207,1.9549823999404907,-0.9638274312019348,-0.007144182920455933,0.21125727891921997,-0.21889051795005798
141,-2.397904943811423,-1.0835951404367434,0.7914957781232353,-0.31694385409355164,0.8836466073989868,0.344551146030426,1.9639192819595337,0.9469689130783081,0.4554247260093689,0.40397998690605164,1.1241202354431152,-0.8697738647460938
142,-1.6707600064754715,-1.3517744911394423,1.5679931224278205,-0.216189906001091,0.9761104583740234,0.02168341353535652,3.435157299041748,0.5091933608055115,1.4627610445022583,-0.2805752158164978,1.1719913482666016,0.1148827075958252
143,-0.4457606565126254,-1.3835052598207787,2.7015245047026455,-0.08027827739715576,0.9825122356414795,-0.1680034101009369,2.1079437732696533,1.6223808526992798,2.073317527770996,-0.22309696674346924,-0.2353198528289795,0.4141277074813843
144,-0.08614528707480316,-1.16581456460316,-3.02528301186508,-0.0338994599878788,0.919109582901001,-0.3925410807132721,1.4450949430465698,-3.182021141052246,0.5656732320785522,-0.1244562566280365,-1.0221827030181885,0.783913791179657
145,-0.27347176791087713,-1.2360380958033301,-3.0202682930052256,-0.08873090147972107,0.9444897770881653,-0.3163318336009979,-0.9800609946250916,-0.9641149640083313,-0.2572624981403351,0.006592847406864166,0.05935537815093994,-1.2371196746826172
146,-0.21571598113976817,-1.1535598835850536,-2.823401560826455,-0.08673939108848572,0.9142123460769653,-0.395843505859375,-1.1064544916152954,-0.060204654932022095,0.4620344936847687,-0.7527076005935669,-1.1000796556472778,1.8339080810546875
147,-0.3212455785924529,-1.3116097235875426,-3.074942552085453,-0.0809246227145195,0.9665987491607666,-0.24318313598632812,-3.421334743499756,2.3880155086517334,-0.06178421154618263,-0.0615161657333374,-0.3863375186920166,0.9153480529785156
148,-1.7593908173803183,-1.416852953201085,1.6448783239320535,-0.15061824023723602,0.9881740808486938,0.02874740958213806,-1.866180658340454,1.2978765964508057,-0.5700265169143677,0.11703363060951233,-0.0346674919128418,0.03343212977051735
149,-2.4082153654993834,-1.272147991671958,0.9544350459443578,-0.19695132970809937,0.9557350873947144,0.21858753263950348,-2.1829373836517334,1.2436643838882446,0.03288891911506653,0.18277591466903687,-0.07945340871810913,-0.14771045744419098
150,-2.492980664815193,-1.0940360319927112,0.70763757467492,-0.27721449732780457,0.8884862661361694,0.3657103478908539,-0.8357185125350952,1.2324076890945435,-1.314758539199829,0.16791582107543945,0.3954949378967285,-0.48981013894081116
151,-2.3808389307124185,-1.0871562810289292,0.7660572796002297,-0.32060569524765015,0.8853081464767456,0.3368106484413147,2.4251487255096436,0.18695968389511108,0.5864623785018921,0.42009302973747253,1.1616277694702148,-0.7856631278991699
152,-1.6489947698962006,-1.3425129226881383,1.5372055235816506,-0.22561393678188324,0.9740563035011292,0.01767870783805847,3.107881784439087,0.1386350691318512,1.1162834167480469,-0.45947515964508057,1.0938299894332886,-0.14350271224975586
153,-0.27880767790349015,-1.4020892524723512,2.8095902828599417,-0.046209849417209625,0.9858027100563049,-0.16142398118972778,2.1728389263153076,0.12135776877403259,2.157154083251953,-0.014199689030647278,-0.30370432138442993,0.22866947948932648
154,-0.09085692201275777,-1.1684612190615582,-3.0001650556105663,-0.035527754575014114,0.9201491475105286,-0.3899531066417694,0.9909842610359192,-2.8355562686920166,0.4842948913574219,-0.4052986800670624,-1.2817366123199463,1.0501551628112793
155,-0.17110151518074448,-1.2230597367122125,-2.9520541911057014,-0.058022335171699524,0.9401464462280273,-0.3357948660850525,0.5606389045715332,1.5815273523330688,0.5532404780387878,0.34179002046585083,2.022820472717285,-2.2570090293884277
156,-0.16311156478169442,-1.195802109896494,-2.813984666219944,-0.05947780981659889,0.9305097460746765,-0.3614053726196289,-0.69742351770401,1.3264732360839844,-0.45872917771339417,-1.3656930923461914,-0.6386092305183411,-0.2763204276561737
157,-0.1893292069906869,-1.373834549280544,-2.998376533834149,-0.036829087883234024,0.9806656837463379,-0.19219422340393066,-3.3409385681152344,2.6892454624176025,-0.868910014629364,-0.4315699636936188,0.12346035242080688,0.8344671726226807
158,-1.7794345207154332,-1.4261168690395574,1.6110691727646127,-0.14104917645454407,0.9895521998405457,0.029862817376852036,-2.170469045639038,0.7859732508659363,-0.29175809025764465,0.07618404924869537,-0.0893140435218811,0.12972891330718994
159,-2.5534791144376716,-1.2837854803946283,0.7535600129860351,-0.15705445408821106,0.9590943455696106,0.23552505671977997,-2.219472885131836,1.5976283550262451,0.058592572808265686,-0.03114745020866394,-0.054507553577423096,-0.1258448362350464
160,-2.5539335655785833,-1.1088102179005512,0.6198781817965844,-0.24711723625659943,0.8951690196990967,0.37095189094543457,-0.957118809223175,1.7466380596160889,-0.7471901178359985,0.3189098834991455,0.16736137866973877,-0.28509074449539185
161,-2.4491184209017627,-1.0792293003855244,0.6300527463222039,-0.30135056376457214,0.8815943002700806,0.3632899522781372,1.6263375282287598,0.4856136441230774,0.41935354471206665,0.43217939138412476,1.0599188804626465,-0.7675563097000122
162,-1.8939325043316508,-1.3198532219793564,1.2015227129281567,-0.23546576499938965,0.9686786532402039,0.07885127514600754,3.344925880432129,-0.5694003701210022,1.5178583860397339,-0.13094353675842285,0.7625682950019836,0.37746286392211914
163,-0.5378191194221777,-1.4127386673973337,2.426732815412546,-0.0806303322315216,0.9875348806381226,-0.13517943024635315,1.21067214012146,1.433608055114746,2.3969309329986572,-0.1048097237944603,-0.045564115047454834,0.32724183797836304
164,-0.017791760158548216,-1.205252287557063,3.100783738401504,-0.0063594612292945385,0.933929443359375,-0.3574008345603943,1.6600370407104492,-3.36423921585083,0.552786111831665,-0.07644999027252197,-0.9486083984375,0.6271914839744568
165,-0.23303714468700668,-1.248282212473306,3.113037597746946,-0.07319486886262894,0.9484415650367737,-0.30838459730148315,-1.917059302330017,-1.7690192461013794,-0.37217068672180176,0.07719267904758453,-0.42944443225860596,-0.21267250180244446
166,-0.23468365088720877,-1.1581543470721252,-2.988884288039982,-0.09325388073921204,0.9160645008087158,-0.3900379538536072,0.8422470092773438,-0.4752005934715271,0.5503546595573425,-0.6092150211334229,-1.0587799549102783,1.3239216804504395
167,-0.3572864168553559,-1.2276144190547305,3.077039031961537,-0.11767997592687607,0.9416887760162354,-0.3152356445789337,-3.110347032546997,2.2091684341430664,-0.03577402979135513,0.11911430209875107,-0.6420977711677551,1.0251507759094238
168,-1.3339005118150902,-1.3677810103190529,1.9519546734913422,-0.1959928423166275,0.9794631004333496,-0.04731837660074234,-1.4528330564498901,-0.5681545734405518,-0.7084702253341675,0.2862943410873413,0.4000992774963379,-0.04643160104751587
169,-2.1109928929174537,-1.2913080562700738,1.1882295188968877,-0.2365829199552536,0.9611967206001282,0.14187803864479065,-2.0342276096343994,0.5934084057807922,-0.009036272764205933,0.2313186526298523,-0.20652759075164795,0.11244022846221924
170,-2.3580592449899322,-1.1393517543853688,0.843182017756641,-0.29514867067337036,0.908362627029419,0.296251505613327,-1.2785876989364624,0.8585827946662903,-0.9867901802062988,-0.09391996264457703,0.1164482831954956,-0.13202115893363953
171,-2.246546701360363,-1.035376759612249,0.8528010825937906,-0.3980788588523865,0.860054612159729,0.31912264227867126,0.30267515778541565,0.6515083312988281,-0.7241595983505249,0.6610946655273438,0.5200265049934387,-0.5010530948638916
172,-1.80049988285424,-1.1788987351704519,1.3238840332718893,-0.37191084027290344,0.9241859316825867,0.08696416765451431,3.29603910446167,-0.4120296239852905,1.697503924369812,0.18358686566352844,0.13504868745803833,0.31347227096557617
173,-0.9327683457433394,-1.296509173490149,2.1700749044715724,-0.21757447719573975,0.9626185297966003,-0.1613277941942215,0.7225598692893982,2.839421510696411,1.5791981220245361,-0.34350642561912537,0.2051822543144226,0.5145993232727051
174,-0.11618666759260554,-1.3024236890779735,3.0252625149183396,-0.030739111825823784,0.9642037153244019,-0.26337504386901855,1.7996288537979126,-3.331989288330078,1.0549354553222656,0.024360936135053635,-0.44691550731658936,0.38816142082214355
175,-0.2351416718391746,-1.241259007201074,-3.03168815355273,-0.07539383322000504,0.9461921453475952,-0.3147002160549164,-1.1815067529678345,-2.754995822906494,0.2598479986190796,-0.11341841518878937,-1.0290778875350952,0.37335503101348877
176,-0.2359429880818375,-1.2343914739328645,-2.85389868921661,-0.0771632045507431,0.9439474940299988,-0.32095038890838623,2.5053114891052246,-5.729032039642334,0.7720361351966858,0.5355982780456543,0.4543679356575012,-0.46170341968536377
177,-0.32066809879080355,-1.228249816482069,-2.877559947157645,-0.10587166994810104,0.9419023990631104,-0.31876474618911743,-1.4740972518920898,-0.15294517576694489,0.0838695839047432,-0.12117911130189896,-0.2920764088630676,2.2667322158813477
178,-1.2576930732566345,-1.419503519861073,2.2937746757729274,-0.1433895230293274,0.9885770678520203,-0.04642273113131523,-2.626230001449585,-0.24885165691375732,-1.1100512742996216,0.010180264711380005,0.4159182906150818,0.30219054222106934
179,-2.2129778823646955,-1.329896691779354,1.288918955225931,-0.19104981422424316,0.9711237549781799,0.14289385080337524,-2.0591230392456055,-0.8364650011062622,-0.19537568092346191,0.47251343727111816,-0.19123178720474243,0.031239494681358337
180,-2.5200849429180185,-1.1707928089644668,0.8761431847061095,-0.2267451137304306,0.9210596084594727,0.31660017371177673,-1.610538363456726,0.5027834177017212,-0.827819287776947,-0.3947300910949707,0.021994471549987793,-0.49917152523994446
181,-2.444767135190267,-1.0434471510056775,0.877655823964896,-0.3229754567146301,0.8641441464424133,0.38592979311943054,-0.009800425730645657,0.6167039275169373,-0.4073624610900879,0.24572020769119263,0.44194716215133667,-0.7752883434295654
182,-2.085335601092335,-1.1836416556909988,1.2035345754712719,-0.32866916060447693,0.9259870648384094,0.18580767512321472,4.211925506591797,-0.9894139766693115,1.1031228303909302,0.4155374765396118,0.3888474702835083,-0.1906142383813858
183,-1.0355518603944396,-1.3729558881396522,2.309331430695942,-0.16906313598155975,0.9804933071136475,-0.10025167465209961,1.3534448146820068,1.197424054145813,1.0783530473709106,-0.6277050375938416,0.8529874682426453,0.5366072654724121
184,0.03297685913049188,-1.2877169094675305,-2.865361392872856,0.00920923613011837,0.9601998925209045,-0.27916234731674194,2.725194215774536,-3.3527579307556152,0.7730831503868103,-0.18239648640155792,-0.4850258231163025,0.49576082825660706
185,-0.16347018139745836,-1.1771534551833656,-2.7684670461270517,-0.06242099404335022,0.9235179424285889,-0.37844201922416687,-1.6602749824523926,-1.184726357460022,0.05419865995645523,-0.3567073941230774,-1.4285838603973389,0.8287594318389893
186,-0.2454279693304404,-1.248492579577976,-2.750714698804869,-0.07696184515953064,0.9485082030296326,-0.30726057291030884,1.5514861345291138,-4.128555774688721,0.7784848809242249,0.945370078086853,0.8208552002906799,-1.044088363647461
187,-0.4098335427952655,-1.268043513071104,-2.8988678754882313,-0.11879931390285492,0.9545193314552307,-0.2734580934047699,-1.6142915487289429,-0.33461135625839233,-0.7734925150871277,0.04363453388214111,0.76175856590271,1.8566642999649048
188,-1.1040856208279246,-1.4088226982563261,2.587943149371462,-0.14401976764202118,0.9869109392166138,-0.07256216555833817,-2.0624160766601562,0.07859113067388535,-1.8811715841293335,-0.10292845964431763,0.1936463713645935,0.28371328115463257
189,-2.1598576836018375,-1.3090444212466246,1.5438093092044038,-0.21516036987304688,0.9659380912780762,0.1437695324420929,-2.230998992919922,0.30898648500442505,-0.18963298201560974,0.3568382263183594,-0.14112424850463867,-0.1594555377960205
190,-2.4608303990266367,-1.152360460301812,1.1668130460819237,-0.25573939085006714,0.9137256145477295,0.31575772166252136,-1.4976321458816528,0.45952680706977844,-0.5788282752037048,-0.43346959352493286,0.09208798408508301,-0.5900954008102417
191,-2.3468016712100526,-1.0448177869936173,1.1644183051263866,-0.358328640460968,0.8648330569267273,0.3516596555709839,0.14790062606334686,0.1994314342737198,-0.29579803347587585,1.0101840496063232,0.4725540280342102,-0.6662653684616089
192,-1.9352947388888566,-1.2414541903022152,1.6212495707237282,-0.3021726608276367,0.9462553262710571,0.11529317498207092,3.3154592514038086,-1.9211485385894775,1.8491605520248413,0.2953825294971466,0.2787202000617981,0.6467002630233765
193,-0.8538511165559189,-1.3741086076630205,2.7324847076195633,-0.14731276035308838,0.980719268321991,-0.1284092366695404,0.6754881739616394,1.321251630783081,2.4320738315582275,-0.18490159511566162,0.028039395809173584,0.5953282117843628
194,-0.036888840521016694,-1.2262211493788002,-2.5842237307865545,-0.012458113953471184,0.9412190318107605,-0.33756718039512634,2.5987284183502197,-3.9656174182891846,0.7994725108146667,0.0037910938262939453,-0.7339131236076355,0.733166515827179
195,-0.20781190558336768,-1.2012434402590164,-2.4600846673294345,-0.07452229410409927,0.9324889183044434,-0.3534274101257324,-2.7573888301849365,-1.1925853490829468,0.16688038408756256,-0.23303386569023132,-1.0040678977966309,0.4780459403991699
196,-0.2339498123188334,-1.1845361223516466,-2.336609855979877,-0.08733338117599487,0.9263244271278381,-0.36646410822868347,1.9135900735855103,-1.9156317710876465,1.3309626579284668,0.3422314524650574,-1.0174498558044434,0.30687856674194336
197,-0.3492191577301408,-1.2382299952628293,-2.4959495260649427,-0.11170632392168045,0.9452076554298401,-0.30676427483558655,-1.6105632781982422,1.1778336763381958,0.6509848237037659,0.5844236612319946,-0.4672565460205078,0.9050155878067017
198,-1.066201210802965,-1.4409266462786878,2.919051881198351,-0.11336487531661987,0.9915787577629089,-0.06260961294174194,-1.966349720954895,-0.5552826523780823,-1.117925763130188,0.008323371410369873,0.31918174028396606,-0.13392359018325806
199,-2.354759910163292,-1.3460806808505288,1.5665201354794753,-0.15779051184654236,0.9748575091362,0.15733842551708221,-2.0547878742218018,0.6984317898750305,-0.43438276648521423,0.19735650718212128,-0.18902963399887085,-0.30086249113082886
200,-2.566132140994137,-1.1574775029687405,1.2401142749320635,-0.21858713030815125,0.9157928824424744,0.3369620144367218,-1.8246241807937622,0.9245272278785706,-0.7298752069473267,-0.20792657136917114,0.010858237743377686,-0.5702688694000244
201,-2.417350373404944,-1.0481006986610786,1.2679310709512508,-0.3307657241821289,0.8664765954017639,0.373914897441864,0.10028982907533646,-0.024003390222787857,-0.34185540676116943,0.9431619644165039,0.5399412512779236,-0.6078627109527588
202,-2.0815621516497123,-1.2627646503322392,1.6578802006571502,-0.2644885778427124,0.9529321789741516,0.14821001887321472,3.4059648513793945,-1.8119406700134277,1.9614684581756592,0.23728212714195251,0.23423224687576294,0.4090561866760254
203,-0.7224927887335028,-1.4013350677574503,3.0462308830920333,-0.11152207106351852,0.9856757521629333,-0.1265157014131546,1.0277668237686157,1.3888647556304932,2.234860420227051,-0.3408094644546509,0.22445303201675415,0.6026509404182434
204,0.0023214565518416466,-1.1900067976195674,-2.3961498451637926,0.0008627765346318483,0.9283714890480042,-0.3716524541378021,2.6745471954345703,-4.252866268157959,0.7335293292999268,0.04767543077468872,-0.6918908357620239,0.6236666440963745
205,-0.10401856552644603,-1.1739708947509704,-2.2603352021547853,-0.04012994095683098,0.9222925901412964,-0.3844035267829895,-2.979994297027588,-0.6142901182174683,-0.07788994163274765,-0.19139167666435242,-1.0364435911178589,0.3950236439704895
206,-0.18025371994114092,-1.2040624641807853,-2.2012335392435602,-0.0642838105559349,0.9335034489631653,-0.3527587354183197,1.186827540397644,-0.046486593782901764,1.3131146430969238,-0.481690913438797,-0.6236280798912048,0.8973144292831421
207,-0.20868088586820016,-1.2447229347108697,-2.2893451711425006,-0.06636175513267517,0.9473074078559875,-0.3133763074874878,-3.018854856491089,2.2450201511383057,1.0070888996124268,0.40545782446861267,-0.6112936735153198,1.3679112195968628
208,-1.1028026229741146,-1.4257418323581716,2.9708316520311997,-0.12900462746620178,0.9894980192184448,-0.0652046725153923,-1.912347674369812,-0.5805603265762329,-0.4567433297634125,0.10623851418495178,0.07680141925811768,0.0559731125831604
209,-2.388727420664227,-1.3617090294997212,1.6512732382246884,-0.14192071557044983,0.9782207608222961,0.1514689028263092,-2.008662462234497,0.29169222712516785,-0.15192893147468567,0.18275319039821625,-0.25443530082702637,-0.19233201444149017
210,-2.615668135968752,-1.1691878445103294,1.3077848711167024,-0.19623668491840363,0.9204334020614624,0.33807364106178284,-1.3381136655807495,0.9337599277496338,-1.0574355125427246,-0.11055655777454376,0.05367249250411987,-0.45001205801963806
211,-2.486407502769378,-1.072510548502939,1.327837254515925,-0.29119980335235596,0.8784031271934509,0.37895986437797546,-0.14549626410007477,-0.27155834436416626,-0.37140294909477234,0.45919910073280334,0.5542140603065491,-0.8064959049224854
212,-2.0806612383246996,-1.2841603069017495,1.7591551869278395,-0.24676759541034698,0.959200382232666,0.13798785209655762,3.2506625652313232,-2.092012882232666,1.840895175933838,0.5352960228919983,0.19994890689849854,0.6127445697784424
213,-0.6162892122684395,-1.4311483474079696,-2.9890950324958236,-0.08045617491006851,0.9902650713920593,-0.11358705163002014,1.4428530931472778,-0.019579613581299782,1.9094198942184448,-0.3433719575405121,0.20538312196731567,0.38787901401519775
214,0.06783106680966447,-1.206560563201923,-2.211166174287403,0.024145295843482018,0.9343962669372559,-0.35541611909866333,2.9814846515655518,-3.852543830871582,0.5845183730125427,0.014718830585479736,-0.6124968528747559,0.670342206954956
215,-0.1084502831932472,-1.1712314825097483,-2.154845395385621,-0.04210642725229263,0.9212303757667542,-0.38673222064971924,-2.264875650405884,-1.1016031503677368,-0.36364126205444336,-0.15427419543266296,-0.9898796081542969,0.6186047792434692
216,-0.31119335922837943,-1.170073413552166,-2.1567463843746273,-0.11944177746772766,0.9207792282104492,-0.37134796380996704,1.8269915580749512,-1.0958755016326904,1.511879801750183,-0.6461374163627625,-0.4058408737182617,0.14316803216934204
217,-0.3742079125653909,-1.1817352945168216,-2.217722628501363,-0.1386546939611435,0.9252656102180481,-0.35306963324546814,-2.8628101348876953,0.4758818447589874,0.5828476548194885,0.3692760467529297,0.28135353326797485,0.5157893896102905
218,-0.8179607063828852,-1.3503336353152797,-2.7648917374289845,-0.15958301723003387,0.9757964015007019,-0.14951445162296295,-1.785096287727356,-0.19593453407287598,-0.5501992106437683,-0.19619090855121613,-0.03753352165222168,0.02080656588077545
219,-2.053951089971831,-1.3697907275612744,2.2666218389367785,-0.1768014281988144,0.9798663258552551,0.09275484830141068,-2.0645577907562256,1.0149226188659668,0.10507611930370331,0.3558022677898407,-0.13687920570373535,0.07792997360229492
220,-2.498725777034419,-1.2274371418327867,1.743347423346072,-0.20182044804096222,0.9416291117668152,0.26944977045059204,-1.9354112148284912,0.7719265818595886,-0.6630839109420776,-0.3759230971336365,-0.038766562938690186,-0.13680505752563477
221,-2.456101373148451,-1.0846434307097572,1.6363362476313077,-0.2957803010940552,0.8841368556022644,0.36168500781059265,-0.8433151245117188,0.9355583190917969,-0.23357467353343964,0.6878396272659302,0.3818085193634033,-0.633474588394165
222,-2.31297256084588,-1.1542244447994674,1.7530790020444411,-0.29821041226387024,0.9144814014434814,0.2734852433204651,3.7188658714294434,0.8570786118507385,0.4104512631893158,0.14179256558418274,0.660011887550354,-0.8371448516845703
223,-1.289509434226609,-1.3688704576874207,2.912424355890094,-0.19267459213733673,0.9796821475028992,-0.055672965943813324,3.2382986545562744,0.7661104202270508,0.49263039231300354,-0.611021101474762,0.8818748593330383,0.2188047170639038
224,-0.08229028136241746,-1.2979206964961172,-2.2716201830510996,-0.0221523679792881,0.9629998803138733,-0.26858994364738464,2.8539199829101562,-1.3336952924728394,1.7838175296783447,-0.0326724648475647,-0.13128912448883057,0.29047101736068726
225,-0.07065677608465387,-1.11314767494433,-1.9650599215333895,-0.03119300678372383,0.8970938920974731,-0.4407373368740082,-0.4418613612651825,-1.7582004070281982,0.6065683364868164,-0.3897206783294678,-1.2588798999786377,0.9976679086685181
226,-0.24562550457405322,-1.1988717900806105,-2.0157029661444006,-0.08836773037910461,0.9316296577453613,-0.3525017201900482,0.16008533537387848,0.07096721231937408,-0.45459866523742676,-0.04125571250915527,3.2694506645202637,-1.4307013750076294
227,-0.24982613305983245,-1.1865419681163072,-1.9642458878590099,-0.0926806703209877,0.9270781874656677,-0.3632303774356842,-0.5793787240982056,2.520240545272827,-1.383139729499817,-0.3025830090045929,1.0935516357421875,-0.15869653224945068
228,-0.4168628121041086,-1.3930701021010927,-2.3143453918472656,-0.07158217579126358,0.9842482209205627,-0.1616525799036026,-2.446603775024414,2.008303642272949,-1.194715976715088,-0.24848616123199463,0.31847089529037476,0.2892160415649414
229,-2.0338944600061923,-1.4369308210623422,2.2117641066392646,-0.11940793693065643,0.9910534024238586,0.05962197482585907,-2.1597723960876465,0.41537174582481384,-0.3432866036891937,0.20188170671463013,-0.015986323356628418,-0.06949448585510254
230,-2.62023827408711,-1.2837982389491673,1.5493064898154445,-0.1409865915775299,0.9590979814529419,0.24546660482883453,-2.0103094577789307,1.4089155197143555,-0.18494069576263428,-0.1718643605709076,-0.031668782234191895,-0.37060391902923584
231,-2.5406418488383067,-1.10483869828113,1.5082544010551215,-0.2540343999862671,0.8933917284011841,0.3705644905567169,-0.6991097331047058,1.611570954322815,-0.6352829933166504,0.3768218457698822,0.15223217010498047,-0.44687363505363464
232,-2.4009463160529902,-1.1077536489986317,1.5524956069638742,-0.3013988137245178,0.8946975469589233,0.3296586573123932,2.2891218662261963,0.8450217843055725,0.47695282101631165,0.3309398591518402,0.9740157127380371,-0.9813767671585083
233,-1.5164763693638454,-1.3723305011365432,2.455030396661502,-0.19687514007091522,0.9803702235221863,-0.010704779997467995,3.055286169052124,1.5945179462432861,1.4816988706588745,-0.45742177963256836,1.105903148651123,0.15747904777526855
234,0.029142694633587773,-1.3876912097269662,-2.3886652013817065,0.005305675324052572,0.9832830429077148,-0.18200695514678955,1.9829254150390625,0.016147345304489136,1.8879013061523438,0.09972056746482849,-0.2462834119796753,0.22409068048000336
235,-0.02327144998042699,-1.1758057095575787,-2.1292728514577535,-0.00895403791218996,0.923000156879425,-0.38469547033309937,0.894912838935852,-3.134000539779663,0.6619833111763,-0.3564634323120117,-1.1347920894622803,0.9508423209190369
236,-0.15374622336098984,-1.2935863466077138,-2.077941180435397,-0.04191068187355995,0.9618227481842041,-0.27044522762298584,0.2521716058254242,0.6027492880821228,-0.22191008925437927,-0.21037814021110535,0.6118466854095459,-2.0489516258239746
237,-0.05383423456485278,-1.2340754494202375,-1.8448611242114508,-0.017777925357222557,0.9438431262969971,-0.32991549372673035,-1.4258449077606201,0.23778411746025085,0.29886141419410706,-0.8873887062072754,-1.1156874895095825,0.8967337608337402
238,-0.5222036701762588,-1.4154116432514852,-2.3847125969932454,-0.0771927684545517,0.9879520535469055,-0.13413360714912415,-3.5090205669403076,1.9987107515335083,0.03103412687778473,0.06182719022035599,-0.12071889638900757,0.8619015216827393
239,-1.8560519185438715,-1.4244474376815468,2.4314393562524534,-0.13993515074253082,0.989310085773468,0.04103642329573631,-2.2070376873016357,0.9595768451690674,-0.3628944456577301,-0.006610289216041565,-0.12761569023132324,-0.08952879905700684
240,-2.5158492586912797,-1.2602068181153399,1.6665097850193005,-0.17900143563747406,0.9521535634994507,0.24771328270435333,-1.8202532529830933,1.3910608291625977,-0.12666857242584229,0.04644833505153656,-0.17441320419311523,-0.4420492947101593
241,-2.4668068017152907,-1.0850035510888525,1.6133754622926637,-0.29169246554374695,0.8843050599098206,0.36458203196525574,-0.7127059102058411,2.036480188369751,-1.0764398574829102,0.42658016085624695,0.41160863637924194,-0.4366798400878906
242,-2.277571057549242,-1.116997310833716,1.7759873839729023,-0.3333732485771179,0.8987881541252136,0.28467947244644165,3.143165349960327,0.6215429902076721,0.4818197786808014,0.34205546975135803,0.9642948508262634,-0.9119529724121094
243,-1.3358725436655388,-1.3859751435281968,2.8101401263147388,-0.17872300744056702,0.9829691052436829,-0.04277612268924713,3.1784684658050537,0.7659132480621338,1.6340296268463135,-0.6055635213851929,1.2531453371047974,0.18822288513183594
244,0.08615497067795395,-1.3526229237164367,-2.095862621648553,0.018624894320964813,0.9762944579124451,-0.21564383804798126,2.2883427143096924,-0.8518011569976807,1.8996528387069702,-0.05582582950592041,-0.32059377431869507,0.28472036123275757
245,-0.07953257186224508,-1.139873886184193,-1.8910580833262032,-0.033186472952365875,0.9085808396339417,-0.41638877987861633,0.20666860044002533,-2.4940435886383057,0.3815654218196869,-0.4017805755138397,-1.3830223083496094,1.0601418018341064
246,-0.17315171836673807,-1.275994026946259,-1.91264266469485,-0.050058331340551376,0.9568595886230469,-0.2862059473991394,1.1521698236465454,1.8233803510665894,1.0298599004745483,0.7216739058494568,3.0263404846191406,-2.8452484607696533
247,-0.1280478113153387,-1.214399292676521,-1.7626786408385688,-0.044553887099027634,0.9371599555015564,-0.34604352712631226,-0.10549628734588623,0.9496424794197083,-2.1033761501312256,-1.8059710264205933,1.5876660346984863,-1.55671226978302
248,-0.6136766083483176,-1.4054161816508146,-2.3675173562263563,-0.09480530768632889,0.9863558411598206,-0.13458910584449768,-2.6990928649902344,1.3484370708465576,-2.0676956176757812,-0.3130163550376892,0.5692167282104492,0.6364506483078003
249,-1.9539983892979358,-1.397948976898178,2.5120939982090063,-0.1595146209001541,0.9850990772247314,0.06430518627166748,-2.455810070037842,0.34476330876350403,0.017006931826472282,0.2373954802751541,-0.0917273759841919,0.0063430145382881165
250,-2.4842959379031124,-1.2349084483435122,1.887050318252628,-0.20138327777385712,0.9441180229187012,0.26093271374702454,-2.039193630218506,0.745526909828186,-0.6536752581596375,-0.2613242268562317,0.11569637060165405,-0.30101755261421204
251,-2.376172360854821,-1.0779252458099708,1.8520597506824237,-0.3278222680091858,0.8809780478477478,0.3411894738674164,-0.16305401921272278,1.1306142807006836,-0.5429666042327881,0.6803613901138306,0.3333316445350647,-0.38827815651893616
252,-2.0609860043186647,-1.1968722134613854,2.1415225632178183,-0.32225823402404785,0.9309011697769165,0.1719672530889511,3.7693772315979004,-0.08748862892389297,1.0608185529708862,0.33470943570137024,0.445731520652771,-0.1032264232635498
253,-0.8377759056647021,-1.3747475244974152,-2.915320310155524,-0.1447637379169464,0.9808439016342163,-0.13034117221832275,1.3918896913528442,1.1093900203704834,1.4308037757873535,-0.5239832401275635,0.5133272409439087,0.37541258335113525
254,0.20377972586871906,-1.3408079137886737,-1.818345231272431,0.04613403603434563,0.9736690521240234,-0.22324925661087036,1.9919719696044922,-3.47568678855896,1.194524884223938,-0.07398134469985962,-0.36194419860839844,0.40757542848587036
255,-0.0015232217608182005,-1.2211338171771755,-1.6689575774769403,-0.0005218260339461267,0.939488410949707,-0.3425801992416382,-1.0829188823699951,-2.0212619304656982,0.3601086437702179,-0.44895631074905396,-1.2260026931762695,0.5770314931869507
256,0.03460451386504026,-1.290688604103997,-1.5480257227179162,0.009564831852912903,0.9610256552696228,-0.2762938439846039,0.7173680663108826,-4.153675556182861,1.0811463594436646,1.3934502601623535,1.9689059257507324,-1.5491303205490112
257,-0.0744807002866253,-1.2701981182448128,-1.5908071933648362,-0.02203274704515934,0.9551595449447632,-0.29527097940444946,-0.46674036979675293,-0.8962785005569458,-0.6203010678291321,-0.7493295669555664,0.4146982431411743,2.2261180877685547
258,-1.0597565761139887,-1.4721100509143032,-2.675199122708214,-0.08593858778476715,0.9951344728469849,-0.04818787798285484,-1.9818177223205566,0.7164720892906189,-1.3513076305389404,-0.12209975719451904,0.39184367656707764,0.40220701694488525
259,-2.4002161481783433,-1.3652549612719653,2.1794705909078056,-0.13782714307308197,0.9789506196975708,0.15052928030490875,-2.0221431255340576,-0.20798534154891968,-0.32195523381233215,0.30362915992736816,-0.2775347828865051,0.028349488973617554
260,-2.568640997734289,-1.1976489114222644,1.8847058101553673,-0.1976272612810135,0.9311845898628235,0.306331992149353,-1.8142460584640503,1.5486396551132202,-0.7086814641952515,-0.0883377194404602,0.04743802547454834,-0.2574121654033661
261,-2.461210683796538,-1.0744592321737143,1.89579850147253,-0.2995773255825043,0.8793327808380127,0.37017151713371277,-0.024562565609812737,0.21671324968338013,-0.3260778784751892,0.26283422112464905,0.425720751285553,-0.5718165040016174
262,-2.102772096679623,-1.2407723318453514,2.21797591593307,-0.27928200364112854,0.9460345506668091,0.16437816619873047,3.417025566101074,-1.382193684577942,1.6425111293792725,0.5123142004013062,0.2837628126144409,0.24614429473876953
263,-0.6863865761412347,-1.418178948115176,-2.626561323199844,-0.09634613245725632,0.9883765578269958,-0.11759863793849945,1.1391689777374268,0.6684192419052124,0.6864091753959656,-0.8076913356781006,0.7281457185745239,0.45788490772247314
264,0.2308513998070881,-1.2649307037207242,-1.6542748516976604,0.06889790296554565,0.9535866379737854,-0.29313066601753235,2.7992188930511475,-3.9921958446502686,0.7731903195381165,-0.14217060804367065,-0.4284859895706177,0.6361788511276245
265,0.023908210577850402,-1.159347035788803,-1.5422360422077446,0.009560893289744854,0.9165421724319458,-0.39982378482818604,-1.8847821950912476,-1.4187419414520264,0.24141164124011993,-0.41129428148269653,-1.2372361421585083,0.843366265296936
266,-0.033372701311591896,-1.2348099264104682,-1.4909690076617252,-0.01100095547735691,0.9440855383872986,-0.3295169472694397,1.4568994045257568,-4.887478351593018,0.6260615587234497,0.7502435445785522,0.9655213356018066,-0.8854488134384155
267,-0.13374016221452734,-1.2258887715030946,-1.5931266553523709,-0.04508411884307861,0.9411067366600037,-0.3350900709629059,-1.1298434734344482,1.5177448987960815,-0.0013358097057789564,0.3615514039993286,-0.2543087601661682,1.896170973777771
268,-0.31905976917511175,-1.425409310180119,-1.903640972062131,-0.04544341564178467,0.9894499182701111,-0.13756299018859863,-1.9216926097869873,0.8798784613609314,-1.055523157119751,-0.25591766834259033,0.052191197872161865,0.42508435249328613
269,-2.4012370470069992,-1.4206520203117803,2.242705956819714,-0.10089989006519318,0.9887495040893555,0.1104249358177185,-2.1500508785247803,0.6034857034683228,-0.17986851930618286,0.23362085223197937,0.007649421691894531,0.15619182586669922
270,-2.664747841974496,-1.2210540337823987,1.837618546159006,-0.15727150440216064,0.9394610524177551,0.30443158745765686,-2.20919132232666,1.059630036354065,-0.47996947169303894,-0.20974817872047424,0.03963440656661987,-0.3760257959365845
271,-2.522049455614622,-1.0831809329304602,1.8289944098375959,-0.2720525562763214,0.8834525942802429,0.3814429044723511,-0.5545070171356201,1.2465221881866455,-0.012528911232948303,0.4886358380317688,0.33628910779953003,-0.27588266134262085
272,-2.2268626337832096,-1.2011404054083452,2.0381966681357784,-0.2862887680530548,0.9324517250061035,0.22039109468460083,3.654953956604004,-0.47273463010787964,1.0618491172790527,0.5888553261756897,0.32925164699554443,0.0953894555568695
273,-0.9635857286632746,-1.4244807694763035,-2.9121523168937062,-0.11973235011100769,0.9893149733543396,-0.083187036216259,1.8511252403259277,1.0215930938720703,0.5212033987045288,-0.7504153847694397,0.9753304123878479,0.4867056608200073
274,0.19490238743830363,-1.2991321931095878,-1.7772912759039587,0.051968611776828766,0.9633256793022156,-0.263254314661026,2.8458266258239746,-3.261270761489868,1.001707911491394,-0.11222556233406067,-0.32392144203186035,0.3524572551250458
275,-0.013666553236934949,-1.149530546519914,-1.6702510220036972,-0.0055882991291582584,0.9125720858573914,-0.4088778793811798,-1.1544028520584106,-1.310486078262329,0.41325101256370544,-0.3320887088775635,-1.4426777362823486,0.9144015312194824
276,-0.07021091191808831,-1.2300010676008724,-1.6294717563087613,-0.02344779670238495,0.9424891471862793,-0.33341333270072937,1.292897343635559,-4.591012477874756,0.19934296607971191,0.8405253887176514,2.3101658821105957,-1.2985751628875732
277,-0.14863718768420314,-1.1842137451039576,-1.6164087946268184,-0.05583386495709419,0.9262028932571411,-0.3728681802749634,-1.3122642040252686,0.9819349646568298,-1.623576045036316,-0.9341258406639099,2.028524160385132,-0.12644514441490173
278,-0.5057890412572599,-1.3963712737461398,-2.1097928622719686,-0.08408059179782867,0.9848265051841736,-0.15181298553943634,-2.3908560276031494,0.34347689151763916,-1.1530040502548218,0.06680765748023987,0.3147798180580139,0.3294711112976074
279,-2.0258858177784647,-1.422790338551645,2.6189552596693018,-0.13245689868927002,0.9890670776367188,0.06481747329235077,-2.7754926681518555,0.007439891807734966,-0.6054254770278931,-0.006062343716621399,-0.1980515718460083,-0.058210380375385284
280,-2.497724421904943,-1.22473936897499,2.063519477646216,-0.20361445844173431,0.9407174587249756,0.27127841114997864,-2.1902825832366943,0.5023675560951233,-0.7854605317115784,-0.163771390914917,0.16537690162658691,-0.35774993896484375
281,-2.3937821885255968,-1.0779534828968091,2.033605824182806,-0.32174623012542725,0.8809913992881775,0.3468905985355377,-0.5922906994819641,0.23066692054271698,-0.3529936671257019,0.8312067985534668,0.3506672978401184,-0.6396611928939819
282,-2.1053928739296035,-1.1792856819858921,2.2829406094181643,-0.3283441960811615,0.9243336915969849,0.19441531598567963,3.6210737228393555,-0.2531711161136627,0.8153818249702454,0.4749048948287964,0.37289226055145264,0.04093623161315918
283,-0.9990690262005949,-1.4078059376658187,-2.790985410553881,-0.13646277785301208,0.9867464303970337,-0.08780127018690109,2.365422487258911,0.9475988149642944,1.1583430767059326,-0.801876425743103,1.1591885089874268,0.4906179904937744
284,0.14673004077691443,-1.3088941932296436,-1.6076194455052446,0.03785494714975357,0.9658992290496826,-0.2561362683773041,2.2363839149475098,-3.2649827003479004,1.1639161109924316,-0.21102696657180786,-0.3284022808074951,0.29580914974212646
285,-0.05102934373802764,-1.1485771546027874,-1.458531304688996,-0.020902013406157494,0.9121817946434021,-0.4092521369457245,-0.6602858901023865,-1.4768348932266235,0.45093807578086853,-0.5013452768325806,-1.4759788513183594,0.9087486267089844
286,-0.06205589310707125,-1.2654015440764312,-1.4154354913321476,-0.018646350130438805,0.9537283182144165,-0.30009087920188904,-0.45480063557624817,-0.5306506156921387,1.5441491603851318,1.1581422090530396,3.2208778858184814,-0.9629553556442261
287,-0.05690215500142477,-1.2518170462154012,-1.3302868100210823,-0.0178347360342741,0.9495559930801392,-0.3130897581577301,-1.3566111326217651,1.4539698362350464,-2.89221453666687,-1.1682919263839722,2.2070600986480713,1.6604102849960327
288,-0.22593264345719652,-1.4491621700690698,-1.6489397852274756,-0.02718101628124714,0.9926117062568665,-0.11825181543827057,-2.1252169609069824,1.422669768333435,-0.7780393362045288,-0.06550085544586182,0.4216645359992981,0.4741020202636719
289,-2.3552999260332337,-1.409717054676125,2.4490101234790838,-0.11350938677787781,0.9870547652244568,0.11330648511648178,-2.3816254138946533,0.2487747073173523,-0.38072672486305237,0.1685630977153778,-0.05466651916503906,0.19925451278686523
290,-2.6341548107990627,-1.2166332306022782,2.057100487212908,-0.168526753783226,0.9379370808601379,0.30310583114624023,-2.165925979614258,0.8594445586204529,-0.41951996088027954,-0.23694510757923126,-0.027826428413391113,-0.5042166709899902
291,-2.480068703519128,-1.0783066207237786,2.070876379202562,-0.29046377539634705,0.8811584115028381,0.3730831444263458,-0.16823701560497284,1.0057129859924316,-0.17657271027565002,0.7804386615753174,0.4217897057533264,-0.38443562388420105
292,-2.1037255498003358,-1.2476481576818081,2.4018574233772854,-0.2735154330730438,0.9482403993606567,0.16133543848991394,3.710880756378174,-1.395535945892334,1.2213330268859863,0.3608415722846985,0.28277748823165894,0.17769953608512878
293,-0.6206082427011971,-1.4176939485945343,-2.3634943986084465,-0.08868645131587982,0.9883027076721191,-0.12406690418720245,1.201338291168213,1.402119517326355,0.7268542647361755,-0.8286871910095215,0.8419280052185059,0.5307288765907288
294,0.22150480641239279,-1.271342892236318,-1.4769029886024347,0.06481049954891205,0.9554978609085083,-0.28779086470603943,2.553145170211792,-3.443228244781494,0.7435026168823242,-0.08533355593681335,-0.4422532320022583,0.509592592716217
295,0.024886784923375913,-1.1960490867349935,-1.3869891324899386,0.009108551777899265,0.9306001663208008,-0.36592400074005127,-1.9419047832489014,-1.2468926906585693,0.09106800705194473,-0.3948202133178711,-1.2574434280395508,0.7842589616775513
296,-0.04689664853125325,-1.2672903398475004,-1.328446263517957,-0.014010756276547909,0.9542945027351379,-0.29853910207748413,1.8623749017715454,-4.089172840118408,0.8133264183998108,0.7047608494758606,0.347356379032135,-0.4619283974170685
297,-0.1574948364827384,-1.2729820230212021,-1.4655261103640567,-0.04602307826280594,0.955980122089386,-0.28979945182800293,-1.0568727254867554,0.5934802293777466,-1.0994764566421509,0.01953382045030594,0.867918074131012,2.0370376110076904
298,-0.28010394924400606,-1.461669270269278,-1.7477677234614433,-0.030109010636806488,0.9940515756607056,-0.10466624051332474,-1.5176011323928833,1.7577717304229736,-1.2182705402374268,-0.08648335933685303,0.35127007961273193,0.007223606109619141
299,-2.3979969868370223,-1.4330534853512074,2.3663912887280376,-0.09294828027486801,0.9905284643173218,0.10106316953897476,-1.8526934385299683,1.351033329963684,-0.5460712313652039,0.1512978971004486,-0.21638917922973633,0.006816491484642029
300,-2.5584676694123547,-1.24173022971533,2.070157437106627,-0.17794276773929596,0.9463445544242859,0.2697557508945465,-1.8481669425964355,0.9307553768157959,-0.8637334704399109,0.03814177215099335,-0.04224616289138794,-0.250453382730484
301,-2.3929603639128243,-1.1277315344659806,2.113552918723637,-0.29179635643959045,0.9034420251846313,0.3140820562839508,0.957615315914154,1.001695990562439,-0.14486439526081085,0.6831232905387878,0.23713719844818115,-0.7981518507003784
302,-1.7412680914976537,-1.3187856731486867,2.8165834986773297,-0.245736762881279,0.9684129953384399,0.04230174794793129,3.3446342945098877,-2.577552556991577,1.9565531015396118,0.5836121439933777,0.31657522916793823,0.9090226888656616
303,-0.2242946888769267,-1.3329371096586922,-2.0228903032304544,-0.05240698531270027,0.9718446135520935,-0.22972096502780914,0.33796367049217224,1.8885544538497925,1.3796665668487549,-0.5306771397590637,-0.0013245344161987305,0.5512083768844604
304,0.29274281178854633,-1.19551648501624,-1.3889892555119805,0.10577386617660522,0.9304050803184509,-0.35093915462493896,1.3635727167129517,-3.311903476715088,0.7248986959457397,-0.24612420797348022,-0.4398960471153259,0.5741294622421265
305,0.09918343041472005,-1.1962542947331996,-1.3809079826539246,0.03622642159461975,0.9306752681732178,-0.3640482425689697,-1.6810895204544067,-1.4408395290374756,-0.36818650364875793,-0.18849387764930725,-0.9682729840278625,0.043461114168167114
306,-0.09731728805185412,-1.2754972910191817,-1.4317564963461258,-0.028277188539505005,0.9567151665687561,-0.289649099111557,0.46617525815963745,-2.643312454223633,0.8155409693717957,0.5125758647918701,1.1354784965515137,-0.7515953779220581
307,-0.1719568990301094,-1.2247457024258244,-1.4476261632030292,-0.05803826451301575,0.9407196044921875,-0.33418309688568115,-0.384389728307724,-0.39702776074409485,-0.4056457579135895,-0.5325989723205566,0.2010345458984375,1.9566043615341187
308,-0.6917757461420334,-1.4142911989868692,-2.1784551680624618,-0.09942799061536789,0.9877780675888062,-0.12003488093614578,-1.9456877708435059,-0.18008792400360107,-0.880517840385437,0.012483403086662292,0.3020319938659668,0.13936777412891388
309,-2.005270672242121,-1.3873471916964593,2.7789823429583125,-0.16547389328479767,0.9832203388214111,0.07678776979446411,-1.877090334892273,-0.43036627769470215,-0.5505919456481934,0.441795289516449,-0.09428894519805908,-0.09758543223142624
310,-2.4725329316803775,-1.2110593360731414,2.1938988321848325,-0.21834507584571838,0.9359894394874573,0.2761327922344208,-1.7116373777389526,-0.4799412190914154,-1.3188722133636475,-0.4591298997402191,-0.0096435546875,-0.8006231784820557
311,-2.3504151540479397,-1.0660200687514811,2.2310896753790717,-0.3439357876777649,0.8752827048301697,0.33998313546180725,0.7096363306045532,1.0618414878845215,-0.14332281053066254,0.6989772319793701,0.3004832863807678,-0.8658009767532349
312,-1.8996521380550278,-1.2967868093824984,2.730704339134262,-0.25609320402145386,0.9626936912536621,0.08739101886749268,3.0001113414764404,-1.1368107795715332,2.2952489852905273,0.13293951749801636,0.6615891456604004,0.5139273405075073
313,-0.410432073340322,-1.4101339242944357,-2.1221538405666127,-0.06382961571216583,0.9871215224266052,-0.14668585360050201,0.28294673562049866,1.4169642925262451,2.1747095584869385,-0.33576756715774536,0.0585174560546875,0.5061218738555908
314,0.13641949535940825,-1.2401207898341262,-1.3991750060090875,0.04415573179721832,0.9458232522010803,-0.3216657340526581,1.9638067483901978,-3.857217311859131,0.5199297070503235,-0.22268354892730713,-0.9059977531433105,0.7752484679222107
315,-0.11580402096223018,-1.283764870300282,-1.3745379917404494,-0.03271164000034332,0.9590885043144226,-0.2812102735042572,-2.8796558380126953,-1.8814826011657715,-0.3320815861225128,-0.20627152919769287,-0.8679478168487549,0.10906064510345459
316,-0.034886636134563234,-1.2449326734494994,-1.1982046703380467,-0.011165881529450417,0.9473745822906494,-0.3199319839477539,2.7093191146850586,1.9762790203094482,0.7337672710418701,0.13972118496894836,-0.7236350774765015,3.3694162368774414
317,-0.15790245795762087,-1.3147329318875403,-1.4189590748585124,-0.03982662409543991,0.9673945307731628,-0.2501232326030731,-2.707618474960327,2.24875545501709,0.20103146135807037,0.11978268623352051,-0.4614589214324951,0.8395702838897705
318,-1.4338583000846163,-1.45598532831032,-2.807050385475073,-0.11348620802164078,0.993416428565979,-0.015638450160622597,-2.235201835632324,0.3042937219142914,-0.7764586806297302,0.14618581533432007,-0.0036703944206237793,0.11042600870132446
319,-2.4360269082264,-1.285141060886072,2.3988986565872903,-0.1827283650636673,0.9594771862030029,0.2145082801580429,-2.4192252159118652,1.505184292793274,-0.27324169874191284,0.019947603344917297,-0.4025161862373352,-0.0718081146478653
320,-2.418533414138288,-1.097326610893733,2.2513229150652143,-0.30171164870262146,0.8899915218353271,0.3418848216533661,-0.7955713868141174,2.145127296447754,-0.9343868494033813,0.5252681970596313,0.40937066078186035,-0.5272181034088135
321,-2.22365714695193,-1.1114393495961639,2.378056429421706,-0.35219213366508484,0.8963378071784973,0.26933133602142334,2.9253122806549072,0.7624542713165283,0.25347572565078735,0.22282811999320984,0.991220235824585,-0.9842666387557983
322,-1.384305174388454,-1.360553386252975,-2.9819947772454913,-0.2050786167383194,0.9779802560806274,-0.03869498148560524,3.190852642059326,0.1671549677848816,1.949513554573059,-0.5794824957847595,1.213181734085083,0.09156668186187744
323,0.004942599471899289,-1.3740234714338027,-1.7049176697329347,0.0009663021774031222,0.9807025790214539,-0.19550326466560364,1.4649683237075806,-0.4372076094150543,2.3822553157806396,0.006678342819213867,-0.27568554878234863,0.29776763916015625
324,0.017546398055844816,-1.1913652207679792,-1.3606141056806378,0.006498715840280056,0.9288755059242249,-0.370335191488266,0.4094808101654053,-3.6523382663726807,0.46777576208114624,-0.2551406919956207,-1.3751797676086426,1.0571485757827759
325,-0.13215247470770022,-1.294855162176625,-1.3617774779148937,-0.03590058535337448,0.9621692299842834,-0.27007704973220825,0.11971163749694824,1.101585865020752,0.7874664664268494,0.6014676094055176,3.321049213409424,-2.3813512325286865
326,-0.08233757603412344,-1.2307254541013217,-1.1894989327028311,-0.027433013543486595,0.9427310228347778,-0.3324240446090698,-1.1584504842758179,1.6822571754455566,-2.9642984867095947,-1.210039496421814,1.8326138257980347,3.151500701904297
327,-0.6396903139238108,-1.4256058556834146,-1.9156576171024657,-0.08636724203824997,0.989478349685669,-0.11607523262500763,-2.0433096885681152,0.3937346339225769,-1.1696721315383911,0.061937928199768066,0.36379313468933105,0.42592018842697144
328,-2.1176344154127884,-1.3943672747454132,2.8060471945883982,-0.14992012083530426,0.9844767451286316,0.09126584231853485,-2.4571478366851807,0.6345236897468567,-0.5937995314598083,0.11271922290325165,-0.13378405570983887,-0.060565121471881866
329,-2.46587512592313,-1.18954811689147,2.3675333140811676,-0.23271985352039337,0.928200900554657,0.2903181314468384,-1.8494058847427368,0.799260675907135,-1.1085628271102905,-0.10756641626358032,0.17571139335632324,-0.4570356607437134
330,-2.3056130702170803,-1.0723133824277493,2.403605758364599,-0.35472315549850464,0.878308892250061,0.32053831219673157,0.5794775485992432,-0.06689547747373581,-0.4219072461128235,1.0304434299468994,0.3066580295562744,-0.7566344738006592
331,-1.8847765443485587,-1.2623207874073537,2.875783576262129,-0.2887634336948395,0.952797532081604,0.09376776963472366,2.977118968963623,-2.3105227947235107,3.0083744525909424,0.9406800270080566,0.4851906895637512,0.5441259145736694
332,-0.2803854913285819,-1.404865989430158,-1.7663098405331983,-0.04570702835917473,0.9862651228904724,-0.15872053802013397,1.2245632410049438,-0.8660098314285278,2.6135759353637695,-0.4050986170768738,-0.14182835817337036,0.14048628509044647
333,0.16292165038318998,-1.159057862175175,-1.1254085469339405,0.06491365283727646,0.9164264798164368,-0.3949032425880432,2.703773260116577,-4.449663162231445,0.7401584386825562,-0.28433504700660706,-0.7969197034835815,0.722082257270813
334,-0.05766623800405061,-1.151964842986264,-1.102059308199634,-0.02343948557972908,0.9135648012161255,-0.4060174226760864,-2.7808637619018555,-1.2231162786483765,0.011720143258571625,-0.09593001008033752,-0.9558467864990234,0.43682485818862915
335,-0.08919748054175933,-1.216650293762641,-1.0347286930302517,-0.03089175745844841,0.9379429817199707,-0.34541094303131104,1.597640037536621,-2.459491014480591,1.0356210470199585,0.17772707343101501,-0.5112614631652832,0.06368792057037354
336,-0.1423803811270778,-1.2130618875147876,-1.1330014838742897,-0.04968664422631264,0.9366925358772278,-0.34660980105400085,-1.000166893005371,1.6617467403411865,0.12549538910388947,0.29843541979789734,-0.3107617497444153,1.5005710124969482
337,-0.44345645420316615,-1.4357032916454961,-1.5567887949622867,-0.05778772383928299,0.9908888339996338,-0.12165582180023193,-1.5962339639663696,0.13043087720870972,-0.5067886710166931,-0.048337168991565704,0.19084346294403076,0.18716178834438324
338,-2.385467537876602,-1.41137179735155,2.6954027294852305,-0.10891898721456528,0.9873188138008118,0.11548999696969986,-1.9199494123458862,-0.6696544885635376,-0.3547154366970062,0.35020625591278076,-0.044585227966308594,-0.034130118787288666
339,-2.6419124959390645,-1.221459933287145,2.260716163366567,-0.16399885714054108,0.9396000504493713,0.3004262447357178,-2.0787510871887207,1.9587153196334839,-0.7216100096702576,-0.2919185161590576,0.03731328248977661,-0.38386133313179016
340,-2.456149252027906,-1.098782921307974,2.301381831049817,-0.28781992197036743,0.8906546235084534,0.351985365152359,0.05617787316441536,1.0797688961029053,-0.10321586579084396,0.4362269341945648,0.3932197093963623,-0.6695359945297241
341,-2.0059152162431806,-1.2980969166581406,2.744009665437581,-0.24423621594905853,0.9630473852157593,0.11352861672639847,3.170687437057495,-1.9219547510147095,2.2083287239074707,0.6856424808502197,0.4233968257904053,0.5100675821304321
342,-0.24848011072732662,-1.4490331575596282,-1.7807317892766716,-0.029871642589569092,0.9925960302352905,-0.11773302406072617,0.17494508624076843,-0.03824525699019432,2.616020441055298,-0.2373250126838684,0.17436575889587402,0.3141899108886719
343,0.2718911948657756,-1.2263575969863572,-1.0684615256113785,0.09068211168050766,0.9412651062011719,-0.32526418566703796,2.132779598236084,-4.037101745605469,0.2639184594154358,-0.36312779784202576,-0.7510490417480469,0.7540361881256104
344,-0.015553486596252102,-1.2075116611947097,-1.0927703248575489,-0.005526656750589609,0.9347347021102905,-0.35530367493629456,-2.1862306594848633,-1.5227994918823242,-0.08363157510757446,-0.32633674144744873,-1.0275843143463135,0.5392178297042847
345,0.10003415917614748,-1.2426184669094262,-0.8876742658301182,0.03218912333250046,0.9466312527656555,-0.3207072615623474,1.4849655628204346,-2.0041189193725586,0.974493145942688,0.9097816944122314,-0.13819009065628052,0.2674540877342224
346,0.0033843308643551917,-1.2369270792380844,-1.0207830179579898,0.0011090472107753158,0.944781482219696,-0.32769933342933655,-2.591782808303833,2.4510560035705566,-0.027292773127555847,0.2002612054347992,-0.7542906999588013,1.0032364130020142
347,-0.7556983282346249,-1.4595334278073089,-1.9702792077010776,-0.07614646852016449,0.9938166737556458,-0.08080939948558807,-1.9843333959579468,-0.42315545678138733,-0.914331316947937,0.016789793968200684,0.04187357425689697,-0.026551485061645508
348,-2.3732177644315784,-1.3746519194891218,2.6374826376241547,-0.1354416012763977,0.9808253049850464,0.14013323187828064,-1.983649492263794,1.1718640327453613,-0.39057594537734985,0.3541610538959503,-0.2853754758834839,-0.10155904293060303
349,-2.5482049932943265,-1.189221599122043,2.3295768265223975,-0.2082257717847824,0.92807936668396,0.3087235689163208,-1.554726004600525,1.4973620176315308,-1.0531069040298462,-0.1373094767332077,-0.11611366271972656,-0.3854905962944031
350,-2.401096982556639,-1.0734915228998576,2.3786263002887655,-0.3218495845794678,0.878871500492096,0.35213345289230347,-0.07747451215982437,0.5878161191940308,-0.571498692035675,0.393474280834198,0.47267580032348633,-0.5683046579360962
351,-2.020533829528392,-1.262368228895086,2.7738795035938284,-0.2733757197856903,0.9528118968009949,0.13196703791618347,2.9811301231384277,-1.805090308189392,2.4819321632385254,0.5836784839630127,0.2465747594833374,0.5294556617736816
352,-0.36545918152825235,-1.4496749183636901,-1.8288944681522117,-0.04318057745695114,0.9926737546920776,-0.11284662038087845,0.20088627934455872,0.5458344221115112,2.296224355697632,-0.46663081645965576,0.29232990741729736,0.49738335609436035
353,0.273047895995058,-1.212183239130228,-1.023310022386391,0.09464679658412933,0.9363844990730286,-0.3379732668399811,2.5661745071411133,-4.236996650695801,0.6691530346870422,-0.3194087743759155,-0.7317794561386108,0.6837526559829712
354,0.014144832099675769,-1.1601122563091406,-1.0198058361532052,0.005646945908665657,0.9168479442596436,-0.3991966247558594,-1.99443519115448,-1.3568922281265259,-0.09151308238506317,-0.373795747756958,-1.423363447189331,0.8863792419433594
355,-0.025528627965021686,-1.286299786768105,-0.9682008102948361,-0.007164448499679565,0.9598031044006348,-0.2805827260017395,0.629753828048706,-4.084991455078125,0.435945600271225,1.025871753692627,1.9754996299743652,-1.1451679468154907
356,-0.19391987854742834,-1.3111258016527885,-1.097863606812569,-0.049479834735393524,0.9664746522903442,-0.251949667930603,-0.8451782464981079,3.26121187210083,-2.743637800216675,-0.4698377847671509,1.8556841611862183,2.8664822578430176
357,-0.872000323958537,-1.497767663140781,-1.9188432144188587,-0.05586252361536026,0.9973345994949341,-0.046937495470047,-1.944601058959961,0.5975267887115479,-0.8549679517745972,0.023223966360092163,0.4649304151535034,0.3916487693786621
358,-2.5233631339493487,-1.3724383741816444,2.5828976110142596,-0.11421457678079605,0.9803915023803711,0.16058523952960968,-1.933745265007019,-0.23209330439567566,-0.842047393321991,0.23584237694740295,-0.3832997679710388,-0.14578425884246826
359,-2.623206262212288,-1.165972347506391,2.3796569358166786,-0.1951480656862259,0.9191717505455017,0.3421122133731842,-1.6246421337127686,1.0444375276565552,-0.856334388256073,-0.1286740005016327,-0.12121325731277466,-0.7634685039520264
360,-2.4246904015702104,-1.0913102505291818,2.4399329763898776,-0.3031136691570282,0.8872321248054504,0.34776613116264343,1.0897469520568848,0.6448854207992554,0.38627398014068604,0.7309701442718506,0.7149559855461121,-0.8515198230743408
361,-1.81187961457492,-1.3884970123794866,3.0974745579175402,-0.1760479211807251,0.9834294319152832,0.04328405112028122,3.4569504261016846,0.19913680851459503,2.2909438610076904,-0.3504565954208374,1.2569574117660522,0.4691976308822632
362,0.19441945741454836,-1.4123504282222183,-1.3136444885657896,0.030483301728963852,0.9874736666679382,-0.15481090545654297,1.1413265466690063,0.3213387429714203,2.8429996967315674,-0.07508471608161926,-0.09076046943664551,0.17362499237060547
363,0.20342187234986495,-1.1729412119785094,-1.0460148493693977,0.07827173918485641,0.9218941330909729,-0.3794533312320709,1.2047029733657837,-3.8911895751953125,0.29604214429855347,-0.4378451108932495,-1.3441200256347656,0.9526955485343933
364,-0.06009389084985533,-1.2845333510325596,-1.1247231766149008,-0.016958462074398994,0.9593057632446289,-0.2818596661090851,0.5065293312072754,-0.7155978083610535,-0.444866418838501,-0.29882219433784485,0.043852806091308594,-2.2829596996307373
365,0.07677862018493055,-1.229382755733044,-0.9436689721433451,0.025681743398308754,0.9422823190689087,-0.3338332772254944,0.20741841197013855,-1.5244231224060059,-0.8514918088912964,-2.0600597858428955,-0.2475954294204712,-2.145430088043213
366,-0.1736035591518249,-1.4233705091640587,-1.3470638465205373,-0.025373080745339394,0.9891524910926819,-0.1446840614080429,-2.834343194961548,3.095855236053467,-2.037447214126587,-0.26060712337493896,0.8098281621932983,0.6149446964263916
367,-1.971082129210554,-1.4421196624268744,3.0708210235910802,-0.11817770451307297,0.9917325973510742,0.05000454932451248,-2.592862844467163,0.7393589019775391,-0.2244269698858261,0.24110248684883118,-0.08064556121826172,0.2256760597229004
368,-2.5778451484646605,-1.276175324837531,2.3619371957452304,-0.15516534447669983,0.9569122791290283,0.24544396996498108,-1.9645217657089233,0.5555799603462219,-0.7265464067459106,-0.2716076970100403,0.10348212718963623,-0.37459442019462585
369,-2.4497564336524547,-1.1002867147394055,2.363916582100278,-0.2892098128795624,0.8913373947143555,0.3491068482398987,-0.7135294079780579,1.0001791715621948,-0.6563679575920105,0.7042946219444275,0.3007708787918091,-0.32763776183128357
370,-2.27848671709985,-1.1725743976358725,2.4905095686377745,-0.29466044902801514,0.9217519760131836,0.25208809971809387,3.732353448867798,0.41152146458625793,0.7805956602096558,0.38584697246551514,1.0391550064086914,-0.824307918548584
371,-0.9631068680464486,-1.4290056286179487,-2.419940327751876,-0.11601568758487701,0.9899645447731018,-0.08068719506263733,2.9422597885131836,0.857742190361023,1.7247347831726074,-0.7160155177116394,1.0226696729660034,0.21267575025558472
372,0.42875798199720966,-1.3100492302496756,-1.1314843707149653,0.10717907547950745,0.966197669506073,-0.23446667194366455,2.4304535388946533,-1.9852582216262817,1.6362696886062622,-0.05671830475330353,-0.2506062984466553,0.09941115975379944
373,0.10700957079531373,-1.1203706024002167,-1.096255359693236,0.04649762436747551,0.9002618193626404,-0.43285852670669556,-0.1698366403579712,-2.425825834274292,0.1476980447769165,-0.4004862904548645,-1.3502588272094727,1.0177432298660278
374,-0.11304819704825063,-1.2831238064226316,-1.1718823098420106,-0.032005902379751205,0.9589068293571472,-0.281910240650177,0.9477422833442688,-0.24705694615840912,-0.5796482563018799,-0.135489821434021,0.3357861638069153,-2.5337789058685303
375,-0.11920265469035318,-1.1428678674322472,-1.056606062379825,-0.04935048520565033,0.9098273515701294,-0.41204217076301575,0.93076092004776,-0.7588785290718079,-1.210915446281433,-1.442577600479126,0.8892143368721008,0.14499810338020325
376,-0.4444579601876283,-1.3650348723005812,-1.6027916845001708,-0.08784802258014679,0.9789056777954102,-0.18446244299411774,-3.208120584487915,2.6349034309387207,-2.5646812915802,-0.5132872462272644,1.3131933212280273,0.709044337272644
377,-1.5751170993892636,-1.4129077198603315,-2.7946620751743856,-0.157231867313385,0.9875614643096924,0.0006793673965148628,-2.7431998252868652,-0.19705884158611298,-0.27978143095970154,0.3649649918079376,-0.3684971332550049,-0.0892871618270874
378,-2.4861342918027955,-1.2961403227814579,2.4917843775434925,-0.16531254351139069,0.962518572807312,0.2150118499994278,-2.113828659057617,0.6447336673736572,-0.5055215358734131,-0.267747163772583,-0.054055869579315186,-0.5650331974029541
379,-2.4183563686199587,-1.102456999739126,2.4547297309757035,-0.29874634742736816,0.8923191428184509,0.3384038805961609,-0.7111040353775024,1.0331575870513916,-1.1573090553283691,0.7054693698883057,0.3314204216003418,-0.48130249977111816
380,-2.2662261147569724,-1.1492934945646185,2.6005848292920537,-0.31412312388420105,0.9124751091003418,0.2621375620365143,3.688556671142578,-0.1423051506280899,0.9051592350006104,0.5091913938522339,1.0807348489761353,-0.6569129228591919
381,-1.1722378352001086,-1.4400755240538157,-2.5021378684268627,-0.12013327330350876,0.9914681911468506,-0.05058753117918968,3.227620840072632,-0.01757877692580223,1.8419437408447266,-0.5984336733818054,1.258806586265564,-0.039973385632038116
382,0.3088334392143945,-1.3252403506296124,-1.0809780314179218,0.07388819009065628,0.970002293586731,-0.23159413039684296,2.5272538661956787,-0.43337482213974,1.569697618484497,-0.29794827103614807,-0.330277681350708,0.39320001006126404
383,0.06930061854083874,-1.127677116029696,-1.0299847624299203,0.029689528048038483,0.9034186601638794,-0.4277304410934448,-0.019572407007217407,-2.0047669410705566,-0.0871153473854065,-0.5243337154388428,-1.422232747077942,0.9582022428512573
384,-0.13445284600237734,-1.2331283604242986,-1.1270343410189394,-0.04440848156809807,0.9435297846794128,-0.3282977044582367,-1.6901012659072876,-0.16826605796813965,0.6762307286262512,0.8604484796524048,2.8635075092315674,-0.5911511182785034
385,-0.1750386181807654,-1.2155727399800542,-1.0751605377431355,-0.06056806445121765,0.937568724155426,-0.3424857258796692,-0.8191316723823547,1.4984170198440552,-1.4926105737686157,-0.35657671093940735,0.6633834838867188,2.4471304416656494
386,-0.5204674059976442,-1.3718348590048388,-1.5869783426734834,-0.09828921407461166,0.9802723526954651,-0.1714797466993332,-1.973307490348816,0.814516544342041,-1.4812992811203003,-0.05075863003730774,0.32256877422332764,0.4412551522254944
387,-1.67063875499246,-1.4012039442211315,-2.738421426072531,-0.1679403930902481,0.9856536388397217,0.01682351529598236,-2.234004020690918,-0.35887742042541504,-0.19140486419200897,0.17654633522033691,-0.16824030876159668,0.045584917068481445
388,-2.360368207802405,-1.2888714253179454,2.800157971497767,-0.19589799642562866,0.9605216979980469,0.19754010438919067,-1.5002943277359009,0.428072065114975,-0.5348131060600281,-0.04702192544937134,0.08787918090820312,-0.26171863079071045
389,-2.3834879137452756,-1.1275694610746465,2.6815464939893006,-0.2948589324951172,0.9033725261688232,0.31141021847724915,-0.87095707654953,0.6129398345947266,-0.8809973001480103,0.3705425560474396,0.46309781074523926,-0.44368863105773926
390,-2.2558368198563867,-1.109684532516478,2.7809827983101565,-0.3445618748664856,0.8955583572387695,0.2815181612968445,2.099686622619629,0.5724835991859436,0.4489527642726898,0.5999177098274231,0.6530410051345825,-0.5447781085968018
391,-1.5323836654939156,-1.3499895788240328,-2.681116257248575,-0.21885515749454498,0.9757210612297058,-0.00841094646602869,2.983562707901001,-0.14107367396354675,1.7777507305145264,-0.29091042280197144,1.1938955783843994,0.17760038375854492
392,-0.4140061459898033,-1.4109977123980733,-1.6399707202734792,-0.06401070952415466,0.9872593283653259,-0.14567671716213226,0.7065010666847229,1.0904659032821655,2.776860475540161,-0.06085196137428284,-0.1375432014465332,0.30313217639923096
393,0.1441128756458914,-1.2143190628575946,-0.8538208852454438,0.050117917358875275,0.9371320009231567,-0.34535762667655945,1.7610691785812378,-3.9478726387023926,0.7806186079978943,-0.22614333033561707,-0.8957959413528442,0.8511865139007568
394,-0.029446310354143402,-1.2738149860457237,-0.7742385281353149,-0.008615771308541298,0.9562242031097412,-0.29250800609588623,-2.3660287857055664,-1.2337497472763062,-0.33657121658325195,-0.28389522433280945,-0.5416887402534485,-0.15697017312049866
395,0.06717172279805778,-1.2413009850182244,-0.583639503133171,0.02171812206506729,0.946205735206604,-0.3228359520435333,-0.1253720223903656,2.2112393379211426,0.9191694259643555,-0.1690112054347992,-1.046593427658081,3.0890865325927734
396,-0.13936488385956272,-1.3593774162990242,-0.8910434430713332,-0.02915080636739731,0.9777341485023499,-0.20781299471855164,-2.619527816772461,1.1492074728012085,0.15111249685287476,0.11450845003128052,-0.5435300469398499,0.9580876231193542
397,-1.6564936422922933,-1.4744881959272067,-2.5891466826123795,-0.0958063080906868,0.9953659772872925,0.008230501785874367,-1.5209314823150635,1.1108272075653076,-0.9109028577804565,0.013866603374481201,-0.0044907331466674805,-0.1734374761581421
398,-2.5740465797443806,-1.3109969174957197,2.685701862056285,-0.13809330761432648,0.9664415121078491,0.21661292016506195,-2.170409917831421,1.9162569046020508,0.23154400289058685,0.09050112962722778,-0.2693742513656616,-0.34849464893341064
399,-2.533558509855322,-1.1175826062766419,2.5681282425655403,-0.25012820959091187,0.8990445733070374,0.3593813180923462,-0.8523911833763123,1.6205391883850098,-1.1361030340194702,0.5354980826377869,0.2435794472694397,-0.4610048234462738
400,-2.3239427935694135,-1.1292996351083533,2.662435944849569,-0.31172749400138855,0.9041131734848022,0.2922417223453522,2.7979331016540527,1.5229419469833374,0.4287383258342743,0.4590359032154083,0.683441698551178,-0.7308708429336548
401,-1.3651903940259174,-1.4261821224548727,-2.595659081207468,-0.1410745531320572,0.9895615577697754,-0.029421523213386536,3.056157350540161,0.8646988272666931,2.6851816177368164,-0.22974450886249542,1.174317717552185,0.31177014112472534
402,0.5642279632303933,-1.3726232909053702,-0.7687375472393038,0.10528340935707092,0.9804279208183289,-0.16636259853839874,2.242596387863159,-0.9703713655471802,2.623337984085083,-0.06890648603439331,0.05178338289260864,0.12147128582000732
403,0.15444747835713926,-1.1593223420212428,-0.8066749549778146,0.06152763217687607,0.9165322780609131,-0.39519989490509033,0.4630787968635559,-3.312469482421875,0.09339699149131775,-0.5642589330673218,-1.5780160427093506,1.0023165941238403
404,-0.053152232335353176,-1.268894023165222,-0.8424456264605876,-0.015796691179275513,0.9547725915908813,-0.29691722989082336,0.7329913377761841,2.1625750064849854,1.1641020774841309,0.7418556213378906,1.6405948400497437,-2.5308263301849365
405,0.17333120976212663,-1.2314074839967353,-0.5026439581656188,0.05741531774401665,0.9429582953453064,-0.3279223144054413,-0.9335241317749023,-1.5027837753295898,-0.13448704779148102,-2.3995020389556885,-0.5330767631530762,-4.020924091339111
406,-0.08286188493509013,-1.3853770734494724,-0.9137702697211665,-0.015258844010531902,0.9828590154647827,-0.18372628092765808,-2.623331308364868,0.6092917323112488,-0.5092296004295349,-0.2522582411766052,-0.17847669124603271,0.7830915451049805
407,-1.7295877994420235,-1.4649404099558443,-2.729115483115212,-0.1043282076716423,0.9944024682044983,0.01670708693563938,-2.3377301692962646,0.5034493803977966,-0.7069216966629028,0.2128334492444992,0.03175097703933716,-0.10774099826812744
408,-2.5454804932514707,-1.2861991082909827,2.667576837637385,-0.15763314068317413,0.9597747921943665,0.23234497010707855,-2.237807273864746,1.586809754371643,-0.1685160994529724,-0.04536977410316467,0.031344592571258545,-0.39779603481292725
409,-2.3844716429008304,-1.1073323337484593,2.6504590338111385,-0.30704763531684875,0.8945093154907227,0.32492271065711975,-0.682565450668335,1.005025029182434,-0.8959620594978333,0.9195353984832764,0.36626332998275757,-0.36989036202430725
410,-2.187030710357045,-1.189132703868236,2.803792042207476,-0.30395397543907166,0.9280462861061096,0.21527217328548431,3.821913242340088,0.27322307229042053,1.0085738897323608,0.38246047496795654,0.8088158965110779,-0.983689546585083
411,-0.8580607261912135,-1.4657017498885345,-2.094656678801778,-0.07936584949493408,0.9944826364517212,-0.06859562546014786,2.102905750274658,0.6040219068527222,2.3411433696746826,-0.44265255331993103,1.0475705862045288,0.0051038265228271484
412,0.5145784939245085,-1.3257681555174303,-0.7524332023219134,0.11939185112714767,0.9701305031776428,-0.2111690491437912,2.3780710697174072,-1.077671766281128,1.5475159883499146,-0.28873392939567566,-0.3211437463760376,0.3198573589324951
413,0.21766606271016514,-1.1436244365251542,-0.7093287211227945,0.08946835249662399,0.9101410508155823,-0.40452292561531067,-0.019872590899467468,-2.65391206741333,0.33336198329925537,-0.4610503613948822,-1.4114990234375,1.0872011184692383
414,0.17120874468912492,-1.2420709182055143,-0.6347262645863361,0.05500291660428047,0.9464545845985413,-0.3181171417236328,-0.218938410282135,0.793880820274353,1.2315473556518555,1.2316181659698486,2.5354180335998535,-1.3357372283935547
415,0.11783326890347239,-1.2087523912226448,-0.5296495214502628,0.04163843020796776,0.935174822807312,-0.3517303764820099,-0.7664013504981995,0.13396982848644257,-2.079927682876587,-2.101895332336426,1.104833722114563,-2.050537109375
416,0.10698263927155896,-1.3900159474113303,-0.7195394705430573,0.019198477268218994,0.9837036728858948,-0.17876897752285004,-2.2724969387054443,1.356873631477356,-1.2403991222381592,-0.222323477268219,0.19386279582977295,0.5768707990646362
417,-1.9153128413240004,-1.493368418196636,-2.850658160951402,-0.07280350476503372,0.997003972530365,0.02612384222447872,-2.798285484313965,1.3743129968643188,-0.38519150018692017,-0.04528426378965378,-0.17960602045059204,0.031569596379995346
418,-2.5806048256644756,-1.294034966301367,2.6589637212649926,-0.14537100493907928,0.9619454145431519,0.23136219382286072,-2.3066325187683105,1.1481510400772095,-0.5866516828536987,-0.02108713984489441,-0.07580649852752686,-0.3103569746017456
419,-2.43998402645415,-1.1233019514980462,2.6418886220482674,-0.27929016947746277,0.9015341401100159,0.33050450682640076,-0.4837788939476013,1.2155789136886597,-0.6207401156425476,0.7538232803344727,0.4190225601196289,-0.44531163573265076
420,-2.13673731654563,-1.2050560595362874,2.863094366490338,-0.3018789291381836,0.9338592886924744,0.19177062809467316,3.6128618717193604,1.3541921377182007,0.9122406244277954,0.3567952811717987,0.49920040369033813,-0.6489087343215942
421,-0.4999675169370351,-1.462144331449962,-1.697886419679868,-0.05198539048433304,0.994103193283081,-0.09516596794128418,2.4704253673553467,1.9194310903549194,2.291912078857422,-0.7694410085678101,1.7527077198028564,0.3978240489959717
422,0.5514588184056233,-1.2570923061399968,-0.6357393141384169,0.1616765707731247,0.95119708776474,-0.2628399133682251,2.1518590450286865,-2.997755289077759,1.4234521389007568,-0.3608647882938385,-0.07195514440536499,0.1868664026260376
423,0.1898709281641184,-1.087119472511613,-0.6547299628671257,0.08776752650737762,0.8852910399436951,-0.4566801190376282,-0.32989561557769775,-1.9221274852752686,0.01367676630616188,-0.547331690788269,-1.4520483016967773,0.9939268231391907
424,0.09104078443260011,-1.2402778127639997,-0.6424081250370309,0.029504986479878426,0.9458742141723633,-0.32318949699401855,-0.37905070185661316,1.510443091392517,0.8601639866828918,0.7180078029632568,1.7641324996948242,-1.6492226123809814
425,0.12725692140522205,-1.2210860112060336,-0.5235539218101537,0.04348389804363251,0.9394720196723938,-0.3398551046848297,0.8697789311408997,2.0267975330352783,-0.7177839875221252,-1.336559534072876,0.7720453143119812,-0.8051033020019531
426,0.08531682147642337,-1.3400017579755552,-0.7100498654055455,0.019492672756314278,0.9734849333763123,-0.22791935503482819,-2.524122714996338,1.0160638093948364,-2.2753989696502686,-0.586371898651123,0.47126299142837524,0.446303129196167
427,-1.38538112569173,-1.4734291939503985,-2.2658031529467015,-0.0955471470952034,0.9952635765075684,-0.01792174205183983,-2.3951640129089355,1.1672661304473877,-0.4188876450061798,0.1639370620250702,0.04089975357055664,0.09120965003967285
428,-2.5235056239153093,-1.3290021987938567,2.8163284602956793,-0.1387530267238617,0.9709099531173706,0.19514507055282593,-2.5201313495635986,1.1731834411621094,-0.21317309141159058,0.055043309926986694,-0.08435899019241333,-0.1223149299621582
429,-2.5142976547544023,-1.1321602121916239,2.7019473800049947,-0.24928347766399384,0.9053317308425903,0.3438488245010376,-0.7013071179389954,1.2894953489303589,-1.1012566089630127,0.46547001600265503,0.3249080181121826,-0.400336891412735
430,-2.366150395880881,-1.1194668922278979,2.7662256523517224,-0.3053272068500519,0.8998680710792542,0.3114681839942932,2.258035659790039,0.22996173799037933,0.7765239477157593,0.818846583366394,0.9167821407318115,-0.7867490649223328
431,-1.6119372245605748,-1.4122392644914452,-2.6979436843828677,-0.15775932371616364,0.9874561429023743,0.006494024768471718,3.2160604000091553,-0.5442030429840088,1.9336965084075928,-0.5575116276741028,1.3133708238601685,0.26871347427368164
432,0.3667355160721655,-1.4095075369080918,-0.8467091668692172,0.05758309364318848,0.9870211482048035,-0.14991211891174316,1.529300570487976,1.5469928979873657,2.803591728210449,0.04329276829957962,-0.008047640323638916,0.16147826611995697
433,0.21826757469853117,-1.1555752573119213,-0.73865891780441,0.08734995871782303,0.9150271415710449,-0.39382117986679077,1.5286900997161865,-3.5268661975860596,0.37581971287727356,-0.29358774423599243,-1.135440468788147,0.9850841164588928
434,-0.020663469007282904,-1.225601363995272,-0.7423411208561893,-0.006991606205701828,0.941009521484375,-0.3383077085018158,-2.1009390354156494,-1.6849257946014404,-0.2734392285346985,-0.03754881024360657,-0.5171509385108948,-0.24071750044822693
435,0.02384108677676362,-1.1808050988956256,-0.5539772462695011,0.00906305480748415,0.9249123930931091,-0.38007232546806335,0.8288722038269043,1.9683313369750977,0.2557485103607178,-0.6246941685676575,-0.47786039113998413,1.9238193035125732
436,-0.03204764535551729,-1.2699945155225425,-0.7349366592651239,-0.009493640623986721,0.9550992250442505,-0.29613375663757324,-3.4946072101593018,2.803448438644409,-0.42376115918159485,-0.1970950961112976,-0.42073655128479004,1.2499911785125732
437,-1.1962719080190525,-1.4196140210654578,-2.0714794990121597,-0.14016760885715485,0.9885936975479126,-0.05509672313928604,-1.7867448329925537,0.3275805711746216,-1.0192118883132935,0.33342018723487854,0.3044971227645874,0.18778711557388306
438,-2.3523018100571305,-1.3318188683607122,2.948160359623047,-0.16802899539470673,0.9715805053710938,0.16672588884830475,-2.105870246887207,1.4957208633422852,0.020790066570043564,0.16287152469158173,-0.386299192905426,-0.11400677263736725
439,-2.4612758082372856,-1.1243917501463476,2.729786412260909,-0.2715722322463989,0.902005136013031,0.33561182022094727,-0.9784178733825684,1.293269157409668,-1.2604705095291138,0.4957849085330963,0.244387686252594,-0.6288552284240723
440,-2.273721583223943,-1.0890969450325834,2.8345431587167393,-0.3534660041332245,0.8862088918685913,0.299492210149765,2.2701616287231445,1.0891352891921997,0.5005176663398743,0.8275412917137146,0.5689607858657837,-0.7463916540145874
441,-1.7155884127409446,-1.412581426641661,-2.7858506220013726,-0.15590707957744598,0.987510085105896,0.02273319847881794,3.0871641635894775,-0.04376494511961937,2.333848476409912,-0.4694285988807678,1.590294361114502,0.4904961585998535
442,0.31116405484747695,-1.3995607678348851,-0.8339234212546569,0.052171047776937485,0.9853749871253967,-0.1622176170349121,2.1768853664398193,0.18963046371936798,2.839933395385742,-0.18716555833816528,-0.04897350072860718,0.2595229148864746
443,0.15824317225112866,-1.1696829561930522,-0.6767073578315342,0.06152747943997383,0.9206268787384033,-0.3855651319026947,0.609199047088623,-3.1083059310913086,0.17975212633609772,-0.40750524401664734,-1.5347778797149658,0.9023650884628296
444,-0.11907858740120413,-1.2481458734022295,-0.7585002284223845,-0.037668462842702866,0.9483983516693115,-0.31483620405197144,0.1379009336233139,-0.7127728462219238,0.2776682376861572,0.6377508044242859,0.4769099950790405,-2.5240461826324463
445,-0.07310578650140685,-1.1638908039478848,-0.6258545121797416,-0.028907278552651405,0.9183499217033386,-0.3947124183177948,0.20107145607471466,-0.44598785042762756,-1.210403323173523,-1.892174243927002,0.3706515431404114,0.4373760223388672
446,-0.385419081321245,-1.380428477689646,-1.1693864217484435,-0.07113654166460037,0.9819347262382507,-0.17533840239048004,-2.5668458938598633,0.9323980808258057,-2.3795957565307617,-0.3787536025047302,0.7198016047477722,0.27682462334632874
447,-1.7600961254109773,-1.4195726330306677,-2.647734284235862,-0.14795680344104767,0.988587498664856,0.02834761142730713,-2.291515350341797,0.5793263912200928,-0.3783274292945862,0.5617294311523438,0.04089248180389404,-0.26804792881011963
448,-2.4540811425998084,-1.2711396800789192,2.8383750708722113,-0.1873338222503662,0.9554378986358643,0.22813284397125244,-2.3896965980529785,0.9576022028923035,-0.7808409929275513,-0.2736799716949463,0.0007846355438232422,-0.45904409885406494
449,-2.3464700102086353,-1.1063859039854536,2.843603464806259,-0.3197751045227051,0.8940857648849487,0.31361550092697144,-0.7406049966812134,0.9107744693756104,-1.0064324140548706,0.7511563301086426,0.5339385271072388,-0.44856417179107666
450,-2.0268646937221644,-1.1774838188416072,3.1217817321983627,-0.3440786898136139,0.9236446022987366,0.1687917709350586,3.8215067386627197,-0.1902507096529007,1.4476220607757568,0.664986252784729,0.6838841438293457,-0.2256155014038086
451,-1.0113381944767013,-1.4065355015066836,-2.0291154898182415,-0.13859298825263977,0.9865394830703735,-0.08678622543811798,3.126272678375244,0.608924925327301,1.7272436618804932,-0.7855556011199951,1.4789146184921265,0.3014621138572693
452,0.3546090274178,-1.3170516837276218,-0.6971461277702569,0.08716379106044769,0.9679791927337646,-0.23541206121444702,1.8159968852996826,-1.79657781124115,1.843300223350525,-0.2780207097530365,-0.09984564781188965,0.283294141292572
453,0.08856730530276535,-1.1381513415080502,-0.5894161176249114,0.03708541765809059,0.9078599810600281,-0.4176304042339325,-0.0734560415148735,-2.4299280643463135,0.08531874418258667,-0.4749668836593628,-1.5648727416992188,0.9928256273269653
454,0.006038361769233459,-1.2565214541162841,-0.5526050343590299,0.0018666102550923824,0.9510207772254944,-0.3091215193271637,-0.7111508250236511,0.5523238778114319,1.217720866203308,0.6071116924285889,2.589857578277588,-1.1721558570861816
455,-0.06057721229646892,-1.204672919017817,-0.5052595174366713,-0.021673280745744705,0.933722198009491,-0.3573416769504547,-1.1355770826339722,-0.08974010497331619,-1.8233861923217773,-1.7725619077682495,2.8845150470733643,-0.5733070969581604
456,-0.10542348018901795,-1.4044725379954426,-0.7733975850234499,-0.017421388998627663,0.9862000346183777,-0.16463884711265564,-2.1721458435058594,1.9241254329681396,-2.269104480743408,-0.5133403539657593,0.6837370991706848,0.11333882808685303
457,-1.9728753089562254,-1.4215426705031968,-2.7146056084706975,-0.13684138655662537,0.9888823628425598,0.058191247284412384,-2.8641488552093506,0.0616154707968235,-0.08853069692850113,0.5168920755386353,0.013635396957397461,0.019582748413085938
458,-2.595054925029757,-1.2561827765497635,2.814277839209191,-0.16083058714866638,0.950916051864624,0.2643711268901825,-2.573448896408081,1.4522134065628052,-0.19163170456886292,-0.16289986670017242,0.0194208025932312,-0.7879307270050049
459,-2.4615126357301778,-1.1003013648578575,2.8664419942652546,-0.2850775718688965,0.8913440108299255,0.3524725139141083,-0.8947502970695496,1.107303261756897,-0.6740061044692993,0.8861669898033142,0.46655094623565674,-0.2569372355937958
460,-2.0969634828666686,-1.2688559001519935,-3.130191735380132,-0.25715020298957825,0.954761266708374,0.14934764802455902,4.603117942810059,0.5296574234962463,1.18302583694458,0.32802724838256836,0.6041224002838135,0.040059685707092285
461,-0.2663220496683009,-1.4235212945409352,-1.2603177747595777,-0.03862058371305466,0.9891746044158936,-0.14156976342201233,0.5837594866752625,2.995087146759033,1.5060803890228271,-0.33367860317230225,0.8126594424247742,0.7420946955680847
462,0.5089693035563027,-1.2271150249500213,-0.3965105782444175,0.1641908437013626,0.941520631313324,-0.29424551129341125,2.0085108280181885,-3.751999855041504,1.1620365381240845,-0.3201509416103363,-0.502738893032074,0.45991015434265137
463,0.14387058920588885,-1.120002577976881,-0.4344545165103501,0.062465518712997437,0.9001015424728394,-0.4311787188053131,-0.7124575972557068,-1.9254416227340698,-0.29087892174720764,-0.5080069303512573,-1.212815284729004,0.6984516382217407
464,0.15761334769854293,-1.2247416631047165,-0.3332466052919868,0.05323965474963188,0.9407182335853577,-0.3349847197532654,0.4264947474002838,-1.9685384035110474,0.4306067228317261,1.1209393739700317,1.675553798675537,-0.9854956269264221
465,0.08733713699178496,-1.147570854233061,-0.3824361099228491,0.035824086517095566,0.9117689728736877,-0.40913817286491394,-2.528548240661621,1.7448369264602661,0.031000372022390366,-0.053982049226760864,-1.4186506271362305,1.6573376655578613
466,-0.07497545408549516,-1.4762289887326363,-0.7611973430273188,-0.007072967477142811,0.9955318570137024,-0.09416027367115021,-1.922926902770996,0.9588171243667603,-0.6034847497940063,0.05568745732307434,0.30895715951919556,0.324201762676239
467,-2.148105416577514,-1.4204686884855402,-2.902763274175551,-0.12549138069152832,0.9887220859527588,0.08173620700836182,-2.307607412338257,-0.9840330481529236,-0.6886125206947327,0.4748566150665283,-0.0018597841262817383,-0.08725988119840622
468,-2.5640732728019113,-1.2227701845385062,2.8147714165216073,-0.18619129061698914,0.9400477409362793,0.2857321500778198,-1.6465281248092651,0.44659069180488586,-1.0719913244247437,-0.2901270389556885,-0.005324959754943848,-0.7607535123825073
469,-2.4486507458913347,-1.077862035536491,2.8612150038810387,-0.302289754152298,0.8809481263160706,0.36407557129859924,-0.03625050559639931,0.9303245544433594,-0.5666314959526062,0.12920936942100525,0.3900631070137024,-0.5814370512962341
470,-2.1526080305938344,-1.2318344797604361,3.1073451814637307,-0.27780038118362427,0.9431003928184509,0.18272621929645538,3.135397434234619,-0.8453251719474792,1.9814815521240234,0.7021625638008118,0.23899811506271362,0.014173164963722229
471,-0.7029298338179303,-1.454196599446821,-1.64313504979698,-0.07520637661218643,0.993209958076477,-0.08875907212495804,2.030616044998169,1.5105431079864502,1.0911462306976318,-0.615635335445404,0.9236602783203125,0.39663565158843994
472,0.41266069431009106,-1.2928898063470466,-0.531663190828496,0.11002467572689056,0.9616318941116333,-0.2513136863708496,2.69834566116333,-3.354416608810425,1.0407404899597168,-0.29464077949523926,-0.4123002886772156,0.340943843126297
473,0.08895714041265496,-1.1601076806327848,-0.5611467917332528,0.03546850010752678,0.9168460965156555,-0.3976621925830841,-1.0061419010162354,-1.7102652788162231,-0.22608715295791626,-0.3983835279941559,-1.4818637371063232,0.677798330783844
474,0.06833101692824396,-1.2615717558773463,-0.4703947382418551,0.020778300240635872,0.952569842338562,-0.30360957980155945,1.4173178672790527,-3.6161303520202637,0.5146724581718445,0.7718089818954468,0.9251613616943359,-0.9027197360992432
475,-0.013583441235171223,-1.2236849156701775,-0.5573481012595018,-0.004620715975761414,0.9403592944145203,-0.3401517868041992,-0.6638646721839905,1.311798334121704,-0.17085014283657074,-0.07174952328205109,-0.3588009476661682,2.1115598678588867
476,-0.7767478055189664,-1.4427452856385554,-1.53863542907128,-0.08951341360807419,0.9918126463890076,-0.09107561409473419,-2.204238176345825,-0.6656172871589661,-1.2906153202056885,0.002523072063922882,0.4218224883079529,0.2291828989982605
477,-2.1979351541014913,-1.3821101476225035,-3.0122842926425792,-0.15187616646289825,0.9822515249252319,0.11007098108530045,-1.949945092201233,0.4590093195438385,-0.26715588569641113,0.47060176730155945,-0.27367913722991943,0.05364048480987549
478,-2.522692089877661,-1.1895287966653385,2.842780772619768,-0.21586887538433075,0.9281937479972839,0.3030799925327301,-1.4974260330200195,0.38955679535865784,-1.3572452068328857,-0.5442019701004028,0.11884927749633789,-0.7078346014022827
479,-2.3641535529364774,-1.1014566408543287,2.8869231829332347,-0.3172668218612671,0.8918671607971191,0.32235774397850037,1.202803134918213,1.4601671695709229,0.07910769432783127,0.25697940587997437,0.4960569143295288,-0.9983068704605103
480,-1.8068460772071486,-1.3777529651592584,-2.7805660473384437,-0.1865260750055313,0.9814249277114868,0.04486584663391113,2.8428492546081543,-1.9035149812698364,2.5919442176818848,-0.01713298261165619,0.7734425067901611,0.37050890922546387
481,0.12013783599817168,-1.4194264094938946,-0.9140429195740998,0.018072279170155525,0.9885654449462891,-0.14970512688159943,1.4240031242370605,2.6381664276123047,3.837122678756714,0.07882103323936462,-0.16376692056655884,0.6796733736991882
482,0.2762821093981869,-1.1615566260441768,-0.5224701114722394,0.10854272544384003,0.9174236059188843,-0.38282179832458496,1.6991764307022095,-3.7947845458984375,0.47713109850883484,-0.3718484044075012,-1.0292400121688843,0.7724244594573975
483,0.09806311071152672,-1.1986405184886624,-0.4911379098112608,0.03560101240873337,0.931545615196228,-0.3618773818016052,-2.03167724609375,-0.8884879946708679,-0.17755983769893646,0.12658464908599854,-0.5787014365196228,-0.4540100395679474
484,0.11108183751125895,-1.1944356691512494,-0.3386000137484895,0.040742889046669006,0.9300084114074707,-0.36527279019355774,0.04844847321510315,2.033252000808716,0.5850685238838196,-0.3134937584400177,-0.7565160393714905,1.8417589664459229
485,-0.005369572970161114,-1.2971712999839178,-0.5526236391105674,-0.00145097472704947,0.9627976417541504,-0.27021902799606323,-1.940641164779663,3.2679696083068848,0.1284760683774948,0.21295304596424103,-0.7918993830680847,0.9774639010429382
486,-1.1563215254719552,-1.4551643413615885,-1.875968261845407,-0.10560574382543564,0.9933220744132996,-0.04646248742938042,-1.6574249267578125,0.49108871817588806,-1.2272928953170776,0.039123207330703735,0.21654731035232544,0.08755439519882202
487,-2.322079167859636,-1.3474352339208973,-3.105322620796154,-0.1618812382221222,0.9751584529876709,0.15119634568691254,-2.1255364418029785,1.3300632238388062,-0.29894405603408813,0.3974617123603821,-0.2650449872016907,0.13240347802639008
488,-2.515130993953024,-1.1396864694750874,2.8760575654246123,-0.2449953258037567,0.9085025191307068,0.33852726221084595,-1.2480175495147705,1.212891936302185,-1.2369273900985718,-0.33657822012901306,0.12521952390670776,-0.5989184379577637
489,-2.354509238526916,-1.0560290694563887,2.9229218165680955,-0.34871745109558105,0.8704073429107666,0.3475440740585327,0.6485283374786377,1.004437804222107,-0.23871095478534698,0.5431297421455383,0.3842311501502991,-0.4295448660850525
490,-2.068753581749184,-1.3227398497274239,-3.021836494968733,-0.2157038003206253,0.969391405582428,0.11726803332567215,2.9535887241363525,-1.458674430847168,2.4769957065582275,-0.11966909468173981,0.6872550845146179,0.4962420165538788
491,-0.1979791362225291,-1.466450306764569,-1.1907557752350382,-0.020486533641815186,0.9945608973503113,-0.1021227315068245,0.3157276511192322,1.4170697927474976,2.6992714405059814,-0.22894889116287231,-0.02198094129562378,0.4361986517906189
492,0.32520719815818033,-1.200071882563085,-0.5065908809878404,0.11575377732515335,0.9320651292800903,-0.3433011770248413,2.657294511795044,-4.080376625061035,0.770790159702301,-0.14410459995269775,-0.8186007738113403,0.6061948537826538
493,0.0343388735634883,-1.1057163384668132,-0.5178078171803586,0.015397760085761547,0.8937857151031494,-0.4482298195362091,-0.6346849203109741,-1.290092945098877,0.06649747490882874,-0.11358806490898132,-0.7664816379547119,0.3959531784057617
494,-0.011405596581690984,-1.1268548125337285,-0.45410396258658253,-0.004898624494671822,0.9030658006668091,-0.429474413394928,0.9302986264228821,-2.2252790927886963,0.26907384395599365,0.629364550113678,0.5320233106613159,-0.4514612555503845
495,-0.01670479768625055,-1.1113003154132786,-0.4404330944004278,-0.0074081760831177235,0.8962761163711548,-0.4434347152709961,0.9432336688041687,2.1003026962280273,0.15571963787078857,-1.1090164184570312,1.9268288612365723,-0.7507181763648987
496,0.1014797549935924,-1.2602308538534253,-0.5696644791752626,0.030958732590079308,0.9521608948707581,-0.3040250539779663,-2.7822725772857666,1.8495393991470337,-1.0514342784881592,-0.17352160811424255,0.5014981627464294,-0.007376313209533691
