,attitude.roll,attitude.pitch,attitude.yaw,gravity.x,gravity.y,gravity.z,rotationRate.x,rotationRate.y,rotationRate.z,userAcceleration.x,userAcceleration.y,userAcceleration.z
0,-2.284566150349493,-1.3191005876201651,-3.071730102326023,-0.18825393915176392,0.9684914946556091,0.163047656416893,3.5310750007629395,-2.133901357650757,2.2587499618530273,0.10539871454238892,-0.3206949234008789,-0.8875349760055542
1,0.2177275674742129,0.6678457838651384,-0.10500869264215784,0.16960299015045166,-0.6192960143089294,-0.7666206955909729,-0.7394430041313171,1.3251800537109375,0.6940708160400391,0.23495326936244965,0.00038427114486694336,-0.3190421462059021
2,0.25612978996856367,0.5351222510546221,-0.026921541498480188,0.2179233729839325,-0.5099462270736694,-0.8321443796157837,-1.3905284404754639,0.7079063057899475,-0.026077091693878174,-0.1564304530620575,0.005536437034606934,-0.0031064748764038086
3,0.19779451362615047,0.4257584206975426,0.04909630970178225,0.1789642870426178,-0.4130116105079651,-0.8929687738418579,-0.36132243275642395,-0.6183664798736572,0.23313213884830475,-0.4223267138004303,0.2453175187110901,0.3438659906387329
4,0.16576543601159613,0.5451559131094889,-0.012632269865308963,0.14108893275260925,-0.5185514092445374,-0.8433257937431335,1.452968716621399,-0.6417632699012756,-0.8844412565231323,-0.5001587867736816,-0.044024884700775146,0.38173216581344604
5,0.2674763484387447,0.5795712530062713,-0.027666409839327517,0.22113779187202454,-0.5476652383804321,-0.8069453835487366,-0.6523659229278564,0.18669869005680084,-0.28515565395355225,0.3004838824272156,-0.030688583850860596,-0.7719730734825134
6,0.3830132211643373,0.6187918268023594,-0.1302202641728833,0.30442237854003906,-0.5800514221191406,-0.7555575966835022,2.6660215854644775,1.7491345405578613,-0.6718022227287292,0.34177207946777344,0.07353591918945312,0.4088321924209595
7,0.8660635514396837,0.7606923326646015,-0.44933182665002724,0.5518054366111755,-0.6894230842590332,-0.4692615866661072,1.002655267715454,3.154817581176758,-1.7099719047546387,0.4113597869873047,0.746460497379303,0.19698381423950195
8,1.306681214886297,0.3682189934272815,-0.74337473624831,0.9006181359291077,-0.3599543869495392,-0.24355661869049072,1.1302961111068726,2.533501386642456,-7.902317523956299,1.347123622894287,1.2191767692565918,-0.6723216772079468
9,1.2843757498973596,-0.45509191902250007,-1.0737874863694448,0.8616282939910889,0.4395448863506317,-0.25376570224761963,1.0130395889282227,-3.2417421340942383,-8.291051864624023,1.3544056415557861,-0.6902925372123718,-1.0480074882507324
10,0.4237185003112439,-0.6354963565224927,-1.5887286805696865,0.33088651299476624,0.5935770273208618,-0.733607828617096,3.159428358078003,-5.486571788787842,-0.13207119703292847,1.665466547012329,-1.3055675029754639,0.9567371010780334
11,0.11701977487435437,-0.37813084776824274,-1.522557658362543,0.10850503295660019,0.3691840171813965,-0.9230004549026489,0.9500136375427246,-2.2710695266723633,2.1465814113616943,0.9911196231842041,-0.14635992050170898,0.6814080476760864
12,0.2761310547052263,-0.23440271925368897,-1.4622128829078376,0.2651796340942383,0.23226207494735718,-0.9358066320419312,1.6520661115646362,1.7040549516677856,0.40596452355384827,-0.09832480549812317,0.03231005370616913,-1.1568140983581543
13,0.3167979885623379,-0.06698876028491234,-1.3652114378954578,0.31082677841186523,0.06693866848945618,-0.9481064677238464,1.1046842336654663,-0.4765157103538513,2.457051992416382,0.07395407557487488,0.13260051608085632,0.3077561855316162
14,0.2375654907593112,0.1087918490011741,-1.0895386834202276,0.23394587635993958,-0.10857737064361572,-0.9661678075790405,1.240606665611267,-1.8102390766143799,4.960402011871338,0.05848880112171173,0.024943962693214417,0.2730831503868103
15,0.028738000630682013,0.2290650297655886,-0.6252463904227781,0.027983486652374268,-0.22706706821918488,-0.9734770059585571,-0.4892651438713074,-0.41968676447868347,5.478468418121338,-0.26959115266799927,0.41441449522972107,-0.12240922451019287
16,-0.1739936637305201,0.0700765232556592,-0.27288059982259244,-0.1726921945810318,-0.0700191855430603,-0.9824839234352112,-1.9503711462020874,-3.9354591369628906,1.2412797212600708,0.2811364233493805,-0.5480228066444397,-1.001097559928894
17,-0.5911201093605568,-0.03956339155106552,-0.1319798199936783,-0.556855320930481,0.039553072303533554,-0.8296672701835632,0.650390625,-2.074880361557007,0.15359260141849518,0.03840744495391846,-0.48594895005226135,0.48860275745391846
18,-0.6627132445465327,0.08576779528788663,-0.136246765289248,-0.6129964590072632,-0.08566267788410187,-0.7854280471801758,0.08982373774051666,0.5960423946380615,-0.8058673143386841,0.22356164455413818,0.08225996792316437,1.3115816116333008
19,-0.2359820121346824,0.23203290343025484,-0.20587424469082904,-0.22753232717514038,-0.22995641827583313,-0.9462288618087769,1.4363175630569458,2.2075953483581543,-2.347993850708008,-0.3506842255592346,0.04474523663520813,-2.3659963607788086
20,0.1365417486784068,0.4562003560199169,-0.29837044043543415,0.12219748646020889,-0.44054022431373596,-0.8893773555755615,4.482969760894775,5.20244026184082,0.8891152143478394,0.2720591127872467,-0.29285821318626404,0.4896275997161865
21,0.09217172405541542,0.5845218174036672,-0.35509343939475646,0.07676021754741669,-0.5518006682395935,-0.8304359912872314,0.6368194818496704,-5.038064002990723,-1.8177430629730225,-0.10527889430522919,1.1571168899536133,0.22327351570129395
22,-0.3814556585745934,0.6536709023793241,-0.5293556442419448,-0.2955305874347687,-0.6081046462059021,-0.7367973327636719,-0.4001348316669464,-3.748021125793457,-1.4556970596313477,-0.6907517313957214,0.04417043924331665,-0.01834481954574585
23,-0.6257502872005514,0.5772305554831593,-0.43664954354146307,-0.4908079206943512,-0.5457053184509277,-0.6792005300521851,1.7911458015441895,2.1984543800354004,1.8474177122116089,0.1308225691318512,-0.08712244033813477,-0.18537771701812744
24,-0.6658466317746223,0.627770622735337,-0.24878082371030433,-0.49994897842407227,-0.5873419046401978,-0.6364593505859375,0.21076662838459015,-0.7193236351013184,0.28931501507759094,0.08886194229125977,0.32012999057769775,0.86175537109375
25,-0.645043850148851,0.621333699896535,-0.36973875250850463,-0.4888646602630615,-0.5821201205253601,-0.6497288346290588,-1.8543617725372314,0.8020906448364258,-1.5893651247024536,-0.10541939735412598,0.03902930021286011,1.0840550661087036
26,-0.42548191876222663,0.4548105171445966,-0.638645959389556,-0.3708003759384155,-0.4392921030521393,-0.8182477951049805,-2.1638453006744385,-3.7389893531799316,-2.027773380279541,-0.5126529932022095,-0.8428581357002258,-1.246068000793457
27,-0.6760153541808047,0.4029346996321593,-0.7506854036946804,-0.5755808353424072,-0.39211970567703247,-0.7175993323326111,-0.31045007705688477,-2.6054887771606445,0.046154968440532684,0.32199496030807495,0.5251153111457825,0.22059011459350586
28,-0.8288729456880329,0.34080485773383323,-0.8340126377797158,-0.6947726011276245,-0.3342457711696625,-0.6368443369865417,-1.8767067193984985,-5.49905252456665,-0.0787145346403122,0.6020144820213318,0.7065755128860474,-0.05331063270568848
29,-1.2547279172819412,0.22697290348749113,-0.7631477801277742,-0.9260873794555664,-0.2250290960073471,-0.30285993218421936,1.8320294618606567,-0.28025954961776733,4.60720682144165,-1.0935659408569336,-0.5872572660446167,-0.24059712886810303
30,-1.4669372961130587,0.026947716230850797,-0.4845618010966686,-0.9942503571510315,-0.02694445475935936,-0.103634774684906,1.7508186101913452,-1.441123604774475,1.3150211572647095,0.25957024097442627,-0.15317028760910034,-0.453494131565094
31,-1.508230531334727,0.04290087536095471,-0.4586836226835449,-0.9971251487731934,-0.042887717485427856,-0.06246745586395264,-0.7505012154579163,0.20462752878665924,-0.9150639772415161,0.7263883948326111,-0.20267197489738464,0.29376018047332764
32,-1.484875594711922,0.13780476049438434,-0.5810706307155321,-0.9868660569190979,-0.13736902177333832,-0.08500152826309204,-1.8262063264846802,0.23154465854167938,-0.41370269656181335,-0.0295524001121521,-0.3073636293411255,0.32282501459121704
33,-1.3757124333137263,0.17714792618847047,-0.7627901430056728,-0.9656785726547241,-0.17622286081314087,-0.19081516563892365,-1.6725155115127563,1.5223677158355713,-2.3442673683166504,-1.0863081216812134,-0.23222441971302032,-0.14588528871536255
34,-1.2673486174606146,0.37069671413142646,-0.9220165568224105,-0.8894904851913452,-0.3622649013996124,-0.27851539850234985,-0.2926030158996582,0.2736453413963318,-2.2978579998016357,0.2802833318710327,0.3926604390144348,-0.10284751653671265
35,-1.0821740550903007,0.6220350069292387,-0.9711816864730941,-0.7175931930541992,-0.5826901793479919,-0.381486713886261,0.7830788493156433,1.1951147317886353,-1.6502825021743774,0.4640379548072815,0.6475248336791992,0.06608757376670837
36,-0.9275530516708649,0.7715526406257306,-0.9167659972940873,-0.5735740065574646,-0.6972490549087524,-0.42994949221611023,1.7782096862792969,0.9202668070793152,1.7249023914337158,-1.1363868713378906,-0.7289593815803528,-0.38772323727607727
37,-0.9846840562502177,0.6516611210228546,-0.7558906788879993,-0.6623768210411072,-0.6065079569816589,-0.439778208732605,0.18137849867343903,0.32915356755256653,1.0108624696731567,-0.07326459884643555,-0.01833939552307129,-0.046351492404937744
38,-1.1184750411257085,0.5866188793258496,-0.7060557086856566,-0.7490647435188293,-0.5535483360290527,-0.36398646235466003,-0.6045179963111877,0.1565077304840088,0.6763498783111572,0.8718675374984741,0.21539831161499023,0.6286654472351074
39,-1.033135635580912,0.5810760347015383,-0.8253463812422966,-0.7179384231567383,-0.548923671245575,-0.42807379364967346,-0.846356987953186,-0.5988428592681885,-1.2235689163208008,0.21654993295669556,0.06483864784240723,0.25036993622779846
40,-1.03208046182568,0.6361113087496784,-0.9827341681324407,-0.6904816031455994,-0.5940718054771423,-0.41269078850746155,-0.475452184677124,-0.4788590669631958,-0.41666150093078613,-1.2051024436950684,-1.031355381011963,-0.3507368862628937
41,-1.107366093198148,0.6295238378177123,-0.9265569167358154,-0.7230512499809265,-0.5887599587440491,-0.36132916808128357,0.22150379419326782,0.9210396409034729,0.5092887878417969,0.5896894335746765,0.7365718483924866,0.14717203378677368
42,-0.971398811501729,0.5855484847749609,-0.9121565270994351,-0.6881255507469177,-0.5526565909385681,-0.47016364336013794,0.313675194978714,2.026858329772949,0.5569598078727722,0.38861083984375,0.8316025733947754,0.5840247869491577
43,-0.8779646000044875,0.5324554181435353,-0.8241955843859621,-0.6629214882850647,-0.5076503753662109,-0.550296425819397,1.937192678451538,0.25395816564559937,1.4882442951202393,-1.512874960899353,-0.9128818511962891,-0.623775839805603
44,-1.0732729945407549,0.5734996517155228,-0.5511286420496081,-0.7381709218025208,-0.5425751209259033,-0.4008939862251282,2.5188229084014893,-0.12593160569667816,0.6049757599830627,0.6384699940681458,-0.18235468864440918,-0.17478960752487183
45,-1.2625706315676954,0.6479947115030792,-0.19729369867917082,-0.7597219347953796,-0.6035888195037842,-0.24187438189983368,3.177658796310425,-0.6791296601295471,-0.006685017142444849,0.8774434924125671,0.2547881603240967,0.3348461389541626
46,-1.7796989310213047,0.8641040153268477,0.2963286502774103,-0.635205090045929,-0.7605137825012207,0.13466058671474457,1.7246466875076294,-2.107819080352783,0.14744575321674347,0.3973357677459717,0.1375584602355957,0.35529911518096924
47,-1.5382668696740252,1.0177574679001125,-0.03209314468458221,-0.5249976515769958,-0.850932240486145,-0.017083914950489998,-4.3803391456604,-0.04859292879700661,-2.5751826763153076,-0.7453880906105042,-0.7886399030685425,0.22121596336364746
48,-1.4376767092484868,1.2474380924336508,-0.15974928412174447,-0.3149413466453552,-0.9481737017631531,-0.042174287140369415,1.8572146892547607,0.023164819926023483,-2.1741199493408203,0.4812469184398651,0.4238816499710083,-0.24928385019302368
49,-1.5171176422041688,1.3231486782483015,0.011036996243566964,-0.24477048218250275,-0.969491720199585,-0.013151591643691063,-0.8616659641265869,0.4308769404888153,0.0492880679666996,-0.036326900124549866,1.2490177154541016,-0.4517226815223694
50,0.0848068775905646,1.4034403853286836,-1.5399519039789833,0.014109843410551548,-0.9860286712646484,-0.1659771054983139,-2.6465904712677,0.23798400163650513,-1.202522873878479,-0.15629124641418457,-2.3209476470947266,0.6982647180557251
51,-0.5083984178139808,1.3706904669642768,-0.8677686817565043,-0.09675861895084381,-0.9800455570220947,-0.17363345623016357,0.8128824234008789,0.9603721499443054,0.1626482754945755,0.3170497417449951,0.2727243900299072,0.14345157146453857
52,-1.0673548177019319,1.3735931329149942,-0.3492093733563374,-0.17161838710308075,-0.9806183576583862,-0.09452389925718307,0.8036808371543884,-0.6591590046882629,0.9657204151153564,0.5665006041526794,0.8664979338645935,-0.06436586380004883
53,-1.0366119369368718,1.3558213732862043,-0.4674337866013628,-0.18360313773155212,-0.9769817590713501,-0.10861075669527054,-1.3514015674591064,-2.6864798069000244,-0.960004448890686,0.0964449793100357,0.7354199886322021,0.08578361570835114
54,-0.3070505111831797,1.2334758620912885,-1.5227292427521226,-0.10003209859132767,-0.9436448812484741,-0.31548061966896057,0.18955475091934204,0.16558599472045898,-0.7680209279060364,-0.32762598991394043,-1.2154737710952759,0.3663076162338257
55,-0.24704664880218902,1.3128973987093062,-1.4787730234729088,-0.062370117753744125,-0.9669280052185059,-0.24730578064918518,0.686556875705719,1.8978010416030884,0.5320025086402893,0.038398537784814835,0.6872192025184631,-0.04351149499416351
56,-0.22297803230278043,1.3214921614427488,-1.4037554118905649,-0.05456048622727394,-0.9690843224525452,-0.2406211942434311,0.018396291881799698,0.6179782152175903,-0.04542706534266472,-0.17548102140426636,0.9248797297477722,0.03119434416294098
57,-0.1673695162669086,1.2070328451704417,-1.3539676397018499,-0.0592714361846447,-0.9345644116401672,-0.3508222699165344,-3.8095903396606445,2.0185024738311768,2.275686502456665,-0.9347165822982788,-1.3969022035598755,-0.6090471744537354
58,-0.30764879444553067,1.1502372804612553,-1.062767672099679,-0.12363207340240479,-0.9128608703613281,-0.38910192251205444,0.6898422837257385,2.4597299098968506,-0.10845289379358292,0.13333666324615479,0.24367135763168335,0.5531186461448669
59,-0.4090239804794864,1.1160725257057929,-1.0709168089927539,-0.17468170821666718,-0.8983823657035828,-0.40298333764076233,-0.46985211968421936,-3.907654285430908,2.1372649669647217,0.7022848129272461,0.7217923998832703,0.34190237522125244
60,-0.8919158135787997,0.9637411380377516,-0.8118853809084218,-0.44396862387657166,-0.8213314414024353,-0.35819897055625916,0.14065390825271606,-2.6152374744415283,0.9394952654838562,0.565062403678894,-0.1710544228553772,-0.35849109292030334
61,-0.9225668581617297,1.0102518131066442,-1.0926449228602826,-0.42380499839782715,-0.8469657301902771,-0.3209960162639618,-0.6775999665260315,-1.899882197380066,-2.6908180713653564,-0.26163503527641296,-0.9041023850440979,0.11065363883972168
62,-0.7674548708254145,1.1470494688601016,-1.383710660937249,-0.2854838967323303,-0.9115546941757202,-0.295917272567749,0.42743346095085144,0.05690263211727142,-0.6442989110946655,0.12772327661514282,0.5314582586288452,0.18515372276306152
63,-0.664996308710019,1.1708396070671414,-1.221788167912276,-0.24026836454868317,-0.9210778474807739,-0.3064092695713043,0.7728626728057861,4.508320331573486,0.464418888092041,-0.19482071697711945,0.7515069842338562,0.2041754424571991
64,-0.3872323619853544,1.2206091417218237,-1.1106398007539815,-0.1295538991689682,-0.9393085241317749,-0.31767162680625916,0.780135452747345,0.6902481913566589,-1.8531626462936401,-1.4327019453048706,-1.04619562625885,-0.25775253772735596
65,-0.5208734386016178,1.2507276312599636,-1.0118001055406576,-0.1565726399421692,-0.9492138028144836,-0.27290672063827515,0.6005303859710693,0.30998024344444275,0.8882508873939514,0.08757241070270538,0.6444195508956909,0.25015589594841003
66,-0.6200180622856434,1.2458968590918809,-0.6482401297740604,-0.18547895550727844,-0.947682797908783,-0.2597976326942444,0.38866493105888367,3.974998950958252,1.3199745416641235,0.5694206357002258,0.5659842491149902,0.3581710755825043
67,-0.8779198444439535,1.1282092138955693,-0.2664097217178897,-0.3295225501060486,-0.90364670753479,-0.2735641896724701,-1.330592393875122,-3.5475246906280518,3.043297529220581,0.8987669944763184,-1.4010711908340454,0.1772201955318451
68,-1.1118026512837067,1.1350801863675812,-0.4293127305115303,-0.3783760964870453,-0.9065680503845215,-0.18699197471141815,-0.14641322195529938,-2.950451374053955,-2.2884342670440674,0.0550728440284729,-0.11302423477172852,-0.16142725944519043
69,-1.4246522285677432,1.157268565146657,-0.43479129936827016,-0.397558331489563,-0.9157088994979858,-0.05851801112294197,2.8412926197052,-2.6034505367279053,3.0966765880584717,-0.7714784741401672,0.7244400978088379,1.3418279886245728
70,-1.6988477473348382,1.0720019949707607,0.0932655223348014,-0.47445034980773926,-0.8781599402427673,0.06108829751610756,0.40068525075912476,3.305328607559204,-0.9793097972869873,0.08783847093582153,0.8989730477333069,-0.08977485448122025
71,-1.1127958455644789,1.2168615132214553,-0.2151328994246752,-0.3108707666397095,-0.9380161762237549,-0.15324713289737701,0.4517165720462799,-1.1702771186828613,0.664517343044281,-0.5633662343025208,-1.698275089263916,-0.9915740489959717
72,-1.7236218763645061,1.2963607850781271,0.4322766898832738,-0.2678448557853699,-0.962578296661377,0.04125521704554558,0.6053624153137207,0.27485203742980957,-1.942945122718811,0.46109747886657715,0.34970909357070923,0.05382227525115013
73,-2.0073592195316476,1.462462857770229,0.6702572460645191,-0.09798116981983185,-0.9941376447677612,0.04571687802672386,0.5721896290779114,-2.438615560531616,-0.7848718762397766,0.27202293276786804,0.9882172346115112,-0.43562471866607666
74,-2.662261987040941,1.46271168445929,0.962898661712328,-0.04974979907274246,-0.9941645264625549,0.09571678936481476,-0.10392732918262482,-5.652585983276367,1.1449356079101562,0.36992496252059937,-0.10066872835159302,0.016130074858665466
75,-2.55434343544443,1.457834361391469,0.5500649768762711,-0.06245673820376396,-0.993626594543457,0.09383820742368698,0.19261009991168976,3.5999112129211426,-1.5231033563613892,0.6328302621841431,-0.3154555559158325,0.5551943778991699
76,-2.644604626435293,1.4483055371173783,1.016222816055613,-0.05825604125857353,-0.9925073981285095,0.10740459710359573,0.7194640636444092,1.507728099822998,0.6589531898498535,-0.12730608880519867,0.9371940493583679,-0.27985939383506775
77,-2.3581637504090307,1.3045277118784266,0.5770601053468172,-0.18569661676883698,-0.9647594690322876,0.1864294409751892,-0.5588527917861938,-0.7165546417236328,0.5476137399673462,-0.8775815963745117,0.9009624719619751,0.495760440826416
78,-2.645716085485811,1.3544724746840322,0.7205594822519765,-0.10212639719247818,-0.9766930937767029,0.18878717720508575,1.4965438842773438,-0.928361713886261,-1.7550894021987915,0.1733849048614502,-0.8807134032249451,-0.35957884788513184
79,2.674680175646768,1.2881909223067018,1.994274333276701,0.12552320957183838,-0.9603321552276611,0.24901063740253448,1.7668734788894653,1.4205478429794312,-1.7384430170059204,0.10689868032932281,0.6979876756668091,-0.33403250575065613
80,2.5801047901642677,1.1331520467811969,2.0179399390531616,0.22565416991710663,-0.9057525396347046,0.35873687267303467,-0.09999766945838928,-2.423341751098633,0.10422667860984802,-0.2002330869436264,1.1152405738830566,-0.40133947134017944
81,2.5539308248683756,1.1562156168223414,1.942595624152472,0.22332224249839783,-0.9152852892875671,0.33523082733154297,-1.854631781578064,0.5991166830062866,1.5851207971572876,0.06947863101959229,-2.2277350425720215,1.3417558670043945
82,2.6708197077789473,1.1665395593098757,1.559030627257958,0.17840738594532013,-0.9193949699401855,0.3505479097366333,0.8977762460708618,0.5779771208763123,0.6008186936378479,0.3484175503253937,-0.24112749099731445,0.0745009183883667
83,2.8523266186675644,1.1667345371579603,1.3873493489787336,0.11214742064476013,-0.9194716811180115,0.37682217359542847,-0.749658465385437,-0.3750372529029846,0.3391864597797394,-0.12026509642601013,0.8943403959274292,-0.21138644218444824
84,2.7482124376976924,1.21290196375949,1.5616301974829911,0.13427545130252838,-0.9366365075111389,0.3235461413860321,-1.550463318824768,1.5167146921157837,-0.888883113861084,-0.2704601287841797,-0.20061630010604858,0.4267284572124481
85,2.554507000132463,1.2948800119714623,2.002965697945541,0.1509084552526474,-0.9621759653091431,0.22681303322315216,0.38763174414634705,0.12538675963878632,-1.4538428783416748,0.16484162211418152,-0.8109411001205444,0.03736233711242676
86,2.3012120072137714,1.1674657236815054,2.477982728023597,0.2923600375652313,-0.9197589159011841,0.2618570625782013,0.29351070523262024,3.62150502204895,-1.7639025449752808,-0.08203288912773132,0.8415881991386414,-0.055207282304763794
87,2.4020852018303844,1.0485507907141403,2.5445234904858895,0.3361718952655792,-0.8667012453079224,0.36853405833244324,0.03512208163738251,-1.3756930828094482,-0.13550974428653717,-0.2598474323749542,0.9768849611282349,-0.3349800109863281
88,2.3811058283811186,1.1033117301342885,2.4199861668953817,0.3106161057949066,-0.8927046656608582,0.3264905512332916,-1.357237458229065,-1.5508575439453125,2.145782709121704,0.3844522535800934,-0.9956925511360168,0.9857957363128662
89,2.434540758528229,1.1385335043451266,1.9080541917961755,0.2721327543258667,-0.9080201387405396,0.31850168108940125,2.3616766929626465,-3.840886116027832,0.3628357946872711,0.4542008936405182,-0.18768298625946045,-0.9615223407745361
90,2.5632977837055884,1.1665089767575847,1.8799216532438838,0.21501125395298004,-0.9193829894065857,0.3294009864330292,-0.7091529965400696,0.04750574007630348,-0.0031981191132217646,-0.16303981840610504,0.9685468673706055,-0.13846781849861145
91,2.2979219518071505,1.2744843212165355,2.1876766746900143,0.21814586222171783,-0.9564198851585388,0.19409623742103577,-2.2343952655792236,0.009486156515777111,-0.15458522737026215,-0.3298249840736389,0.3616628050804138,0.018656954169273376
92,1.7034041508556512,1.3248963771783442,2.954120039138307,0.24129150807857513,-0.9699186682701111,0.032186027616262436,-0.24435487389564514,2.411590814590454,-0.4647693932056427,-0.05015994608402252,-0.8361572027206421,-0.24606847763061523
93,1.636225989440194,1.268942393272498,-3.036130353520008,0.2966545820236206,-0.9547869563102722,0.019437754526734352,-1.1441208124160767,3.0548415184020996,-1.0008405447006226,-0.05551996827125549,0.721174955368042,0.09202766418457031
94,1.7199535432543995,1.1464125842884192,-2.8590113787590408,0.40718773007392883,-0.9112926721572876,0.0611894391477108,-0.12053772807121277,1.89795982837677,-1.2008140087127686,-0.25514906644821167,0.9953837394714355,0.12425065785646439
95,1.6083943074831468,1.1289154842728935,-2.626339669221973,0.4273383617401123,-0.903948962688446,0.016074635088443756,-1.7662724256515503,-0.26331627368927,1.6977850198745728,0.7692712545394897,-2.2456483840942383,1.0964131355285645
96,1.6695249103861645,1.2470149792073395,-2.970578545870066,0.3166044056415558,-0.948039174079895,0.03135986253619194,3.2483410835266113,-3.908543586730957,1.6572129726409912,-0.10086041688919067,-0.23558509349822998,0.18424689769744873
97,2.5694689714886074,1.2420427218041081,2.0022191216971534,0.17480450868606567,-0.9464454650878906,0.2714487314224243,2.6527388095855713,-5.1818156242370605,1.5416254997253418,-0.22715741395950317,0.8407630920410156,-0.4467111825942993
98,2.426029448284407,1.2783385277477115,1.9488788262656187,0.18914122879505157,-0.9575381875038147,0.21759165823459625,-0.5523439645767212,-0.11352729052305222,-0.9476267099380493,-0.45433899760246277,-0.13689839839935303,0.20916613936424255
99,2.343112133175804,1.2823074002504466,2.0253423293269566,0.20378918945789337,-0.9586748480796814,0.19852566719055176,0.9993183612823486,1.4850600957870483,-0.3715689480304718,0.8139567971229553,-0.35765504837036133,0.29410433769226074
100,2.3133513786811837,1.2477464355228705,2.216462269834416,0.23388676345348358,-0.948271632194519,0.2146579474210739,0.7127363085746765,0.856514573097229,-0.6811657547950745,-0.005249053239822388,0.5993794202804565,0.03294646739959717
101,2.2629569823646802,1.209978194691193,2.238423943470788,0.27179428935050964,-0.9356083273887634,0.22531068325042725,-0.2224757820367813,-1.5213462114334106,-0.022054113447666168,-0.14197254180908203,0.7630924582481384,-0.19494569301605225
102,2.1432123049516107,1.2312071428968598,2.220137705800667,0.2800019681453705,-0.9428915977478027,0.18042834103107452,1.0600841045379639,-0.07357989996671677,0.5117178559303284,0.6489378213882446,-1.5891976356506348,0.6333991289138794
103,2.4685270023719212,1.189179387458302,1.9165409214388751,0.23216234147548676,-0.928063690662384,0.2912016808986664,-0.2553192377090454,1.3143432140350342,0.3690781891345978,-0.15324389934539795,0.4803403615951538,-0.1433134377002716
104,2.594039153672856,1.2075690745505128,1.8452241214059482,0.1849653571844101,-0.9347550868988037,0.30334916710853577,-0.3943284749984741,0.00019933003932237625,-0.20573896169662476,-0.3153669834136963,0.816728413105011,-0.05736222863197327
105,2.309617167105129,1.2377981002813259,2.121481881941063,0.24164895713329315,-0.945066511631012,0.22012518346309662,-2.1461873054504395,-0.5509098172187805,0.3359491229057312,-0.09608012437820435,-0.9877184629440308,0.3821544647216797
106,2.4985939726787305,1.1921056803795442,2.0545593151016392,0.22167383134365082,-0.9291495084762573,0.295874685049057,-0.1749761998653412,2.1382803916931152,-0.8832235336303711,0.4671536684036255,-0.19990921020507812,0.01607605814933777
107,2.4735646651475345,1.142662619619252,2.128124801627095,0.257175087928772,-0.9097421765327454,0.32593026757240295,0.26635363698005676,-0.23198795318603516,-0.28296127915382385,-0.21983680129051208,0.7248513102531433,-0.17508181929588318
108,2.41172297395859,1.1183071035724592,2.094568872855712,0.2915164828300476,-0.8993616104125977,0.32583218812942505,0.925545871257782,-1.0503593683242798,0.2655572295188904,-0.21943399310112,0.6201869249343872,0.11812230944633484
109,2.3134322732642842,1.1076846087818142,2.0652169209277482,0.32910436391830444,-0.8946667313575745,0.3020963668823242,0.08856828510761261,-1.0187827348709106,0.5752866864204407,0.7286959886550903,-1.618105173110962,0.48341089487075806
110,2.4791536105416236,1.1074933096821478,1.8592137470344323,0.27486538887023926,-0.8945812582969666,0.35238227248191833,-0.3305194675922394,-0.06391449272632599,0.8693971633911133,-0.23362094163894653,0.5685162544250488,-0.08701673150062561
111,2.506813378451482,1.1991158750233917,1.8239005510172555,0.2153666764497757,-0.9317183494567871,0.29243484139442444,-0.6018955707550049,0.6691917777061462,0.06000928208231926,-0.254963219165802,0.9481520652770996,-0.1673738956451416
112,2.3017425281503168,1.228382132634143,2.095264226285928,0.24998943507671356,-0.941946804523468,0.2241462618112564,-1.3928836584091187,0.6547403931617737,-0.356722891330719,0.034068167209625244,-1.4616024494171143,0.6985222101211548
113,2.36675250479324,1.1842277004915,2.0799440388288772,0.263759046792984,-0.9262081980705261,0.26938822865486145,-1.0582048892974854,2.5026469230651855,-1.1464980840682983,0.2675977647304535,-0.0980687141418457,0.031530410051345825
114,2.4517309842587918,1.0729197131390504,2.216733386547288,0.3039344549179077,-0.8785985708236694,0.36835917830467224,1.8986059427261353,0.973426878452301,-1.2081509828567505,-0.1453956663608551,0.9606298208236694,0.025241374969482422
115,2.3529507705325994,1.037766572990617,2.300325729374381,0.36047637462615967,-0.8612715005874634,0.3581453561782837,-0.5413296222686768,0.6508614420890808,-0.6836258769035339,-0.10283172130584717,0.4583021402359009,0.1831907033920288
116,2.2472978891137947,1.1408430126425837,2.267378609008574,0.32502907514572144,-0.9089851975440979,0.2609630823135376,2.4366564750671387,0.11919949948787689,0.8930573463439941,0.3106062412261963,-0.7589834332466125,0.6397020220756531
117,2.5335273142703247,1.10617942812249,1.88318821963393,0.2559795677661896,-0.8939933180809021,0.36776402592658997,-0.14881616830825806,-0.10543183982372284,0.8842723965644836,-0.16786009073257446,0.7216147780418396,-0.29914525151252747
118,2.57539849152586,1.1763228839455644,1.8973155405138773,0.20615969598293304,-0.9231990575790405,0.32434824109077454,-0.7530460357666016,0.8989917635917664,-0.21791104972362518,-0.36248600482940674,0.989986777305603,-0.32114386558532715
119,2.3572461409162786,1.3469902249330847,2.297251567295798,0.15677182376384735,-0.9750598073005676,0.15710189938545227,0.7637684345245361,0.092178113758564,0.20326530933380127,-0.28512877225875854,-1.7937848567962646,-0.14230085909366608
120,2.397554389548431,1.1423071350701322,2.278020798353372,0.2814013659954071,-0.9095945358276367,0.30569759011268616,-1.191030740737915,2.79536509513855,-2.2154104709625244,0.1562207043170929,0.5153837203979492,-0.3596527576446533
121,2.306758565892091,1.0696551965008017,2.4584962203152507,0.35608506202697754,-0.8770349025726318,0.3225107192993164,0.17378851771354675,-0.9605821967124939,-0.5476211309432983,-0.3033354580402374,0.9359186291694641,-0.2568979561328888
122,2.1034581469463833,1.0951108740580155,2.4825214593981344,0.3945029079914093,-0.8889790177345276,0.23255877196788788,-1.26455557346344,-3.7323453426361084,3.8263232707977295,1.889005422592163,-2.7143380641937256,1.1042790412902832
123,2.236118769628725,1.1754991971771298,2.0991404631666635,0.30295130610466003,-0.9228821992874146,0.237716406583786,1.5284000635147095,-0.29468727111816406,0.4355095624923706,0.09743931889533997,-0.11895740032196045,0.1732332706451416
124,2.3803545021213917,1.2110117526151736,2.012087079477477,0.24286597967147827,-0.9359726905822754,0.2548941969871521,-0.7854532599449158,1.0410594940185547,0.33834099769592285,-0.19852393865585327,0.8621050119400024,-0.37832263112068176
125,2.3213180849927952,1.3092048707296544,2.116707648095604,0.18913617730140686,-0.9659796357154846,0.17638300359249115,-1.5766037702560425,0.13989244401454926,0.6217347383499146,-0.44420212507247925,0.7801427841186523,0.06256961822509766
126,2.0129460494131304,1.381886208593985,2.7881049133407148,0.16972918808460236,-0.9822095036506653,0.08035138994455338,2.368833541870117,1.4014971256256104,0.22564764320850372,-0.20546530187129974,-0.5275865197181702,-0.6919388771057129
127,1.9574665396332496,1.2126619554078157,2.610306268862309,0.3246478736400604,-0.9365524053573608,0.132186159491539,-0.875361979007721,-0.5874694585800171,-3.6333937644958496,0.04369926452636719,0.8029160499572754,-0.1289513260126114
128,1.8975790844573106,1.0690807059329133,2.5844689410521626,0.45547956228256226,-0.8767587542533875,0.15437756478786469,0.09390474110841751,-1.974963903427124,0.21253997087478638,-0.25922104716300964,1.0724680423736572,-0.03438246250152588
129,1.524413789685225,1.2006474535051916,2.773176735087999,0.36136525869369507,-0.9322735071182251,-0.01677306741476059,-1.334283709526062,-1.8798340559005737,3.54410982131958,1.3412103652954102,-2.509666919708252,0.3310736417770386
130,1.9474612488564884,1.2486302091526311,2.180511901832193,0.2944253981113434,-0.9485517740249634,0.11646018177270889,2.4845364093780518,-2.6524901390075684,0.3358660638332367,0.02430015802383423,-0.05196690559387207,-0.01749170571565628
131,2.190403706373182,1.26575020950648,1.947742608974179,0.2445063591003418,-0.9538331031799316,0.17441041767597198,-0.5223726630210876,-1.1526786088943481,0.5795106887817383,-0.2446437031030655,0.9570832848548889,-0.2014947086572647
132,2.1522239975196236,1.323318838221405,1.8837486124125724,0.20470760762691498,-0.9695334434509277,0.13453605771064758,-0.4375368654727936,-1.1373982429504395,0.41158509254455566,-0.3433947265148163,0.8002523183822632,0.1752936989068985
133,1.364367438471491,1.383753156185809,2.8001187067294153,0.1820063441991806,-0.9825583696365356,-0.03811429813504219,1.5802791118621826,2.307595729827881,-0.16126902401447296,-0.12435868382453918,-0.33549582958221436,-0.16586518287658691
134,1.5258890624855215,1.3183959730266737,2.7693441713992626,0.24947738647460938,-0.9683157801628113,-0.011210883967578411,-0.38312262296676636,-0.12511123716831207,-1.1494717597961426,-0.05361554026603699,0.8614432215690613,-0.2321057915687561
135,1.598755902498052,1.2764605712117933,2.421444943726398,0.28999054431915283,-0.9569950699806213,0.008110126480460167,0.7642815113067627,-4.082874774932861,0.011723256669938564,0.04582485556602478,1.1010992527008057,-0.14287567138671875
136,0.9590635254262658,1.3471017549798856,2.7775459246134284,0.1816055029630661,-0.9750845432281494,-0.12739647924900055,0.44256624579429626,1.5422345399856567,-0.12289213389158249,1.283284068107605,-3.3448619842529297,0.14221273362636566
137,2.2947894240540117,1.3522533778411234,1.6036002815511357,0.16242475807666779,-0.9762144088745117,0.14360907673835754,1.4072126150131226,4.373721599578857,0.6436283588409424,-0.5484263300895691,0.4829893708229065,-0.16806890070438385
138,2.5971947898728316,1.3756974929484556,1.459919104051241,0.10040276497602463,-0.9810284972190857,0.16583888232707977,-0.8726178407669067,-1.6467410326004028,0.1412227302789688,-0.3957213759422302,1.0869550704956055,-0.22333407402038574
139,1.16496697863715,1.4600445807792086,2.7743165722830727,0.10154832899570465,-0.9938732981681824,-0.04363345354795456,-4.7286529541015625,1.0766074657440186,2.089874267578125,-0.14102283120155334,-2.9507222175598145,0.9932336807250977
140,0.8346959261907604,1.4611000341319127,-3.0757869053025058,0.08113233000040054,-0.9939894080162048,-0.07350297272205353,0.4507790207862854,0.7590702176094055,-0.7972139716148376,0.08428820222616196,0.11403030157089233,0.16696304082870483
141,1.5650123253024304,1.336041739012404,2.4089621321787686,0.23260001838207245,-0.9725714325904846,-0.00134537392295897,1.3825126886367798,-2.4821414947509766,-0.8825321197509766,0.6084185838699341,1.0419838428497314,-0.3157932758331299
142,1.5059109280563197,1.3359147412701498,2.2572766822630093,0.23223872482776642,-0.9725419282913208,-0.01509008463472128,-0.9087105989456177,-1.4862096309661865,1.193888545036316,0.2639923691749573,0.34954071044921875,-0.06352317333221436
143,1.342713088581644,1.407127046836861,2.4363176050798208,0.1587197482585907,-0.9866360425949097,-0.03684241324663162,1.9153096675872803,-1.8340680599212646,-1.1134203672409058,0.0539114773273468,-0.7868777513504028,0.3769303560256958
144,2.0644816912877846,1.33583950888181,1.8128491427986555,0.20500238239765167,-0.9725244045257568,0.11031821370124817,1.5749139785766602,2.9965999126434326,0.5343081951141357,-0.42414915561676025,0.4506739377975464,-0.19332601130008698
145,2.630250956022567,1.3859331124920393,1.32475873331698,0.08994769304990768,-0.9829614162445068,0.16029983758926392,-0.6308896541595459,-0.7216161489486694,0.14020727574825287,-0.5052309036254883,1.2823847532272339,-0.25890207290649414
146,0.45701369891492377,1.3790348175945084,-2.822981118262907,0.08410079032182693,-0.9816700220108032,-0.1710287183523178,-3.9663097858428955,2.3286502361297607,1.4092488288879395,0.033742837607860565,-3.1170237064361572,0.683144211769104
147,1.193343923430167,1.453660289423032,3.068752694842762,0.10864253342151642,-0.9931474328041077,-0.04307260364294052,0.2224387228488922,3.5034713745117188,-0.8051151037216187,0.052368223667144775,0.1859421730041504,-0.03428947925567627
148,1.582642723307349,1.389082669224212,2.6685507898190646,0.18070246279239655,-0.9835354685783386,0.0021407732274383307,1.653333067893982,-2.102846622467041,0.3814517855644226,0.6420208811759949,1.139861822128296,-0.45053553581237793
149,1.6997152634015593,1.4016116968811574,2.32646797705898,0.1669808328151703,-0.9857223629951477,0.021647049114108086,-0.2055615484714508,-3.047941207885742,0.8625848889350891,0.3701895475387573,0.5436753630638123,-0.2739206552505493
150,1.0928476972323249,1.4589901754831722,2.9178137279611076,0.09906978160142899,-0.9937561750411987,-0.05131876841187477,1.9347096681594849,-1.2675361633300781,-1.1677684783935547,0.07404117286205292,-0.7901334762573242,0.21025431156158447
151,2.064363836293338,1.397717069120787,1.9152485255595224,0.15166236460208893,-0.9850591421127319,0.08159121870994568,2.1728873252868652,1.9653476476669312,0.13897262513637543,-0.5025534629821777,0.47300469875335693,-0.14740240573883057
152,2.9390171598229977,1.3779196129656537,1.1507885905398054,0.03856528177857399,-0.9814568758010864,0.18776358664035797,-0.5957764387130737,0.13575075566768646,0.4994257092475891,-0.4615236520767212,1.3218194246292114,-0.21118581295013428
153,0.8125100601745407,1.425533986588827,-2.9993970700136594,0.10509257763624191,-0.989467978477478,-0.09954315423965454,-6.121373176574707,2.040567636489868,0.9195157885551453,-0.4211478531360626,-3.69881010055542,0.5732675194740295
154,0.6609663284444987,1.4348177145731946,-2.6332363392075946,0.08321749418973923,-0.9907691478729248,-0.10701089352369308,1.1329466104507446,1.8935437202453613,-1.0618208646774292,0.060138851404190063,-0.007842302322387695,0.23436075448989868
155,1.543207067718282,1.344561318344201,2.623024324060935,0.2242242991924286,-0.974517822265625,-0.006187752354890108,1.8101987838745117,-3.489361524581909,-0.2915373742580414,0.7359044551849365,1.169510006904602,-0.5722424387931824
156,1.5797542865771539,1.3524874341578386,2.2958226419192256,0.21657021343708038,-0.9762651324272156,0.0019400791497901082,-0.18120357394218445,-2.4542338848114014,0.753963828086853,0.19675983488559723,0.6544572710990906,-0.23636090755462646
157,0.8963342881622545,1.4513184916395516,3.0941791713150546,0.09309590607881546,-0.9928709864616394,-0.07443415373563766,2.2245144844055176,-0.953676164150238,-0.9417992830276489,-0.005937688052654266,-0.5773957967758179,0.12524592876434326
158,1.8285961555101142,1.4169219686866554,2.192761894166542,0.1482035219669342,-0.9881846904754639,0.03907638415694237,1.7073712348937988,2.5687873363494873,0.3679349720478058,-0.5250803232192993,0.5703531503677368,-0.1822037696838379
159,2.676339266307476,1.427145859782674,1.427594465596466,0.06422766298055649,-0.9897000193595886,0.12794129550457,-0.5548341870307922,0.031653501093387604,-0.4567435383796692,-0.608829140663147,1.3908230066299438,-0.15128719806671143
160,0.6780021048547626,1.3374317993147191,-2.848074060085848,0.1450502574443817,-0.9728938341140747,-0.18010558187961578,-4.65122652053833,-0.5641580820083618,0.6571192741394043,-0.2546693980693817,-3.0813512802124023,0.1731628179550171
161,1.0434648448928603,1.3824378450093602,-3.042039268497182,0.1618099808692932,-0.9823129177093506,-0.094228096306324,0.44768640398979187,2.6605050563812256,-0.9745104908943176,0.05416291952133179,0.08486723899841309,0.1302388310432434
162,1.5327942041394576,1.318259350502575,2.662674445867957,0.24968136847019196,-0.968281626701355,-0.009492992423474789,2.1579840183258057,-2.898111343383789,0.105207659304142,0.4658032953739166,1.0451858043670654,-0.5144022703170776
163,1.6208112267123482,1.3520692248522939,2.25832949906949,0.21671561896800995,-0.9761744141578674,0.01084805652499199,-0.6006971597671509,-3.360795021057129,1.1550551652908325,0.41531866788864136,0.503579318523407,-0.0890493392944336
164,1.0479894916469377,1.4234007693690642,2.8783687748317326,0.12724487483501434,-0.9891569018363953,-0.07333056628704071,2.135869264602661,0.47150230407714844,-0.7314946055412292,-0.04416078329086304,-0.7148531079292297,0.2199675440788269
165,1.9515527890890878,1.4090620244052365,2.067892319561051,0.14949795603752136,-0.9869495034217834,0.0598425529897213,1.6423152685165405,2.33683705329895,0.24452325701713562,-0.48429104685783386,0.662807047367096,-0.047009944915771484
166,2.715057537050149,1.400989303014533,1.4727880917388791,0.06991557031869888,-0.9856173992156982,0.1538519710302353,-0.36767739057540894,0.7259914875030518,-0.019259992986917496,-0.5719449520111084,1.2439333200454712,-0.260465145111084
167,0.07035966105413267,1.472566081239171,-2.211319019640878,0.006894627120345831,-0.995179295539856,-0.0978294387459755,-3.0019936561584473,-0.6092317700386047,1.6594092845916748,-0.49685436487197876,-3.0559682846069336,-0.21970593929290771
168,1.0402846453452153,1.4498684723694784,-3.0247676861778894,0.10405147820711136,-0.9926971197128296,-0.06103707104921341,0.1809777468442917,2.398393154144287,-2.1092042922973633,0.24780090153217316,0.17909860610961914,0.08554268628358841
169,1.459469272147436,1.369561478153195,2.685178476941047,0.198642298579216,-0.9798204898834229,-0.022206075489521027,1.7738287448883057,-2.389754295349121,0.08002853393554688,0.3529171347618103,1.1266863346099854,-0.25449681282043457
170,1.5735311044542262,1.3833090981385574,2.3342642863628793,0.18638966977596283,-0.9824756979942322,0.0005097356042824686,-0.5125552415847778,-3.062981367111206,1.3948665857315063,0.5347559452056885,0.02748924493789673,-0.23016977310180664
171,1.687931024170389,1.4276912187460118,2.2312134045663266,0.1416398584842682,-0.9897779226303101,0.016667239367961884,1.4017126560211182,0.43343308568000793,-1.1479792594909668,0.1611555516719818,-0.5249315500259399,0.3672133684158325
172,2.5165421507389216,1.42997940689986,1.6245585669200726,0.0821259468793869,-0.99010169506073,0.11381702125072479,0.17635419964790344,2.166597604751587,1.7292580604553223,-0.3874085247516632,0.8253371715545654,-0.06927655637264252
173,2.8300912406312895,1.4363121366875073,1.4953749777554168,0.04109368473291397,-0.9909706115722656,0.12762656807899475,-0.1051587164402008,0.6259393095970154,-0.44093796610832214,-0.3886431157588959,1.1276130676269531,-0.35798847675323486
174,-0.08406039330336289,1.4492928575566857,-1.834571432253719,-0.01017653290182352,-0.9926275014877319,-0.12077688425779343,-6.376664161682129,-1.0165971517562866,2.147571325302124,-0.36418259143829346,-4.442537784576416,0.277545690536499
175,0.3061607538502006,1.3818019994096649,-2.299159009818284,0.05662437900900841,-0.982193648815155,-0.17913466691970825,1.8900617361068726,-0.9513856768608093,-2.411994457244873,0.5699930191040039,0.2262275218963623,-0.14140671491622925
176,1.4751941059493325,1.4352117855203264,2.598479559147514,0.13455231487751007,-0.9908224940299988,-0.01290283352136612,1.2954894304275513,-2.1091628074645996,-0.38329291343688965,0.42004361748695374,1.179192304611206,-0.2293151617050171
177,1.3723987693495896,1.4369743550460117,2.438552650149976,0.13080449402332306,-0.9910591840744019,-0.026297233998775482,-1.5271039009094238,-0.9321962594985962,1.0240117311477661,0.7766661643981934,-0.5455922484397888,0.08006919175386429
178,1.0658011365662745,1.465628821257725,2.7830846307931543,0.09187033027410507,-0.9944750070571899,-0.050786495208740234,1.1321430206298828,-0.47217831015586853,-0.9723080992698669,-0.08349326997995377,-0.3520367741584778,0.30455541610717773
179,2.4206835456042395,1.452597311286223,1.47791642115268,0.07783802598714828,-0.993022620677948,0.08858542144298553,1.6978423595428467,0.8677193522453308,1.190277099609375,-0.3732024133205414,0.7973286509513855,-0.015938282012939453
180,-3.06672526433733,1.4413741331775862,0.756464524011215,-0.009653501212596893,-0.9916366338729858,0.12870033085346222,-0.8132566213607788,0.12293891608715057,-0.8653484582901001,-0.510564386844635,1.0690749883651733,-0.1981736421585083
181,-0.2375413994152446,1.4140556563202258,-2.0373398551885136,-0.03673243895173073,-0.9877412915229797,-0.1517164558172226,0.6739181280136108,0.1513201892375946,0.9288392066955566,-0.3866531550884247,-0.9831448793411255,-0.1321122646331787
182,0.8305132545790441,1.493042373876553,-3.0031843825892106,0.05734607204794884,-0.9969787001609802,-0.05239187553524971,0.8609045147895813,-0.8661497235298157,-2.051424264907837,0.16152602434158325,0.6345824599266052,-0.0985175371170044
183,1.761463604596308,1.3732304101310295,2.1319953468112174,0.19272615015506744,-0.9805472493171692,0.03719843924045563,1.2505162954330444,-1.3814969062805176,-0.14304602146148682,0.34398651123046875,1.2134268283843994,-0.39286553859710693
184,1.4415626946182414,1.4263327973165256,2.2896215776332065,0.1427609771490097,-0.9895832538604736,-0.01855291984975338,-2.613854169845581,0.5950348973274231,1.8122570514678955,1.132995843887329,-1.7894542217254639,0.36816227436065674
185,1.5848649562336428,1.4507941017095025,2.197857624967359,0.11970359086990356,-0.9928083419799805,0.0016841766191646457,1.1006628274917603,-0.08661575615406036,-0.561305582523346,-0.05558614432811737,-0.4145098924636841,0.15789222717285156
186,2.66369507637429,1.3601291022563473,1.2583035816990193,0.09617359191179276,-0.9778916239738464,0.18568426370620728,1.1205707788467407,0.7021389007568359,1.1437393426895142,-0.40026599168777466,0.8595597147941589,-0.14779675006866455
187,-3.0455063185559346,1.399296794658696,0.7103709282310778,-0.016372909769415855,-0.9853299856185913,0.1698731780052185,-0.8683775663375854,-0.46749481558799744,-0.21295464038848877,-0.5433194637298584,1.2127010822296143,-0.23104560375213623
188,-0.32081681870196277,1.3921182026720336,-2.012680538747164,-0.05604542791843414,-0.9840794801712036,-0.16866105794906616,0.8279722929000854,-0.8176295161247253,0.4503883123397827,-0.17123425006866455,-0.5380915403366089,-0.30245405435562134
189,1.3095970338910288,1.4354315994233677,2.7476454834812922,0.13037437200546265,-0.9908521771430969,-0.0348498672246933,0.5504938960075378,-1.0709826946258545,-2.258714199066162,0.28171974420547485,0.6479719281196594,-0.1484386920928955
190,1.590500029677076,1.3412135320374832,2.201451199982903,0.22752687335014343,-0.9737614393234253,0.004483702126890421,0.9960018396377563,-2.1943418979644775,0.16540297865867615,0.15667417645454407,1.2647771835327148,-0.4676337242126465
191,1.0021724812932058,1.424166778711794,2.605536590358707,0.1231137067079544,-0.9892691373825073,-0.07867319881916046,-3.1323139667510986,3.2941062450408936,3.1813976764678955,1.434076189994812,-3.6102638244628906,0.7504414319992065
192,1.5979745200169806,1.4513677163152814,2.060297305992609,0.11910229921340942,-0.9928768873214722,0.0032377825118601322,1.1070212125778198,-0.2950091063976288,-0.253173828125,0.02080555260181427,-0.11732220649719238,0.2551546096801758
193,2.775043413043013,1.4168573589793094,1.001439196160357,0.05495338886976242,-0.9881747961044312,0.1431455910205841,1.0243231058120728,-0.016688279807567596,1.3294963836669922,-0.23558691143989563,0.9470829367637634,-0.1277036815881729
194,-2.9543250362822224,1.503225810833362,0.45390086991527356,-0.012570572085678577,-0.9977179765701294,0.06633971631526947,-2.6336963176727295,1.0055721998214722,-1.2780042886734009,-0.7242916226387024,0.8550482988357544,0.26357054710388184
195,-0.17178170299706358,1.4253632220007848,-2.1098332551520462,-0.024772530421614647,-0.9894432425498962,-0.1427880823612213,1.5064697265625,0.9958238005638123,0.28602996468544006,-0.0450669527053833,-0.6626105904579163,0.0935479998588562
196,1.2659591477684558,1.4042258457040702,2.8057693129772523,0.15815718472003937,-0.9861592054367065,-0.04976325482130051,0.9660449624061584,-2.2368645668029785,-1.6232221126556396,0.540695309638977,0.660460352897644,-0.30797910690307617
197,1.761810738497104,1.3729924371633941,2.109582672215749,0.19294244050979614,-0.9805005192756653,0.037309661507606506,0.3418117165565491,-1.700452208518982,-0.1669491082429886,0.046086475253105164,1.1334240436553955,-0.5109729766845703
198,0.9275438545182543,1.4234021193986455,2.761366155749913,0.11751080304384232,-0.9891571402549744,-0.08808745443820953,-1.9293001890182495,0.1576574742794037,1.2501786947250366,0.7856264114379883,-2.7851805686950684,0.42587125301361084
199,1.5281976502384893,1.4214740740461749,2.182025468711759,0.14863306283950806,-0.9888721108436584,-0.006335404235869646,1.6833913326263428,1.7577134370803833,-0.4840661585330963,-0.39591699838638306,0.04812198877334595,0.07347410917282104
200,2.586944876684716,1.4037246232116292,1.2624721771653102,0.08757838606834412,-0.9860759377479553,0.14136527478694916,-0.11482015252113342,0.560723066329956,1.293116807937622,-0.3991018235683441,1.109519600868225,-0.07387568056583405
201,2.4526845482159887,1.4704427920222747,1.4277053021371042,0.06368764489889145,-0.994968831539154,0.07733756303787231,-2.5383946895599365,-0.5352630615234375,-0.6344729065895081,-0.44611865282058716,0.2823680639266968,0.15659499168395996
202,0.2035879756439404,1.468137863419155,-2.456024333605472,0.020719505846500397,-0.9947352409362793,-0.10036177188158035,1.3572770357131958,2.405021905899048,-0.8948570489883423,-0.0456981360912323,-0.3453220725059509,0.06160444766283035
203,1.2645555204551615,1.407821909581395,2.7433660451759954,0.1547052264213562,-0.9867490530014038,-0.04891586676239967,0.7551532983779907,-1.9140112400054932,-1.2215163707733154,0.2261999249458313,0.9080899953842163,-0.07744216918945312
204,1.7264486703081425,1.3649809194684133,2.0502303093249528,0.20189501345157623,-0.9788946509361267,0.03168170526623726,0.3605472445487976,-3.6220595836639404,0.2764536142349243,0.33170485496520996,0.9155402183532715,-0.5341535806655884
205,0.8800223138955968,1.4156650074129762,2.81861992157053,0.11908954381942749,-0.9879912734031677,-0.09844396263360977,-0.24407033622264862,0.26657363772392273,0.4274600148200989,0.6618857979774475,-1.858261227607727,-0.04469871520996094
206,1.6993872924333544,1.39080257211491,1.9526839929675561,0.17754530906677246,-0.9838448166847229,0.022957399487495422,0.9684622287750244,2.9703500270843506,-0.16830845177173615,-0.42688918113708496,0.2835884690284729,0.009162306785583496
207,2.9410680916202363,1.4319124151365685,0.8525128985183547,0.027574699372053146,-0.9903711080551147,0.13566473126411438,-0.08645949512720108,-0.08906441181898117,2.6098146438598633,-0.33114832639694214,1.0401451587677002,-0.0593860000371933
208,-1.5319615980443286,1.560498762653407,-0.9703284729334624,-0.010290190577507019,-0.9999469518661499,-0.00039981777081266046,-4.775020122528076,1.4480528831481934,-1.4819248914718628,-0.6030825972557068,-0.7904430031776428,0.893939197063446
209,0.12024490721980652,1.486905338436567,-2.4407503588649093,0.010051448829472065,-0.9964832067489624,-0.08318820595741272,0.9100326299667358,2.005521774291992,-0.21239376068115234,-0.052135169506073,-0.1373668909072876,0.33036530017852783
210,1.1220740302676133,1.3957326848740395,2.919589252866703,0.1569279432296753,-0.984715461730957,-0.07555769383907318,0.9849741458892822,-1.3819793462753296,-0.9826323986053467,0.3363887071609497,0.8039293885231018,-0.2892341613769531
211,1.7179033417957994,1.3875351024672098,2.1317060090122353,0.1802685260772705,-0.983254611492157,0.026711728423833847,-0.03466459736227989,-2.502671957015991,0.1133498027920723,0.3268115520477295,1.0135891437530518,-0.13855862617492676
212,0.48669422737237356,1.3557202527303842,3.1070503579455107,0.09981877356767654,-0.9769601821899414,-0.18864008784294128,0.266875296831131,-0.6019749641418457,0.186443492770195,0.23697322607040405,-1.517134666442871,0.09479856491088867
213,1.0644395789321681,1.3947468205434477,2.4760933466462114,0.15316428244113922,-0.9845432639122009,-0.08494265377521515,0.435577929019928,2.2670834064483643,-0.12707403302192688,-0.19060936570167542,0.13157695531845093,0.27219849824905396
214,1.9801222419143876,1.421525102347291,1.802897129511554,0.13643138110637665,-0.9888797402381897,0.05918802693486214,0.47154924273490906,0.6713974475860596,0.9922903776168823,-0.48539990186691284,0.873141884803772,-0.07586586475372314
215,1.3073595773408597,1.4721923693548042,2.534855877392039,0.09504808485507965,-0.9951425790786743,-0.02563493326306343,-3.3483073711395264,-0.0164987500756979,0.22636795043945312,-0.38879504799842834,-0.5242055654525757,0.3992616534233093
216,0.2278207690283419,1.4633471267359595,-2.6127424509305985,0.02422136440873146,-0.9942328929901123,-0.104471854865551,0.9960178136825562,1.5782818794250488,-0.47562137246131897,0.11316877603530884,-0.3079216480255127,0.2190043330192566
217,1.034824826978949,1.4213959562987037,3.001975332993795,0.12797319889068604,-0.9888604879379272,-0.07601182907819748,0.18695726990699768,1.4990582466125488,-0.4314658045768738,0.15773236751556396,0.43286073207855225,-0.21535474061965942
218,1.473781314777391,1.3993076160685054,2.4840646702937526,0.1698475480079651,-0.9853318333625793,-0.01652965322136879,0.6430593132972717,-2.551806688308716,-0.8503214120864868,0.3116130232810974,0.9486191272735596,-0.04043138027191162
219,1.1442056667981026,1.3753438808975897,2.4785302659199253,0.17680522799491882,-0.9809598922729492,-0.08035815507173538,-1.8293143510818481,-1.9506521224975586,0.11437864601612091,0.5554487705230713,-1.2600373029708862,0.5031791925430298
220,1.5171383021844596,1.3630925581980127,2.039411955347561,0.20591624081134796,-0.9785069823265076,-0.011059675365686417,1.1739649772644043,0.37983033061027527,-0.23411671817302704,0.09694017469882965,-0.2602623701095581,0.179318368434906
221,2.215167454653481,1.3601086370672135,1.5156920787396968,0.16719689965248108,-0.9778873324394226,0.1256251186132431,0.0981389582157135,1.4630486965179443,1.1453965902328491,-0.3275209963321686,0.7962772250175476,-0.0523829460144043
222,3.106319946219744,1.4633566303973802,0.7122913377697638,0.003781598759815097,-0.9942339062690735,0.1071658656001091,-0.36401158571243286,0.7146573662757874,1.1357219219207764,-0.39860278367996216,1.0132616758346558,-0.14577066898345947
223,-0.7593108674396151,1.468318076272261,-1.5545607220746254,-0.07042568922042847,-0.9947537183761597,-0.07419942319393158,0.397472083568573,0.424492210149765,0.3891424536705017,-0.25185519456863403,-1.1016056537628174,-0.3333780765533447
224,1.0970350784608813,1.4883476774292488,2.960323075831199,0.07328588515520096,-0.9966030120849609,-0.0375741682946682,0.06489485502243042,-0.04899664968252182,-1.8283661603927612,0.16285914182662964,0.5132502317428589,-0.079628586769104
225,1.817159237024844,1.406351528072361,2.1746373758008266,0.1587618589401245,-0.986509382724762,0.03992404788732529,1.7196927070617676,-0.24723337590694427,-0.2503723204135895,0.353887677192688,1.1240826845169067,-0.1933053731918335
226,1.9374541494544613,1.390061110297947,1.8438854532545732,0.16780495643615723,-0.9837117791175842,0.06444098800420761,-1.5019268989562988,-2.5275442600250244,0.8116849660873413,0.8238332271575928,-0.790183424949646,0.19172358512878418
227,1.7712916354945836,1.411056415963338,1.9166577898256725,0.1558753252029419,-0.9872686862945557,0.03167787939310074,1.2974883317947388,-1.6610208749771118,-1.020033359527588,0.1941155195236206,-0.6587731838226318,0.0780937671661377
228,2.38095908595387,1.3485062919687474,1.3629999456991986,0.15198366343975067,-0.975395143032074,0.1597040593624115,0.638774037361145,0.912161648273468,1.0529983043670654,-0.369131475687027,0.7317580580711365,-0.07504832744598389
229,2.9657622512750277,1.4490114194007309,0.8176221534282911,0.021250590682029724,-0.9925934076309204,0.11961038410663605,-0.8704409599304199,0.6825019717216492,-0.35588204860687256,-0.5990399122238159,1.34269118309021,-0.03800632804632187
230,0.2553676150866221,1.4391552728177737,-2.6519519243412075,0.033156801015138626,-0.9913478493690491,-0.12700475752353668,-0.7355232834815979,1.4470279216766357,1.4308425188064575,-0.4119715094566345,-1.9340367317199707,-0.214288592338562
231,1.0298689504462346,1.5058397884027714,2.9709515923110654,0.05564480647444725,-0.9978910684585571,-0.033425331115722656,0.5408419370651245,-0.011276141740381718,-1.3489696979522705,0.11046237498521805,0.6412014961242676,-0.16818904876708984
232,1.7067959477272854,1.4066116238430542,2.171670357653231,0.16193822026252747,-0.9865519404411316,0.022160330787301064,0.6027617454528809,-0.33118516206741333,0.006695666816085577,0.6149324774742126,1.2026469707489014,-0.25223231315612793
233,1.3895159388720064,1.4642364197151647,2.2929988116970432,0.10461712628602982,-0.9943278431892395,-0.01917554810643196,-1.7801930904388428,-0.9951418042182922,0.7923806309700012,0.9166994094848633,-1.6921193599700928,0.44553667306900024
234,1.8217015621975692,1.4479995379401163,1.7896339649061526,0.11865340173244476,-0.9924699664115906,0.030411627143621445,1.0016456842422485,-1.794821858406067,-0.9384843111038208,0.29629409313201904,-0.5285109281539917,0.31838905811309814
235,2.668395258038074,1.3551869276298223,1.0076904351934055,0.0975012481212616,-0.9768462181091309,0.1904340237379074,0.7558220624923706,1.0452464818954468,1.501373052597046,-0.3602881133556366,0.8290801048278809,-0.11645948886871338
236,-2.698833164350343,1.4210574625356691,0.14099995151336017,-0.06391390413045883,-0.9888100624084473,0.13479509949684143,-1.9150017499923706,0.43022361397743225,-0.9524436593055725,-0.698689877986908,1.1505379676818848,0.04478561878204346
237,-0.27430539397674075,1.4825283867203014,-2.1457220192232898,-0.023878823965787888,-0.9961069226264954,-0.08485757559537888,1.6712498664855957,0.8894570469856262,0.412104994058609,-0.2324230670928955,-0.46322834491729736,0.048251695930957794
238,0.5924609351272839,1.4934702371880437,-2.8334356142177315,0.043136097490787506,-0.9970118403434753,-0.0640832707285881,-0.689552903175354,0.34956201910972595,-1.5047712326049805,0.1355443298816681,0.5012232661247253,-0.2241705060005188
239,1.7202649434594153,1.4170204385534724,2.1963882583924046,0.15146327018737793,-0.988199770450592,0.022809118032455444,2.0845611095428467,-2.0824098587036133,-0.7769326567649841,0.6649429798126221,1.2130532264709473,-0.15121173858642578
240,1.215640224613211,1.4344526424797672,2.420677119772992,0.1274380087852478,-0.9907196164131165,-0.047264549881219864,-3.0001418590545654,-1.8058464527130127,1.2122305631637573,0.8403964042663574,-1.7704038619995117,0.4123920798301697
241,1.2383585776259574,1.4343046430674353,2.321355567679331,0.12861835956573486,-0.9906994700431824,-0.044405605643987656,0.9611008167266846,-1.4258100986480713,-0.8712993860244751,0.22756755352020264,-0.46485161781311035,0.5812860727310181
242,2.193637286326146,1.3738482366253226,1.434821724252068,0.1589338332414627,-0.980668306350708,0.11414733529090881,1.7330049276351929,1.6221603155136108,0.3208999037742615,-0.3493787944316864,0.7812970280647278,-0.08417905122041702
243,2.6245093102393353,1.425773804681321,1.0914170439538804,0.07144036144018173,-0.9895026683807373,0.1256214827299118,-1.3542734384536743,0.446831613779068,0.24982216954231262,-0.5346971750259399,0.9942634105682373,-0.16877329349517822
244,0.1610998518818806,1.4646485503484337,-2.638416595608201,0.016994448378682137,-0.9943715929985046,-0.10457596927881241,-0.15724290907382965,0.5476204752922058,1.1053639650344849,-0.5122947692871094,-1.672300100326538,-0.2528917193412781
245,-0.01298992779039406,1.4721804810056665,-2.3679490289521348,-0.0012789153261110187,-0.9951413869857788,-0.09844884276390076,-0.012387100607156754,1.2604987621307373,-0.7731552720069885,0.10500815510749817,0.0002225041389465332,0.007155522704124451
246,1.4934231683839216,1.4458780237054225,2.4370045478820375,0.12422145903110504,-0.9922078251838684,-0.00963063258677721,1.831037998199463,-1.355302095413208,-0.6309260129928589,0.5782016515731812,1.0716450214385986,-0.23035955429077148
247,1.7650432343007965,1.4077483518339298,1.8937986299166631,0.15927371382713318,-0.986737072467804,0.03133350983262062,-0.42427974939346313,-4.290449142456055,0.3857848644256592,0.3837560713291168,0.6246002912521362,-0.27855634689331055
248,0.6779705625615007,1.3794023794627237,2.7727129879763464,0.11931359022855759,-0.9817399978637695,-0.14815853536128998,1.4436146020889282,-0.17576676607131958,-0.5461821556091309,0.3377481698989868,-1.483790397644043,0.38712644577026367
249,1.555284905571255,1.4085313063502596,1.9851274220302555,0.1615346074104309,-0.986863911151886,-0.002505832351744175,2.133244514465332,2.2487239837646484,-0.2275720089673996,-0.4888661503791809,0.381151020526886,-0.1378750205039978
250,2.639191050160453,1.429234839324398,1.0079992619369667,0.06793871521949768,-0.9899969100952148,0.12365423142910004,-0.30811479687690735,0.4947561025619507,1.0590465068817139,-0.5115727782249451,1.1265935897827148,-0.24209298193454742
251,0.3068122396708284,1.5142990983723519,-2.90902941374665,0.017054127529263496,-0.9984044432640076,-0.05382971465587616,-4.316760540008545,0.4465563893318176,1.4961445331573486,-0.28788238763809204,-1.2172327041625977,0.42319923639297485
252,-0.3818939438942229,1.4673695301633303,-2.0460760735216748,-0.03847614303231239,-0.9946562051773071,-0.09580463171005249,1.0067960023880005,2.2678732872009277,-0.15122176706790924,0.0641109049320221,-0.2791779637336731,0.2255653738975525
253,1.0109803228691603,1.4828022835613086,2.9083786333463792,0.07446550577878952,-0.9961310029029846,-0.046667031943798065,1.7313802242279053,-0.48760858178138733,-0.9081095457077026,0.5228550434112549,0.6751471757888794,-0.41286665201187134
254,1.8808616607521016,1.4273877671333284,1.957761002402368,0.13610199093818665,-0.9897345900535583,0.043607018887996674,-0.46387654542922974,-2.111102342605591,-0.2974097430706024,0.22920863330364227,0.8732032775878906,-0.3018009662628174
255,0.8230056251432329,1.3794570295755544,2.7640915278022695,0.13943389058113098,-0.9817504286766052,-0.1293219029903412,-0.014273134060204029,-1.0733498334884644,-0.12215856462717056,0.5169381499290466,-1.6858673095703125,0.2726324796676636
256,1.3793627267375836,1.3802515494891843,2.1347672481174613,0.18593460321426392,-0.981901228427887,-0.03603540360927582,0.6152087450027466,1.6850634813308716,0.07970435917377472,-0.018393099308013916,-0.3265094757080078,0.03089320659637451
257,2.2839923087173624,1.3614187740939558,1.4455426265713986,0.15719269216060638,-0.9781605005264282,0.1359875649213791,1.1191428899765015,1.3464124202728271,0.5926099419593811,-0.5273404121398926,0.4894672632217407,-0.3567821979522705
258,1.9644286354449179,1.433533481963016,1.800733756028765,0.12636838853359222,-0.990594208240509,0.052481718361377716,-1.6339980363845825,-0.45434078574180603,0.15877197682857513,-0.18525204062461853,1.0626461505889893,-0.15984249114990234
259,0.3264648147551338,1.4108489528201014,-2.9086702260336814,0.05107618495821953,-0.9872356653213501,-0.15085424482822418,1.139751672744751,1.189568042755127,0.32661327719688416,-0.16766858100891113,-1.0223621129989624,0.2117825746536255
260,1.6458728760925239,1.4894131651946103,2.248876568564932,0.0810665413737297,-0.9966902136802673,0.006097656674683094,-0.35856756567955017,2.105034112930298,-1.3957092761993408,0.15570411086082458,0.3190625309944153,-0.147455096244812
261,1.8362117179694217,1.4370426902100832,2.1342110928413716,0.1286855936050415,-0.9910683035850525,0.034980423748493195,0.921567440032959,-0.09889142215251923,0.3492632210254669,0.0873330682516098,0.6216988563537598,-0.1150738000869751
262,1.8663953818543548,1.399388711098926,1.9823982311813433,0.16317148506641388,-0.9853456616401672,0.049689095467329025,0.13464237749576569,-0.8172136545181274,-0.46073031425476074,-0.05945749580860138,0.35317403078079224,-0.18930697441101074
263,1.3777550700562762,1.3682515795887573,2.3176862435549186,0.19742582738399506,-0.9795578122138977,-0.0385918989777565,-1.939543604850769,-2.0960397720336914,0.036941491067409515,-0.048988357186317444,-1.1020612716674805,0.2817254662513733
264,1.4691075944965988,1.3590823770170108,1.986397689605584,0.20905040204524994,-0.9776721596717834,-0.021331647410988808,2.8008666038513184,-1.5970816612243652,-1.2861413955688477,0.5801188945770264,-0.5014690160751343,0.4295347332954407
265,2.066384485130932,1.2993108113894591,1.4875275477660077,0.23590029776096344,-0.963373601436615,0.12752479314804077,1.2540966272354126,3.239030599594116,0.004052476957440376,-0.28959593176841736,0.36379462480545044,-0.398642897605896
266,2.578396386658623,1.3079953400663666,1.1685310908702307,0.1386973261833191,-0.9656661152839661,0.21966247260570526,-0.6077754497528076,0.38203951716423035,1.294100284576416,-0.437327116727829,0.8545976281166077,-0.4829224944114685
267,2.042903729684563,1.5058960219953716,1.75767259942093,0.05775878578424454,-0.9978947043418884,0.029492788016796112,-4.746450901031494,0.8334791660308838,0.9994055032730103,-0.29033327102661133,-1.1323083639144897,0.610262393951416
268,-0.08888427085409176,1.5316676436706482,-2.3069109469400404,-0.003472548210993409,-0.9992345571517944,-0.03896525502204895,1.8846253156661987,0.7160876393318176,-0.05538041144609451,0.00223657488822937,-0.27670538425445557,0.09836769104003906
269,1.2001214639960083,1.4833842451057986,2.6646919930064636,0.08137022703886032,-0.9961820244789124,-0.03162370249629021,0.5361911058425903,-0.9390314221382141,-0.591804027557373,0.4733020067214966,0.5973021388053894,-0.4207841753959656
270,1.9185306419388122,1.4377571780029885,1.945635262460928,0.1247081533074379,-0.9911633133888245,0.045202095061540604,-0.2523249387741089,-1.6552674770355225,-0.2577929198741913,0.2322864830493927,0.9475842714309692,-0.2931879758834839
271,0.7034872535083567,1.4159336853868443,2.940655719161105,0.09977784752845764,-0.9880326986312866,-0.11762548238039017,-0.4211423397064209,-0.3392038643360138,0.3424830138683319,0.7469018697738647,-1.5674177408218384,0.19088292121887207
272,1.543750635918499,1.4442291857810128,2.0285492362127453,0.1261841207742691,-0.9920010566711426,-0.0034135691821575165,1.1039766073226929,0.1452019065618515,-0.0038885727990418673,-0.09684143960475922,0.004833638668060303,-0.08452284336090088
273,2.548254050788804,1.4136792329054721,1.1120589653522275,0.08748852461576462,-0.9876824617385864,0.1297275871038437,0.2518117129802704,0.5333392024040222,1.2095351219177246,-0.3221076428890228,0.7359886765480042,-0.06950114667415619
274,-3.041018337540182,1.5454496280732966,0.5149356120179298,-0.002544962102547288,-0.9996787905693054,0.025218918919563293,-2.7929728031158447,1.0062552690505981,0.4318791925907135,-0.47063007950782776,-0.6975564360618591,0.15600967407226562
275,-0.6313645429577264,1.4532173673117414,-1.9398172886728993,-0.06924091279506683,-0.9930955767631531,-0.09469403326511383,0.9413741827011108,0.31984254717826843,-0.4032410681247711,0.09109151363372803,-0.18820935487747192,0.5719431638717651
276,0.9907794470339163,1.4976332788595457,2.7397319141277787,0.0611426867544651,-0.9973247647285461,-0.04006023332476616,1.4096828699111938,-2.2367777824401855,-1.2260105609893799,0.4595329463481903,0.8503216505050659,-0.40564900636672974
277,2.079123986061393,1.4097311563224524,1.5542585625807914,0.1400928795337677,-0.9870570302009583,0.07805487513542175,-0.015945442020893097,-1.0638662576675415,-0.17382894456386566,0.1059703528881073,0.984691858291626,-0.26138925552368164
278,0.6763799562571703,1.4194788311234607,2.8339700533853454,0.09435959160327911,-0.9885733127593994,-0.11755399405956268,0.443750262260437,-0.10196269303560257,0.4356927275657654,0.3120582401752472,-1.548703908920288,-0.23303192853927612
279,1.6230146227849234,1.4187931751978713,1.7762156771018398,0.15121260285377502,-0.9884697198867798,0.007903249002993107,1.291857123374939,2.0749971866607666,-0.4771778881549835,-0.3368968069553375,0.13672411441802979,-0.035201191902160645
280,2.4807730161746635,1.3965688805546945,0.9959518872324774,0.10639491677284241,-0.9848607778549194,0.1368565857410431,0.02663133293390274,-0.760421633720398,1.1154941320419312,-0.302775502204895,1.0064976215362549,-0.10907028615474701
281,0.3910884183275381,1.485993831411247,3.0867584430081276,0.03228813409805298,-0.9964064359664917,-0.07830695062875748,-5.157046794891357,3.035295248031616,0.01905990205705166,-0.5954747796058655,-1.6337511539459229,1.073866605758667
282,0.6907588433203349,1.5315424511507587,3.0543101045949306,0.02500315010547638,-0.9992296695709229,-0.030247723683714867,0.29357579350471497,2.8913397789001465,-0.10319487750530243,-0.04088756442070007,-0.14807868003845215,0.2855883240699768
283,1.237210509077011,1.4298333656896551,2.6219012429839155,0.1327519565820694,-0.9900811910629272,-0.046003375202417374,0.9074953198432922,0.05612988397479057,-0.9076687693595886,0.2876429259777069,0.6968377828598022,-0.41737550497055054
284,1.8264445228982942,1.3681202636673135,1.8783157153942895,0.19474934041500092,-0.9795314073562622,0.050901077687740326,0.1556824892759323,-2.470130205154419,0.10365566611289978,0.4181656837463379,1.0621119737625122,-0.09629595279693604
285,0.5947047324195626,1.3516622022892104,2.8357454946494483,0.12179280817508698,-0.9760860204696655,-0.1800626963376999,-0.0759873166680336,-0.6794337630271912,0.25806349515914917,0.30334755778312683,-1.607852578163147,-0.059179842472076416
286,1.315454936548577,1.38966645157061,2.0605301186378013,0.1743003875017166,-0.9836407899856567,-0.04549926891922951,1.358980417251587,2.364828586578369,-0.4266721308231354,-0.2946769595146179,0.13155949115753174,0.07468932867050171
287,2.1595770442198576,1.418603736087257,1.3862356042185358,0.12607748806476593,-0.9884410500526428,0.08419343829154968,-0.17900504171848297,0.1629457175731659,1.0160503387451172,-0.482782244682312,0.8418652415275574,-0.12909996509552002
288,0.9324845203041026,1.4675829831357734,2.6070467720415462,0.08274319767951965,-0.994678258895874,-0.06138908490538597,-3.492349863052368,-0.19654808938503265,0.6599162817001343,-0.26705411076545715,-0.4955865740776062,0.40722954273223877
289,0.22009138680649795,1.460075163263959,-2.8831180637646305,0.024123039096593857,-0.9938766956329346,-0.10782915353775024,0.599684476852417,1.5326787233352661,0.1641581952571869,0.005601091310381889,-0.013477981090545654,0.30175310373306274
290,0.6487456410033994,1.4047215591642737,3.077600435678032,0.09987946599721909,-0.9862412810325623,-0.1317276507616043,-0.1281946301460266,-0.14988334476947784,-0.4238586127758026,0.17990566790103912,0.5171709060668945,-0.1695113629102707
291,1.0539377881661582,1.4144724261564987,2.839983471600905,0.1353520154953003,-0.9878062605857849,-0.07693381607532501,-0.16829217970371246,0.4767442047595978,-0.6180950999259949,0.3204737901687622,0.32757359743118286,-0.05212504416704178
292,0.8249716154333125,1.3565919305383634,3.003714328397707,0.1561390906572342,-0.9771458506584167,-0.14424562454223633,0.7707874774932861,-1.540464162826538,0.5066410303115845,0.0612834095954895,-0.8726925253868103,0.06337402760982513
293,1.114472603078871,1.407043064955531,2.4798057122275172,0.1463412344455719,-0.9866223931312561,-0.07183574885129929,0.9973544478416443,-1.9747968912124634,-0.4582493305206299,0.1521664559841156,0.20102369785308838,0.20280194282531738
294,1.853194747115708,1.3576274310794718,1.7862680390644885,0.2031782567501068,-0.9773654341697693,0.058952752500772476,1.1974986791610718,2.1583163738250732,-0.6142037510871887,-0.1727217137813568,0.7553195357322693,0.03363752365112305
295,2.2134716099637517,1.3550824573425895,1.586112483106774,0.17134186625480652,-0.9768238663673401,0.1282854527235031,-0.8948296308517456,-0.43639636039733887,1.5119069814682007,-0.011612877249717712,-0.6574687361717224,-0.28744983673095703
296,2.311427089536824,1.4195953356883058,1.5104472004206244,0.11116834729909897,-0.9885908961296082,0.10163530707359314,-1.330756425857544,-1.185516357421875,0.06800682842731476,0.44074204564094543,-0.5758164525032043,0.534457802772522
297,1.5537569400861457,1.4773782887994071,2.2608748558396727,0.09326730668544769,-0.9956396818161011,-0.0015893715899437666,0.23859132826328278,0.09835551679134369,-0.07110506296157837,-0.336690753698349,-0.2113150954246521,0.013125002384185791
298,1.551734674808629,1.4841725394807364,2.2156881006603313,0.086501345038414,-0.9962505102157593,-0.0016490583075210452,-0.4872554540634155,-0.6490873694419861,0.2769638001918793,-0.08257981389760971,0.5324137210845947,0.017502963542938232
299,0.9914402648340966,1.4566403267779757,2.725879496208153,0.09532012790441513,-0.9934912919998169,-0.06236305087804794,-0.22131624817848206,-0.25677818059921265,-0.5223419070243835,0.04844817519187927,0.7003852128982544,0.08564800024032593
300,1.5705969418425136,1.4590652129476054,2.1294834306383295,0.11149866878986359,-0.9937645792961121,-2.2231157345231622e-05,1.4565975666046143,0.5746622681617737,-0.2368924617767334,0.08892550319433212,-0.5231879353523254,-0.18447178602218628
301,1.6276764879311394,1.401652180576848,2.0470272285221993,0.16806620359420776,-0.9857292175292969,0.009569955058395863,-1.8131669759750366,-2.339167833328247,-0.45176205039024353,-0.0043241530656814575,-0.6233405470848083,0.20365631580352783
302,1.058709424937301,1.402319294417391,2.4650681530072434,0.14617158472537994,-0.9858412742614746,-0.08216330409049988,0.9084411263465881,-1.4847708940505981,-0.0013727848418056965,0.025733917951583862,-0.11923068761825562,0.44544458389282227
303,1.5945946969834,1.408163931871963,1.7891033575931667,0.1618705689907074,-0.9868044853210449,0.0038529832381755114,1.244179606437683,0.1257956624031067,-0.3291019797325134,0.09395827353000641,0.5069918632507324,0.0848463773727417
304,2.30459525023891,1.2989455382324386,1.3100014442122232,0.19940893352031708,-0.9632756114006042,0.17982344329357147,0.19162143766880035,1.5371917486190796,-0.32417407631874084,-0.2687143385410309,0.7388034462928772,-0.1491989940404892
305,2.3777866942666575,1.3426893962964086,1.2812483430516064,0.156411275267601,-0.9740962386131287,0.16331596672534943,0.25947684049606323,-0.07355649769306183,0.6226581931114197,0.1982487589120865,-0.7747594118118286,-0.11709713935852051
306,2.5172602988589707,1.37512780015934,1.2466524101505656,0.11365056782960892,-0.9809179306030273,0.1577450931072235,-1.1227773427963257,0.2771002948284149,0.21649117767810822,0.2900512218475342,-0.4483270049095154,0.2692110538482666
307,2.0854221747946124,1.4710921674348167,1.6300973668548322,0.0866468995809555,-0.9950336813926697,0.048994291573762894,-0.5527040958404541,-0.6102492213249207,-0.24231112003326416,-0.3192976713180542,-0.08373218774795532,0.05996870994567871
308,1.6473425591783124,1.470482481911985,2.0616312693436702,0.09985175728797913,-0.9949727654457092,0.007658238988369703,-0.6171956062316895,0.3061290979385376,0.09920560568571091,-0.08451668918132782,0.6024252772331238,0.08711409568786621
309,1.1781414546432463,1.4382780137199593,2.5834672597995794,0.12207525968551636,-0.9912322759628296,-0.0505589060485363,-0.25475865602493286,0.8837963938713074,-0.4329845905303955,-0.006703570485115051,0.6803954839706421,0.011725306510925293
310,1.6666376589067982,1.4177402894126996,2.0819469672030597,0.15175902843475342,-0.9883098006248474,0.014589485712349415,1.0870410203933716,0.3687628507614136,-0.8790696859359741,0.3726550340652466,-0.8574848175048828,-0.4073507785797119
311,1.2768233702652332,1.3444990703044217,2.4505814354098017,0.21474526822566986,-0.9745038747787476,-0.06501299142837524,-2.441563129425049,-0.5805063843727112,0.2551891505718231,-0.06014321744441986,-1.1396623849868774,0.48768150806427
312,1.1886803021019188,1.3751104746052267,2.431119777370456,0.18041661381721497,-0.9809145331382751,-0.07250373065471649,1.3893859386444092,-1.5288352966308594,-0.22006909549236298,0.12079189717769623,0.1676209568977356,0.2718445658683777
313,1.8883124318928879,1.356967463153494,1.62909215957893,0.2015955001115799,-0.9772256016731262,0.06625133752822876,1.6393123865127563,1.4837056398391724,-0.815360963344574,-0.10624334216117859,0.6334757208824158,-0.015332706272602081
314,2.286447143251493,1.2979718382024605,1.4368552983931002,0.20334658026695251,-0.9630136489868164,0.17678998410701752,-0.44280368089675903,0.5166450142860413,0.3763303756713867,-0.2336047887802124,0.30325424671173096,-0.3181626796722412
315,2.2497269241641673,1.3643813843920518,1.545709442920461,0.15950322151184082,-0.978771984577179,0.12870222330093384,0.10689085721969604,0.6699017286300659,0.20611198246479034,0.17165827751159668,-0.41369932889938354,-0.4400883913040161
316,1.2630417585388845,1.4675494449274347,2.493221522659907,0.09822031110525131,-0.994674801826477,-0.031219663098454475,-0.7569805383682251,-0.7969302535057068,0.7923933267593384,-0.2427210509777069,-0.2886045575141907,0.23886126279830933
317,0.7800552363344391,1.4546325014798722,2.9401547588737964,0.08151673525571823,-0.9932605624198914,-0.08239249885082245,-0.41121453046798706,-0.11023782193660736,0.28073498606681824,-0.10234495997428894,0.41627997159957886,0.07711291313171387
318,0.7579489095604474,1.4358789820345765,2.9470337622454417,0.09246566146612167,-0.9909124374389648,-0.0976865142583847,0.10846235603094101,-0.03753982111811638,-0.9516679644584656,0.06767532229423523,0.7366857528686523,0.14526337385177612
319,1.353278324119137,1.4437585052971442,2.3258473620160274,0.12371035665273666,-0.9919415712356567,-0.0273418128490448,1.1310588121414185,0.10599257797002792,-0.24756857752799988,0.14318111538887024,-0.1416643261909485,-0.2691517472267151
320,1.5480010984714978,1.4039272291440292,2.1388231845356658,0.16605256497859955,-0.9861096143722534,-0.003785861888900399,-0.8507355451583862,-1.552095651626587,-0.5987493395805359,0.032830461859703064,-0.4272356629371643,-0.08486771583557129
321,0.9908649211390668,1.4064909030977115,2.5592584656975905,0.13682450354099274,-0.9865322113037109,-0.08962967991828918,1.2274552583694458,-1.7250806093215942,0.08825831860303879,-0.07495009899139404,-0.1872960329055786,0.6451716423034668
322,1.5928471946203502,1.4030741710615426,1.7610497036447836,0.16689610481262207,-0.9859675765037537,0.003680800786241889,1.207230567932129,-0.12089666724205017,-0.519038736820221,0.17439720034599304,0.5875148773193359,-0.014163613319396973
323,2.242090372442461,1.3010098030780208,1.3252948650675298,0.20869429409503937,-0.9638277888298035,0.16577894985675812,0.3496902287006378,1.9149152040481567,-0.41170239448547363,-0.2817381024360657,0.780493438243866,-0.1817091703414917
324,2.2835406756269605,1.3353854334904436,1.3411536570079112,0.17646437883377075,-0.9724186062812805,0.15252025425434113,0.02127363532781601,-0.1820666640996933,0.9178392887115479,0.24875226616859436,-1.0155117511749268,-0.19616033136844635
325,2.2827414677424773,1.3963743766338006,1.4346170660808555,0.13138581812381744,-0.9848270416259766,0.1133749932050705,-1.7687081098556519,-0.38441070914268494,0.25235554575920105,0.35396575927734375,-0.4447232484817505,0.5266091823577881
326,1.2821389679808297,1.4374472773315468,2.410836438162683,0.12745290994644165,-0.9911221861839294,-0.03784729167819023,-0.6556685566902161,0.06212605535984039,-0.24714842438697815,-0.35735711455345154,-0.325650155544281,0.1458795666694641
327,0.988749389823019,1.4308921441856675,2.71322881179667,0.11648620665073395,-0.9902293682098389,-0.07665933668613434,-0.6711746454238892,-0.03608319163322449,0.2729725241661072,-0.09106507152318954,0.6126659512519836,0.12000954896211624
328,0.8449949013947501,1.4064821780968422,2.855410704431739,0.12234979122877121,-0.9865307807922363,-0.10857132822275162,0.3208920657634735,0.5743392109870911,-0.3690639138221741,0.07604499161243439,0.6393779516220093,0.07216380536556244
329,1.566015367874149,1.4340884699953982,2.1705701933815424,0.13628160953521729,-0.9906700253486633,-0.0006515617715194821,0.8319796919822693,1.170093297958374,-0.5340916514396667,0.4554542303085327,-0.6813881993293762,-0.41922450065612793
330,1.161668995400783,1.3662452187455476,2.4782081773582085,0.1863631308078766,-0.979152262210846,-0.0808059498667717,-2.1555721759796143,-2.168222188949585,0.15532220900058746,0.07933816313743591,-1.0400891304016113,0.5168716311454773
331,0.9932400143893069,1.3751791584441866,2.4731998928134002,0.1628446877002716,-0.9809278845787048,-0.10612285882234573,0.9329352974891663,-1.7233494520187378,-0.17530027031898499,0.2304048240184784,0.10382217168807983,0.30177104473114014
332,1.5962689189978316,1.3802976736178083,1.7985263663969169,0.18928661942481995,-0.9819099307060242,0.004822663962841034,1.7518463134765625,1.709161639213562,-0.8021817207336426,-0.20987074077129364,0.6696084141731262,0.07272255420684814
333,2.1948656026981164,1.3115939722488692,1.4240282160128241,0.2079976350069046,-0.9665947556495667,0.14977289736270905,0.02525094524025917,1.3662805557250977,0.12778455018997192,-0.2758076786994934,0.2570761442184448,-0.23036979138851166
334,2.3211801658362785,1.3755759253568913,1.3699932019073233,0.14188435673713684,-0.9810049533843994,0.13228073716163635,-0.6237607002258301,2.2011804580688477,0.2472328543663025,0.45912879705429077,-0.4170510768890381,-0.342806339263916
335,1.4480742763439882,1.4552561446882235,2.2823805080189032,0.11441558599472046,-0.9933326840400696,-0.014112233184278011,-1.3321880102157593,-0.17555217444896698,0.3610517680644989,-0.22371429204940796,-0.35299599170684814,0.2619912624359131
336,1.2326757114309863,1.4435592060370326,2.481691311217495,0.11970902979373932,-0.991916298866272,-0.04209253564476967,-0.08157586306333542,-0.5132672190666199,0.10988587141036987,-0.060794852674007416,0.363986611366272,0.08846396207809448
337,0.8917044314498624,1.438721987777876,2.770540953163908,0.1024746373295784,-0.9912908673286438,-0.08271348476409912,-0.38227537274360657,-0.44813501834869385,-0.03752618283033371,-0.020306065678596497,0.7621191143989563,0.06040513515472412
338,0.9957163418963957,1.4356065589686289,2.6463126777909793,0.11309918016195297,-0.990875780582428,-0.07330626249313354,0.8655616641044617,-0.7540204524993896,0.05684606730937958,0.10700884461402893,-0.13178962469100952,-0.14437562227249146
339,1.4873947094268138,1.4174409654708495,2.1509584985931944,0.15222394466400146,-0.9882640838623047,-0.012725241482257843,-0.33489227294921875,-1.0529769659042358,-0.6368277072906494,0.05897296965122223,-0.16523927450180054,-0.6190496683120728
340,0.875476546549156,1.3675903736343262,2.575510128860662,0.1549593210220337,-0.9794245958328247,-0.129285529255867,0.7121598720550537,-1.7140036821365356,-0.08680777251720428,-0.01799646019935608,-0.38887661695480347,0.6124856472015381
341,1.1108001150476061,1.3953935847023158,2.160114585757355,0.15636605024337769,-0.9846563339233398,-0.07747062295675278,1.15102219581604,-1.3595954179763794,-0.24173960089683533,0.204519584774971,0.41269588470458984,0.06556874513626099
342,1.8663454798861483,1.363748544740277,1.4743025559804537,0.19665837287902832,-0.9786420464515686,0.05987582355737686,0.7842294573783875,2.256753444671631,-0.5764835476875305,-0.11526800692081451,0.6723219156265259,-0.01898229494690895
343,2.2080604548174136,1.3306486746690533,1.295634410760301,0.1911633461713791,-0.97130286693573,0.1415182203054428,0.35546088218688965,-0.11995740979909897,0.6479594707489014,0.01591368019580841,-0.5227004289627075,-0.1637808084487915
344,2.289278798810239,1.3766700211193406,1.316362695710402,0.14522303640842438,-0.9812166094779968,0.12698107957839966,-0.9675851464271545,0.27605047821998596,0.3676208555698395,0.3592325448989868,-0.5038144588470459,0.06061051785945892
345,1.4830684825435692,1.435908252314243,2.1283165637269534,0.13396279513835907,-0.99091637134552,-0.01178250927478075,-0.708063542842865,-0.14044572412967682,-0.19687150418758392,-0.4187680780887604,-0.41040509939193726,0.11264306306838989
346,1.1958157283616666,1.4442903782457348,2.3585240459094443,0.11740140616893768,-0.9920088052749634,-0.046209681779146194,-0.5510193705558777,-0.23449818789958954,0.3377111852169037,-0.10575896501541138,0.6028334498405457,0.1674255132675171
347,0.8533017902248716,1.4275074959707257,2.707581594344837,0.10759315639734268,-0.9897516965866089,-0.09389060735702515,0.06526501476764679,0.2062821239233017,-0.181403249502182,-0.005527094006538391,0.7300165295600891,0.03854696452617645
348,1.5164845914164735,1.437930545495915,2.035229279671619,0.13228043913841248,-0.9911863207817078,-0.007191453129053116,1.3371899127960205,1.1006529331207275,-0.37170687317848206,0.3917674124240875,-0.5810487866401672,-0.18780064582824707
349,1.4661142510566874,1.367443860834218,2.1246313145845512,0.20084840059280396,-0.9793950319290161,-0.021102365106344223,-1.7943226099014282,-1.6351128816604614,-0.402794748544693,-0.007275402545928955,-0.8147028684616089,0.266234815120697
350,1.1254916473219199,1.3747626603340926,2.2549959975898353,0.17578557133674622,-0.9808468818664551,-0.08389844745397568,0.9654256701469421,-2.0923802852630615,0.01801186241209507,0.22790095210075378,-0.0330386757850647,0.4476832151412964
351,1.664195418760513,1.374831101539186,1.56739062300461,0.1938653588294983,-0.98086017370224,0.018159683793783188,1.4563357830047607,0.6772882342338562,-0.7017333507537842,0.023724988102912903,0.5482734441757202,0.07810795307159424
352,2.217940636221637,1.3020867648990382,1.213877744253932,0.21180842816829681,-0.9641143083572388,0.16006535291671753,0.1535155028104782,1.2000524997711182,-0.02160879410803318,-0.3653271198272705,0.5378752946853638,-0.1060950756072998
353,2.3674398409839785,1.35705081527838,1.1122562025498721,0.14829662442207336,-0.9772432446479797,0.15166999399662018,-0.0450446642935276,1.9816696643829346,0.2506987154483795,0.42636463046073914,-0.857854962348938,-0.046964168548583984
354,2.1897543701091173,1.436608158418273,1.4057453630335075,0.10896603763103485,-0.9910102486610413,0.07762055844068527,-1.611796498298645,0.3678286671638489,0.26259440183639526,0.05500490963459015,-0.46322858333587646,0.6163034439086914
355,1.557141953778688,1.4627490974736872,2.002788410899778,0.1078265830874443,-0.9941685795783997,-0.001472395844757557,-0.25157320499420166,-0.8055797815322876,0.0858345776796341,-0.1943286657333374,-0.023287415504455566,0.012321412563323975
356,1.0943114960657832,1.4806421679957942,2.4016507048900766,0.08000488579273224,-0.9959388375282288,-0.041294608265161514,-0.5680858492851257,-0.2653390169143677,-0.042311906814575195,-0.037615977227687836,0.6681341528892517,0.0825849175453186
357,1.0956408501622337,1.4597283299907067,2.3846679878737462,0.09856104850769043,-0.9938383102416992,-0.05070658028125763,0.6835125684738159,-0.11445561796426773,-0.04316018894314766,0.13622593879699707,0.4443693161010742,-0.020658791065216064
358,1.9984401110976517,1.4404477967697178,1.5058271387109627,0.11827493458986282,-0.991516649723053,0.05390643700957298,0.9594349265098572,1.0498237609863281,-0.7318260669708252,0.3198506832122803,-0.3317561149597168,-0.4166841506958008
359,1.3772418624841771,1.3923990339632986,2.060407890266666,0.17413973808288574,-0.9841293692588806,-0.034132834523916245,-2.3595755100250244,-2.449481725692749,0.13858002424240112,-0.06580232083797455,-1.0372178554534912,0.509611964225769
360,1.304475785251568,1.4052890044660389,1.9077135630973523,0.15894515812397003,-0.9863349199295044,-0.04336037486791611,0.9269306659698486,-2.6246025562286377,-0.42619121074676514,0.30478471517562866,0.13941097259521484,0.2392680048942566
361,1.7759823000642854,1.3504998269062314,1.3550243172127208,0.21393544971942902,-0.9758327007293701,0.04452314227819443,1.075292706489563,2.3345723152160645,-0.7300963401794434,-0.20316274464130402,0.5459773540496826,-0.07458293437957764
362,2.110506077374643,1.3218546194640324,1.1915532948202257,0.21135808527469635,-0.9691737294197083,0.1266109198331833,-0.18687333166599274,0.9534142017364502,0.3690546452999115,-0.38564395904541016,0.2770653963088989,-0.06179152429103851
363,2.3135363232251795,1.3628421321533566,1.0818252942637823,0.15208107233047485,-0.9784553647041321,0.13962967693805695,-0.0882316455245018,2.6801185607910156,0.38733434677124023,0.35803550481796265,-0.3424827456474304,-0.261791467666626
364,2.134131093118123,1.4471952071225471,1.3499319405583503,0.10423654317855835,-0.9923710823059082,0.06583630293607712,-1.3107749223709106,-0.8103194236755371,0.3053589463233948,0.05727773904800415,-0.15158027410507202,0.29723143577575684
365,1.3016117121339603,1.467656616554716,2.0896505114440265,0.09924986213445663,-0.9946858286857605,-0.02738110162317753,-0.10984836518764496,-0.2743552327156067,-0.09711795300245285,-0.17415525019168854,-0.06699031591415405,0.20136183500289917
366,1.56074170702171,1.4700661084198114,1.8580071067927326,0.10055448114871979,-0.9949309825897217,-0.0010110711446031928,-0.14363665878772736,0.3038719594478607,-0.016940783709287643,-0.05712796747684479,0.630688488483429,0.05362337827682495
367,1.7955542569612062,1.4587313509393929,1.6757850392690228,0.10901794582605362,-0.9937272667884827,0.02492375113070011,0.7079651355743408,0.5034153461456299,0.1461140364408493,0.049932852387428284,0.47114425897598267,-0.09615170955657959
368,1.8416011607237581,1.4465965502256473,1.6493490309194252,0.11936608701944351,-0.9922971129417419,0.03313898667693138,0.36924538016319275,-0.48306775093078613,-0.1725904494524002,0.4214511811733246,-0.5243349671363831,-0.4732787609100342
369,1.4838063013677742,1.4317890819013381,2.0257270203596853,0.1380360871553421,-0.990354061126709,-0.01203814335167408,-1.0717060565948486,-1.0685906410217285,-0.9473783373832703,-0.1525319516658783,-0.6171746253967285,0.16778463125228882
370,1.1420794822655795,1.4153730910754665,2.222592673210727,0.14078888297080994,-0.987946093082428,-0.06435021758079529,1.2790886163711548,-1.4288113117218018,-0.0388164147734642,0.035679012537002563,0.272705614566803,0.18980801105499268
371,2.1389020825192557,1.382531264303779,1.1109275425308405,0.1577572524547577,-0.9823304414749146,0.10069634020328522,1.3058676719665527,-0.21925678849220276,-0.2793632745742798,0.01919892430305481,0.6710968613624573,-0.024600744247436523
372,2.488731209337165,1.3373761592313451,0.8714475529170256,0.14050985872745514,-0.9728809595108032,0.18373800814151764,-0.1185685321688652,0.7056172490119934,0.5873803496360779,-0.08515097200870514,-0.04883229732513428,-0.361808180809021
373,2.6561517589129546,1.3847850662929666,0.7536615700843846,0.08629333227872849,-0.9827497005462646,0.1635749489068985,0.21093855798244476,0.70328688621521,0.3919505774974823,0.2503002882003784,-0.3451160192489624,-0.3099830150604248
374,2.4530312209705953,1.4852585494102104,0.8960445618628449,0.05428723618388176,-0.9963438510894775,0.06596899777650833,-0.9775593280792236,-0.9060890078544617,0.29230988025665283,0.011356070637702942,-0.10534071922302246,0.32758569717407227
375,1.959921592808572,1.5026188391457223,1.3698560282008139,0.06303319334983826,-0.9976767897605896,0.02584567479789257,0.08818893879652023,-0.3945430517196655,-0.05777862295508385,-0.09379490464925766,0.3466299772262573,0.07844805717468262
376,1.904319889664686,1.5038578818146935,1.3916335739806993,0.06320355087518692,-0.9977604746818542,0.021897919476032257,-0.15215399861335754,-0.5653854608535767,-0.0868915468454361,-0.025331243872642517,0.5967137217521667,-0.05679476261138916
377,2.037094987607889,1.4808646348694439,1.2091606345162806,0.080221988260746,-0.9959588646888733,0.040377188473939896,0.6208337545394897,-0.09958286583423615,-0.24532416462898254,0.029397152364253998,0.009569764137268066,-0.21020746231079102
378,1.8951422899843737,1.4075516550658405,1.329852496944687,0.15404650568962097,-0.9867051243782043,0.05179345980286598,-0.3615415096282959,-0.9420438408851624,-0.7697548270225525,0.18822337687015533,-0.3006483316421509,-0.3047841787338257
379,1.2264080230572132,1.3908240533431062,1.9246132007116845,0.16849194467067719,-0.9838486313819885,-0.06043502688407898,0.7078110575675964,-0.7918828129768372,-0.06364574283361435,-0.039951905608177185,-0.260459840297699,0.8125560283660889
380,1.5287460307235903,1.3778102419077005,1.5013064027507652,0.19162021577358246,-0.9814358949661255,-0.008062439039349556,0.9629920721054077,-0.5254902839660645,-0.17494335770606995,0.012435555458068848,0.46820664405822754,0.02213108539581299
381,2.106198793733832,1.3190358432741447,1.0555830837369544,0.21424949169158936,-0.968475341796875,0.12709221243858337,0.7250562906265259,2.624905586242676,-0.47999876737594604,-0.16319361329078674,0.6599122285842896,-0.12903012335300446
382,2.3413872784350884,1.3087136002785669,0.938750211939236,0.1858987957239151,-0.9658524394035339,0.1804734468460083,-0.4022553265094757,0.30034199357032776,0.7030004858970642,0.2709035873413086,-0.8871595859527588,-0.1781541258096695
383,2.5751449549177536,1.327956850546761,0.8028213068594847,0.12903957068920135,-0.9706591367721558,0.20290254056453705,-1.4102747440338135,-0.8404781222343445,0.6988388895988464,0.26660555601119995,-0.4298992156982422,0.25438806414604187
384,1.728360973084891,1.4729249546912493,1.5721350549863804,0.0965050533413887,-0.9952144026756287,0.015332883223891258,-1.0560615062713623,-0.3588794469833374,-0.2028931975364685,-0.2081688642501831,-0.30999189615249634,0.3218557834625244
385,1.6437794309382707,1.4704881733464719,1.6730787622449144,0.09987380355596542,-0.994973361492157,0.007302069570869207,0.14774189889431,0.351261705160141,0.14921970665454865,-0.11110426485538483,0.618600070476532,0.08023762702941895
386,1.671825710642195,1.4661132296242916,1.6837051085915544,0.10395900160074234,-0.9945257306098938,0.010538794100284576,0.2323327660560608,0.44232675433158875,-0.2320157140493393,0.05206211656332016,0.6320990324020386,-0.12987780570983887
387,1.90205551143786,1.4336495712828585,1.4291070686274534,0.12928487360477448,-0.9906101226806641,0.04446525499224663,0.29545512795448303,-0.5000640153884888,-0.8239034414291382,0.22934244573116302,-0.3760433793067932,-0.4396069049835205
388,1.2216095595513687,1.370033212724827,2.039885394441938,0.18738262355327606,-0.979914665222168,-0.0682273581624031,-2.6955296993255615,-0.5763131976127625,0.5793107151985168,0.055949270725250244,-1.121678352355957,0.4674583077430725
389,1.4157111484540637,1.3974072095037844,1.7274841675179804,0.17045214772224426,-0.9850057363510132,-0.026648592203855515,1.3161661624908447,-2.3668434619903564,-0.27014297246932983,0.3093757629394531,0.30013012886047363,0.13700014352798462
390,2.0002934874438845,1.3414299053342105,1.0669967135504765,0.2067103236913681,-0.973810613155365,0.09467592090368271,1.6825299263000488,2.313169479370117,-0.8494080901145935,-0.2508387565612793,0.686167299747467,-0.04264344274997711
391,2.392193856575459,1.2844547389419851,0.8601928776637487,0.19240105152130127,-0.9592835903167725,0.2067774385213852,-0.45662152767181396,0.2743251621723175,0.6174399256706238,-0.14268791675567627,-0.10512375831604004,-0.2995814085006714
392,2.560952634663055,1.3589106753171953,0.762226414325957,0.11536404490470886,-0.9776360988616943,0.1758374124765396,0.05695020407438278,0.25415101647377014,0.5240761637687683,0.31484225392341614,-0.42180848121643066,-0.2635296583175659
393,1.6297127604640833,1.4931727923461813,1.6096920719010834,0.07741310447454453,-0.996988832950592,0.004566188436001539,-1.0876929759979248,-0.545503556728363,-0.08018583804368973,-0.06444311887025833,-0.266423761844635,0.3206596374511719
394,1.5503053064046215,1.4664565994445402,1.7415358851126774,0.10412875562906265,-0.9945615530014038,-0.002134003210812807,0.397174209356308,0.6140238642692566,0.0014445949345827103,-0.08929721266031265,0.5289090871810913,0.11675804853439331
395,1.6142498098856057,1.4758130719165345,1.7134116515936422,0.09475002437829971,-0.9954924583435059,0.004119812045246363,-0.24658085405826569,-0.10041145980358124,-0.020174548029899597,-0.053261399269104004,0.7203766107559204,-0.0752410888671875
396,1.8143317323659998,1.4611073481605914,1.4578199930424363,0.10623975843191147,-0.9939901828765869,0.026397084817290306,0.14698047935962677,-0.6527843475341797,-0.3252226710319519,0.16944079101085663,-0.48304545879364014,-0.29988038539886475
397,1.2781547106517102,1.4071174846609906,2.0174236785634667,0.1560206264257431,-0.9866344928741455,-0.04700775071978569,-2.4384779930114746,-0.0963270291686058,-0.2822961211204529,0.0486760139465332,-0.8320909738540649,0.4064285159111023
398,0.966721266505664,1.388281187502744,2.220918493840507,0.14938287436962128,-0.9833902716636658,-0.10309448838233948,1.5977177619934082,-1.7973644733428955,-0.5006794929504395,0.23449775576591492,0.06984645128250122,0.3489440679550171
399,1.6369120656190623,1.3965845241995754,1.3446734112387504,0.17295295000076294,-0.9848634600639343,0.011451602913439274,1.6906609535217285,-0.9328750371932983,-0.2892181873321533,-0.03142769634723663,0.6635286808013916,-0.006172061897814274
400,2.282619422260033,1.307251586320833,0.7706211264469043,0.19724710285663605,-0.9654726386070251,0.1701657921075821,0.4213540852069855,0.9797908663749695,0.20199546217918396,-0.20618873834609985,0.5244629979133606,-0.2555692195892334
401,2.105907530575131,1.3944167041421431,1.0180236212817637,0.15093876421451569,-0.984485387802124,0.0894770398736,0.22133268415927887,2.0744247436523438,0.3634006977081299,0.129960298538208,-0.8260005116462708,-0.3012843132019043
402,1.9521292031399662,1.4669069390030245,1.197044852773407,0.0962546318769455,-0.9946083426475525,0.038594163954257965,-2.5025455951690674,-1.3032807111740112,0.6529819965362549,0.0689675509929657,-0.26421135663986206,0.2978774309158325
403,1.039054347316271,1.4562890239933843,2.048764842229603,0.09848078340291977,-0.9934511780738831,-0.05793224647641182,0.09878294169902802,0.30298474431037903,-0.18170751631259918,-0.023926347494125366,0.13525116443634033,0.2521156072616577
404,1.0764783351645726,1.4621496363775557,2.0381748760534046,0.09545288234949112,-0.994103729724884,-0.05144408717751503,-0.20284603536128998,0.2753419280052185,0.2100178450345993,-0.005014054477214813,0.6880429983139038,0.006094936281442642
405,1.3485664827126715,1.47331882283255,1.7529387825298592,0.09493065625429153,-0.9952528476715088,-0.021450715139508247,0.7494869232177734,-0.3933205306529999,-0.005294900853186846,0.07956885546445847,0.2092573642730713,-0.1525605320930481
406,1.7991423122499792,1.419873229462439,1.2794159247261794,0.14644835889339447,-0.9886327385902405,0.034034501761198044,-0.23014108836650848,-0.08803948760032654,-0.7888756394386292,0.14954163134098053,-0.17169135808944702,-0.5631330013275146
407,1.045546854226334,1.3818655454137834,1.924140086224686,0.16249242424964905,-0.9822056293487549,-0.09417301416397095,0.7364575266838074,-1.4039864540100098,-0.22888211905956268,-0.03201451897621155,-0.3362758755683899,0.5975146889686584
408,1.449633539276912,1.3725570223219605,1.3348851857242894,0.1954994648694992,-0.980414867401123,-0.02380385808646679,1.2433710098266602,-0.40810397267341614,-0.3073854148387909,0.0944632887840271,0.5617595314979553,0.14239513874053955
409,2.1894869742186907,1.290450522339338,0.719841663607387,0.22540107369422913,-0.960959792137146,0.16047072410583496,1.0236468315124512,2.1865711212158203,-0.19117482006549835,-0.16146671772003174,0.5874855518341064,-0.26418471336364746
410,2.3354192654931962,1.3235865505119266,0.5847575159996765,0.17658621072769165,-0.9695989489555359,0.1693972945213318,-0.19211143255233765,-0.7489514946937561,0.813569962978363,0.18613047897815704,-0.9976710677146912,0.03383459150791168
411,2.5029190016004312,1.3651978613688038,0.5218812808556906,0.12170165777206421,-0.9789389967918396,0.16391143202781677,-1.5877269506454468,-0.4490772485733032,0.42939257621765137,0.2702966332435608,-0.36944955587387085,0.16799770295619965
412,1.9133450405620709,1.4569101258360524,1.1166385236222163,0.10703849047422409,-0.9935219883918762,0.03817068785429001,-0.29162511229515076,1.090095043182373,-0.4383366107940674,-0.2778300940990448,-0.44985276460647583,0.29819416999816895
413,2.139458743241585,1.4270345723396614,1.02215923450028,0.12072031944990158,-0.9896840453147888,0.07715031504631042,0.09746784716844559,0.9735097289085388,0.1487852931022644,-0.16869395971298218,0.5931233763694763,-0.01782405376434326
414,2.048636043939531,1.4530624530174407,1.1438603659919249,0.10430598258972168,-0.9930773973464966,0.05401674285531044,0.023668956011533737,-0.23833411931991577,0.03816366568207741,-0.018582098186016083,0.6444903016090393,-0.16865599155426025
415,2.195207546029084,1.4369964999309024,0.9598994316915715,0.10822875797748566,-0.9910621643066406,0.07798851281404495,-0.1887846440076828,-0.1903517097234726,-0.6013392806053162,0.27160826325416565,-0.3928489089012146,-0.41398704051971436
416,1.3650521424592168,1.382130226515247,1.6913334795655128,0.18359333276748657,-0.9822552800178528,-0.038315434008836746,-1.8112159967422485,-1.0179657936096191,0.22466681897640228,-0.05091816186904907,-0.9873492121696472,0.5497747659683228
417,1.2999034387633122,1.3963234455055755,1.6429758092194002,0.1672583669424057,-0.984818160533905,-0.046450935304164886,0.9953638315200806,-1.7114454507827759,-0.19826501607894897,0.1751793622970581,0.035965681076049805,0.2343781590461731
418,1.9416722575849656,1.3651276651248763,0.9741115700984779,0.19033627212047577,-0.9789246320724487,0.07401629537343979,1.626887559890747,2.2845041751861572,-0.5738833546638489,-0.22215089201927185,0.5001344680786133,-0.08556724339723587
419,2.4223647744918244,1.288341097294341,0.7025791751340134,0.18361841142177582,-0.9603739976882935,0.2096812129020691,0.2670917510986328,1.3795461654663086,0.1644711196422577,-0.323449969291687,0.4796305298805237,-0.37266024947166443
420,2.4115092717777546,1.3706477024798767,0.7345174065478401,0.1325964778661728,-0.9800370335578918,0.1481412798166275,0.06395906955003738,1.8448704481124878,0.17769916355609894,0.5227532386779785,-0.7672469615936279,-0.08649574220180511
421,2.0499382775505977,1.4428649521980252,1.173060537192636,0.11321539431810379,-0.9918279647827148,0.05881774425506592,-1.649777889251709,-0.45044592022895813,0.17585539817810059,-0.1626538783311844,-0.3994378447532654,0.22211182117462158
422,1.5493277110980548,1.4459684382375464,1.6412557713429523,0.12447608262300491,-0.992219090461731,-0.0026727397926151752,-0.3677125573158264,-0.5511725544929504,0.1317286342382431,-0.2004038244485855,0.29216110706329346,0.07628113031387329
423,1.0097061347439718,1.4552670289768033,2.149065067044597,0.09759857505559921,-0.9933339357376099,-0.061337705701589584,-0.5497369170188904,-0.12074694782495499,0.015687262639403343,-0.03430511802434921,0.7450429201126099,0.09231305122375488
424,1.3842859307288125,1.4405380532563241,1.7821475357009438,0.1276373565196991,-0.9915283918380737,-0.024085624143481255,1.358291745185852,-0.05032758414745331,-0.1743771880865097,0.1732201874256134,0.00794684886932373,-0.0626300573348999
425,1.6918005881104752,1.3852275020478866,1.5383042167269523,0.18315669894218445,-0.9828314781188965,0.022271549329161644,-0.5117935538291931,-2.115135431289673,-0.8146542906761169,-0.10060666501522064,-0.03227478265762329,-0.6098569631576538
426,1.0630705414562356,1.3525786246960285,2.011679184675481,0.18918034434318542,-0.9762848615646362,-0.10525553673505783,0.6392979025840759,-1.7997770309448242,-0.03619719669222832,-0.046098679304122925,-0.43471062183380127,0.4764408469200134
427,1.331423957523618,1.3805668983648833,1.5528755669707115,0.18369366228580475,-0.9819608926773071,-0.04483072832226753,1.2250510454177856,-0.852440595626831,-0.11506053060293198,0.08916401863098145,0.5064206123352051,0.11468541622161865
428,2.063278519983663,1.3282697420089786,0.9462888861558785,0.2116159200668335,-0.9707342982292175,0.11354903131723404,0.6958267688751221,2.4406795501708984,-0.25722000002861023,-0.21256199479103088,0.7873696088790894,-0.0822075828909874
429,2.3251332918080316,1.3400382631231014,0.8137337127159884,0.1666710376739502,-0.9734932780265808,0.15662582218647003,0.07120199501514435,-1.16920006275177,0.9566622376441956,0.0817268043756485,-0.635179877281189,-0.14762316644191742
430,2.398268378634075,1.3839939344269374,0.806576616377246,0.12568263709545135,-0.982603132724762,0.1367298662662506,-1.371341586112976,-0.22142165899276733,0.14477308094501495,0.30733126401901245,-0.49434083700180054,0.2638591527938843
431,1.6162738266332808,1.4643218848750765,1.5525980437584825,0.10616398602724075,-0.9943369626998901,0.004831403959542513,-0.5884009599685669,-0.30271288752555847,-0.3830516040325165,-0.42115116119384766,-0.31103718280792236,0.20157432556152344
432,1.242073124119843,1.459033223846396,1.903909482748584,0.10555879026651382,-0.9937610030174255,-0.036005984991788864,-0.4425767660140991,0.0009153326973319054,0.21994169056415558,-0.15003815293312073,0.576387345790863,0.09740740060806274
433,1.0897688830030865,1.448510013689429,2.0624525229452066,0.10813918709754944,-0.9925323128700256,-0.056439731270074844,0.3689727187156677,-0.03557592257857323,-0.6545738577842712,0.009979099035263062,0.6670776605606079,0.048215270042419434
434,1.9695218835664856,1.4048874185739557,1.207265198932845,0.1521948128938675,-0.9862686395645142,0.06411842256784439,0.3684276044368744,1.6727606058120728,-0.7197110056877136,0.4706689715385437,-0.8224167823791504,-0.2624673843383789
435,1.413873361767324,1.3680306997107587,1.7154135234967696,0.1989050954580307,-0.97951340675354,-0.031471531838178635,-2.0926551818847656,-2.428244113922119,-0.04606879875063896,-0.009848684072494507,-1.1352022886276245,0.6747973561286926
436,1.2404374280656656,1.3870066638930938,1.6763599655250898,0.1728745400905609,-0.9831581711769104,-0.05928315967321396,0.8937727212905884,-2.5952751636505127,-0.2012762725353241,0.3035811483860016,0.0799751877784729,0.13685888051986694
437,1.6485379558136641,1.3678243846598515,1.1958313143329826,0.20097240805625916,-0.9794718027114868,0.015655474737286568,1.3930319547653198,2.2810332775115967,-0.7434110045433044,-0.27836498618125916,0.7227731943130493,0.0223388671875
438,2.0541009939046617,1.3098174275429864,1.0754468751195796,0.22847364842891693,-0.9661378860473633,0.1199071854352951,-0.10713514685630798,2.5547292232513428,-0.22361280024051666,-0.28009408712387085,0.5287293195724487,-0.10982106626033783
439,2.3885924379114702,1.3170241702792638,0.8354093716695213,0.17168028652668,-0.9679722785949707,0.18318109214305878,-0.250060498714447,2.6602444648742676,-0.1267542988061905,0.4349938929080963,-0.5235284566879272,-0.2605278491973877
440,1.9188775252281585,1.416508641615563,1.3676495602395984,0.14445960521697998,-0.9881212711334229,0.05241796746850014,-1.583181381225586,-0.16649934649467468,0.2777579426765442,-0.13811196386814117,-0.3399426341056824,0.4703023433685303
441,1.3591078563738261,1.4321871530069679,1.9231836305676908,0.1350817233324051,-0.9904091358184814,-0.029030177742242813,-0.4261699318885803,-0.5051477551460266,0.3625297546386719,-0.1800646334886551,0.25945210456848145,0.0373767614364624
442,0.867769034482636,1.4209555725781655,2.3717798216022583,0.11388513445854187,-0.9887948632240295,-0.096514992415905,-0.5144670605659485,-0.12247537076473236,-0.19891494512557983,0.012289799749851227,0.652277410030365,0.13275454938411713
443,1.3721151346432083,1.4327926256348023,1.82827087771991,0.13486047089099884,-0.990492582321167,-0.02715245820581913,1.4355202913284302,0.6616562008857727,-0.21135424077510834,0.28603798151016235,0.22941458225250244,-0.05834252014756203
444,1.432902514312467,1.389050915727775,1.8817911859474086,0.17903120815753937,-0.9835296869277954,-0.02484496869146824,-0.5196192860603333,-0.9564809203147888,-0.6715047359466553,-0.16247540712356567,-0.13132327795028687,-0.23498165607452393
445,1.0161312836190601,1.3593435934494396,2.116122638263994,0.1784144788980484,-0.9777270555496216,-0.11053531616926193,0.4147008955478668,-1.9700407981872559,-0.056778986006975174,0.1545322984457016,-0.4067486524581909,0.57298344373703
446,1.3237511892647034,1.3849615132894708,1.6422231417113775,0.17915791273117065,-0.9827823638916016,-0.04518304765224457,1.4106014966964722,-1.3265626430511475,-0.22642123699188232,0.05111248791217804,0.502313494682312,-0.03286564722657204
447,2.0912971139992447,1.3055901077988135,0.9374239293205008,0.22739748656749725,-0.9650384783744812,0.13035038113594055,0.7764834761619568,1.8842759132385254,-0.3272685110569,-0.21886783838272095,0.7777063250541687,-0.07851636409759521
448,2.239167689515538,1.3264985253967148,0.9033639994139273,0.18983164429664612,-0.9703074097633362,0.14989233016967773,-0.02713838778436184,-0.1366117298603058,0.7878308892250061,0.15635979175567627,-0.8296805024147034,-0.17651890218257904
449,2.2381613731294747,1.3601160387582807,0.9923643553486832,0.16425824165344238,-0.9778888821601868,0.12943127751350403,-1.645677089691162,-0.06679024547338486,-0.11184386163949966,0.3580653667449951,-0.5503398180007935,0.7434781789779663
450,1.726154836167952,1.394382595549131,1.5344809779840565,0.17338688671588898,-0.9844794273376465,0.027155961841344833,0.010218419134616852,0.19515688717365265,-0.34603151679039,-0.4637463688850403,-0.42938482761383057,0.02155018225312233
451,1.6286244728522652,1.404808712676629,1.6044619938590443,0.16495032608509064,-0.9862556457519531,0.009549418464303017,-0.5675145387649536,-0.054837800562381744,-0.03577256575226784,-0.17965978384017944,0.6477241516113281,0.10728704929351807
452,1.5740639590898204,1.3810980995080133,1.6837633731835409,0.18856246769428253,-0.9820612072944641,0.0006161549827083945,0.6715154647827148,0.016411082819104195,-0.3702734112739563,0.12024495005607605,0.6507470011711121,-0.05624973773956299
453,1.996471330581411,1.3335686149444854,1.3104914922168318,0.21403639018535614,-0.9719932079315186,0.09704338759183884,0.08911533653736115,0.4641976058483124,-0.6568664312362671,0.21673445403575897,-0.6509772539138794,-0.7630132436752319
454,1.4845363729907444,1.2990062707617156,1.6993851182004758,0.26745811104774475,-0.9632918834686279,-0.023128317669034004,-1.5379635095596313,-2.0304534435272217,-0.11790120601654053,0.16407570242881775,-0.8122055530548096,0.22294217348098755
455,1.2707553839300072,1.3003136601565448,1.6970206488566235,0.255259245634079,-0.9636420607566833,-0.07897238433361053,0.9228220582008362,-1.1711255311965942,-0.09236672520637512,0.29498791694641113,0.027362823486328125,0.32640892267227173
456,1.7861381668282335,1.2861522375374201,1.2066640753214035,0.2743300497531891,-0.9597616791725159,0.06000514328479767,1.7711849212646484,2.4376041889190674,-0.45565328001976013,-0.26482388377189636,0.6311331391334534,0.0064620934426784515
457,2.285116953592339,1.222612366471195,0.908752418533742,0.2577832341194153,-0.9399938583374023,0.22351594269275665,0.5155365467071533,0.33379679918289185,0.44892802834510803,-0.5750897526741028,0.35028743743896484,-0.6088460683822632
458,2.22167402245682,1.304931149467911,0.9823700873576372,0.20902682840824127,-0.9648655652999878,0.15919280052185059,-0.6386758685112,2.1767125129699707,0.10666097700595856,0.6147494316101074,-0.5193263292312622,-0.18815398216247559
459,1.8424252027055352,1.3892949328083812,1.4637290430024203,0.17388834059238434,-0.9835737943649292,0.04843008890748024,-1.351912021636963,0.3734462857246399,0.042149968445301056,-0.28408730030059814,-0.2710953950881958,0.33787667751312256
460,1.709935968124264,1.3798740367359887,1.5723167104330527,0.18793050944805145,-0.9818296432495117,0.026318645104765892,0.032763395458459854,-0.41461843252182007,-0.07511372119188309,-0.023745939135551453,0.4225492477416992,-0.003674626350402832
461,1.6296645258297624,1.357521260333566,1.6075902847591046,0.21129503846168518,-0.977342963218689,0.012452946975827217,0.08427496254444122,-0.12808552384376526,-0.11619312316179276,-0.09453479945659637,0.7591423392295837,-0.05223262310028076
462,1.7667674082414893,1.346911130015026,1.4636220176598087,0.21777023375034332,-0.9750422239303589,0.04323152080178261,0.5442904829978943,-0.1399228721857071,-0.23759783804416656,0.09596572816371918,0.04945933818817139,-0.09631681442260742
463,1.6987550780299632,1.3198701416587437,1.5199039815687054,0.24627108871936798,-0.9686828851699829,0.031685665249824524,-0.9185084700584412,-0.9757570624351501,-0.4024503827095032,-0.07859228551387787,-0.5807708501815796,0.4272986650466919
464,1.1797836487970252,1.3155354491680773,1.8758828077983185,0.23343996703624725,-0.967597484588623,-0.09623309969902039,1.1413335800170898,-1.0220760107040405,0.23686401546001434,0.12469905614852905,-0.21949046850204468,0.4976155757904053
465,1.7101075422477499,1.3655198489721079,1.2479843965919226,0.2018626183271408,-0.9790046811103821,0.02830507606267929,1.3683453798294067,-0.4061143696308136,0.23403048515319824,-0.021000206470489502,0.6548928022384644,-0.0835723876953125
466,2.3575541305681935,1.2826281033209803,0.7510658756871743,0.20068398118019104,-0.9587660431861877,0.20123043656349182,0.4215259253978729,2.3268191814422607,-0.18120554089546204,-0.18084755539894104,0.7094526886940002,-0.22741460800170898
467,2.4660812956080536,1.3552045588955544,0.7543520121728373,0.1337667554616928,-0.9768499732017517,0.16694460809230804,-0.6140894293785095,1.59272301197052,0.3141888976097107,0.4675058126449585,-1.124300479888916,-0.21668829023838043
468,2.2792333743716697,1.4310079461018528,1.0154235944037147,0.10580718517303467,-0.990245521068573,0.09065715223550797,-2.0862112045288086,-0.15653572976589203,0.0010215230286121368,0.001385800540447235,-0.5820963978767395,0.43085777759552
469,2.071636075683507,1.4299431103586098,1.2931906597630616,0.12314537167549133,-0.9900965690612793,0.0674089640378952,0.4027363061904907,0.0004918277263641357,-0.026316169649362564,-0.14914634823799133,0.19139057397842407,-0.06389940530061722
470,1.768482256224946,1.460401600505742,1.5723941481096786,0.10802654176950455,-0.9939126968383789,0.02163793332874775,-0.9600339531898499,-0.6312731504440308,-0.06205109506845474,-0.005838409066200256,0.7213447093963623,-0.07722567766904831
471,1.5572632983330372,1.44748569076459,1.6903435299126683,0.1229870542883873,-0.9924068450927734,-0.0016644889255985618,0.7081645131111145,-0.9145547747612,-0.7897207736968994,0.1744677722454071,0.2274532914161682,0.22920352220535278
472,1.443130871787308,1.378545673345414,1.8419264951703886,0.18951427936553955,-0.981576681137085,-0.024326734244823456,-0.44580408930778503,-3.012026786804199,-0.5926880836486816,-0.04486092925071716,-0.3622344732284546,0.29819148778915405
473,1.1765751928321317,1.381928869336131,1.8634565615148977,0.17334553599357605,-0.9822174906730652,-0.07211137562990189,1.3543897867202759,-3.0165646076202393,0.09264830499887466,0.23291972279548645,-0.20949387550354004,0.10520768165588379
474,1.7940127961677634,1.3690336363937678,1.0700730698940153,0.19542495906352997,-0.9797148704528809,0.04436130449175835,2.0139265060424805,2.516415596008301,-0.9426599740982056,-0.29739946126937866,0.6531615257263184,0.009532686322927475
475,2.3301594333182294,1.2970784623371048,0.7717605534212246,0.19605085253715515,-0.9627725481987,0.18609930574893951,0.24368755519390106,2.497103691101074,0.013486197218298912,-0.38252854347229004,0.9274027943611145,0.026989683508872986
476,2.367302356273841,1.3648061865017078,0.9022337501975463,0.14301380515098572,-0.9788589477539062,0.14622677862644196,-1.043811559677124,1.5158286094665527,0.10753288865089417,0.5941687822341919,-0.7062606811523438,-0.6261156797409058
477,1.6561296155854566,1.4365943820069371,1.646316184904741,0.1333131343126297,-0.9910084009170532,0.01140374131500721,-1.7831319570541382,2.0302350521087646,0.46179771423339844,-0.2797364592552185,-0.5030253529548645,0.3029578924179077
478,1.9009369781191585,1.4576764326577272,1.504166248344206,0.10678298026323318,-0.9936087727546692,0.03659260645508766,0.13550978899002075,-0.34625425934791565,0.26104849576950073,-0.05813795328140259,0.4670127034187317,-0.008791089057922363
479,1.3810638234254329,1.4803248106407718,1.8982528853649259,0.08872804790735245,-0.9959102272987366,-0.017039552330970764,-0.2561231255531311,-1.6922173500061035,-0.025390977039933205,0.11725036054849625,0.8635554313659668,-0.04449915885925293
480,1.947016072749653,1.44659493911518,1.251938666530344,0.11521792411804199,-0.9922969341278076,0.04551522433757782,0.04471179470419884,1.0600125789642334,-0.36570993065834045,0.4962475299835205,-0.4317448139190674,-0.07060062885284424
481,1.5147405911420113,1.4105582435022694,1.722738674250412,0.15930205583572388,-0.9871893525123596,-0.008939159102737904,-1.2665148973464966,-1.3574154376983643,-0.5199782848358154,-0.01065094769001007,-0.5181053876876831,0.48563897609710693
482,0.9254745171996936,1.3678506156719341,2.2222739505052282,0.1610237956047058,-0.9794771075248718,-0.12122655659914017,0.5352934002876282,-0.9527397751808167,0.039592158049345016,-0.126111701130867,-0.2382199764251709,0.38613438606262207
483,1.3094251469481402,1.4149721040297631,1.6902427189584548,0.14992333948612213,-0.9878839254379272,-0.040103036910295486,1.533284068107605,-1.2504639625549316,-0.1611715406179428,-0.07337000966072083,0.832549512386322,-0.04868787154555321
484,2.113696305692402,1.3418453382316384,0.985534457398143,0.1943230926990509,-0.9739050269126892,0.11725037544965744,0.5374064445495605,3.0245063304901123,-0.3369438946247101,-0.1854119598865509,0.6892523169517517,-0.03465449810028076
485,2.3241680584310775,1.3496561836593925,0.8825909185876017,0.15998566150665283,-0.9756479859352112,0.15005284547805786,-0.17514963448047638,2.566807985305786,0.014183216728270054,0.5350369215011597,-0.6495199799537659,-0.09304605424404144
486,1.86488851739619,1.4178542103238254,1.4493933548982028,0.14580681920051575,-0.988327145576477,0.04416121914982796,-1.8913209438323975,0.3172767162322998,0.261122465133667,-0.21563102304935455,-0.6589813232421875,0.614972710609436
487,1.502506058438564,1.432316995094411,1.8310378841875246,0.13771608471870422,-0.9904270768165588,-0.009419315494596958,-0.563227653503418,-0.8080070614814758,0.22280213236808777,-0.16254211962223053,0.1415194869041443,0.02904212474822998
488,1.0402847629478853,1.4416789291733425,2.204074723952754,0.11106057465076447,-0.9916759133338928,-0.06514862179756165,-0.4001404941082001,-0.8433743715286255,0.13286468386650085,-0.030005894601345062,0.8315197229385376,0.036706216633319855
489,1.1693661058279496,1.4285833196904467,2.0702527262281154,0.13046759366989136,-0.9899047613143921,-0.05538089945912361,1.717809796333313,-1.1061967611312866,-0.6453359723091125,0.25133782625198364,0.22575974464416504,-0.10955137759447098
490,1.6872515558879495,1.3846984960736457,1.6481190735493114,0.18377253413200378,-0.9827337265014648,0.0214985478669405,-0.7825739979743958,-0.8157240748405457,-0.3340983986854553,-0.10541866719722748,-0.08370304107666016,-0.779112696647644
491,0.9849797010934136,1.3891392294044524,2.1644938237095253,0.15053647756576538,-0.9835456609725952,-0.09988301992416382,0.8403774499893188,-1.1539766788482666,0.002135147340595722,-0.11174865067005157,-0.35129314661026,0.7206410765647888
492,1.3554391448501735,1.4204836738633604,1.6077329081930534,0.14628873765468597,-0.9887242913246155,-0.032000582665205,0.9734596014022827,-0.7159392833709717,-0.3786226212978363,0.005871906876564026,0.7282567620277405,0.05830669403076172
493,2.0528688442550993,1.3242463609249278,1.089167301414893,0.21624568104743958,-0.9697601795196533,0.11315010488033295,0.37274643778800964,2.851574659347534,-0.667066216468811,-0.17480280995368958,0.7712128758430481,-0.03816843032836914
494,2.3068917033993555,1.3162414684367698,0.960751602346585,0.1866186559200287,-0.9677754640579224,0.1690680831670761,0.7299045920372009,0.3708488345146179,0.6436380743980408,0.20084775984287262,-0.9223306775093079,-0.237900510430336
495,2.412502843607334,1.3561139158697382,0.996168744709179,0.14192326366901398,-0.9770441055297852,0.1588788628578186,-1.4461674690246582,-0.6338226199150085,0.23052646219730377,0.10792410373687744,-0.4588841199874878,0.4456591308116913
496,1.8070706952296498,1.4214504310034883,1.6037727505707216,0.14465679228305817,-0.9888685941696167,0.034829240292310715,-0.47066530585289,0.11993386596441269,-0.34637725353240967,-0.43646588921546936,-0.31453704833984375,0.06279647350311279
497,1.3963081292125483,1.4420205465227687,2.018222728829552,0.12647022306919098,-0.9917198419570923,-0.02229427918791771,-0.924224853515625,-0.03295593708753586,0.3883831799030304,-0.11939014494419098,0.6869407892227173,0.03549313545227051
498,1.0665714394386103,1.446624371137939,2.3272324212609834,0.10843958705663681,-0.9923005700111389,-0.05983707308769226,1.0280940532684326,-0.7462276816368103,-0.1857205182313919,0.04120334982872009,0.6341004967689514,-0.004127800464630127
499,1.920927478768919,1.4115465029011736,1.5318377395425227,0.14895658195018768,-0.9873465299606323,0.054395537823438644,0.13736982643604279,3.8371875286102295,-0.6337714195251465,0.6506497263908386,-0.38890475034713745,-0.5521067380905151
