,attitude.roll,attitude.pitch,attitude.yaw,gravity.x,gravity.y,gravity.z,rotationRate.x,rotationRate.y,rotationRate.z,userAcceleration.x,userAcceleration.y,userAcceleration.z
0,1.6501617805187343,1.4584528563547683,1.911167960351038,0.1117556020617485,-0.9936960935592651,0.008888203650712967,-0.33112087845802307,-0.5751316547393799,0.2356230914592743,-0.07022115588188171,0.7776010036468506,-0.03755950927734375
1,-0.10362354155677535,0.41416936806154653,0.07631624628631865,-0.09469258785247803,-0.4024296700954437,-0.9105403423309326,-0.3764123022556305,-0.2963537573814392,0.09308913350105286,-0.19844400882720947,0.07181748747825623,0.016192197799682617
2,-0.10557933839449912,0.3803318244236703,0.10519163284816549,-0.09785276651382446,-0.3712286055088043,-0.9233710765838623,0.09316392987966537,-0.0007089688442647457,0.05332067236304283,-0.03337281942367554,0.005277067422866821,0.3549201488494873
3,-0.11123644348139781,0.39233840275897236,0.10477631778353341,-0.10257258266210556,-0.3823501765727997,-0.9183067083358765,-0.0061806319281458855,-0.04065090790390968,-0.009113886393606663,0.05485835671424866,-0.07394865155220032,0.22918927669525146
4,-0.0905140651677202,0.3929349677703822,0.1123716643345986,-0.08350179344415665,-0.3829013407230377,-0.920007586479187,0.019113682210445404,0.5732934474945068,-0.047662172466516495,-0.04197123646736145,-0.1696498990058899,-0.2279568910598755
5,-0.05125255466268403,0.42661084448360614,0.12632646180673254,-0.04663853719830513,-0.4137877821922302,-0.9091778993606567,-0.1891402006149292,-0.44315749406814575,-0.08459671586751938,-0.13117213547229767,-0.03814700245857239,-0.549333393573761
6,-0.031314982870741075,0.4412858764151587,0.1257859608990821,-0.02831047959625721,-0.4271025061607361,-0.9037598967552185,0.4084509313106537,-1.226056694984436,0.38676267862319946,0.12663811445236206,0.010110318660736084,-0.0676451325416565
7,-0.11324510952669876,0.42848455144392655,0.15587535716963202,-0.1027873232960701,-0.41549283266067505,-0.9037701487541199,-0.49968498945236206,0.5430243611335754,0.22336336970329285,0.0477641299366951,0.08868008852005005,0.2853314280509949
8,-0.12624438204676414,0.4828213309303637,0.19388092089184078,-0.11151643097400665,-0.46427983045578003,-0.8786399960517883,1.78754723072052,-0.35684072971343994,0.11179415136575699,-0.03418973833322525,0.18763798475265503,0.2354668378829956
9,-0.1865400684774153,0.602037900017568,0.19617668860238277,-0.1528531014919281,-0.5663232803344727,-0.8098851442337036,0.06201246380805969,0.4485529661178589,0.2265852689743042,0.1147214025259018,0.028161048889160156,0.1334019899368286
10,-0.1435294399754541,0.5130633320392843,0.18277760503114507,-0.12462039291858673,-0.49084845185279846,-0.8622862100601196,-1.1990196704864502,0.06272470951080322,-0.34723278880119324,-0.16210749745368958,-0.11343005299568176,-0.5242646336555481
11,-0.0779040618032142,0.41289236248916306,0.16725026953156458,-0.07128516584634781,-0.4012603163719177,-0.9131859540939331,-0.21889357268810272,-0.399511456489563,0.3133234977722168,-0.1569863259792328,0.054656922817230225,-0.1104651689529419
12,-0.13126340337752934,0.3986879995661015,0.20005341156959636,-0.12062148004770279,-0.38820958137512207,-0.9136431217193604,0.10036679357290268,0.8310707807540894,0.3732096552848816,-0.020247653126716614,0.08332371711730957,0.3709338307380676
13,0.001838169277015743,0.3980111777427486,0.247641349464745,0.0016944853123277426,-0.38758575916290283,-0.9218320846557617,-0.4549683630466461,2.8075666427612305,0.7167850732803345,0.2169792205095291,-0.12321749329566956,0.4135618209838867
14,0.09624102295045353,0.397884011819762,0.36813587113912055,0.08858605474233627,-0.38746851682662964,-0.9176168441772461,0.6269107460975647,0.05877066031098366,1.7030802965164185,0.19039037823677063,-0.26341038942337036,-0.3224496841430664
15,0.05805818319747666,0.45698998117572187,0.5515124704636523,0.052071262151002884,-0.44124895334243774,-0.8958727121353149,0.15783342719078064,1.40127694606781,1.5219677686691284,0.09909755736589432,-0.03642740845680237,-0.5675824880599976
16,0.10985798414383469,0.40978660145278983,0.7202070042378791,0.10055983066558838,-0.39841359853744507,-0.9116766452789307,-0.3724324703216553,-0.14992736279964447,1.2993272542953491,0.15397202968597412,0.16008657217025757,0.24520325660705566
17,0.044185514290710215,0.35329510983576895,0.8122114226807055,0.041443027555942535,-0.3459912836551666,-0.9373220205307007,-0.7114127278327942,0.03768378123641014,0.6123512983322144,0.032653652131557465,0.09464851021766663,0.3549703359603882
18,-0.001119763649232638,0.2796878946886832,0.8791184453511868,-0.0010762512683868408,-0.2760556936264038,-0.961141049861908,-0.3479510247707367,-0.6222034096717834,0.555017352104187,-0.18122050166130066,0.07465493679046631,0.49835723638534546
19,0.06551879632736304,0.2927147047638335,0.903717238943984,0.06268702447414398,-0.28855252265930176,-0.9554097652435303,0.8056802749633789,0.9690936803817749,0.7486624121665955,0.013545885682106018,-0.19544100761413574,-0.4711954593658447
20,0.2609612808584559,0.29533001319606994,0.89774567393808,0.24683918058872223,-0.2910555899143219,-0.9243143796920776,0.1699080914258957,2.299509286880493,-1.752834439277649,0.27217328548431396,0.1080569326877594,-0.49768269062042236
21,0.6415974539357049,0.3352888830789992,0.5292310889613427,0.5651500225067139,-0.329041987657547,-0.7565294504165649,4.061462879180908,2.8740968704223633,-4.113181114196777,0.27789807319641113,0.3374495804309845,0.11595022678375244
22,1.0898333707752537,0.3216606835554593,-0.15178790557374175,0.8410802483558655,-0.3161424994468689,-0.4389054477214813,4.1457648277282715,1.9389938116073608,-5.045172214508057,0.06564277410507202,0.5458788275718689,0.35084694623947144
23,1.2246552984437693,-0.058776517663163615,-0.6371347511523132,0.9390645027160645,0.05874267965555191,-0.3386843800544739,1.8907744884490967,0.024540960788726807,-5.299144268035889,0.33608192205429077,-0.060360122472047806,-0.19905057549476624
24,1.1671772665089568,-0.3913255054849505,-0.780799106468497,0.8501244783401489,0.3814140558242798,-0.36305904388427734,-1.428717851638794,-0.966812252998352,-1.7868250608444214,0.8591957092285156,-0.6709190011024475,-0.5040521621704102
25,1.0525062998713888,-0.4576155443686713,-0.7809513021151643,0.7792890667915344,0.4418102502822876,-0.44442346692085266,1.9316132068634033,-0.5134442448616028,0.32490143179893494,0.5513994097709656,-0.3225780725479126,0.06490689516067505
26,1.0207170058476023,-0.26059166260108213,-0.8989011427847371,0.8237012028694153,0.25765228271484375,-0.5051054358482361,1.5280230045318604,-0.6356344819068909,1.9184527397155762,0.043837130069732666,-0.10965731739997864,0.013268887996673584
27,0.9949625360503851,-0.04071245708136223,-0.8872202010037631,0.8380435705184937,0.040701210498809814,-0.5440831184387207,1.0576142072677612,1.4536528587341309,2.18751859664917,-0.5708774328231812,-0.14613944292068481,0.7705693244934082
28,1.0896461810892784,0.17500847389784346,-0.6601412593875801,0.8729224801063538,-0.17411647737026215,-0.45572978258132935,-2.751012086868286,1.356503963470459,3.508216142654419,-0.04269188642501831,-0.10783539712429047,0.22950303554534912
29,1.116020601300864,0.308975914825362,-0.27871184061307286,0.8558180928230286,-0.3040831983089447,-0.41845980286598206,-2.6483101844787598,0.6955049633979797,2.307856798171997,0.3671279549598694,0.10547485947608948,-0.22842127084732056
30,1.1487026325517775,0.3102134935076625,-0.1993458875262624,0.8686907887458801,-0.3052619397640228,-0.39011698961257935,1.1622556447982788,-0.099410280585289,-0.206880122423172,0.22649341821670532,-0.09905016422271729,-0.5977369546890259
31,1.2416933974207944,0.33017010862332374,-0.35379011975223407,0.8952186703681946,-0.3242039680480957,-0.3057376444339752,1.5875152349472046,0.7970118522644043,0.07248062640428543,-0.2547615170478821,0.2104039192199707,0.17478668689727783
32,1.3436720711468502,0.44172286503234365,-0.4212751064664305,0.8807995915412903,-0.42749759554862976,-0.2035633623600006,0.5136032104492188,0.1808299571275711,1.0969585180282593,-0.7114574909210205,0.447211891412735,0.09333381056785583
33,1.4559136188538804,0.6382458455620532,-0.49846586258612396,0.7978480458259583,-0.595787525177002,-0.09206432104110718,2.5887207984924316,2.157785415649414,2.959557056427002,0.22993826866149902,-0.12441205978393555,-0.1827617883682251
34,1.4985308987126336,0.7388726747175204,-0.5417433148124169,0.7372989654541016,-0.673454999923706,-0.053374167531728745,0.4075583219528198,1.257887601852417,0.6335288882255554,0.45934104919433594,-0.41336750984191895,0.06280410289764404
35,1.5763445653836783,0.8059460382392737,-0.5482341044236817,0.6924184560775757,-0.7214860320091248,0.0038417421746999025,-0.3747539222240448,-0.12260126322507858,0.4547420144081116,0.21068823337554932,0.39984601736068726,-0.06905782222747803
36,1.6130328475776754,0.8277878626526585,-0.5747781526898853,0.6759032011032104,-0.736436665058136,0.02856478840112686,0.5012354850769043,0.4283007085323334,0.037742890417575836,-0.35632312297821045,0.544877827167511,-0.05358922481536865
37,1.6493204494487348,0.8279466705147398,-0.5963646250801068,0.674305260181427,-0.7365440726280212,0.05305832624435425,0.26484066247940063,0.2001439332962036,0.14456485211849213,-0.4367412328720093,0.34794849157333374,-0.05939078330993652
38,1.5629214183911995,0.9232498425043074,-0.5475276269196729,0.6032127737998962,-0.7975662350654602,-0.004750343505293131,-1.342655897140503,-1.6902506351470947,2.261528253555298,0.41732555627822876,-0.9082595705986023,0.2431994080543518
39,1.2704789207598834,1.1071125013948695,-0.2925453133645031,0.4272284507751465,-0.8944109678268433,-0.13230584561824799,-0.04906280338764191,-0.030646897852420807,1.4345455169677734,0.19616937637329102,-0.44418150186538696,-0.4329407215118408
40,1.2110574682943318,1.2690044417835822,-0.21465272638230382,0.2782050371170044,-0.9548054337501526,-0.10463423281908035,1.1642190217971802,0.613131046295166,0.6763409376144409,0.14911732077598572,0.5196859240531921,-0.15171334147453308
41,1.3898577692342466,1.3029692353159217,-0.4828051027064372,0.2603163719177246,-0.9643481969833374,-0.04762210324406624,-1.1109668016433716,-1.685861587524414,0.47944018244743347,-0.1389327049255371,0.6907276511192322,0.039260271936655045
42,0.8817044408005061,1.3367938240838708,0.0002312236603791259,0.17896464467048645,-0.9727461338043213,-0.14743295311927795,0.13007695972919464,0.18685945868492126,-1.3474656343460083,0.11023519933223724,0.34339749813079834,0.11972297728061676
43,0.9304083191184973,1.2468201804181707,-0.0995122261864014,0.25526419281959534,-0.9479771256446838,-0.19020937383174896,-0.30038654804229736,-0.5168901085853577,-0.22670665383338928,-0.19799795746803284,-0.07059276103973389,0.34296512603759766
44,1.087047755958355,1.305069337412535,-0.2312848429503632,0.2324785739183426,-0.964901864528656,-0.12214069813489914,1.0497347116470337,1.339156985282898,0.08727080374956131,-0.1706804633140564,-0.48077690601348877,-0.20775431394577026
45,1.3601186066929876,1.3718985026187915,-0.37230376317695724,0.1932201087474823,-0.9802849292755127,-0.0413203239440918,-0.24659401178359985,0.9352437853813171,0.5346869230270386,0.5288105607032776,0.25367671251296997,-0.1812291145324707
46,1.247750828368512,1.3622717929294854,-0.16421480950248313,0.1963084191083908,-0.9783374071121216,-0.06571871042251587,-0.41726070642471313,1.8119789361953735,0.09051267057657242,-0.18364357948303223,0.5913897752761841,0.11851412057876587
47,1.335192941990371,1.3448030225237584,-0.18404856252079707,0.2178843766450882,-0.9745720028877258,-0.052305709570646286,-0.21459713578224182,-0.7501000165939331,-0.46609172224998474,-0.11513164639472961,0.515557050704956,-0.1251235008239746
48,0.9472051079457277,1.298943830429736,0.18787696480681856,0.21797795593738556,-0.963275134563446,-0.156801238656044,-0.8280203342437744,-0.675203800201416,0.4860164225101471,-0.17929694056510925,-0.7740753293037415,0.3493518829345703
49,1.3927529034534791,1.409410973565041,-0.2818168579164372,0.15814611315727234,-0.9870056509971619,-0.028458217158913612,2.105668783187866,0.11021295189857483,0.38060590624809265,0.09441736340522766,-0.6713653802871704,-0.42320191860198975
50,1.3565263396270384,1.4050725482948037,-0.3227947563072767,0.16119346022605896,-0.9862992167472839,-0.03507739305496216,-0.8677589893341064,-1.0808236598968506,0.0161152221262455,-0.01827968657016754,0.3012406826019287,-0.16571295261383057
51,0.8990247809870225,1.3705422857325342,0.04857156604272357,0.15569773316383362,-0.9800160527229309,-0.12380176782608032,-0.7183510065078735,-1.0684988498687744,-0.15839676558971405,-0.029492273926734924,0.6523029804229736,0.10527758300304413
52,0.7523958105991068,1.2933419663350436,0.160072650288387,0.18718595802783966,-0.9617558121681213,-0.19996757805347443,-0.347819447517395,-0.21808139979839325,-1.1037505865097046,0.042214661836624146,0.06101429462432861,0.31640738248825073
53,1.0393189655253723,1.3208687958026044,-0.10701951977013158,0.21321678161621094,-0.9689303636550903,-0.12535084784030914,-0.25754472613334656,-0.02555147558450699,0.13112382590770721,-0.03957170248031616,-0.8220396041870117,-0.009063854813575745
54,1.144885292741873,1.367642894992243,-0.09734809919707232,0.1837342530488968,-0.9794352054595947,-0.08335679024457932,0.5343963503837585,1.5913368463516235,1.0707341432571411,0.6000639200210571,-0.1827656626701355,-0.6185933351516724
55,1.525578609826081,1.3987456132440392,-0.41643160584619154,0.17102792859077454,-0.9852357506752014,-0.0077387671917676926,0.8307039141654968,-0.15716321766376495,-1.0490163564682007,0.03742234408855438,0.6875520944595337,-0.006421386264264584
56,1.820297184358973,1.3462431523232667,-0.7944532244732728,0.2157762497663498,-0.9748936891555786,0.054982010275125504,0.4961470067501068,-1.648700475692749,0.16326886415481567,-0.1629197895526886,0.8492528200149536,-0.15947413444519043
57,1.4859845804116913,1.3656775648752808,-0.6101614154592098,0.20295196771621704,-0.979036808013916,-0.017254101112484932,-1.2468241453170776,-0.18434390425682068,0.02445881813764572,-0.28576135635375977,-1.0415016412734985,0.739269495010376
58,1.3522714887913658,1.4418607618915071,-0.42572215883124737,0.1255209743976593,-0.9916993379592896,-0.027874570339918137,1.6218477487564087,1.3616852760314941,0.2694624066352844,0.2082955241203308,-0.39256274700164795,0.24322187900543213
59,2.2112436780292914,1.4263864069583767,-1.2048168103047892,0.11539020389318466,-0.9895910024642944,0.08599332720041275,-0.7051064372062683,-0.4361991286277771,-0.0395626425743103,0.16912516951560974,-0.08322393894195557,-0.8322091102600098
60,1.4951927591999015,1.4529064199893953,-0.49917598411939634,0.11728089302778244,-0.9930590391159058,-0.008883786387741566,-1.3638787269592285,-0.7066829800605774,0.13435299694538116,0.06384094804525375,0.48860353231430054,-0.1260954737663269
61,0.5983330741415356,1.3586118825782598,0.24823636095904866,0.11862141638994217,-0.9775732159614563,-0.17401015758514404,-1.0418450832366943,0.5161677002906799,-0.5535593032836914,-0.13493306934833527,0.9245032072067261,0.658598780632019
62,1.0158588907310708,1.3319823286843064,-0.15584702729681665,0.20105186104774475,-0.971619188785553,-0.12463593482971191,1.442732334136963,0.1757354438304901,-0.3785689175128937,0.0018595010042190552,-1.3699944019317627,0.18423676490783691
63,1.1516089061077623,1.3420675741003871,-0.2136817782952627,0.20710845291614532,-0.9739554524421692,-0.09228716790676117,1.6727652549743652,1.8762553930282593,0.3465060591697693,-0.041016533970832825,-0.5001809000968933,-0.04520975798368454
64,1.6705545608230088,1.3411708783762701,-0.5465499845942344,0.22648067772388458,-0.9737517237663269,0.022668559104204178,0.3003188371658325,1.0080410242080688,-0.619995653629303,0.23317506909370422,0.32291871309280396,-0.24093031883239746
65,1.7634982623418989,1.3130307561009116,-0.6401481887578616,0.2502020299434662,-0.9669619798660278,0.04882021248340607,0.17012661695480347,-0.49045413732528687,0.003944632597267628,-0.08998477458953857,0.6399356722831726,-0.11122870445251465
66,1.9024135832846985,1.3385041667168946,-0.8600241936298582,0.21766668558120728,-0.9731412529945374,0.07494979351758957,0.43330052495002747,-1.9319604635238647,0.7875247597694397,-0.19998174905776978,0.8123593330383301,-0.1879563331604004
67,1.7019682051604277,1.3677097466418178,-0.7304407825629152,0.19996017217636108,-0.979448676109314,0.02638062834739685,-0.7981411814689636,0.4428071677684784,1.2307978868484497,0.12030652165412903,-1.6641974449157715,0.5306414365768433
68,2.166310629453584,1.4180668014338795,-1.1853077472688556,0.12594765424728394,-0.9883595108985901,0.08533857017755508,2.479602575302124,1.8107738494873047,-0.1228233054280281,0.07386618852615356,-0.6771220564842224,-0.045558929443359375
69,2.0713264596666643,1.4328366240103405,-1.076660491186663,0.12065335363149643,-0.9904986619949341,0.06599630415439606,-1.8453559875488281,-0.6666246056556702,0.06701041758060455,0.04556064307689667,0.32828229665756226,-0.33023273944854736
70,1.0339818163833505,1.3849387012504846,-0.09699439156390455,0.15879720449447632,-0.9827781319618225,-0.09450145065784454,-1.3922297954559326,-1.2225539684295654,-0.8814130425453186,-0.026015236973762512,0.7896324396133423,0.05711741000413895
71,0.9132840446224914,1.2602903477873018,-0.08679439215030894,0.24183979630470276,-0.9521790742874146,-0.18673090636730194,0.2607826888561249,-0.5502479672431946,-0.9366437792778015,-0.04503194987773895,0.24412554502487183,0.34197378158569336
72,1.3632621342203832,1.3117771809805099,-0.5088269260118162,0.25063636898994446,-0.9666416645050049,-0.052775487303733826,-1.1018445491790771,0.46750926971435547,0.13509634137153625,-0.29168251156806946,-0.6623255610466003,0.439677357673645
73,1.4029679775553772,1.3299959654270124,-0.4354941781857732,0.23512932658195496,-0.9711474180221558,-0.039836082607507706,0.7250997424125671,2.4103140830993652,-0.07394398003816605,0.34354496002197266,-0.27480900287628174,-0.6682480573654175
74,1.6550067723779334,1.3867576587535297,-0.5437315723924819,0.18235240876674652,-0.983112633228302,0.015392379835247993,-0.13531582057476044,0.20283254981040955,-0.400674968957901,0.2020927369594574,0.642399251461029,-0.09405136108398438
75,1.7712133858547896,1.36669890855592,-0.6778792704999883,0.19862639904022217,-0.9792443513870239,0.0403498150408268,0.7493451833724976,-0.603267252445221,0.49241209030151367,-0.17349514365196228,0.7139855623245239,-0.11610972881317139
76,1.7336655544296462,1.3281443026262683,-0.7859762939052508,0.23709796369075775,-0.9707041382789612,0.03896107152104378,-0.6017786860466003,-1.1332725286483765,0.0856044739484787,-0.13205648958683014,-0.843596339225769,0.3974097967147827
77,1.3865972647904508,1.4055377748695066,-0.46236893375851584,0.1617242991924286,-0.9863758683204651,-0.030131012201309204,1.4823055267333984,0.27048271894454956,0.385317862033844,0.1988866627216339,-0.3730906844139099,0.3769022822380066
78,2.280271332786011,1.3855065798106727,-1.3568022150304264,0.13977690041065216,-0.9828829169273376,0.1200147196650505,-0.7315500378608704,-0.5673590302467346,-0.014149783179163933,0.20864228904247284,-0.2784848213195801,-0.6790966987609863
79,1.833265611434074,1.4187049335508921,-1.0251634993965126,0.1463165134191513,-0.9884563684463501,0.03931046649813652,-0.914569616317749,-1.968408465385437,0.24068793654441833,0.0855560451745987,0.5354230403900146,-0.22522354125976562
80,0.6803498550653339,1.3561004269916603,0.08794122486104529,0.134022518992424,-0.9770412445068359,-0.1656152456998825,-0.7408623099327087,0.3462235927581787,-0.22400586307048798,-0.2198837399482727,0.7727718353271484,0.3335992097854614
81,0.9024928278168866,1.3780236553831542,-0.09990935084364064,0.1503669172525406,-0.9814768433570862,-0.11871416121721268,0.25179702043533325,0.7382290959358215,-0.2845926582813263,-0.2286139726638794,-0.8995808959007263,-0.029067277908325195
82,1.050558332890452,1.4036269414021532,-0.16221138308546781,0.1443779468536377,-0.9860597252845764,-0.08271093666553497,1.359070897102356,0.28465762734413147,0.2823210656642914,0.02734445035457611,-0.6949857473373413,-0.3204110264778137
83,1.472188665186497,1.4731378449943278,-0.4855986236432252,0.09702969342470169,-0.9952352046966553,-0.00959900300949812,0.11653196066617966,1.1031004190444946,1.1674455404281616,0.3142251968383789,0.09189963340759277,-0.03719973564147949
84,-0.02990161375095882,1.5006300397317371,1.1761938568437749,-0.0020960706751793623,-0.9975393414497375,-0.07007802277803421,-1.3312709331512451,2.369011878967285,1.3809025287628174,-0.0014897584915161133,0.43943387269973755,-0.04025828838348389
85,-0.30541022240760674,1.285399853037865,1.664331138560301,-0.08465404063463211,-0.9595500826835632,-0.26850926876068115,-2.538506269454956,1.9491431713104248,0.7641733288764954,0.11199775338172913,0.376908540725708,0.21405065059661865
86,-0.348375012435302,1.1566437094648048,1.8894201407525495,-0.13737250864505768,-0.9154576659202576,-0.378240704536438,-0.4684860408306122,1.8543782234191895,2.18001127243042,-0.16038747131824493,-0.41465097665786743,0.16988196969032288
87,-0.7817883475188215,0.8688611752399974,2.337095468559514,-0.4549252688884735,-0.7635940909385681,-0.45822155475616455,0.7618412375450134,-0.18134179711341858,1.3981190919876099,-0.4254152774810791,-0.04550313949584961,-0.8608702421188354
88,-1.2050471569914385,0.9736128419884985,2.5523937406540473,-0.5251216888427734,-0.8269226551055908,-0.2011115700006485,1.5401736497879028,-6.197599411010742,-1.421028971672058,0.012197613716125488,-0.5830045938491821,-0.5156548023223877
89,-1.1547961391941473,1.019170895380394,2.4103748355751495,-0.4793755114078522,-0.8516737818717957,-0.21178023517131805,-0.5594392418861389,-0.41754016280174255,-0.777734100818634,0.017095237970352173,0.7361495494842529,-0.34173232316970825
90,-1.0994703315016832,1.0614866196142902,2.2486764775386376,-0.4344128668308258,-0.8730812668800354,-0.22139206528663635,-0.030181679874658585,-0.7160969376564026,-0.5102571249008179,-0.017705053091049194,0.48979586362838745,0.08851851522922516
91,-1.0216318532590292,1.1061157658495555,2.088321708831006,-0.3822435438632965,-0.8939647674560547,-0.2339162975549698,0.4565693438053131,0.3611537218093872,-0.4176814556121826,-0.7198225259780884,-0.7204455733299255,0.1950674206018448
92,-1.0139733194910552,1.1085129044389608,2.0905801661856604,-0.3786206841468811,-0.8950364589691162,-0.235703706741333,-0.13998398184776306,0.920033872127533,0.4505288302898407,-0.0694383978843689,-0.4204237461090088,-0.11123538017272949
93,-0.7955202038713763,1.0247403480273645,2.172019148821546,-0.37091347575187683,-0.8545793890953064,-0.3634796738624573,-0.10136410593986511,1.0297847986221313,0.6156269907951355,0.48292818665504456,0.07334452867507935,-0.1949004828929901
94,-0.7721148259542102,1.003587948115783,2.243109855230716,-0.37483423948287964,-0.8434041142463684,-0.38492700457572937,1.0537209510803223,0.6722351312637329,0.7393286824226379,0.14753931760787964,0.6378071904182434,0.05257534980773926
95,-0.8957658920345513,0.9870027195365723,2.4238867316332064,-0.4303097128868103,-0.834377646446228,-0.3444521129131317,0.7025290727615356,-0.05638757348060608,0.7553619742393494,-0.15587186813354492,0.3491482734680176,0.4317629039287567
96,-0.9946724897540649,0.9260885905459233,2.5143583818656174,-0.5039575099945068,-0.7992754578590393,-0.32739219069480896,0.13286052644252777,-0.09053122252225876,0.5857584476470947,-0.41372132301330566,-0.3285626769065857,-0.24890175461769104
97,-0.9439471680358043,0.8687689202012279,2.4851295044998514,-0.5229935646057129,-0.7635345458984375,-0.37880420684814453,-0.5178992748260498,0.22081828117370605,-0.016352960839867592,-0.041215360164642334,-0.5071257948875427,-0.3452405631542206
98,-0.8215255919041365,0.7954972838031789,2.48310927027701,-0.5124785900115967,-0.7142117619514465,-0.47672563791275024,-1.3351719379425049,1.1887691020965576,-0.3191746175289154,0.18180537223815918,0.30509310960769653,0.11808305978775024
99,-0.7265739785618961,0.6724752406337432,2.276968960182913,-0.5196800231933594,-0.6229242086410522,-0.5847204923629761,-2.4979372024536133,-2.1141631603240967,-0.8247668147087097,0.4370231628417969,0.446837842464447,0.25572580099105835
100,-0.6882148604338914,0.6439347173690587,2.186179009551332,-0.5079622268676758,-0.6003468036651611,-0.6177038550376892,-0.4602387547492981,1.340098261833191,0.052261970937252045,0.18383502960205078,0.07664990425109863,0.1618475317955017
101,-0.6493132909122211,0.645670655368182,2.178481708751383,-0.4829234182834625,-0.6017342209815979,-0.6361610293388367,0.4512619376182556,0.16628405451774597,0.5930917263031006,-0.6696187257766724,-0.19601047039031982,-0.26664048433303833
102,-0.4982389607725057,0.6065271095576551,2.2384054356218197,-0.39264124631881714,-0.5700174570083618,-0.7217429876327515,0.1104452982544899,4.554728031158447,0.5571396350860596,0.0009939074516296387,-0.3674520254135132,-0.31788408756256104
103,-0.19377237054477356,0.6069517736733332,2.3085600724186315,-0.15816859900951385,-0.5703663229942322,-0.8060179352760315,-0.38620153069496155,1.9698845148086548,0.6393305063247681,0.41671353578567505,-0.09662586450576782,0.4810667634010315
104,-0.03672836450039282,0.5640186440165269,2.4284353886581895,-0.031032662838697433,-0.5345867276191711,-0.8445436954498291,-0.3273968994617462,2.0919742584228516,0.48641616106033325,0.14272698760032654,0.40375787019729614,0.2371065616607666
105,0.09983478822259365,0.5957909169223078,2.429582222527727,0.08249654620885849,-0.561163604259491,-0.8235834836959839,0.2345622330904007,0.351900577545166,0.32187706232070923,-0.0739668756723404,0.2830263376235962,0.3950556516647339
106,0.14306784662702518,0.5806767295101601,2.5117927170907732,0.11921017616987228,-0.5485898852348328,-0.8275494575500488,-0.7082705497741699,0.8260314464569092,0.26337146759033203,-0.17949765920639038,-0.030252277851104736,-0.5123858451843262
107,0.08323892841680235,0.5052059917852331,2.5620113001831184,0.07275620102882385,-0.4839877188205719,-0.8720449805259705,-1.055429220199585,-0.9900538921356201,0.5475900173187256,0.29906997084617615,-0.316564679145813,-0.03126007318496704
108,0.020555981430390596,0.507207622224279,2.557982654125268,0.017966805025935173,-0.4857383072376251,-0.8739196062088013,0.6182575225830078,-0.4772246479988098,-1.0237618684768677,-0.14955860376358032,0.06230691075325012,0.20163261890411377
109,-0.11287142394365526,0.6435247687111786,2.421641386713903,-0.09010393172502518,-0.6000189185142517,-0.794895350933075,1.3729000091552734,-3.3895606994628906,-1.1668472290039062,0.13949662446975708,0.4693426489830017,0.47949618101119995
110,-0.2018746431600323,0.7226952484974928,2.3349509976690372,-0.15038485825061798,-0.6614086031913757,-0.734794557094574,0.09179701656103134,0.37583494186401367,-0.973921537399292,0.039453476667404175,-0.09101754426956177,0.10437768697738647
111,-0.25176949880963895,0.7858887571954595,2.2048553321368543,-0.17606662213802338,-0.7074536085128784,-0.6844778656959534,0.19874513149261475,-1.4403280019760132,-0.7035854458808899,-0.6973311901092529,-0.21561157703399658,-0.10871976613998413
112,-0.30225567808349457,0.784690163909697,2.199530096049805,-0.21063657104969025,-0.7066059708595276,-0.6755296587944031,0.7413536906242371,-0.6837285161018372,0.047648102045059204,0.17235225439071655,-0.2632426619529724,-0.4822309613227844
113,-0.3922343337823804,0.8457725168692678,2.2291355447292545,-0.2534930109977722,-0.7484836578369141,-0.6127915978431702,0.39483553171157837,1.2106608152389526,0.23179058730602264,-0.06498843431472778,-0.14005088806152344,0.25091421604156494
114,-0.23868778123511009,0.8387498906514831,2.2801584861148143,-0.15802672505378723,-0.7438081502914429,-0.6494435667991638,-0.0068815769627690315,0.869318425655365,0.5265012979507446,-0.021523430943489075,0.8220400214195251,0.3952474594116211
115,-0.28696139019402467,0.7994035135460795,2.369323256281628,-0.19731636345386505,-0.7169404029846191,-0.6686274409294128,-0.5934732556343079,-0.10206902027130127,0.33024197816848755,-0.19053153693675995,0.17832046747207642,0.23471331596374512
116,-0.3040517740036369,0.7903634677476087,2.3641106737116733,-0.21064592897891998,-0.7106090784072876,-0.6713144183158875,-0.07185586541891098,0.13292743265628815,-0.1470436304807663,-0.4780290126800537,-0.2745898962020874,-0.29908353090286255
117,-0.38716674194582285,0.7674113798226422,2.361780164063906,-0.2717384397983551,-0.6942744851112366,-0.6664391756057739,-0.002777334302663803,-1.9798474311828613,0.7079733610153198,0.4292701482772827,-0.5451816320419312,-0.23247134685516357
118,-0.43023746370442423,0.7671981413373888,2.3316993597513047,-0.3002432882785797,-0.6941210031509399,-0.6542552709579468,-0.08958118408918381,0.6576386094093323,-0.7487620711326599,0.2618369460105896,0.06989926099777222,0.006000936031341553
119,-0.34581238897207156,0.7601727010525773,2.1522821891210935,-0.24565087258815765,-0.6890466213226318,-0.6818140745162964,-0.7554796934127808,-1.7847634553909302,-0.5687866806983948,-0.032028570771217346,0.30896544456481934,0.4045466184616089
120,-0.3939072083012145,0.7510000449501175,2.0896900655894717,-0.2805599272251129,-0.682370126247406,-0.6750238537788391,0.12802739441394806,0.43993106484413147,-0.37255093455314636,-0.0347629189491272,0.15324115753173828,0.06189519166946411
121,-0.34558887857126547,0.7201647994112788,2.159483193354674,-0.2546379864215851,-0.6595085859298706,-0.7072538137435913,-0.2903459966182709,0.5540757775306702,1.5965430736541748,-0.4768531322479248,-0.2533789873123169,-0.4477144479751587
122,-0.3079732116562509,0.5880477930331488,2.2842760214329068,-0.25220999121665955,-0.5547378063201904,-0.7928783297538757,-1.3367938995361328,1.8501927852630615,0.8171530365943909,0.23399102687835693,-0.3450118899345398,-0.309492826461792
123,-0.2228982120631275,0.45777171176191506,2.2883847922093716,-0.198296919465065,-0.44195035099983215,-0.8748475313186646,-1.311922311782837,1.297390341758728,0.23687851428985596,-0.0011812299489974976,-0.07568880915641785,0.6387483477592468
124,-0.1473206836464023,0.3730020677898178,2.2987964214784133,-0.13669484853744507,-0.36441269516944885,-0.9211503267288208,-0.605714738368988,0.4603337347507477,0.07646255195140839,0.05121511220932007,0.31663745641708374,0.3551560640335083
125,-0.08168240022638547,0.30312740821811807,2.268073453417638,-0.0778716430068016,-0.298506498336792,-0.9512254595756531,-0.5004075765609741,0.8153508305549622,-0.5226491093635559,-0.201638862490654,0.389601469039917,0.4771348834037781
126,-0.0716231518739245,0.26481936398699446,2.2301161419219273,-0.06906726956367493,-0.2617349326610565,-0.962665319442749,-1.166320562362671,-0.5680015087127686,-0.1902262419462204,-0.3409669101238251,-0.1787557601928711,-0.2840844988822937
127,-0.16170513887519364,0.09359170387149582,2.1840865307637842,-0.1602967083454132,-0.09345512837171555,-0.9826347827911377,-1.952034592628479,-0.8500803112983704,-0.3272577226161957,0.1527283638715744,0.30080682039260864,-0.6219336986541748
128,-0.09815362434129472,-0.003305268811529123,2.2095569031465057,-0.0979955643415451,0.0033052628859877586,-0.9951813817024231,0.8403741717338562,0.41893547773361206,1.042986512184143,0.2706030011177063,0.37138956785202026,0.1256745457649231
129,-0.1201177101210893,0.08037027690192233,2.2505886016224554,-0.11944226920604706,-0.08028378337621689,-0.9895898699760437,-0.21254386007785797,0.27378079295158386,-0.8021501302719116,-0.18271227180957794,-0.2918475568294525,0.9472467303276062
130,-0.09651792556995757,0.06546421295223238,2.1598316212636015,-0.09616171568632126,-0.06541746109724045,-0.9932137131690979,-0.08603328466415405,-0.11095432937145233,-0.7442305684089661,0.13977134227752686,0.07408445328474045,0.3548012375831604
131,-0.22723287364241282,0.02266880502537139,2.1587431669680917,-0.22522450983524323,-0.022666864097118378,-0.9740431904792786,-0.3833993375301361,-1.454167366027832,1.5593258142471313,-0.30770397186279297,0.03795617073774338,-0.6715103983879089
132,-0.2719285390488976,-0.007570199415050466,2.287822058702269,-0.26858192682266235,0.00757012702524662,-0.9632270932197571,-0.1519416868686676,-0.05956020578742027,0.5867326259613037,0.25669533014297485,0.008817814290523529,-0.4002677798271179
133,-0.23901858738389992,-0.03624894525154482,2.308188935305142,-0.23659370839595795,0.03624100610613823,-0.9709325432777405,0.07857656478881836,-0.052173953503370285,0.11616911739110947,0.04187630116939545,-0.27087539434432983,-0.22518867254257202
134,-0.237673399985922,-0.025028826801845587,2.3667387705517697,-0.23536832630634308,0.025026213377714157,-0.9715839624404907,0.22376438975334167,-0.03843085840344429,0.610409140586853,0.03572234511375427,0.13541994988918304,0.627971351146698
135,-0.24753118286166664,0.001133894703073124,2.369300362065496,-0.24501098692417145,-0.0011338944314047694,-0.9695196151733398,0.10980800539255142,-0.017817074432969093,-0.46757248044013977,-0.04148802161216736,0.05078599601984024,0.4767065644264221
136,-0.24741237684024905,0.1866144842948007,2.142887315390537,-0.24064406752586365,-0.18553322553634644,-0.952716052532196,0.8974025845527649,-0.08874892443418503,-0.5447341203689575,0.014798730611801147,0.25738686323165894,0.07156676054000854
137,-0.2445162179793326,0.20994364435168772,2.1372680592348203,-0.2367713749408722,-0.2084047794342041,-0.9489503502845764,1.1627511978149414,0.19587461650371552,-0.5831735134124756,0.097946897149086,0.014251947402954102,-0.3026975989341736
138,0.09533818745042409,0.2666832217175848,0.17850963046297105,0.09182874858379364,-0.263533353805542,-0.960269570350647,-0.3180101215839386,-0.2503914535045624,-0.1914428174495697,-0.15452711284160614,0.258131742477417,-0.12884175777435303
139,0.08298753781277099,0.2854074058049022,0.1438171458709961,0.07953907549381256,-0.281548410654068,-0.9562447667121887,0.16224341094493866,-0.3460701107978821,-0.4832003712654114,0.12192271649837494,-0.042166829109191895,0.07784205675125122
140,0.06398890613057645,0.28320912258232556,0.09609419945890678,0.06139789894223213,-0.2794383764266968,-0.9581985473632812,0.11522579193115234,-0.3635258674621582,-0.4400865137577057,-0.0017512962222099304,0.020908713340759277,0.30246734619140625
141,0.05451067198602798,0.2917533393474213,0.05208695238939438,0.05218125507235527,-0.28763189911842346,-0.9563184380531311,0.5343214273452759,-0.512994110584259,-0.16971100866794586,-0.021480578929185867,-0.06890493631362915,-0.01919114589691162
142,0.015668871600400137,0.35883510182120326,0.047208723103015285,0.014670266769826412,-0.35118377208709717,-0.9361916184425354,0.4030708372592926,-0.4450448155403137,-0.06278922408819199,0.04251967370510101,-0.10455048084259033,-0.2535666823387146
143,0.006409138062314763,0.32433225878564187,0.047936414718888945,0.0060749477706849575,-0.3186759352684021,-0.9478442668914795,-0.06543634086847305,0.1698635220527649,0.026086188852787018,-0.033205073326826096,0.2123069167137146,-0.207261323928833
144,-0.0042251399033728975,0.29104089882472295,0.05554702628550769,-0.004047442693263292,-0.2869495153427124,-0.9579371809959412,-0.9185973405838013,-0.026178212836384773,0.8757205605506897,-0.1710929423570633,-0.0527263879776001,0.19417375326156616
145,0.04702305352080946,0.11303234883739878,0.1630337581881978,0.04670576751232147,-0.11279181391000748,-0.9925203323364258,-0.7992228269577026,0.20830124616622925,1.3344217538833618,-0.022917311638593674,-0.12193413823843002,0.16318988800048828
146,-0.07784132475491433,0.2374209180162498,0.2731122689380608,-0.07558131963014603,-0.23519667983055115,-0.9690046310424805,2.682706356048584,-1.3558001518249512,0.3701278269290924,0.10306239873170853,0.23241958022117615,-0.08131885528564453
147,-0.0065659063003442935,0.21726220575378324,0.33273132565406716,-0.006411504000425339,-0.2155570089817047,-0.9764702320098877,-0.6770734190940857,1.3446930646896362,1.1109023094177246,0.16746802628040314,-0.07718287408351898,-0.3957526683807373
148,-0.06888755768101959,0.22034275371732068,0.5130365460808329,-0.06716888397932053,-0.21856410801410675,-0.9735081195831299,0.46966981887817383,-0.3739645481109619,2.980942487716675,0.3172299265861511,0.04498012363910675,0.12675213813781738
149,-0.2293528427757962,0.22250233446572468,0.9580915811274786,-0.22174286842346191,-0.22067095339298248,-0.9498075842857361,0.5505844354629517,1.6561486721038818,5.522199630737305,0.3223440647125244,0.17928911745548248,0.5686277747154236
150,-0.18695407916344137,0.07662755598873087,1.4424077893492233,-0.18532149493694305,-0.07655258476734161,-0.9796916246414185,-0.4850608706474304,0.562349259853363,4.265230178833008,-0.035534217953681946,-0.11468581855297089,0.12207138538360596
151,-0.15063124514202272,-0.08426979977051541,1.7249431279522414,-0.14952975511550903,0.08417009562253952,-0.9851681590080261,-1.606245756149292,1.6380493640899658,2.5159125328063965,-0.18105192482471466,0.2664921283721924,-0.04248076677322388
152,0.06470086407349834,-0.18788579743489747,1.8161477248631641,0.06351787596940994,0.18678231537342072,-0.9803457856178284,-1.0449410676956177,1.5033477544784546,-0.4031507968902588,0.15118855237960815,0.3857274353504181,-0.42190641164779663
153,0.11401008487467551,-0.19545274351502404,1.822677071062526,0.11159718781709671,0.19421067833900452,-0.9745913147926331,0.14972814917564392,0.12674583494663239,-0.023142695426940918,0.1802423894405365,0.1361573487520218,-0.04146087169647217
154,0.17424508650664652,-0.16456089322454803,1.8375728934896947,0.17102260887622833,0.16381917893886566,-0.9715526700019836,0.10100343823432922,0.9849454164505005,0.5382875800132751,-0.14019986987113953,0.020171314477920532,0.42203789949417114
155,0.16747615280545752,-0.20167591155796266,1.8822219415446388,0.16331583261489868,0.2003115564584732,-0.9660244584083557,-0.9025987386703491,-1.3274856805801392,0.2939452528953552,-0.15081888437271118,-0.216760516166687,0.2786007523536682
156,0.21423017253457632,-0.2689164014686044,1.9493629232451744,0.20495444536209106,0.26568692922592163,-0.9420213103294373,-0.6349929571151733,1.5172439813613892,0.6624463796615601,-0.02364952862262726,0.18366914987564087,-0.21549516916275024
157,0.2682119052291244,-0.24049230104155353,2.0322019738619423,0.25738099217414856,0.23818078637123108,-0.9364960789680481,0.5211447477340698,-1.4153642654418945,1.6011443138122559,0.25641292333602905,-0.19040551781654358,-0.4433867335319519
158,0.18989663383630204,-0.1924300271759355,2.242262790386955,0.18527337908744812,0.19124463200569153,-0.9638979434967041,-0.005495546385645866,-1.4711798429489136,2.2382466793060303,-0.03398248553276062,-0.46004346013069153,-0.1265408992767334
159,0.13456969909314095,-0.13019942431219442,2.526952174389017,0.13302835822105408,0.12983188033103943,-0.9825717210769653,0.17245709896087646,-0.36293309926986694,3.133209705352783,-0.04231485724449158,-0.26079806685447693,0.30451691150665283
160,0.16036274491423735,-0.06602863858544124,2.8878755648055585,0.15932835638523102,0.06598067283630371,-0.9850183129310608,0.4298854470252991,-0.7365402579307556,2.6229453086853027,0.22757349908351898,0.00022721290588378906,0.2585015892982483
161,0.04058677570837622,-0.080695347868638,3.0475612270532384,0.04044359549880028,0.08060780167579651,-0.9959250688552856,-0.6013858318328857,-3.00723934173584,0.6833614706993103,0.4254377484321594,0.3398939073085785,-0.21913230419158936
162,0.013195423964894185,-0.11444369764899892,3.013732369617367,0.013108725659549236,0.11419404298067093,-0.9933719635009766,0.5356300473213196,0.07059204578399658,-1.2084861993789673,0.2522873878479004,0.08304106444120407,-0.5920467376708984
163,-0.1044499129652372,-0.14180985234294324,2.7324858375128374,-0.10321351140737534,0.14133502542972565,-0.9845665693283081,-0.13329289853572845,-0.9840718507766724,-4.52386474609375,-0.12196043133735657,-0.5135884284973145,0.13475888967514038
164,-0.3224008715282038,0.07066214462623044,2.260251479537752,-0.31605395674705505,-0.07060335576534271,-0.9461104869842529,1.206412672996521,-2.289815664291382,-6.830873012542725,0.054564088582992554,-0.5979757308959961,0.35399317741394043
165,-0.2695697719728575,0.39367026060752913,1.7075106956460415,-0.2459455132484436,-0.3835805058479309,-0.8901554942131042,1.3224446773529053,1.2499148845672607,-3.679523468017578,-0.1979174017906189,0.3746541142463684,-0.35139113664627075
166,-0.13555637842042173,0.42465764468299033,1.5903223086250486,-0.12313830852508545,-0.4120088517665863,-0.9028209447860718,-0.5498678088188171,0.37439170479774475,1.713767647743225,-0.40702831745147705,0.4588228464126587,-0.3658558130264282
167,-0.1283643107020667,0.3064146680101214,1.8720554851184743,-0.12204943597316742,-0.3016422390937805,-0.9455770254135132,-0.5207706093788147,1.8171558380126953,2.8650383949279785,-0.04024304449558258,-0.23714560270309448,-0.13329565525054932
168,-0.11562826649017838,0.17271799803489207,1.9919073940604022,-0.11365421116352081,-0.17186053097248077,-0.9785431623458862,-1.3157843351364136,1.1224365234375,1.1086281538009644,-0.05403988063335419,-0.017287403345108032,0.17843329906463623
169,-0.046364013326683245,0.05004020577741172,2.077400309941733,-0.046289388090372086,-0.05001932382583618,-0.9976750016212463,-0.6958646774291992,-0.08833558857440948,0.7585691213607788,-0.053960856050252914,-0.16609090566635132,0.26529890298843384
170,0.10473851930776318,-0.005239656065877581,2.255336749202178,0.10454569011926651,0.0052396319806575775,-0.994506299495697,-0.46574193239212036,2.383765459060669,1.6243139505386353,-0.2345505654811859,0.08117088675498962,0.3944544196128845
171,0.16749736438960788,-0.04018808759313898,2.3729238742944303,0.16658064723014832,0.04017727077007294,-0.9852089285850525,-0.6387898921966553,0.4745618999004364,1.0551437139511108,-0.2361302226781845,-0.059922147542238235,-0.5200247764587402
172,0.013402279202646722,-0.1323502620302753,2.3713451709713556,0.013284672051668167,0.13196420669555664,-0.9911654591560364,-2.2086925506591797,-4.019710540771484,-1.7099627256393433,0.41782188415527344,-0.48120737075805664,-0.3072964549064636
173,-0.21254760888054355,-0.1373208023640297,2.148675718375737,-0.20896503329277039,0.13688963651657104,-0.9682947993278503,0.812219500541687,0.38326236605644226,-1.0007119178771973,-0.11014202237129211,0.08454591035842896,-0.15463000535964966
174,-0.29893701528512173,-0.035582529079629284,2.06570750242309,-0.2943181097507477,0.035575021058321,-0.9550451636314392,0.9939721822738647,-1.964526891708374,-0.9933971166610718,0.2797917425632477,0.1627282053232193,0.5837072730064392
175,-0.539310780450782,0.06863458984538312,1.9965392659288623,-0.5123355984687805,-0.06858071684837341,-0.8560425639152527,0.1769186556339264,-2.9255688190460205,-1.7400319576263428,0.18115884065628052,0.1342392861843109,-0.03894639015197754
176,-0.8373763452192565,0.24021039421422594,1.9347618772913517,-0.721559464931488,-0.23790699243545532,-0.6501939296722412,0.9190808534622192,-2.1452722549438477,0.5344653725624084,-1.4065074920654297,0.10144762694835663,-0.4756758213043213
177,-0.741219168759323,0.15307011376620017,2.2620903999474447,-0.6672931909561157,-0.1524730622768402,-0.7290211319923401,0.9600725769996643,2.5736169815063477,4.249618053436279,0.03812754154205322,-0.4471668601036072,-0.6365794539451599
178,-0.3584875859638318,0.013601613111774484,2.488150297632778,-0.3508259057998657,-0.013601194135844707,-0.9363419413566589,-0.3231956362724304,3.941237449645996,2.0648701190948486,0.2874714136123657,0.040990717709064484,0.6209885478019714
179,-0.1497435954541255,-0.04089675237529488,2.5453690404027594,-0.14905986189842224,0.04088535159826279,-0.9879825711250305,-0.303855299949646,0.6090194582939148,-0.6238560676574707,0.08746013045310974,-0.15883579850196838,0.7928531765937805
180,-0.19805235159243312,0.007052885487500448,2.461645203288946,-0.19675523042678833,-0.007052827160805464,-0.9804272651672363,0.6140628457069397,-1.678444743156433,-1.3775713443756104,-0.29486769437789917,0.13640159368515015,-0.16974973678588867
181,-0.23396316465282901,-0.013650803753733723,2.4692717358273515,-0.23181292414665222,0.013650380074977875,-0.9726645946502686,0.17023637890815735,-1.3145722150802612,0.6887262463569641,0.12198017537593842,0.37801221013069153,-0.13031691312789917
182,-0.3113218108571888,-0.045626277743060946,2.423516588337117,-0.30599838495254517,0.0456104502081871,-0.9509388208389282,-2.1329290866851807,-0.1318735033273697,-1.2922080755233765,0.45667892694473267,0.1259441077709198,-0.6744884252548218
183,-0.3421012837938715,-0.058666717190865386,2.275066529957101,-0.334890216588974,0.058633070439100266,-0.9404311180114746,-0.3263750374317169,-0.7713004350662231,-1.1891306638717651,-0.4988347589969635,0.06769444048404694,-0.2845901846885681
184,-0.40515578705714006,-0.06761794085652532,2.14343419373127,-0.393261194229126,0.06756642460823059,-0.9169408082962036,-0.44902297854423523,-0.19473271071910858,-0.8064455389976501,0.611461877822876,-0.05146840214729309,0.5296727418899536
185,-0.44855373426079725,-0.07897927834026704,2.066379863048685,-0.43231096863746643,0.07889719307422638,-0.8982663750648499,-0.8323553800582886,-1.7609628438949585,-1.1572338342666626,0.24134725332260132,-0.7369019389152527,0.31045204401016235
186,-0.46644060315218766,-0.06461475682669368,2.169996182931746,-0.44877150654792786,0.06456980109214783,-0.8913107514381409,1.4402356147766113,0.37576085329055786,2.163210391998291,-0.12720200419425964,-0.14214548468589783,-0.5131234526634216
187,-0.3948368927473823,-0.034785530185227634,2.345453050122898,-0.38442492485046387,0.03477851673960686,-0.9225009083747864,0.8642733693122864,0.7319602966308594,0.5719839930534363,0.24964404106140137,0.15742118656635284,0.4207461476325989
188,-0.4137340780423146,-0.0028539155072590415,2.4044317052118425,-0.40202951431274414,0.00285391160286963,-0.9156222939491272,0.10844993591308594,-0.27732133865356445,0.4653482139110565,-0.11574697494506836,0.4224695563316345,-0.0385708212852478
189,-0.3890518030243221,-0.0685664561277581,2.407953509050453,-0.3784199655056,0.06851274520158768,-0.9230949878692627,-1.2025229930877686,0.5491534471511841,-0.7523968815803528,0.14886674284934998,0.23770064115524292,-0.8227698802947998
190,-0.20634341408799536,-0.07936077816464365,2.353112274218262,-0.2042374163866043,0.07927750051021576,-0.9757059812545776,0.3636479377746582,2.4006187915802,-0.6849318146705627,0.10931248962879181,-0.22698257863521576,0.04794108867645264
191,-0.09919985923911213,-0.027664434557636647,2.255130268703704,-0.09899934381246567,0.027660906314849854,-0.9947029948234558,0.3337366580963135,0.1980404257774353,-1.4882540702819824,0.06544526666402817,-0.16972023248672485,1.1375558376312256
192,-0.1095771294742841,0.04164945227500616,2.1256211853699796,-0.10926313698291779,-0.04163741320371628,-0.9931403994560242,0.7010056972503662,-0.0959707498550415,-0.5926047563552856,-0.15195205807685852,0.014034267514944077,0.005286455154418945
193,-0.04893242326491899,0.07951170458682233,2.173107012720299,-0.048758365213871,-0.07942795008420944,-0.9956474304199219,-0.10313384234905243,0.15982793271541595,2.0605690479278564,-0.3575831949710846,0.06642746180295944,-1.1335639953613281
194,-0.044084737028736935,0.02401909786912105,2.3102866851559822,-0.04405774548649788,-0.024016788229346275,-0.9987402558326721,-0.7717854976654053,0.5732952952384949,-0.20159223675727844,0.04302014783024788,-0.6572728753089905,-0.09166806936264038
195,-0.025171030732103517,-0.02575568755836191,2.3598098874271543,-0.02516002580523491,0.0257528405636549,-0.9993516802787781,0.13816261291503906,-0.13904492557048798,0.769684374332428,0.12144298851490021,-0.0260427575558424,0.4235002398490906
196,-0.04421835345339955,-0.004368937246298734,2.394884752859332,-0.04420352354645729,0.0043689231388270855,-0.9990130066871643,0.31537318229675293,-0.2775304317474365,-0.11426810920238495,0.10888552665710449,0.13663753867149353,0.9989977478981018
197,-0.036199154794065734,0.035571558947423275,2.3769038731780507,-0.036168355494737625,-0.035564057528972626,-0.9987127184867859,0.7448961138725281,0.49264591932296753,-0.4897611141204834,-0.002878885716199875,0.2737995386123657,-0.04459172487258911
198,0.10502168348833714,0.021147425616477877,2.3676693528617774,0.10480529069900513,-0.02114584855735302,-0.9942679405212402,-1.2478007078170776,0.4110124111175537,0.121120385825634,-0.2518694996833801,0.09373190999031067,-0.6800332069396973
199,0.02159132984211209,-0.07974398490380478,2.308208268290854,0.02152104303240776,0.07965949177742004,-0.9965897798538208,-0.6334707140922546,-0.5987817049026489,-0.9991734623908997,0.44407039880752563,-0.32010748982429504,-0.3229445219039917
200,0.018734640221293345,-0.0774966297145203,2.227311705995005,0.01867731846868992,0.07741907984018326,-0.9968236684799194,0.5750365257263184,0.42017844319343567,-0.2356688529253006,-0.07548579573631287,-0.14353543519973755,0.3535436987876892
201,0.01851963146949749,-0.03182026646741317,2.1772556356652175,0.01850919798016548,0.03181489557027817,-0.9993223547935486,0.46789395809173584,-0.6866479516029358,-0.7831963300704956,-0.03216581791639328,-0.058243121951818466,0.8693480491638184
202,-0.03424681056685279,0.026973260368832602,2.1626298678719693,-0.03422766178846359,-0.026969989761710167,-0.9990500807762146,0.48117485642433167,-0.5603654384613037,0.6966419816017151,0.001756962388753891,0.18988807499408722,-0.6598701477050781
203,-0.057376243198623895,0.042439063507200905,2.324474373584496,-0.057293135672807693,-0.042426325380802155,-0.9974555373191833,-0.1245463564991951,-0.5769216418266296,2.0576508045196533,0.024822428822517395,-0.09125592559576035,-0.6401482224464417
204,-0.08337471322314387,0.005356761924483201,2.4828114736898246,-0.08327695727348328,-0.005356736481189728,-0.9965120553970337,-0.42526277899742126,0.26064571738243103,0.6926912069320679,-0.15308168530464172,-0.6051321625709534,0.04410421848297119
205,-0.05809603731790371,0.009347174665769151,2.573965713623615,-0.05806082487106323,-0.009347038343548775,-0.998269259929657,0.2979316711425781,0.3720249533653259,0.9283969402313232,0.15834158658981323,0.09839732944965363,0.38890957832336426
206,-0.02309043464096955,0.026955452971532096,2.6350179377661727,-0.023079995065927505,-0.026952188462018967,-0.999370276927948,0.26188015937805176,0.20689880847930908,-0.016616221517324448,0.023690346628427505,0.18388883769512177,0.774944007396698
207,0.014343305298589995,0.04761504531547178,2.6263602496369813,0.014326557517051697,-0.04759705439209938,-0.9987638592720032,-0.21300414204597473,1.1106431484222412,-0.36684826016426086,-0.1537918895483017,0.3043566942214966,-0.5661928057670593
208,0.05711915890106145,-0.019301738354640163,2.5558279006043345,0.057077471166849136,0.019300539046525955,-0.9981831908226013,-0.8235030770301819,-0.005942743271589279,-1.2262026071548462,0.37840837240219116,0.07368652522563934,-0.8648234009742737
209,0.031922851719447996,-0.04075235163618358,2.399333167478739,0.031890928745269775,0.04074107110500336,-0.998660683631897,0.33500391244888306,-0.03776180371642113,-1.6098166704177856,0.15579217672348022,-0.27825939655303955,0.08650553226470947
210,0.03482076384275254,0.0007593611377028337,2.2345396628606355,0.034813717007637024,-0.0007593610789626837,-0.9993935227394104,0.4439602792263031,-0.11401615291833878,-1.5960619449615479,-0.14452441036701202,-0.11334586143493652,0.7756996750831604
211,-0.0006613644459310275,0.04754486119669497,2.085266162862256,-0.0006606170209124684,-0.047526951879262924,-0.9988697171211243,0.49630770087242126,0.09440401196479797,-0.8519443273544312,-0.08372048288583755,0.048503514379262924,0.49459731578826904
212,0.012862248673801507,0.0711206701338939,2.121220354439997,0.012829379178583622,-0.07106073200702667,-0.9973894953727722,-0.1442827731370926,-0.24294570088386536,1.6515713930130005,-0.45005470514297485,-0.271453320980072,-0.8124859929084778
213,-0.02080186211155424,0.05964721267528506,2.277177937981235,-0.020763371139764786,-0.05961184948682785,-0.9980056881904602,-0.10848471522331238,0.35563746094703674,1.1767857074737549,0.3740043342113495,-0.38747066259384155,-0.2997543215751648
214,0.013846616174121553,0.054189575660937156,2.385460119469288,0.013825848698616028,-0.05416305735707283,-0.9984363913536072,0.22645792365074158,-0.02019287645816803,0.9268466234207153,-0.023072674870491028,0.02501877397298813,0.2920154929161072
215,-0.01716972369139842,0.07101108218490344,2.442074512667316,-0.017125610262155533,-0.0709514170885086,-0.997332751750946,0.11413531005382538,-0.3174296021461487,0.061475712805986404,0.12294530868530273,0.2570781111717224,0.880847156047821
216,-0.011782093854487986,0.08451199964565659,2.4469659320306287,-0.01173977181315422,-0.08441143482923508,-0.9963618516921997,-0.07746744155883789,0.4522166848182678,0.0972893238067627,-0.07923312485218048,0.2841947674751282,0.021294713020324707
217,0.09959522007519545,0.037685379957972324,2.4588492530738453,0.09936005622148514,-0.03767646104097366,-0.9943379759788513,-0.8225584030151367,0.24080368876457214,-0.23467224836349487,-0.25313812494277954,-0.029416430741548538,-0.4333200454711914
218,0.0702648544925299,-0.02989534969165748,2.3990975824829603,0.07017567753791809,0.029890896752476692,-0.9970867037773132,-0.2267054170370102,-0.34821948409080505,-0.9173392057418823,0.4731592535972595,-0.02847183123230934,-0.5167224407196045
219,0.10687715971758105,-0.015038019373157428,2.31970984936406,0.10666174441576004,0.015037452802062035,-0.9941816329956055,0.5271421670913696,0.8606321811676025,-0.5697107315063477,-0.14517492055892944,-0.10185996443033218,0.43442821502685547
220,0.12465908041523366,0.03020297815131597,2.248655641476025,0.12427975982427597,-0.030198385939002037,-0.9917875528335571,0.6721823811531067,-0.9291588068008423,-0.9982227087020874,-0.09962155669927597,0.019715595990419388,0.8420988321304321
221,0.04763808781316405,0.10626204844652824,2.1980288801385996,0.047351472079753876,-0.10606218129396439,-0.9932314157485962,0.7448185682296753,0.02958524413406849,0.5601900815963745,-0.10754739493131638,0.18224932253360748,-0.5303586721420288
222,0.030194551320405473,0.14086609379559228,2.3242001147850226,0.02989092469215393,-0.14040067791938782,-0.9896434545516968,-0.04201566055417061,-1.185085415840149,1.3284417390823364,0.29928693175315857,0.2508285641670227,-0.914332926273346
223,0.082357813782619,0.0839976564994835,2.4174527913364483,0.08197470009326935,-0.08389891684055328,-0.9930967092514038,-0.9587442874908447,1.1438018083572388,0.6710447669029236,-0.015949919819831848,-0.4492126703262329,0.1362546682357788
224,0.1129151502341668,0.0618039119011029,2.4719982868694252,0.11246023327112198,-0.06176457554101944,-0.9917347431182861,-0.1714688390493393,0.2413829267024994,0.5435565710067749,0.032223597168922424,0.12734684348106384,0.5154774785041809
225,0.14323807938023114,0.03725050919066051,2.504833808329236,0.14264975488185883,-0.037241894751787186,-0.989072322845459,0.05966039374470711,-0.11628712713718414,-0.36289551854133606,-0.07038412988185883,0.1428937464952469,0.7894416451454163
226,0.14485334649681936,0.020080426941373523,2.435788541497072,0.14431820809841156,-0.020079078152775764,-0.989327609539032,-0.44074776768684387,1.222367763519287,-0.7889626622200012,-0.31716978549957275,0.21748203039169312,-0.818838894367218
227,0.16121411506649225,-0.07553182128150325,2.3321157102593846,0.16005903482437134,0.0754600241780281,-0.9842188954353333,-0.4060133993625641,-0.9871879816055298,-1.4645705223083496,0.6825923323631287,-0.0983176901936531,-0.948733925819397
228,0.10573350645999381,-0.06685319979831815,2.240678413422978,0.10530085861682892,0.06680341064929962,-0.9921940565109253,0.6657842397689819,0.3952915072441101,-0.11667871475219727,0.02658085525035858,-0.16084332764148712,0.3877171277999878
229,0.10966627636003548,-0.00885611893949322,2.183138328818457,0.10944229364395142,0.008856003172695637,-0.9939537048339844,0.4954153299331665,-1.0939263105392456,-0.8449841141700745,-0.13997513055801392,0.021814163774251938,0.9211692810058594
230,0.05067343641062133,0.0223356657219701,2.1280525355946285,0.05063911899924278,-0.02233380824327469,-0.9984672665596008,0.4449493885040283,-0.20657609403133392,0.8097763657569885,0.18341544270515442,0.2298991084098816,-0.36270827054977417
231,0.041840480561706174,0.04037701344720046,2.2425036919145453,0.04179418087005615,-0.0403660424053669,-0.9983105063438416,-0.24669957160949707,-1.2165608406066895,1.0498645305633545,-0.030884146690368652,0.0999210923910141,-0.813563883304596
232,0.004292631659376658,0.0014093603460589425,2.299483876627169,0.004292614292353392,-0.0014093598583713174,-0.9999898076057434,-0.5611389875411987,0.8890860080718994,-0.37533318996429443,0.02845274657011032,-0.6168310046195984,-0.06937664747238159
233,0.09345230932506493,-0.015270041695717537,2.3325982052327365,0.09330546110868454,0.015269448049366474,-0.9955204129219055,-0.04880859702825546,1.3845953941345215,0.6934417486190796,-0.0036143064498901367,-0.0094253309071064,0.413229763507843
234,0.3133512711714216,0.008671285400475895,2.3745966687391724,0.30823686718940735,-0.008671176619827747,-0.9512701034545898,0.6729536056518555,3.844367742538452,0.7070915699005127,-0.12706929445266724,0.09788931906223297,0.5330877900123596
235,0.4548666750086993,0.06769682521912135,2.378331590594814,0.43833622336387634,-0.0676451325416565,-0.8962619304656982,0.1570974737405777,-0.5286754965782166,0.04840117692947388,-0.03358161449432373,0.10713488608598709,-0.5470821261405945
236,0.47037518062022393,0.01881137070175012,2.376802621641046,0.4531405568122864,-0.01881026104092598,-0.8912405967712402,-0.9744662046432495,-1.0831743478775024,-0.7238297462463379,0.5196835398674011,0.10372543334960938,-0.6245369911193848
237,0.12828125272331975,-0.06472192951358571,2.2706686568362904,0.12766185402870178,0.06467675417661667,-0.9897066950798035,-0.06957709789276123,-3.462463140487671,-1.8257838487625122,0.2914818227291107,-0.24469995498657227,0.03900784254074097
238,0.08877614970332841,-0.031283614230536716,2.1377761269770033,0.08861620724201202,0.03127851337194443,-0.9955745935440063,0.5849540829658508,0.7242991924285889,-0.6318893432617188,0.05919568985700607,-0.022062204778194427,0.5506435632705688
239,0.15118490139026688,0.0030353003744281347,2.087398796210188,0.15060892701148987,-0.003035295754671097,-0.9885887503623962,0.6048746705055237,-0.11858946084976196,-0.30970677733421326,-0.18481913208961487,0.0353381484746933,0.6941246390342712
240,0.10132567940623295,0.06607794011017745,2.119922215617979,0.10093163698911667,-0.0660298615694046,-0.9926998019218445,-0.10470469295978546,0.7466121912002563,1.024661660194397,-0.10567711293697357,0.1833394318819046,-0.8350895047187805
241,0.09526901511624161,0.03546454504759248,2.239945216529356,0.0950651541352272,-0.03545711189508438,-0.9948393702507019,-0.5896424055099487,-0.032092172652482986,0.8776748180389404,0.506314218044281,-0.03345157951116562,-0.5195344090461731
242,0.1779483728558168,-0.022862682339100864,2.2666986287538315,0.17696446180343628,0.02286069095134735,-0.9839516878128052,-0.14618760347366333,0.25309988856315613,0.17078828811645508,-0.17310400307178497,-0.26398006081581116,0.11754244565963745
243,0.17732660178071802,-0.00021627751303110698,2.283119765438012,0.17639872431755066,0.00021627750538755208,-0.9843187928199768,0.13589143753051758,-0.001205426175147295,0.12038606405258179,-0.08011576533317566,0.133221834897995,0.6541491150856018
244,0.19528810324743304,0.024645568209022507,2.274658599095014,0.19399024546146393,-0.024643072858452797,-0.9806938767433167,0.3461155295372009,0.17033475637435913,-0.10105077177286148,-0.17159034311771393,0.14848341047763824,0.2621270418167114
245,0.2415698307997986,0.017726698755711732,2.27009564368438,0.23918958008289337,-0.01772577129304409,-0.9708110690116882,-0.620259165763855,0.25143641233444214,-0.13589726388454437,-0.2863087058067322,0.11294060945510864,-0.5039356350898743
246,0.18272778292769587,-0.06726874456539506,2.240159313893783,0.18130163848400116,0.06721802055835724,-0.9811276197433472,-0.3629998564720154,-0.6509069800376892,-0.7420738935470581,0.5743440985679626,-0.18422242999076843,-0.46818262338638306
247,0.16338903995470436,-0.06826785318723244,2.1486607153029342,0.16228413581848145,0.06821484118700027,-0.9843833446502686,0.5888203978538513,0.29163265228271484,-0.6857804656028748,-0.14871907234191895,-0.16411632299423218,0.37580180168151855
248,0.15349011351164954,-0.031433527360137443,2.0773138758314476,0.15281261503696442,0.03142835199832916,-0.987755298614502,0.46237996220588684,-0.7097776532173157,-0.8840548396110535,-0.08662000298500061,-0.018336310982704163,0.6653676629066467
249,0.09764975444288086,0.024920351225964654,2.0495541299956415,0.09746436774730682,-0.02491777203977108,-0.9949270486831665,0.621210515499115,-0.4203377664089203,0.9807824492454529,0.035699084401130676,0.15351885557174683,-0.1146310567855835
250,0.07461141889119098,0.041577665960925735,2.18140202527704,0.07447779178619385,-0.04156568646430969,-0.9963560104370117,-0.3606046140193939,-0.4466091990470886,1.4158422946929932,-0.057922013103961945,0.1553504765033722,-0.7635316252708435
251,0.021056705131202384,-0.009957903835395448,2.2886137074356796,0.021054105833172798,0.009957739152014256,-0.9997287392616272,-0.6621485352516174,0.39844563603401184,0.2324240803718567,0.05842892453074455,-0.6461729407310486,0.011935830116271973
252,0.05965553546281647,-0.01549095070658395,2.3310657875499814,0.059613004326820374,0.015490330755710602,-0.9981013536453247,0.41464799642562866,0.09689835458993912,0.5647789239883423,0.07974551618099213,0.0436985120177269,0.382119357585907
253,0.10118778778299299,0.007437584005066951,2.367521462390556,0.10101240873336792,-0.007437515538185835,-0.9948573708534241,0.12282400578260422,0.4532740116119385,-0.05145081505179405,-0.05984419584274292,0.20886878669261932,0.7380519509315491
254,0.134010599272336,0.019298966323761615,2.3525809026784477,0.13358496129512787,-0.01929776929318905,-0.9908494353294373,-0.039137255400419235,0.5339045524597168,-0.14237719774246216,-0.19114112854003906,0.2015792578458786,-0.16749095916748047
255,0.20071892608071695,-0.024393583238092754,2.3446612084208476,0.19931456446647644,0.024391165003180504,-0.9796319603919983,-0.6205779314041138,0.058725614100694656,-0.25065097212791443,0.11002688109874725,-0.033256519585847855,-0.5094732642173767
256,0.16248450068649636,-0.07564366847959116,2.301956565181778,0.16130787134170532,0.07557155191898346,-0.9840064644813538,-0.05471508949995041,-0.6410701274871826,-0.8123988509178162,0.3338550925254822,-0.22474147379398346,-0.27156299352645874
257,0.15298177714258,-0.05106366582461485,2.2394112473649455,0.15218712389469147,0.05104147642850876,-0.9870328307151794,0.6735252141952515,0.3983105719089508,-0.45879998803138733,-0.05804041028022766,-0.09997642040252686,0.4434385299682617
258,0.15512563853823716,-0.0033429801907604207,2.1617602622930026,0.15450336039066315,0.0033429739996790886,-0.9879866242408752,0.6618661284446716,-0.5072250962257385,-0.8134688138961792,-0.15474750101566315,0.007521282881498337,0.7017622590065002
259,0.11875013113960098,0.06829112460411337,2.134406755548556,0.11819508671760559,-0.06823805719614029,-0.9906429648399353,0.47061872482299805,0.27864283323287964,0.8607187271118164,0.05369517207145691,0.1722266972064972,-0.4756045937538147
260,0.11413373245680887,0.07962297522649224,2.2648168617966573,0.11352527886629105,-0.07953886687755585,-0.9903461933135986,-0.46509888768196106,-0.7477973699569702,1.0216542482376099,0.22619639337062836,0.21448759734630585,-0.7523753643035889
261,0.08638778583887856,0.019461180218696895,2.3273222469723285,0.08626403659582138,-0.019459951668977737,-0.9960822463035583,-0.6559885740280151,0.6271417140960693,-0.1755547821521759,-0.11418762803077698,-0.5670726299285889,0.08917611837387085
262,0.10480686247299634,0.014293239242638438,2.351204238512766,0.10460440814495087,-0.014292752370238304,-0.9944112300872803,0.35456177592277527,0.044151194393634796,0.35070720314979553,0.06724007427692413,0.06486038118600845,0.4798543453216553
263,0.1230028908236963,0.028908621947555703,2.379946064132619,0.12264169752597809,-0.028904596343636513,-0.9920300245285034,0.2378428876399994,0.15400724112987518,0.029481712728738785,-0.12332834303379059,0.24461808800697327,0.6327008008956909
264,0.18861137431977923,0.03823815894317941,2.34005685242007,0.18735802173614502,-0.038228839635849,-0.9815475344657898,-0.09186015278100967,1.1043423414230347,-0.5591145753860474,-0.05353844165802002,0.2781732976436615,-0.6372726559638977
265,0.21032979868985194,-0.020946876918956844,2.3082369453771325,0.20873664319515228,0.020945345982909203,-0.9777475595474243,-0.7299380898475647,-0.698383092880249,-0.6703660488128662,0.434802770614624,-0.03359488397836685,-0.6365102529525757
266,0.1151478092662846,-0.041369367483721095,2.2271146093075087,0.11479521542787552,0.04135756939649582,-0.9925279021263123,0.23604069650173187,-0.4661029875278473,-0.7267085909843445,0.19198273122310638,-0.2672944664955139,-0.07114702463150024
267,0.08316061677641405,-0.005074288867177027,2.1862757668462804,0.08306372910737991,0.005074267275631428,-0.9965313076972961,0.12035375088453293,-0.9030366539955139,-0.3107204735279083,-0.18792212009429932,-0.08312296867370605,0.40052300691604614
268,-0.07485034394971844,-0.04906686871306618,2.1460697687848453,-0.07469046860933304,0.049047183245420456,-0.9959998726844788,-0.27275410294532776,-1.0231411457061768,-0.2229154407978058,0.09193290024995804,0.053598690778017044,0.7551093697547913
269,-0.06832462852248969,-0.015260229692464081,2.1944402698314502,-0.06826353073120117,0.015259637497365475,-0.9975506067276001,0.25531789660453796,1.273613691329956,0.8180628418922424,-0.16415834426879883,0.14707861840724945,-0.6001361608505249
270,-0.0716205528196539,-0.03468527022921518,2.2759541250183797,-0.07151629775762558,0.03467831760644913,-0.9968364238739014,-0.45378658175468445,-1.143630862236023,0.7069367170333862,0.4140150845050812,-0.029475070536136627,-0.6595814228057861
271,-0.03226667622725838,-0.10963262125022848,2.3054635207502474,-0.03206739202141762,0.10941313207149506,-0.9934789538383484,-0.6593361496925354,0.9763694405555725,0.34953445196151733,-0.1873845010995865,-0.45917510986328125,0.07581543922424316
272,0.05826561886840205,-0.12166885694256538,2.3505830634375973,0.057802170515060425,0.1213688924908638,-0.9909230470657349,0.014942143112421036,0.38249143958091736,0.13729356229305267,0.0020580552518367767,-0.003098033368587494,0.6589834094047546
273,0.07365029047213845,-0.0996478024475087,2.35681756586069,0.0732186958193779,0.09948297590017319,-0.9923417568206787,0.5048022866249084,0.19728322327136993,0.08809558302164078,-0.177848219871521,0.10132269561290741,0.6459977626800537
274,0.14594853404889493,-0.053607295955643966,2.3588952085515666,0.1452220231294632,0.05358162522315979,-0.9879471659660339,-0.15476146340370178,0.6253973245620728,-0.22519902884960175,-0.1659129559993744,0.2184673249721527,-0.8375838398933411
275,0.15231622781489035,-0.1038649120629128,2.338557370406429,0.15091027319431305,0.10367826372385025,-0.9830955862998962,-0.5580034255981445,-0.3256157636642456,-0.4389006197452545,0.32612526416778564,0.05991120636463165,-0.7000556588172913
276,0.08896700558097419,-0.13733788800012972,2.2714968959701696,0.08801307529211044,0.13690656423568726,-0.9866662621498108,0.12833942472934723,-0.12644131481647491,-0.7369421124458313,0.25903281569480896,-0.21245282888412476,0.1739984154701233
277,0.1423979500392896,-0.09681234172471624,2.220071229837762,0.14125265181064606,0.09666118025779724,-0.9852432608604431,0.41780129075050354,0.9799177646636963,-0.27627187967300415,-0.22348228096961975,-0.06356487423181534,0.5528092384338379
278,0.1552263689964401,-0.05417937247635322,2.1713522748663943,0.15437689423561096,0.05415286868810654,-0.9865268468856812,0.7029029130935669,-0.23869934678077698,-0.2954634726047516,-0.09999458491802216,0.030563924461603165,0.4785618185997009
279,0.15676996722759232,0.010041308649851527,2.202081257817982,0.15612073242664337,-0.010041140019893646,-0.9876869320869446,0.19661298394203186,0.36306828260421753,0.7914237976074219,-0.06154675781726837,0.23854149878025055,-0.7372581362724304
280,0.12022543126086678,0.0067149420406931925,2.3013924505009533,0.11993330717086792,-0.006714891642332077,-0.9927592277526855,-0.5270789861679077,-0.744462788105011,0.8728945851325989,0.3880775570869446,-0.003004956990480423,-0.45006608963012695
281,0.12063174483110238,-0.049280644559881376,2.3336526075974047,0.12019328773021698,0.0492606982588768,-0.9915276169776917,-0.2635273039340973,0.23713387548923492,0.010968711227178574,-0.14147929847240448,-0.3880821168422699,0.11901479959487915
282,0.13549009768408804,-0.0344331488311941,2.3487987809770288,0.13499586284160614,0.03442634642124176,-0.990247905254364,0.2792559564113617,0.09390053153038025,0.13966529071331024,-0.04898206889629364,0.07789359986782074,0.609174907207489
283,0.13703624819947233,-0.007860628963467186,2.358439726620555,0.13660353422164917,0.007860547862946987,-0.9905946254730225,0.461957722902298,-0.2643943727016449,0.07184292376041412,-0.14807814359664917,0.18150103092193604,0.39710402488708496
284,0.16460263004791117,-0.0007047069141204557,2.3637637383857584,0.16386030614376068,0.0007047068793326616,-0.9864832758903503,-0.4712546765804291,0.6996637582778931,-0.009213211014866829,-0.19996261596679688,0.15334802865982056,-0.5095798969268799
285,0.17372782457945468,-0.07436458518930375,2.354312627160898,0.17237751185894012,0.07429606467485428,-0.9822250604629517,-0.32798752188682556,-0.41158154606819153,-0.6105659604072571,0.5225535035133362,-0.16409403085708618,-0.6081527471542358
286,0.15740372084414175,-0.06683296304939104,2.2748019308856304,0.15640459954738617,0.06678321957588196,-0.9854326844215393,0.5995928049087524,0.3357444405555725,-0.7481473088264465,-0.04158222675323486,-0.14686134457588196,0.4016467332839966
287,0.17561301294000722,-0.03191267028944421,2.18892954447983,0.1746228039264679,0.031907252967357635,-0.9841182827949524,0.4824269711971283,-0.47501441836357117,-0.7920538187026978,-0.1758434921503067,0.011412445455789566,0.6641109585762024
288,0.10553026952855293,0.03466888050960294,2.138058978647734,0.10527120530605316,-0.03466193750500679,-0.9938392639160156,0.8103757500648499,-0.31971028447151184,0.1644102782011032,0.04791177809238434,0.11533515155315399,-0.16764450073242188
289,0.12372441378631076,0.04714009205787554,2.2167922015424417,0.12327190488576889,-0.04712263494729996,-0.9912534952163696,-0.38884037733078003,-0.5846956372261047,1.0669230222702026,-0.03635784983634949,0.16354718804359436,-0.7903016805648804
290,0.09824443406948415,-0.017219819441168818,2.3058294918486704,0.09807192534208298,0.017218967899680138,-0.9950303435325623,-1.063202142715454,1.2419419288635254,0.34031084179878235,0.017635464668273926,-0.507315993309021,0.0006608963012695312
291,0.15759491975003848,-0.06136359651970913,2.347103396976233,0.15664799511432648,0.06132509186863899,-0.9857487678527832,0.01613420993089676,0.10672198981046677,0.5967879295349121,-0.028260543942451477,-0.05319215729832649,0.4211277961730957
292,0.16263876703240615,-0.05170908318867753,2.3857980855860097,0.16170628368854523,0.05168604105710983,-0.9854844808578491,0.16211213171482086,-0.11090996861457825,0.1505541056394577,-0.09206517040729523,0.10561680793762207,0.6090501546859741
293,0.1720922199885369,-0.008577581999350287,2.406698494204348,0.1712377369403839,0.008577477186918259,-0.9851924180984497,0.09465134143829346,0.8745379447937012,0.35191887617111206,-0.1861455738544464,0.15488992631435394,-0.5287846326828003
294,0.19849043198842206,-0.0369016369263937,2.4192635519041987,0.197055384516716,0.03689326345920563,-0.9796979427337646,-0.7251302003860474,-0.45661845803260803,-0.24755524098873138,0.091824010014534,0.08755742013454437,-0.5572283267974854
295,0.1257286128330194,-0.09027617885793332,2.367553358643097,0.12488698959350586,0.09015360474586487,-0.988066554069519,-0.08988475054502487,-0.5847134590148926,-1.0083853006362915,0.36549997329711914,-0.23373880982398987,-0.04789835214614868
296,0.12086680074737265,-0.06299142846295826,2.2617347890126926,0.12033359706401825,0.0629497766494751,-0.990735650062561,0.5819903016090393,0.7755357027053833,-0.7126306295394897,-0.17563144862651825,-0.0857464075088501,0.47733843326568604
297,0.13660505399815578,-0.026433905879262323,2.176155397910851,0.13613301515579224,0.026430826634168625,-0.9903379082679749,0.6107895374298096,-0.3944316506385803,-0.9195311665534973,-0.12047751247882843,0.022671954706311226,0.6916929483413696
298,0.12478607216840139,0.0252666768461863,2.148607217821195,0.12442274391651154,-0.025263989344239235,-0.9919075965881348,0.2590736448764801,0.15581649541854858,0.6210615038871765,0.054532334208488464,0.12685701251029968,-0.5492453575134277
299,0.11776822483599579,0.02030227802286369,2.2695936781731696,0.11747197061777115,-0.020300883799791336,-0.9928686618804932,-0.4432729482650757,-0.7988522052764893,1.2031259536743164,0.47693416476249695,0.17851926386356354,-0.9529015421867371
300,0.08539617565181665,-0.032676275622427156,2.3322818845011617,0.08524689078330994,0.032670460641384125,-0.9958240985870361,-0.39615190029144287,-0.10474291443824768,0.36609745025634766,-0.14272674918174744,-0.4788984954357147,0.12338757514953613
301,0.07688295009717233,-0.0200815795335735,2.379437578512799,0.07679174095392227,0.02008022926747799,-0.9968449473381042,0.1557309478521347,0.10523322224617004,0.5856626033782959,0.03493311256170273,0.05281100422143936,0.6924626231193542
302,0.10625053175839029,0.002064521136226642,2.4208414749457754,0.106050506234169,-0.0020645195618271828,-0.9943585991859436,0.36795875430107117,0.2284110188484192,0.20995254814624786,-0.1694812923669815,0.2188919186592102,0.7507367730140686
303,0.19782932493448988,0.029575514556491603,2.440234137913508,0.19645550847053528,-0.029571203514933586,-0.98006671667099,-0.3826386332511902,1.0740630626678467,0.08045832812786102,-0.2627244293689728,0.14346280694007874,-0.905278742313385
304,0.18085032464012044,-0.03249669149093489,2.428059414485075,0.17977112531661987,0.03249097242951393,-0.9831717610359192,-0.5296038389205933,-0.8161821365356445,-0.5644024014472961,0.6039050221443176,0.09162401407957077,-0.8016640543937683
305,0.12157233141477963,-0.03734272020058057,2.3421228709738195,0.12118853628635406,0.03733404353260994,-0.9919271469116211,0.42124173045158386,-0.02519444189965725,-0.9331970810890198,0.12444744259119034,-0.18174323439598083,0.21809297800064087
306,0.13300247619288824,-0.01312795299012734,2.2486653734217996,0.13259926438331604,0.013127575628459454,-0.9910827875137329,0.27960631251335144,-0.16253194212913513,-0.9558278918266296,-0.21543923020362854,-0.03799940273165703,0.8691040277481079
307,0.09686211451183559,0.028816841313264178,2.1582854067643087,0.09667056798934937,-0.02881285361945629,-0.9948992729187012,0.7023354768753052,-0.3559357523918152,-0.20955467224121094,-0.10155338793992996,0.11087462306022644,0.29133182764053345
308,0.13742169129266502,0.047562059976360135,2.2266405207952333,0.13683465123176575,-0.04754412919282913,-0.9894523024559021,-0.5099170207977295,0.6061424016952515,1.6226584911346436,-0.43648675084114075,0.11355365812778473,-0.8724861741065979
309,0.06453782922925197,0.011313332090102188,2.341732421048491,0.06448891013860703,-0.011313091032207012,-0.9978542923927307,-0.7022421360015869,0.33011308312416077,0.6532154083251953,0.19681784510612488,-0.4512265920639038,-0.2660464644432068
310,0.06763221398876844,-0.022369000091662167,2.399634900917793,0.06756375730037689,0.02236713469028473,-0.9974642395973206,0.14060676097869873,-0.2343168407678604,0.7336286902427673,0.04867769032716751,-0.06356586515903473,0.35046106576919556
311,0.061119145008281424,0.005175488258715651,2.4316424619330776,0.06108028069138527,-0.005175465252250433,-0.9981194138526917,0.2868484854698181,0.09010034054517746,-0.13902458548545837,-0.018935509026050568,0.13131988048553467,0.8762933015823364
312,0.061248585764173274,0.06394229190237229,2.406579333146509,0.061085209250450134,-0.0638987272977829,-0.9960851073265076,0.6102328896522522,0.1774526685476303,0.0565357431769371,-0.19218872487545013,0.2779795527458191,-0.07639414072036743
313,0.169466724454123,0.03842581447445943,2.4292013016514464,0.16853223741054535,-0.038416359573602676,-0.9849472641944885,-0.932895839214325,0.5897154211997986,-0.015921257436275482,-0.14355359971523285,0.04882284998893738,-0.5132216811180115
314,0.1349509419182944,-0.04758070336225134,2.3906987813250296,0.13438943028450012,0.04756275191903114,-0.9897864460945129,-0.2684841752052307,-0.32570749521255493,-1.0009920597076416,0.4454445242881775,-0.16117969155311584,-0.4151817560195923
315,0.12384134378104227,-0.03793537066937203,2.2771784497523035,0.12343616038560867,0.03792627155780792,-0.9916275143623352,0.6847233772277832,0.40375569462776184,-1.043330430984497,-0.019096560776233673,-0.15293176472187042,0.4544418454170227
316,0.1651425631939774,0.0024348626445562477,2.1719932865207374,0.16439247131347656,-0.0024348602164536715,-0.9863920211791992,0.5250198245048523,-0.1493380218744278,-1.0622282028198242,-0.16851234436035156,-0.0171116441488266,0.7461271286010742
317,0.14599968206109992,0.06440211813097779,2.106465375199567,0.14517995715141296,-0.06435760855674744,-0.9873099327087402,0.6056910157203674,0.045609213411808014,0.4807477593421936,-0.056022852659225464,0.15331634879112244,-0.21386194229125977
318,0.16825462442218997,0.07241539751824147,2.2150503941357544,0.16702298820018768,-0.07235212624073029,-0.9832947254180908,-0.4235425293445587,-0.08373522758483887,1.374732255935669,-0.06182889640331268,0.15862531960010529,-0.7957732677459717
319,0.1333942226323477,0.01585114582034165,2.3110333871856876,0.1329822689294815,-0.015850482508540154,-0.9909916520118713,-0.9224064350128174,0.6627737879753113,0.11354392766952515,-0.0035877525806427,-0.5913882851600647,-0.03600108623504639
320,0.16436601765216127,-0.018905781967351425,2.34147499326012,0.1635976880788803,0.018904656171798706,-0.9863460063934326,0.16713674366474152,-0.11187528073787689,0.6318414807319641,0.02199496328830719,0.006348639726638794,0.3432643413543701
321,0.15223296591363894,0.003212448877876564,2.385701463279741,0.15164487063884735,-0.003212443320080638,-0.988429844379425,0.13936790823936462,0.001683744601905346,0.14163880050182343,-0.14641110599040985,0.12615250051021576,0.8129842877388
322,0.16235430152735655,0.03462232814258494,2.388903730680426,0.16154512763023376,-0.0346154123544693,-0.9862580299377441,-0.05685034021735191,0.8507819771766663,0.2654614746570587,-0.05323825776576996,0.2720421552658081,-0.4674009680747986
323,0.22997400519421543,-0.0299178123842251,2.4013590652751273,0.22785019874572754,0.029913349077105522,-0.973236620426178,-0.8806517720222473,-0.6309334635734558,-0.6617724299430847,0.46529555320739746,0.04604490101337433,-0.7609400153160095
324,0.16223366435274636,-0.0687018762921129,2.300980936540538,0.16114190220832825,0.0686478465795517,-0.9845408797264099,0.29430878162384033,-0.16421912610530853,-1.039574384689331,0.24240727722644806,-0.2232804298400879,-0.023027420043945312
325,0.19312557111160544,-0.029314708894977764,2.207293298374276,0.19184483587741852,0.02931050956249237,-0.9809874892234802,0.567029595375061,0.47534698247909546,-0.7882021069526672,-0.24534215033054352,-0.07246236503124237,0.6391143202781677
326,0.17048671892869716,0.022750241129950236,2.1165954533874505,0.1696181297302246,-0.022748278453946114,-0.9852472543716431,1.0182900428771973,-0.5255874991416931,-0.38486248254776,-0.0866713672876358,0.006207751110196114,0.36256664991378784
327,0.15290351888794906,0.07823426515519577,2.133317819106109,0.15184254944324493,-0.07815448194742203,-0.9853099584579468,-0.08480443805456161,-0.1373455822467804,0.8958389163017273,-0.15237660706043243,0.21806231141090393,-0.8133655190467834
328,0.08575067217691058,0.06009768592770026,2.248048596084358,0.08549100160598755,-0.06006151810288429,-0.9945269823074341,-0.6486750245094299,-0.34706008434295654,0.9141578078269958,0.42227572202682495,-0.0932740569114685,-0.17164123058319092
329,0.1429502383594532,-0.008674745464096306,2.3001476258851543,0.14245851337909698,0.008674636483192444,-0.9897627830505371,-0.40290117263793945,0.5936869382858276,0.33704882860183716,-0.06958253681659698,-0.22998811304569244,-0.00820779800415039
330,0.17251322403374567,-0.009475126285644378,2.351279569140502,0.17165109515190125,0.009474984370172024,-0.9851122498512268,-0.06352018564939499,0.07838911563158035,0.4766879975795746,-0.10017894208431244,0.0493171289563179,0.6490679383277893
331,0.17442250417339947,0.014326386926637832,2.3670259659054276,0.17352162301540375,-0.014325897209346294,-0.984725832939148,0.4214768707752228,0.05912179499864578,0.04300227761268616,-0.11994802951812744,0.23049716651439667,0.20736688375473022
332,0.22707466332751053,0.017122227465278188,2.3694477314040916,0.2250952571630478,-0.017121391370892525,-0.9741863012313843,-0.4935324788093567,0.6575677990913391,-0.028008954599499702,-0.21815252304077148,0.17236430943012238,-0.556087076663971
333,0.20397863117618312,-0.04795586390724774,2.3452425761713567,0.2023341804742813,0.047937486320734024,-0.9781425595283508,-0.3247464895248413,-0.6666897535324097,-0.7258709669113159,0.475995272397995,-0.09044846892356873,-0.47380751371383667
334,0.17368083266821394,-0.05822131707019426,2.259333305290326,0.17251616716384888,0.05818843096494675,-0.983286440372467,0.37987735867500305,0.4821736812591553,-0.7926484942436218,-0.04139739274978638,-0.18794916570186615,0.30591827630996704
335,0.22037696301708154,-0.028619587066897677,2.19411027230452,0.21850796043872833,0.02861567959189415,-0.9754155278205872,0.3235979676246643,-0.10797957330942154,-0.5950234532356262,-0.18222257494926453,-0.012578696012496948,0.6028569340705872
336,0.19120393500448757,0.017537041946889306,2.150101638429293,0.19001179933547974,-0.017536142840981483,-0.9816251993179321,0.604288637638092,-0.20484742522239685,0.4119078516960144,-0.014795124530792236,0.13127514719963074,-0.05751359462738037
337,0.18117901897457248,0.05002007160353142,2.2320539448557266,0.17996405065059662,-0.049999214708805084,-0.9824016690254211,-0.14388146996498108,-0.32446861267089844,1.1990076303482056,-0.14663885533809662,0.2037162482738495,-0.7602435946464539
338,0.1173921497319769,0.011686141018536173,2.322966000765608,0.11711470782756805,-0.011685875244438648,-0.9930496215820312,-0.8206390142440796,0.24910415709018707,0.35924410820007324,0.13982802629470825,-0.45857474207878113,-0.033424317836761475
339,0.1622247217673561,-0.03360794949793189,2.3508127683428253,0.16142290830612183,0.03360162302851677,-0.9863131046295166,0.11378596723079681,0.2538638114929199,0.33002689480781555,0.044402897357940674,0.03651250898838043,0.2951509952545166
340,0.20034938188968962,-0.01917208553610371,2.376606154751316,0.19897516071796417,0.019170910120010376,-0.9798170328140259,0.02645600028336048,0.32213833928108215,-0.004940998740494251,-0.14936883747577667,0.16578087210655212,0.7004438638687134
341,0.21312828087327806,0.00033160817863966274,2.3570055260762794,0.21151842176914215,-0.0003316081711091101,-0.9773739576339722,0.32201477885246277,0.3015400767326355,-0.15081466734409332,-0.20996202528476715,0.12995502352714539,-0.23348724842071533
342,0.2453197143445108,-0.02248967288002777,2.339305235386587,0.24280506372451782,0.02248777635395527,-0.9698144197463989,-0.5359334945678711,-0.0030416222289204597,-0.4239199757575989,0.09471935033798218,0.05685792118310928,-0.5415991544723511
343,0.1933770291348409,-0.07083069569078698,2.282485103909463,0.19169220328330994,0.0707714855670929,-0.978900134563446,0.1664317399263382,-0.6292865872383118,-0.9876279830932617,0.3446236848831177,-0.2485211193561554,-0.09481501579284668
344,0.19151127277193394,-0.03518131740157306,2.188818709616539,0.19022497534751892,0.035174060612916946,-0.9811102151870728,0.6877790689468384,0.6383365988731384,-0.6133621335029602,-0.12134680151939392,-0.09639231860637665,0.49333250522613525
345,0.21908844427069862,0.010151702381424129,2.109622037537526,0.217328742146492,-0.01015152782201767,-0.9760456681251526,0.6824039816856384,-0.28798410296440125,-0.7155575752258301,-0.2151162326335907,0.00923600047826767,0.6899281144142151
346,0.20792687948969482,0.07326113583688575,2.098324509498708,0.2058781385421753,-0.07319562137126923,-0.9758363366127014,0.39721959829330444,-0.06224833428859711,0.7797606587409973,0.1791163682937622,0.07652203738689423,-0.5719389319419861
347,0.17213018655426268,0.08375857877927427,2.244230573662883,0.17068098485469818,-0.08366067707538605,-0.9817682504653931,-0.283058226108551,-1.1099005937576294,1.0947978496551514,0.5305366516113281,0.16300639510154724,-0.8756994009017944
348,0.16022882080457818,0.04431539811321389,2.325083259353568,0.159387469291687,-0.04430089518427849,-0.9862216114997864,-0.7606076002120972,0.5298094153404236,0.35600417852401733,-0.253351092338562,-0.575480580329895,0.2515566945075989
349,0.16413607664082852,0.02640651008904421,2.3598668223398938,0.16334311664104462,-0.02640344202518463,-0.9862159490585327,-0.006747485138475895,-0.1807723492383957,0.10552633553743362,-0.024060875177383423,0.06641198694705963,0.5906318426132202
350,0.15925876412156814,0.033244831328128,2.361026112054378,0.15849876403808594,-0.03323870897293091,-0.9867995381355286,0.43024444580078125,-0.05416572839021683,0.01811760663986206,-0.11058616638183594,0.1760914921760559,0.6690962910652161
351,0.20000815958363044,0.06732090510766106,2.3680282490485647,0.19822728633880615,-0.06727006286382675,-0.9778448939323425,-0.23429390788078308,1.194101333618164,0.1017451360821724,-0.14552344381809235,0.20293596386909485,-0.8027489185333252
352,0.22218783094004976,0.009641752592725303,2.366353488266559,0.22035396099090576,-0.00964160356670618,-0.975372314453125,-0.7686125040054321,-0.7143734693527222,-0.67591392993927,0.48913395404815674,0.050901368260383606,-0.60296630859375
353,0.1538619978292283,-0.02236895000970511,2.2971051041234345,0.15321730077266693,0.0223670843988657,-0.9879393577575684,0.30409809947013855,0.006861134432256222,-0.7614495158195496,0.23707200586795807,-0.29815444350242615,0.08219289779663086
354,0.2262450381163356,0.017233102213752412,2.220108645773787,0.2242865413427353,-0.017232248559594154,-0.9743708968162537,0.5288488864898682,0.8831899166107178,-0.6721975803375244,-0.2932257652282715,-0.1075846403837204,0.5848445296287537
355,0.22551837104307967,0.06663310174132703,2.1391523227285334,0.22311539947986603,-0.06658380478620529,-0.972515344619751,0.8854253888130188,-0.7171578407287598,-0.3548545837402344,-0.16966387629508972,0.08187311887741089,0.462810754776001
356,0.19280774171443057,0.12166046727557131,2.191217261652885,0.19019903242588043,-0.12136057019233704,-0.974215567111969,-0.22904512286186218,0.40943843126296997,1.5675947666168213,-0.05430425703525543,0.14974191784858704,-0.934658944606781
357,0.16345206074937016,0.08852241873998154,2.3382303594828744,0.1620880663394928,-0.08840685337781906,-0.9828080534934998,-0.7382206320762634,0.11275268346071243,0.7818043231964111,0.4495757520198822,-0.09909315407276154,-0.22648149728775024
358,0.22182643573634694,0.01739628968011867,2.337763349487282,0.21997837722301483,-0.017395412549376488,-0.9753496646881104,-0.177827849984169,0.20948973298072815,-0.14516682922840118,-0.2617111802101135,-0.17117270827293396,0.17336297035217285
359,0.2087275642309939,0.021875138742692177,2.348984145970135,0.2071656733751297,-0.021873394027352333,-0.978061318397522,0.011753479018807411,-0.1806865632534027,-0.00600806437432766,-0.126248300075531,0.08303061872720718,0.6796451807022095
360,0.19476413472864998,0.03713368336816963,2.3294650217414303,0.19340170919895172,-0.037125151604413986,-0.980417013168335,0.3598477840423584,-0.08420459181070328,-0.04162268713116646,-0.04388083517551422,0.1856847107410431,0.20540785789489746
361,0.3021280928938282,0.024275301249835828,2.353132841602189,0.29746490716934204,-0.024272916838526726,-0.9544241428375244,-0.7460463047027588,1.108436942100525,0.16568975150585175,-0.20397430658340454,0.050594329833984375,-0.6160562038421631
362,0.27854263814906854,-0.04260308432023946,2.3286829498973676,0.27470526099205017,0.042590197175741196,-0.9605847597122192,0.03904855623841286,-0.6214723587036133,-0.794574499130249,0.38212454319000244,-0.1624022126197815,-0.4190080761909485
363,0.2465338024243148,-0.01916525712125433,2.2425044838783488,0.24399921298027039,0.019164083525538445,-0.9695860743522644,0.8440818190574646,0.005505557172000408,-0.7278683185577393,-0.07708331942558289,-0.1198415756225586,0.5340391993522644
364,0.22985035833303769,0.04458134853736792,2.1509659914201094,0.2276054471731186,-0.04456658288836479,-0.9727330207824707,0.9010902643203735,-1.0491642951965332,-0.667775571346283,-0.17337572574615479,0.04931207001209259,0.5912785530090332
365,0.1900885580403537,0.11253147003330263,2.121783416823958,0.18775077164173126,-0.11229411512613297,-0.9757764339447021,0.4081517457962036,0.6650166511535645,0.7348194122314453,0.049584418535232544,0.15485087037086487,-0.17797112464904785
366,0.22021535705696477,0.1310811302242043,2.2598529729151564,0.2165658175945282,-0.1307060718536377,-0.9674787521362305,-0.4328213632106781,-0.41063129901885986,1.2392560243606567,0.08937288820743561,0.05435110628604889,-0.8089036345481873
367,0.19602688016300518,0.07599801014498944,2.342555086884954,0.19421164691448212,-0.07592487335205078,-0.9780169725418091,-0.632757842540741,0.465559184551239,-0.03224463388323784,0.05397254228591919,-0.5317411422729492,0.05824774503707886
368,0.2179573202584278,0.06618366732608,2.3632501677944107,0.21576230227947235,-0.06613536179065704,-0.9742036461830139,0.016866076737642288,0.2647448480129242,0.40632811188697815,-0.003909289836883545,0.06874460726976395,0.4195008873939514
369,0.2540840444194539,0.05913397288145521,2.396081883902028,0.2509196102619171,-0.05909951403737068,-0.9662021398544312,-0.0804021954536438,0.4320356547832489,0.10862506926059723,-0.17888286709785461,0.18857033550739288,0.6526035070419312
370,0.28543932224296564,0.06931513163962418,2.4046457223928237,0.2809028625488281,-0.0692596435546875,-0.9572338461875916,0.008007454685866833,0.8464754223823547,0.1985694169998169,-0.14841079711914062,0.167572021484375,-0.43270450830459595
371,0.35376461546391863,0.03194231471120134,2.4095840193843614,0.34625503420829773,-0.0319368839263916,-0.9375966787338257,-0.5724947452545166,-0.37007996439933777,-0.3630082309246063,0.38239794969558716,0.049820177257061005,-0.7503153085708618
372,0.2934098861910198,-0.007663458781900789,2.375439361748708,0.2892095744609833,0.007663383614271879,-0.9572351574897766,0.05932527408003807,-0.5315660238265991,-0.6971679925918579,0.2985589802265167,-0.26294293999671936,0.01997929811477661
373,0.28761541950708797,0.016477753462926164,2.3018806281831643,0.2836278975009918,-0.016477007418870926,-0.9587928652763367,0.6725359559059143,0.4311569631099701,-0.5295102000236511,-0.09301510453224182,-0.017122849822044373,0.47618788480758667
374,0.30905152095223903,0.047868923174601855,2.2252044908668855,0.3038068115711212,-0.04785064235329628,-0.9515312314033508,0.5988106727600098,-0.6462140083312988,-0.6970969438552856,-0.2383008599281311,0.08195403963327408,0.5482414960861206
375,0.25496297185172945,0.1121732427233796,2.1935770571965345,0.25062447786331177,-0.11193814873695374,-0.9615910053253174,0.41809287667274475,0.008947575464844704,0.5651673674583435,0.08220022916793823,0.06480374187231064,-0.4885737895965576
376,0.22068879903725028,0.12098099279878173,2.3110182427248054,0.21730175614356995,-0.12068608403205872,-0.9686148762702942,-0.5778423547744751,-0.9925414323806763,1.0263961553573608,0.5238175988197327,0.07086614519357681,-0.719251275062561
377,0.23459382382042154,0.054708791586158524,2.398922828928635,0.23210017383098602,-0.054681506007909775,-0.9711536765098572,-0.8776386976242065,0.7757666110992432,0.3100437521934509,-0.16200129687786102,-0.4589751064777374,0.19794505834579468
378,0.2545228431044596,0.0385216756184477,2.4303064924945237,0.2515968680381775,-0.03851214796304703,-0.9670655727386475,0.03848227113485336,-0.1252303123474121,0.14564228057861328,-0.11033099889755249,0.06616107374429703,0.48191237449645996
379,0.2529889182914713,0.0378473173007353,2.4388129258638624,0.2501195967197418,-0.03783828392624855,-0.9674752950668335,0.20979470014572144,0.0479261614382267,-0.036011453717947006,-0.12576046586036682,0.17437392473220825,0.639518141746521
380,0.28831635565583635,0.06212330640682592,2.4281760118075586,0.2837899923324585,-0.06208335608243942,-0.9568745493888855,-0.18375417590141296,1.360571026802063,-0.016385532915592194,-0.1481698751449585,0.16105186939239502,-0.7615092396736145
381,0.34764366408693154,-0.006489068425101803,2.4319600171154647,0.3406762182712555,0.006489023100584745,-0.9401583075523376,-0.762911319732666,-0.7488151788711548,-0.8587008118629456,0.4893103539943695,-0.030643679201602936,-0.6008115410804749
382,0.25486566056904364,-0.05845841415502686,2.3581640204489953,0.2516847550868988,0.05842512473464012,-0.9660441279411316,0.13847716152668,-0.5470953583717346,-0.7439876198768616,0.1936582624912262,-0.3123771548271179,0.0012462139129638672
383,0.26058629055944643,-0.026418422713146306,2.305423742575458,0.2575571835041046,0.026415349915623665,-0.9659019112586975,0.5411115288734436,0.5922455191612244,-0.1629040390253067,-0.1787913739681244,-0.08536006510257721,0.4536338448524475
384,0.27424732952242364,0.016069906660317067,2.2661767112385327,0.2707875072956085,-0.016069214791059494,-0.962505042552948,0.6942704319953918,-0.5093662142753601,-0.21959351003170013,-0.1803334355354309,0.02366809733211994,0.689616858959198
385,0.2602005215009137,0.09263619766381496,2.2638074527580807,0.25617122650146484,-0.09250376373529434,-0.962195098400116,0.5206639170646667,0.6586716771125793,0.833027720451355,0.13715457916259766,0.27628061175346375,-0.7370389103889465
386,0.2618618577592982,0.09551692163367262,2.416783965853999,0.2576993405818939,-0.09537174552679062,-0.9615067839622498,-0.627544641494751,-1.4561357498168945,1.2137640714645386,0.5509706735610962,0.031284838914871216,-0.5654249787330627
387,0.24895379850226043,0.03510589830788416,2.4807997964322754,0.2462383359670639,-0.035098686814308167,-0.9685735702514648,-0.846759557723999,0.5199066996574402,-0.34937870502471924,-0.1702800840139389,-0.6162227392196655,0.041403770446777344
388,0.23994978554022695,0.018327887908367275,2.526471073332535,0.23761393129825592,-0.018326861783862114,-0.9711867570877075,-0.08226125687360764,-0.4135177731513977,0.36428284645080566,0.011775702238082886,0.03469954431056976,0.4859725832939148
389,0.2208496589911671,0.013248620353673949,2.5471017309237207,0.21903949975967407,-0.013248233124613762,-0.9756260514259338,0.20412635803222656,-0.003305865451693535,-0.10434886068105698,-0.10995441675186157,0.1610296070575714,0.6742191910743713
390,0.2412638087241451,0.034498015889091765,2.5517952317635846,0.23878785967826843,-0.034491173923015594,-0.9704590439796448,-0.24435052275657654,0.8228604793548584,0.20760472118854523,-0.09666749835014343,0.1168275997042656,-0.5619658827781677
391,0.28809539612006607,-0.006123457075273511,2.5688899403871406,0.2841213047504425,0.006123418919742107,-0.9587687849998474,-0.663325309753418,-0.33836570382118225,-0.25381508469581604,0.2867405116558075,0.06472314149141312,-0.6087360978126526
392,0.240049951328433,-0.03910862502925478,2.524926751701218,0.23756934702396393,0.03909865766763687,-0.9705833792686462,0.20845383405685425,-0.23246803879737854,-0.6486673951148987,0.24338768422603607,-0.19307509064674377,0.13862842321395874
393,0.24836411747567988,0.0023092431863831675,2.434189808986357,0.24581794440746307,-0.002309241099283099,-0.9693132638931274,0.6651465892791748,0.7061378955841064,-0.5469575524330139,-0.11770516633987427,0.06981413066387177,0.34524405002593994
394,0.2945181555859476,0.038130152755668334,2.360582225387584,0.29006779193878174,-0.03812091425061226,-0.956246554851532,0.543101966381073,-0.3104528784751892,-0.6890063881874084,-0.18806278705596924,0.08427874743938446,0.523324191570282
395,0.2704167596419032,0.08934052848502769,2.305731217157716,0.2660676836967468,-0.08922173082828522,-0.9598163962364197,0.4740147888660431,0.05152430385351181,0.00468809949234128,0.029342472553253174,0.01749015599489212,-0.4522777199745178
396,0.2502932688822405,0.11064804319150233,2.374383291774524,0.2461734265089035,-0.11042240262031555,-0.9629151225090027,-0.21449707448482513,-0.910309910774231,0.8295990228652954,0.3477902114391327,0.13332584500312805,-0.6210845112800598
397,0.21475309347614435,0.072980813370325,2.4604409536903624,0.2125389277935028,-0.07291604578495026,-0.9744282960891724,-0.7883645296096802,0.5243347883224487,0.3006313741207123,-0.06088182330131531,-0.5152034759521484,-0.020719408988952637
398,0.21812044851350096,0.050985739848706774,2.5138874584066095,0.21611379086971283,-0.05096365138888359,-0.9750372171401978,0.004028574097901583,-0.03932689502835274,0.5043673515319824,0.04020334780216217,0.04623343050479889,0.40875303745269775
399,0.24072447304781064,0.06253342174553571,2.560959904971355,0.23794029653072357,-0.062492676079273224,-0.9692673087120056,0.08379101753234863,0.3360944390296936,0.3308042287826538,-0.15438315272331238,0.16295653581619263,0.5153641104698181
400,0.27954078770564167,0.08919633806672679,2.5862504688669876,0.27481743693351746,-0.08907811343669891,-0.9573612213134766,-0.025102771818637848,0.9592169523239136,0.47618260979652405,-0.055777519941329956,0.2020541876554489,-0.33293724060058594
401,0.37473185285212074,0.03776327207596646,2.610146425905664,0.36576205492019653,-0.03775429725646973,-0.9299423098564148,-0.7801640629768372,0.031986054033041,-0.3006838858127594,0.33087795972824097,0.10297035425901413,-0.5201919078826904
402,0.37278924670651375,-0.012864672442897103,2.5827706805800386,0.3641843795776367,0.012864317744970322,-0.9312379956245422,0.2402493953704834,-0.10514378547668457,-0.6430445909500122,0.2553071677684784,-0.2583324611186981,-0.014928936958312988
403,0.39650238733723503,0.028587726223972907,2.489069907225793,0.3860366642475128,-0.0285838320851326,-0.9220404624938965,0.722150981426239,0.9196067452430725,-0.5604884028434753,-0.23871305584907532,0.0903208926320076,0.33202892541885376
404,0.41887985527864346,0.05709079834324679,2.417086138690254,0.40607473254203796,-0.057059790939092636,-0.9120567440986633,0.6188024878501892,-0.4594297707080841,-0.49468180537223816,-0.23943349719047546,0.047263652086257935,0.5371940732002258
405,0.3689571875393324,0.10936321440529766,2.3832509022030517,0.35848844051361084,-0.10914534330368042,-0.9271317720413208,0.27290767431259155,-0.2325170636177063,0.3597642183303833,0.08786165714263916,0.05236738920211792,-0.6025007963180542
406,0.3131529071093425,0.12441928204855783,2.4834868374873955,0.3056783974170685,-0.1240985244512558,-0.9440128803253174,-0.36514154076576233,-1.5749156475067139,1.0749768018722534,0.5300302505493164,0.049650900065898895,-0.4487178325653076
407,0.2886096512608585,0.09833618931337873,2.5685996749173,0.28324463963508606,-0.09817778319120407,-0.9540092349052429,-0.2513611614704132,-0.01099378801882267,-0.22279563546180725,-0.18357422947883606,-0.6519442796707153,-0.02392655611038208
408,0.256849858948009,0.10929628463077509,2.6027606774833276,0.2525192201137543,-0.10907880961894989,-0.9614238739013672,-0.10692010819911957,-0.09222887456417084,0.7388704419136047,0.016966253519058228,0.05443708598613739,0.4180126190185547
409,0.2720185597488333,0.09599608197808442,2.6806944717812295,0.2674393057823181,-0.09584870934486389,-0.9587957262992859,-0.16169974207878113,0.1523195058107376,0.44183963537216187,-0.23129123449325562,0.18357150256633759,0.6094152331352234
410,0.30079449629155974,0.10422144236719863,2.709939165161655,0.2946714758872986,-0.10403286665678024,-0.9499188661575317,-0.10124578326940536,0.866866946220398,0.30926597118377686,-0.05280444025993347,0.25468289852142334,-0.473558247089386
411,0.3599838857464115,0.049616123305354386,2.7080648402406577,0.35182565450668335,-0.04959576949477196,-0.9347507357597351,-0.6979231238365173,-0.5119277238845825,-0.8467260599136353,0.43690112233161926,0.07240766286849976,-0.5077540874481201
412,0.28536058958761124,-0.0023633380278763614,2.6338578487003006,0.28150269389152527,0.002363335806876421,-0.9595575332641602,0.14149798452854156,-0.4938866198062897,-0.8234918117523193,0.25543883442878723,-0.26161015033721924,-0.046957969665527344
413,0.2918445088886186,0.0278579252103363,2.539357435235881,0.2876075804233551,-0.027854321524500847,-0.9573432207107544,0.7306805849075317,0.5386469960212708,-0.7483087182044983,-0.08320087194442749,0.021552443504333496,0.3952857255935669
414,0.3218552571486131,0.06167994098197435,2.439413601720479,0.31572556495666504,-0.06164084002375603,-0.9468462467193604,0.6299310922622681,-0.4185248911380768,-0.7706672549247742,-0.29079270362854004,0.07598410546779633,0.48857903480529785
415,0.25575177107503905,0.10121064943713122,2.403421441747754,0.2516782283782959,-0.10103794187307358,-0.9625224471092224,-0.048780232667922974,-0.7578945159912109,0.5770146250724792,0.036926478147506714,-0.05316736549139023,-0.5498524308204651
416,0.18206169672339387,0.08080651835407854,2.539060053435789,0.18046677112579346,-0.08071860671043396,-0.980263352394104,-0.6405432820320129,-0.6361837387084961,1.7265582084655762,0.580046534538269,-0.07048073410987854,-0.5095895528793335
417,0.22569731658936718,0.034534151170646614,2.655034095723678,0.22365261614322662,-0.034527286887168884,-0.9740571975708008,-0.124058797955513,-0.3438960015773773,0.6027853488922119,-0.30412745475769043,-0.3358950614929199,0.11373615264892578
418,0.19153767608544942,0.05733747078085585,2.7079108557745313,0.19005583226680756,-0.05730605870485306,-0.9800993800163269,0.013038652017712593,0.14901825785636902,0.5970531105995178,-0.07576750218868256,0.15682388842105865,0.5467802882194519
419,0.22192275024329702,0.05731282247905863,2.758994522469165,0.2197442203760147,-0.05728144943714142,-0.9738743901252747,-0.04637899622321129,0.320613294839859,0.3503333330154419,-0.1662774384021759,0.17749018967151642,0.42641955614089966
420,0.28213611138487843,0.05571746123937874,2.7717867685201463,0.2779758870601654,-0.05568863824009895,-0.9589724540710449,-0.34114277362823486,1.2122615575790405,-0.09178595244884491,-0.1466130018234253,0.19864822924137115,-0.6111874580383301
421,0.30264789321272445,-0.02234703976533851,2.7577584353639124,0.2979743778705597,0.022345179691910744,-0.954312264919281,-0.7881406545639038,-0.6548421382904053,-0.5895460247993469,0.5036460757255554,-0.004263514652848244,-0.6398649215698242
422,0.2593347510883622,-0.07118500697326607,2.7112283445083887,0.2557881474494934,0.07112490385770798,-0.9641128778457642,-0.00972878560423851,-0.17630961537361145,-0.6652107238769531,0.1443125307559967,-0.3465155363082886,0.11660921573638916
423,0.28513687303096763,-0.04729918215886744,2.6528887722994887,0.28097420930862427,0.047281548380851746,-0.9585499167442322,0.49168407917022705,0.6375375986099243,-0.4498582184314728,-0.17237740755081177,-0.040216729044914246,0.3639606833457947
424,0.3007870014713447,-0.02157383612292022,2.590444062327323,0.29620301723480225,0.021572163328528404,-0.9548813700675964,0.40933623909950256,-0.32553237676620483,-0.39586520195007324,-0.18916261196136475,0.06393808871507645,0.39186257123947144
425,0.27969889339313814,0.01995277020554805,2.5791483358874445,0.27601131796836853,-0.01995144598186016,-0.9609472751617432,0.275382936000824,-0.010906048119068146,0.6195602416992188,-0.05892455577850342,0.08107814937829971,-0.40442436933517456
426,0.2596112429821887,0.03993524385928258,2.6792996270289056,0.25650015473365784,-0.03992462903261185,-0.9657192826271057,-0.23715205490589142,-1.0310618877410889,0.6750041246414185,0.14901739358901978,0.04775238409638405,-0.5961093306541443
427,0.17323916487733526,0.005924634167541218,2.7559872572808914,0.17237089574337006,-0.005924599710851908,-0.9850143194198608,-0.7124464511871338,0.27475035190582275,0.24757754802703857,0.17031098902225494,-0.44303473830223083,-0.02850496768951416
428,0.2070839046747467,-0.017035552482265882,2.7838354730087578,0.20557714998722076,0.017034728080034256,-0.9784926176071167,0.16093024611473083,-0.14259548485279083,0.39491787552833557,-0.037898316979408264,-0.058660704642534256,0.3546828031539917
429,0.19155349311179665,0.0028157006008860935,2.7948120854212193,0.1903834491968155,-0.0028156968764960766,-0.9817057847976685,0.23413385450839996,0.15396904945373535,0.06982740759849548,-0.06039382517337799,0.17069289088249207,0.605897068977356
430,0.2341441387568688,0.026568491235413036,2.7927171183131057,0.23192867636680603,-0.026565365493297577,-0.9723699688911438,-0.04411743953824043,0.9478304982185364,0.23867632448673248,-0.19124875962734222,0.2848051190376282,-0.1138879656791687
431,0.29343517911961164,-0.008988969438551897,2.771062247580865,0.2892305850982666,0.008988847956061363,-0.957217276096344,-0.20098744332790375,-0.6281112432479858,-1.0521713495254517,0.4175870418548584,0.028212081640958786,-0.815548837184906
432,0.19807527338010514,-0.008017712014643992,2.653949141014566,0.19677628576755524,0.008017625659704208,-0.9804156422615051,0.5666347146034241,-0.6248866319656372,-1.0486655235290527,0.26565659046173096,-0.099341481924057,0.10372191667556763
433,0.15612915014597373,0.06037744612845363,2.5316747341649397,0.15521226823329926,-0.060340769588947296,-0.9860365986824036,0.5920324325561523,-0.012420052662491798,-0.7680460214614868,-0.04656970500946045,0.011482127010822296,0.49601584672927856
434,0.1993977371499612,0.08117672496788234,2.457148605865389,0.19742675125598907,-0.08108759671449661,-0.9769582748413086,0.4933324158191681,0.14927849173545837,-0.7738999128341675,-0.21921631693840027,0.09784175455570221,0.5004720687866211
435,0.22931537250730674,0.13364919310684453,2.4114361616113467,0.22528377175331116,-0.13325166702270508,-0.9651379585266113,0.14523416757583618,0.5718933939933777,0.38460496068000793,-0.004611164331436157,0.07735872268676758,-0.6074938774108887
436,0.20363000480515506,0.1413745605593005,2.51679343785682,0.20020811259746552,-0.14090409874916077,-0.9695683121681213,-0.24384497106075287,-0.7287271022796631,1.036971092224121,0.3665643334388733,0.06731097400188446,-0.6839045286178589
437,0.19182185448016856,0.10778310087034548,2.595681614570803,0.18954132497310638,-0.10757452994585037,-0.9759619832038879,-0.7111704349517822,0.1351974606513977,0.3580200970172882,-0.06637239456176758,-0.5256804823875427,0.08068311214447021
438,0.17489900306559025,0.08414512173549252,2.646022578326411,0.17339302599430084,-0.08404585719108582,-0.9812600016593933,-0.07362577319145203,-0.4250676929950714,0.4074396789073944,0.022758707404136658,0.026840656995773315,0.3302590250968933
439,0.14614661369265722,0.07245738893500127,2.6884622760129204,0.1452448070049286,-0.0723940059542656,-0.986743688583374,0.006314006634056568,0.029650524258613586,0.2343856692314148,-0.07781621813774109,0.1952577829360962,0.6749913692474365
440,0.1754748267188492,0.09051809268201017,2.6893218904516627,0.17386098206043243,-0.0903945341706276,-0.9806126356124878,0.11767133325338364,0.5463946461677551,-0.04286216199398041,-0.13725516200065613,0.16179043054580688,-0.34372812509536743
441,0.18493942157252435,0.0459250746644014,2.6801037890134847,0.18369309604167938,-0.04590893164277077,-0.9819110035896301,-0.5007780194282532,-1.4270777702331543,-0.450260192155838,0.3045118451118469,-0.038823120296001434,-0.8629376292228699
442,-0.005112018588359341,0.008471479007001658,2.6233753599669907,-0.0051118130795657635,-0.00847137812525034,-0.9999510645866394,-0.04836736619472504,-1.2158985137939453,-1.2219105958938599,0.15843212604522705,-0.30401337146759033,0.1621519923210144
443,-0.005104907159806329,0.05364368919396504,2.458124278661077,-0.005097541492432356,-0.053617965430021286,-0.9985485076904297,0.6110106706619263,0.3579474091529846,-1.1663787364959717,0.11581531167030334,0.16873027384281158,0.4643230438232422
444,0.06044796893228766,0.09086825018204227,2.417077215424539,0.06016192585229874,-0.09074325114488602,-0.994055449962616,0.25326088070869446,0.563136637210846,-0.11810147762298584,-0.06432757526636124,0.1990806609392166,0.49574917554855347
445,0.11181362614557343,0.12510233228155176,2.4183169349895413,0.11070877313613892,-0.12477626651525497,-0.9859890937805176,0.12286576628684998,0.38536539673805237,0.6548526287078857,0.07016891241073608,0.049077413976192474,-0.5373263359069824
446,0.1000399024714682,0.1020030646529702,2.5498747064318006,0.09935399889945984,-0.1018262729048729,-0.98982834815979,-0.4711211323738098,-0.6091893315315247,1.064603567123413,0.35996606945991516,0.010502420365810394,-0.68692946434021
447,0.10834832236130004,0.06140834321991189,2.672235867808805,0.10793262720108032,-0.06136975437402725,-0.9922621846199036,-0.7205845713615417,0.8658034801483154,1.1827651262283325,-0.07172352820634842,-0.41087451577186584,0.13210904598236084
448,0.1360891525926761,0.025967776187837886,2.7128021569820246,0.1356237381696701,-0.025964858010411263,-0.9904201030731201,0.018050843849778175,-0.09044554829597473,0.0001493575982749462,-0.004489704966545105,-0.018026228994131088,0.3793514370918274
449,0.13470033160770967,0.022618913054913013,2.725210431705892,0.13425901532173157,-0.022616984322667122,-0.990688145160675,-0.16500785946846008,0.101117342710495,0.4037885069847107,-0.11967161297798157,0.03335917368531227,0.47509366273880005
450,0.16507198164393236,0.03131069651499258,2.763918128933157,0.16424278914928436,-0.03130558133125305,-0.9859230518341064,0.09536754339933395,0.7450145483016968,0.5555000305175781,-0.13514427840709686,0.08201053738594055,-0.10572123527526855
451,0.238485290999065,0.024642971699682145,2.812693043467091,0.2361593395471573,-0.024640478193759918,-0.9714018702507019,-0.3414672017097473,0.28703975677490234,0.334455281496048,-0.20631316304206848,0.09032956510782242,-0.4108459949493408
452,0.20960928196679365,-0.012849530693169573,2.8156531039722115,0.20806057751178741,0.012849177233874798,-0.9780315160751343,-0.09810109436511993,-0.5298599004745483,-0.11206036806106567,0.3095327913761139,-0.16311773657798767,-0.28388553857803345
453,0.18507705562798407,-0.007645030800757195,2.781067943292569,0.1840168982744217,0.007644956465810537,-0.9828933477401733,0.567071259021759,-0.00998251885175705,-0.49367642402648926,0.1382487267255783,-0.009308164939284325,0.28129422664642334
454,0.2310294838766351,0.037161852036533466,2.7253976971484404,0.22882167994976044,-0.037153299897909164,-0.9727591276168823,0.3063697814941406,0.3948029577732086,-0.46842747926712036,-0.20217983424663544,0.10323911905288696,0.24984347820281982
455,0.22838522501021816,0.056642609720054485,2.6721851248537782,0.22604186832904816,-0.05661232769489288,-0.9724711179733276,0.4334591329097748,-0.22866591811180115,-0.2501538395881653,-0.058546170592308044,0.021700218319892883,0.2076701521873474
456,0.19969111654082475,0.0872527060977749,2.6885454013293466,0.1976119875907898,-0.08714203536510468,-0.9763994216918945,0.05604291334748268,-0.3296039402484894,0.8074883222579956,-0.1304427981376648,0.055693671107292175,-0.514185905456543
457,0.13649738731921732,0.09270807579256025,2.7790097485631877,0.1354895830154419,-0.09257533401250839,-0.9864442944526672,-0.15862759947776794,-0.41681233048439026,0.9096193313598633,0.3264702558517456,-0.06617710739374161,-0.41202372312545776
458,0.12675086077996,0.06494185423313319,2.846454835387345,0.12614527344703674,-0.06489621847867966,-0.9898867607116699,-0.14789047837257385,0.010583920404314995,0.4526331126689911,-0.08488552272319794,-0.31372010707855225,0.2623782753944397
459,0.14303585336694155,0.07140695585901699,2.882518790001047,0.14218534529209137,-0.07134629040956497,-0.987265408039093,-0.09529708325862885,0.42135170102119446,0.5257869362831116,-0.08253875374794006,0.13082505762577057,0.4407261610031128
460,0.1722420776939979,0.06744395561706291,2.9212412498400653,0.17100203037261963,-0.06739283353090286,-0.9829631447792053,0.03214836120605469,0.2579173147678375,0.19360467791557312,-0.11216413974761963,0.14760828018188477,0.3714976906776428
461,0.21741195577453878,0.06886121234350512,2.9313695387215586,0.2151920199394226,-0.06880680471658707,-0.9741447567939758,-0.23565661907196045,0.6131253242492676,-0.008069872856140137,-0.1258060485124588,0.17928044497966766,-0.4610053300857544
462,0.23061745456639993,0.01697602783836798,2.8910475498532797,0.22854574024677277,-0.01697521284222603,-0.9733851552009583,-0.5446716547012329,-0.41356760263442993,-0.8802981972694397,0.26973000168800354,-0.0005723908543586731,-0.523257851600647
463,0.16985149872221184,-0.013910814630166388,2.8164239379151086,0.16901962459087372,0.013910366222262383,-0.9855145215988159,0.16280163824558258,-0.32494980096817017,-0.8027295470237732,0.19926650822162628,-0.28025251626968384,0.10439574718475342
464,0.15080622711042516,0.019708172769205307,2.720535502921835,0.1502060890197754,-0.01970689743757248,-0.9884582757949829,0.5682827830314636,0.21904386579990387,-0.6974443793296814,-0.0324997752904892,-0.01625807024538517,0.4496246576309204
465,0.1727257585918688,0.047660868314038464,2.6470286282993523,0.1716730147600174,-0.04764282703399658,-0.9840012788772583,0.38147011399269104,-0.18989507853984833,-0.5829530954360962,-0.1652948558330536,0.13298523426055908,0.3352281451225281
466,0.15857720875350356,0.08410072515121059,2.6242087960151586,0.15735529363155365,-0.08400162309408188,-0.9839629530906677,0.20539212226867676,0.08607888966798782,0.39611107110977173,0.027871116995811462,0.047990888357162476,-0.24540716409683228
467,0.15235291777114432,0.10325103146198078,2.730120076067969,0.15095597505569458,-0.10306767374277115,-0.9831527471542358,-0.12009245157241821,-0.3470500409603119,1.1602901220321655,-0.01721268892288208,0.12113407999277115,-0.6471725702285767
468,0.09778993617473308,0.09907536790303732,2.8207219884122163,0.09715536236763,-0.09891336411237717,-0.99034184217453,-0.29066869616508484,-0.09075906127691269,0.6332593560218811,0.1797458827495575,-0.20632344484329224,-0.06156855821609497
469,0.08708776372204853,0.0787934596963186,2.84381161113018,0.08670786768198013,-0.07871195673942566,-0.9931194186210632,0.017956309020519257,-0.08465088903903961,0.0073031773790717125,-0.020072735846042633,-0.11672261357307434,0.12223929166793823
470,0.10455096729760045,0.07475083120867597,2.8728604981266597,0.10406916588544846,-0.07468123733997345,-0.9917622208595276,-0.19789637625217438,0.2951079308986664,0.30024734139442444,-0.036091260612010956,0.11954207718372345,0.4846668839454651
471,0.1283371068637446,0.06979621592700859,2.879975051725629,0.12767349183559418,-0.06973955780267715,-0.9893613457679749,0.014179779216647148,0.3206567168235779,-0.1326228529214859,-0.06618057191371918,0.19446489214897156,0.30224281549453735
472,0.18642223949446615,0.05156907754968076,2.858577412236962,0.18509791791439056,-0.05154622346162796,-0.981367290019989,-0.4182518720626831,0.7747084498405457,-0.30639374256134033,-0.13688014447689056,0.16157734394073486,-0.429826557636261
473,0.19992117761229888,-0.014723482324727505,2.8109103603681187,0.19857054948806763,0.014722950756549835,-0.9799759984016418,-0.2978473901748657,-0.08924389630556107,-0.6841096878051758,0.2884899973869324,-0.12200749665498734,-0.5365340113639832
474,0.18860135369249165,-0.027787981034055317,2.7314466514712827,0.18741285800933838,0.027784405276179314,-0.9818881750106812,0.43903228640556335,-0.06432195007801056,-0.9791637063026428,0.14541183412075043,-0.13223081827163696,0.23112529516220093
475,0.21135407486074487,0.006123404721174794,2.6326832409661325,0.20978009700775146,-0.006123366300016642,-0.9777294397354126,0.4342667758464813,0.23435959219932556,-0.8847424387931824,-0.20808638632297516,0.026615921407938004,0.4280315637588501
476,0.20033304935966734,0.02887883617907063,2.544264251304618,0.19891275465488434,-0.028874821960926056,-0.9795917272567749,0.4357835054397583,0.039752133190631866,-0.5868329405784607,-0.04997171461582184,0.026158757507801056,0.3467181921005249
477,0.20535436888484776,0.059162056194643084,2.5462519657325755,0.2035573422908783,-0.059127550572156906,-0.9772759675979614,0.14040985703468323,-0.15962766110897064,0.9113562107086182,-0.2838948965072632,0.013442743569612503,-0.6281164288520813
478,0.13776414679159096,0.08244266826483201,2.64489327625342,0.1368623524904251,-0.08234930783510208,-0.9871612191200256,0.08322514593601227,-0.5637994408607483,0.7414370179176331,0.4198698103427887,0.08869697898626328,-0.4961913824081421
479,0.1465293194747969,0.061142100601948156,2.7196026632184283,0.14573270082473755,-0.06110401079058647,-0.9874352216720581,-0.393831729888916,0.5858999490737915,0.6027626395225525,-0.11132413148880005,-0.4132764935493469,0.2665795087814331
480,0.1665295792955125,0.05503351878637308,2.7674767020511646,0.16550998389720917,-0.055005744099617004,-0.9846729636192322,-0.12229547649621964,0.06970515102148056,0.3975391983985901,-0.07732944190502167,0.031324103474617004,0.4653400778770447
481,0.18318304113188963,0.03611409628349611,2.810664617003158,0.1820414960384369,-0.03610624745488167,-0.9826276898384094,-0.1982702612876892,0.3521040678024292,0.2724746763706207,-0.11462818086147308,0.12051787227392197,0.5186384916305542
482,0.24931560014805884,0.026423738101284438,2.8363927016244146,0.24665464460849762,-0.02642066404223442,-0.9687432050704956,-0.30548468232154846,1.126914381980896,0.13712020218372345,-0.10104003548622131,0.21102149784564972,-0.5334540009498596
483,0.2990840707820788,-0.03161566499005775,2.8460533039018703,0.2944978177547455,0.0316103994846344,-0.9551292061805725,-0.6722655892372131,-0.6568752527236938,-0.6658384203910828,0.308544784784317,0.006963819265365601,-0.653864324092865
484,0.2280590855995168,-0.07361377017326505,2.7781606563393404,0.2254749834537506,0.07354730367660522,-0.9714689254760742,-0.04190345108509064,-0.16105946898460388,-0.4701697826385498,0.2861369550228119,-0.17552179098129272,0.04817485809326172
485,0.21967742901182238,-0.050979700714484995,2.7088980353192076,0.21763169765472412,0.05095762014389038,-0.974699854850769,0.5740756392478943,0.23533201217651367,-0.5641252398490906,-0.07517564296722412,-0.06925290822982788,0.40019118785858154
486,0.23712921668038214,-0.016216372176583206,2.6534309938973597,0.23488226532936096,0.01621566154062748,-0.971888542175293,0.5214892029762268,-0.16215361654758453,-0.42694076895713806,-0.20468513667583466,0.029438631609082222,0.5392408967018127
487,0.22277719586009803,0.03610924558242241,2.64411217962178,0.22079502046108246,-0.03610140085220337,-0.9746518731117249,0.22152692079544067,0.10879023373126984,0.8290989995002747,0.03932155668735504,0.10056978464126587,-0.41138023138046265
488,0.23625629400477047,0.05521468174174421,2.775434217312733,0.23370786011219025,-0.05518662929534912,-0.9707394242286682,-0.38985392451286316,-0.5393674373626709,1.4335283041000366,-0.07374998927116394,0.09467638283967972,-0.874872088432312
489,0.1702444973857915,0.05318579780946207,2.8608149319424134,0.16918374598026276,-0.05316072702407837,-0.9841497540473938,-0.337926983833313,0.5180984735488892,0.303229957818985,0.23433491587638855,-0.34507840871810913,0.024890780448913574
490,0.1903529027979092,0.03758552512393171,2.8786082806656847,0.18907180428504944,-0.03757667541503906,-0.9812440276145935,-0.021802688017487526,0.1166916936635971,0.442350298166275,0.0024259984493255615,-0.05834007263183594,0.197384774684906
491,0.22640185880266192,0.03596577591316621,2.934456661968815,0.22432750463485718,-0.03595802187919617,-0.9738501906394958,-0.27372902631759644,0.5024644136428833,0.47272777557373047,-0.18022960424423218,0.08768531680107117,0.5520057082176208
