,attitude.roll,attitude.pitch,attitude.yaw,gravity.x,gravity.y,gravity.z,rotationRate.x,rotationRate.y,rotationRate.z,userAcceleration.x,userAcceleration.y,userAcceleration.z
0,-0.03302757264601305,0.6700553828622055,2.246913137747512,-0.02588188461959362,-0.6210293769836426,-0.7833598256111145,0.023178305476903915,0.022210020571947098,0.05039792135357857,0.040148839354515076,-0.0076631903648376465,-0.023280799388885498
1,-0.12371278995866417,0.49442146428952805,0.9939447068613783,-0.1086198017001152,-0.4745224714279175,-0.8735159635543823,-0.2832444906234741,0.5923182368278503,0.9912625551223755,-0.012504465878009796,-0.05298909544944763,0.06655490398406982
2,-0.14852005211477745,0.4820735374394597,1.1089757490496985,-0.1311107873916626,-0.46361738443374634,-0.8762812614440918,0.28584691882133484,-0.015417534857988358,0.7982167601585388,-0.027489066123962402,-0.08212843537330627,0.1494593620300293
3,-0.17354119948283955,0.46413272144646917,1.1765188252258358,-0.15440453588962555,-0.44764745235443115,-0.8807786107063293,0.07158868759870529,0.37909838557243347,0.6202779412269592,-0.023116201162338257,-0.06491050124168396,0.07203233242034912
4,-0.22102272613832213,0.5007505976885066,1.268766763066319,-0.1923113614320755,-0.4800841212272644,-0.8558829426765442,0.49326300621032715,0.08502595126628876,0.31102439761161804,-0.1259564757347107,-0.0928071141242981,0.05793982744216919
5,-0.27241828682467784,0.5175156607259931,1.299121400961329,-0.23382799327373505,-0.4947226345539093,-0.8370029926300049,0.15015678107738495,-2.0752406120300293,1.5202986001968384,-0.02964550256729126,0.1637442708015442,0.4377720355987549
6,-0.4195106878450806,0.41857244228025337,1.376737944730849,-0.3721502721309662,-0.4064565598964691,-0.8344442844390869,-0.20737236738204956,-1.7884950637817383,1.2332932949066162,0.11127075552940369,0.4161153733730316,0.3863699436187744
7,-0.7663428960875932,0.17576949286288385,1.4970235693777783,-0.6828198432922363,-0.17486582696437836,-0.7093512415885925,-1.7403823137283325,-3.024590253829956,2.6396098136901855,-0.47674137353897095,0.722152829170227,0.039673447608947754
8,-1.025862889787872,-0.16030705284784433,1.45471625594856,-0.8441972136497498,0.15962132811546326,-0.5117149353027344,-2.9179883003234863,-2.2639362812042236,2.687626838684082,-0.39385509490966797,0.6593483686447144,-0.3858680725097656
9,-1.1820414937894024,-0.48666880517351757,1.3580675911701976,-0.8179410099983215,0.4676840603351593,-0.3350287079811096,-2.1075992584228516,-0.7861137986183167,2.8476402759552,-0.18799465894699097,0.21145415306091309,-0.6016625165939331
10,-1.2926289393914734,-0.7550858789546622,1.249582295837428,-0.7002203464508057,0.6853511929512024,-0.19996277987957,-1.8308058977127075,-0.7413109540939331,1.8625061511993408,-0.26093071699142456,-0.43414580821990967,-0.7323339581489563
11,-1.4942601623080627,-0.8772133930195911,1.1041120551211214,-0.637424647808075,0.7689604163169861,-0.048881519585847855,-0.506402850151062,-0.8653443455696106,0.38350433111190796,-0.7159383296966553,-0.9377685189247131,-1.1151962280273438
12,-1.4456268233096123,-0.7201075275938054,1.1798602817684696,-0.7458536028862,0.659465491771698,-0.09384876489639282,0.6734643578529358,1.5556265115737915,-3.6731271743774414,-2.0534780025482178,-0.5443379282951355,-1.053673267364502
13,-1.2322856510996243,-0.16967582707906728,1.4449866321931495,-0.9297048449516296,0.16886283457279205,-0.3273138105869293,5.034222602844238,1.6498336791992188,-5.707228660583496,-1.8328683376312256,1.4527955055236816,-0.5578179955482483
14,-1.1080833896699764,0.5541017821701529,1.6107226432765978,-0.7609522938728333,-0.5261796712875366,-0.3795875012874603,3.7435405254364014,0.44657063484191895,-5.876164436340332,-0.38040512800216675,1.8913987874984741,0.16539984941482544
15,-1.077502879012076,1.0480944915259365,1.6405463729158873,-0.4397047758102417,-0.8664734959602356,-0.23639674484729767,1.4762974977493286,-0.24744674563407898,-2.79713773727417,0.3803175687789917,1.6481354236602783,0.46743011474609375
16,-0.9498652346149722,1.1513395534560544,1.544120147422328,-0.3312433063983917,-0.9133102893829346,-0.23694348335266113,-0.8880112171173096,1.020139455795288,0.5957147479057312,0.5290887355804443,1.389491319656372,0.37512707710266113
17,-0.972965669811713,0.9109629866337743,1.5952623025597759,-0.506668210029602,-0.7900943756103516,-0.3450191915035248,-1.6713643074035645,-0.3308089077472687,3.9117796421051025,0.42369091510772705,1.273050308227539,0.41081511974334717
18,-1.152440066377053,0.2872272015212251,1.6994150802052335,-0.8763241171836853,-0.28329411149024963,-0.38961583375930786,-2.054079532623291,-2.803339719772339,7.821298122406006,-0.5372501015663147,1.5918421745300293,-0.22445884346961975
19,-1.3517856153005157,-0.5077837525505953,1.7513254490263888,-0.852951169013977,0.48624181747436523,-0.18985062837600708,-3.7639107704162598,-0.7107437252998352,7.6065473556518555,-1.826370120048523,1.5609688758850098,-0.3966514468193054
20,-1.3365198713134008,-1.0179943450833673,1.682728012663353,-0.5107303857803345,0.8510566353797913,-0.12189030647277832,-1.8456852436065674,3.499788284301758,2.5059313774108887,-0.9817623496055603,-0.2872290015220642,-0.4405791759490967
21,-0.9755500541611417,-1.2486139491048922,1.781709590597129,-0.26217910647392273,0.9485466480255127,-0.17754262685775757,-0.007777052465826273,0.0024562994949519634,2.4855105876922607,-0.45419052243232727,-0.7257988452911377,-0.32508188486099243
22,-1.1558451168473451,-1.3527432138262525,1.78297479627959,-0.19797027111053467,0.9763204455375671,-0.08721193671226501,-1.5456295013427734,-1.1941806077957153,-1.2973637580871582,-1.2981082201004028,-0.8236411213874817,-0.3485332727432251
23,-1.731681700004765,-1.0872107683362977,1.1942831121453543,-0.45895206928253174,0.8853334784507751,0.07448241859674454,0.015527782961726189,-1.2230652570724487,-2.7281010150909424,-0.47268855571746826,-0.32797569036483765,-1.3798260688781738
24,-1.6086776130079723,-0.7944891412574576,1.4105933583587837,-0.7001466751098633,0.713505744934082,0.0265351515263319,1.0939912796020508,0.7722441554069519,-4.081175804138184,-1.4601926803588867,0.2687482237815857,-0.7720032930374146
25,-1.4082909698792918,-0.3289351824949346,1.6735951527503454,-0.9339181780815125,0.32303547859191895,-0.15311692655086517,4.128722667694092,-1.1237796545028687,-5.243551254272461,-1.6222798824310303,1.1140220165252686,-0.5933887958526611
26,-1.2902593399345212,0.32908725067350736,1.891226768849152,-0.9093424677848816,-0.3231793940067291,-0.26201412081718445,2.686910390853882,0.9397774934768677,-6.391322135925293,-0.7783558368682861,1.7880231142044067,0.19742369651794434
27,-1.0633630601769286,0.910840296389712,1.7568230334071757,-0.5358306765556335,-0.7900192141532898,-0.29791849851608276,0.7454850673675537,2.0572609901428223,-5.055445194244385,0.02971184253692627,1.8130903244018555,0.3148404657840729
28,-0.6283869484187901,1.2040070732218604,1.3967660907534192,-0.2108115553855896,-0.9334836006164551,-0.29011547565460205,0.1735590696334839,1.1222724914550781,-1.7004517316818237,0.5354270339012146,1.6139492988586426,0.7023621797561646
29,-0.640051321947421,1.0793800474426614,1.482902290169609,-0.28182098269462585,-0.8816654086112976,-0.3784744441509247,-1.5914320945739746,-1.2476284503936768,4.043087482452393,0.7592685222625732,1.4759037494659424,0.7537949085235596
30,-1.0988985394169661,0.4406169792841624,1.7525226793094588,-0.8056345582008362,-0.42649760842323303,-0.4111601710319519,-3.3689630031585693,-2.4567692279815674,8.215690612792969,-0.40952956676483154,1.9544211626052856,0.09502860903739929
31,-1.3620366980170084,-0.4029386466749819,1.7978379862879965,-0.8999401926994324,0.39212334156036377,-0.19064879417419434,-1.4555574655532837,-1.1704449653625488,6.7835307121276855,-2.1289141178131104,1.5558441877365112,-0.5194647312164307
32,-1.4621550267298729,-0.9812621435902125,1.785343493328074,-0.5526960492134094,0.8311997652053833,-0.060282979160547256,-0.8570065498352051,-0.017799317836761475,5.447731971740723,-1.2145311832427979,0.1167830228805542,-0.27841633558273315
33,-1.5983696830413852,-1.3277473199556653,1.5668935596536442,-0.24057161808013916,0.9706087112426758,0.0066350484266877174,-1.3964300155639648,0.7631499171257019,1.9268574714660645,-0.7147048711776733,-0.5440492630004883,-0.20231378078460693
34,-2.434913746671875,-1.3864279214899182,0.705650722598346,-0.1190352588891983,0.9830522537231445,0.13942302763462067,-1.0042023658752441,-0.44173070788383484,0.13938160240650177,-0.9199662208557129,-0.4649859070777893,-0.4483373165130615
35,-2.5235941480725232,-1.3087332037745978,0.6581735741028594,-0.15010865032672882,0.9658575057983398,0.21115542948246002,-0.1821979284286499,-0.4950062036514282,-1.3860208988189697,-1.0363842248916626,-0.2810583710670471,-0.5876660346984863
36,-1.9280056291073895,-1.1940058911051121,1.3194878190775237,-0.3447122573852539,0.9298503398895264,0.12865355610847473,1.555000901222229,-0.32542186975479126,-3.6505982875823975,-1.3985891342163086,0.25800055265426636,-0.21755124628543854
37,-1.5394667678751603,-0.7880169637626804,1.8184662282756365,-0.7049062848091125,0.7089561223983765,-0.022091630846261978,2.9706168174743652,-1.4756766557693481,-6.991550922393799,-1.5890693664550781,1.1378912925720215,-0.15045475959777832
38,-1.4228073404339128,-0.01230856857809938,1.8903530187402464,-0.9889946579933167,0.012308257631957531,-0.14743822813034058,0.9301953315734863,1.8405839204788208,-7.094664573669434,-0.34772104024887085,1.8756006956100464,-0.08919507265090942
39,-1.3280728216289026,0.6375516586107776,1.8834608828399126,-0.7800008058547974,-0.5952298641204834,-0.19313229620456696,0.9456799030303955,0.19719789922237396,-4.395649433135986,0.7026388049125671,1.657073736190796,0.28306758403778076
40,-1.2917523727544575,0.8894842422891777,1.8654053540185005,-0.6054511666297913,-0.7767470479011536,-0.1734735667705536,0.26997658610343933,1.1246458292007446,-1.4007060527801514,0.7190986275672913,1.2738325595855713,0.2757837176322937
41,-1.1915672794617014,0.8704341536228026,1.8440618744585036,-0.5987035632133484,-0.7646088004112244,-0.23859478533267975,-0.8860016465187073,0.9554591774940491,2.0026705265045166,0.9466955065727234,1.1407837867736816,0.47731852531433105
42,-1.2135462245634185,0.4319495561609507,1.813421496484787,-0.8508124351501465,-0.4186421036720276,-0.31757986545562744,-3.2449965476989746,-2.9438469409942627,7.108309745788574,0.10624462366104126,1.7856465578079224,0.20223870873451233
43,-1.5394361831193237,-0.4123082757664559,1.794900983391847,-0.9157477021217346,0.40072524547576904,-0.028727397322654724,-1.844087839126587,-1.8652585744857788,8.266153335571289,-1.707207441329956,1.9563151597976685,-0.015126343816518784
44,-1.6062357352957184,-1.2132660553411865,1.6751203968020087,-0.34974202513694763,0.9367640018463135,0.012399842031300068,1.007575273513794,-1.219748616218567,5.703769207000732,-1.653523325920105,0.5007054805755615,-0.4863072633743286
45,-2.423255571806988,-1.512096152343767,0.7743213476868308,-0.03860968351364136,0.9982776641845703,0.044169265776872635,-1.9538930654525757,2.025132656097412,1.6937366724014282,-0.9817913174629211,-0.3018360733985901,-0.13971984386444092
46,2.6934623638862276,-1.3365469277192845,-0.4347168935186512,0.10057034343481064,0.9726888537406921,0.20919418334960938,-1.1024353504180908,-0.5236981511116028,1.1064993143081665,-1.2648464441299438,-0.4692097306251526,-0.5950736999511719
47,3.0766489370716905,-1.251169796961536,-0.11032401984055834,0.02039177715778351,0.9493528604507446,0.3135499656200409,-0.4686281979084015,1.1438730955123901,-2.063096046447754,-1.383215308189392,-0.20437288284301758,-0.8537263870239258
48,-2.0120525624465437,-1.0832009457061418,1.076975328867126,-0.4236280024051666,0.8834620118141174,0.2000863254070282,1.8690192699432373,2.584242105484009,-6.080821514129639,-1.4140948057174683,0.7665168046951294,-0.3345925509929657
49,-1.5564695680924059,-0.39105834081327634,1.676815213492134,-0.9244113564491272,0.38116708397865295,-0.01324472390115261,3.2194318771362305,-0.38929447531700134,-7.017081260681152,-0.8378109931945801,1.9490026235580444,0.12170422077178955
50,-1.4532897440367767,0.28606234848430323,1.8282518735283384,-0.9527466893196106,-0.28217679262161255,-0.11247215420007706,1.106392741203308,0.7370613813400269,-6.128499984741211,-0.04452192783355713,1.6973378658294678,0.18206751346588135
51,-1.2927387183450239,0.7885067188072327,1.8270625810678602,-0.6778301000595093,-0.7093014121055603,-0.19348828494548798,0.9228777885437012,1.5584417581558228,-3.670086145401001,0.43487972021102905,1.49912691116333,0.24245376884937286
52,-1.154093689848616,0.9692496908281748,1.7950824626299313,-0.5174918174743652,-0.8244613409042358,-0.22905398905277252,-0.09742684662342072,0.8165196776390076,-0.01876538060605526,0.7193961143493652,1.2037032842636108,0.34994935989379883
53,-1.0746806753019813,0.7804409094889014,1.7665526173398547,-0.6249317526817322,-0.7035927772521973,-0.33825650811195374,-2.3608815670013428,-0.32532671093940735,3.6718900203704834,0.774864673614502,1.1916604042053223,0.5299068689346313
54,-1.2919867097412365,0.13454735216054006,1.836290815792675,-0.9526948928833008,-0.13414177298545837,-0.27272409200668335,-1.3988087177276611,-3.6381542682647705,9.075126647949219,-0.48118865489959717,1.8528765439987183,0.016589879989624023
55,-1.5363407939553044,-0.7385903845857169,1.7903420832706298,-0.7389793992042542,0.6732462644577026,-0.025472009554505348,-0.6656174659729004,0.8419285416603088,5.319242000579834,-1.5953865051269531,1.0386219024658203,-0.4512888193130493
56,-1.4490135393703585,-1.1937595579030866,1.746151315946335,-0.3654406666755676,0.929759681224823,-0.04472571238875389,-0.887573778629303,0.6621841788291931,3.436014175415039,-0.8147656917572021,0.024555623531341553,-0.1458107829093933
57,-2.355859377543649,-1.4148402853160995,0.7380864506793293,-0.10986770689487457,0.9878634810447693,0.10979409515857697,-2.3698155879974365,0.1831621378660202,2.3693437576293945,-0.9289659261703491,-0.024927139282226562,-0.44123029708862305
58,2.9508386748671307,-1.2944805808899924,-0.2472472462824751,0.0517251119017601,0.9620670676231384,0.267864465713501,-0.8707412481307983,0.7297568917274475,0.34642499685287476,-1.846830129623413,-0.4003758430480957,-0.775097131729126
59,-2.700435894450483,-1.274902256708919,0.3360325011778571,-0.12450690567493439,0.9565418362617493,0.2636772096157074,0.9152652621269226,0.7336578369140625,-3.3862557411193848,-1.655186653137207,-0.20196419954299927,-0.4956718683242798
60,-1.7606665934483887,-0.8972597021542517,1.375086503940255,-0.6125446557998657,0.7816205620765686,0.11772207915782928,2.5296995639801025,-1.9697515964508057,-6.759432315826416,-1.0520366430282593,1.3276934623718262,-0.3063817024230957
61,-1.6112129112814468,-0.28906674521045733,1.709051777375235,-0.9577276110649109,0.28505781292915344,0.038729168474674225,0.9162425994873047,1.21914803981781,-6.400786399841309,-0.6087396740913391,1.507270097732544,0.025189876556396484
62,-1.4400280815972155,0.3312137995990392,1.7660379405036177,-0.9375744462013245,-0.32519108057022095,-0.12330864369869232,0.7602463960647583,1.478765606880188,-5.258266448974609,0.26870542764663696,1.6397509574890137,0.13388299942016602
63,-1.3042669956725654,0.7498843677220075,1.768641694266774,-0.7059295773506165,-0.6815541386604309,-0.19273656606674194,0.9553257822990417,1.7735451459884644,-2.584459066390991,0.5961883664131165,1.3994190692901611,0.21028417348861694
64,-1.1334033860660042,0.8642541102774836,1.823149972038402,-0.5880905389785767,-0.7606112360954285,-0.27499088644981384,-0.29296374320983887,1.3167376518249512,1.1333311796188354,0.8540665507316589,1.1094882488250732,0.6399811506271362
65,-1.2321777110322505,0.44983129237605496,1.83468916163364,-0.8493839502334595,-0.43481361865997314,-0.2991389334201813,-1.9886399507522583,-2.8061118125915527,7.944428443908691,0.3762699365615845,1.6330100297927856,0.1267451047897339
66,-1.533978121804601,-0.3505681491572734,1.8324584156828474,-0.9385412931442261,0.3434314429759979,-0.034571029245853424,-2.0716605186462402,-1.3510112762451172,7.763897895812988,-1.346294641494751,1.5186595916748047,-0.18271410465240479
67,-1.5492095818178755,-0.994051815486355,1.826570459876674,-0.5451708436012268,0.8382422924041748,-0.011770292185246944,0.8573502898216248,-2.1015219688415527,3.847510576248169,-1.252726435661316,0.18560713529586792,-0.2368716597557068
68,-1.6889323662755018,-1.3016749175722058,1.6693274755335472,-0.26403093338012695,0.9640048742294312,0.03133748844265938,-1.4570244550704956,2.2412679195404053,2.5355875492095947,-0.960181713104248,-0.1086888313293457,-0.17658591270446777
69,-2.4910621536622606,-1.382697148902669,0.6949901574470462,-0.11324400454759598,0.9823614358901978,0.1488012820482254,-1.2292795181274414,0.5299347043037415,1.6026105880737305,-1.1424474716186523,-0.25924742221832275,-0.45345818996429443
70,-2.651814226850125,-1.352334647430422,0.5414376111937969,-0.10195563733577728,0.9762319922447205,0.19124920666217804,0.11892315745353699,-0.06364104896783829,-1.9803047180175781,-1.7383153438568115,-0.28659576177597046,-0.4789537191390991
71,-1.7556319165485117,-1.0310609392840733,1.5005184124226796,-0.5051552057266235,0.8578447103500366,0.09444870799779892,1.632767915725708,-0.7159680724143982,-6.1651716232299805,-1.2468435764312744,0.8813520073890686,-0.22242414951324463
72,-1.6052959089156904,-0.3758063289865221,1.7740863742236932,-0.9296584725379944,0.36702269315719604,0.03208556026220322,0.9183028936386108,0.5165161490440369,-7.249477863311768,-0.6573318839073181,1.5018737316131592,-0.061016201972961426
73,-1.4646442214535236,0.28926009661493,1.8300727016607712,-0.9530602693557739,-0.2852431535720825,-0.10155107825994492,0.5265772938728333,1.817525863647461,-5.470900058746338,0.34435659646987915,1.610194206237793,0.19391249120235443
74,-1.3368951469088806,0.6616047690797009,1.8093653388665036,-0.7675223350524902,-0.6143838167190552,-0.18287156522274017,0.4663242995738983,0.5560128092765808,-1.78679358959198,0.8485465049743652,1.3014870882034302,0.20101428031921387
75,-1.282484526030998,0.6702608671632592,1.8516813354857447,-0.7513143420219421,-0.6211904287338257,-0.2228211909532547,-0.598381757736206,0.6654782295227051,1.9361082315444946,0.9549886584281921,1.0492147207260132,0.489804208278656
76,-1.233989822658842,0.24307691602859444,1.829328267297082,-0.9160685539245605,-0.240690216422081,-0.3207594156265259,-2.1364238262176514,-1.330291986465454,6.165544033050537,0.34731245040893555,1.4912242889404297,0.2987867593765259
77,-1.5617731264112993,-0.5526293792782943,1.77666455266763,-0.8511126041412354,0.524927020072937,-0.007679967675358057,-0.32502034306526184,0.04963742569088936,5.55143928527832,-1.7507550716400146,1.2129727602005005,-0.32117748260498047
78,-1.4882010486473332,-1.0332904526110416,1.8027738178386925,-0.5102496147155762,0.858988344669342,-0.04224030673503876,0.774628221988678,-1.3096424341201782,4.576943397521973,-1.0346417427062988,0.08887231349945068,-0.18429166078567505
79,-1.6375967867643189,-1.2592206168539946,1.652040420614132,-0.30587509274482727,0.9518517255783081,0.020463043823838234,-2.6529390811920166,1.774282693862915,1.3865888118743896,-0.8552119731903076,-0.2298210859298706,-0.031067848205566406
80,-2.174617477271444,-1.254496976474612,1.0276166879211308,-0.2560488283634186,0.95039302110672,0.17661254107952118,-1.0666002035140991,-0.025673242285847664,0.00139637163374573,-1.0704586505889893,-0.3544763922691345,-0.5813213586807251
81,-2.0042107549382155,-1.1679282672730529,1.216684573111239,-0.35580721497535706,0.9199403524398804,0.16465339064598083,0.7585302591323853,0.3617958128452301,-2.921581268310547,-1.9020357131958008,-0.21550321578979492,-0.25052979588508606
82,-1.6232943146086134,-0.6403418076316258,1.573561987938508,-0.800787091255188,0.5974695682525635,0.042078372091054916,1.7145204544067383,0.1717010885477066,-7.361964702606201,-1.1881351470947266,1.368472933769226,-0.16112743318080902
83,-1.4874065864924149,0.04304705342953543,1.750538122226814,-0.9956018924713135,-0.04303376004099846,-0.08321595937013626,1.5304666757583618,1.4004766941070557,-6.568271636962891,-0.37137192487716675,1.5655862092971802,0.13100647926330566
84,-1.3336913115070108,0.6119101453615037,1.7753244266514872,-0.7956508994102478,-0.5744320750236511,-0.1922694444656372,0.7466056942939758,1.2485407590866089,-3.6737148761749268,0.6826900243759155,1.5275418758392334,0.3100825548171997
85,-1.222660966441511,0.8401722458565872,1.749586412978068,-0.6273016333580017,-0.7447580695152283,-0.22765831649303436,-0.05411127582192421,1.4949711561203003,-0.8255255818367004,0.8731969594955444,1.241797924041748,0.45390039682388306
86,-1.0906159992503968,0.6816457491005157,1.6974823542263002,-0.6887195706367493,-0.6300718784332275,-0.35871273279190063,-2.4629859924316406,-0.056798651814460754,3.5832014083862305,0.8676136136054993,1.3108885288238525,0.6559539437294006
87,-1.2892375697916305,0.013985887663395213,1.692306405382005,-0.960529625415802,-0.013985431753098965,-0.2778262197971344,-2.0890848636627197,-5.3297247886657715,10.310572624206543,-0.5202290415763855,2.4902122020721436,-0.3103848695755005
88,-1.533714015376669,-0.7939678194419478,1.5742881225207408,-0.7005393505096436,0.7131404280662537,-0.025989530608057976,-2.112746477127075,1.8083373308181763,6.155879497528076,-1.3192360401153564,1.2316837310791016,-0.6385612487792969
89,-1.5093658540622923,-1.2692412414641523,1.6963031296212154,-0.29644569754600525,0.9548757672309875,-0.01823374070227146,0.08292973041534424,-0.47002556920051575,2.7485060691833496,-1.198732614517212,-0.421825110912323,0.12544196844100952
90,-2.1282710003321514,-1.4054530449624338,1.0093774203474932,-0.13967007398605347,0.9863619208335876,0.08707551658153534,-1.0939128398895264,-0.11318869888782501,0.8392571210861206,-1.1124966144561768,-0.5780673623085022,-0.4567197561264038
91,-2.407563494360029,-1.3335794566272872,0.7623993061301,-0.15741780400276184,0.9719957709312439,0.17448218166828156,-0.6466743350028992,0.25794413685798645,-1.5516269207000732,-1.5138163566589355,-0.3428453803062439,-0.4710824489593506
92,-1.9131676285984915,-1.0533754835172444,1.165070899752462,-0.4659319519996643,0.8690978288650513,0.16606147587299347,0.8280444741249084,0.883567750453949,-4.273055553436279,-1.1835432052612305,0.38570868968963623,-0.520340085029602
93,-1.576862888530188,-0.5331084013901156,1.5678758669312745,-0.8612158298492432,0.5082128643989563,0.0052246833220124245,2.5885703563690186,-0.1394582837820053,-5.890519142150879,-0.6961878538131714,1.3895227909088135,-0.05029916763305664
94,-1.4558775839343054,0.018130089788928532,1.7683552550501582,-0.9932408928871155,-0.018129097297787666,-0.11464712768793106,1.7326371669769287,1.40941321849823,-5.07439661026001,0.14065605401992798,1.2622087001800537,0.15187859535217285
95,-1.308029393203443,0.4930431639596542,1.8328716841555999,-0.8506597280502319,-0.473308801651001,-0.2288159728050232,1.1191705465316772,1.6642946004867554,-3.452211618423462,0.7581915259361267,1.2927210330963135,0.3747205138206482
96,-1.195023722602743,0.6831771314429135,1.819554247041043,-0.7214550971984863,-0.6312602758407593,-0.28462785482406616,-0.42103296518325806,0.6808130741119385,-0.17513087391853333,0.9462933540344238,1.0403331518173218,0.49559587240219116
97,-1.1065390392044865,0.4564523751735347,1.7583792653730346,-0.8026125431060791,-0.44076645374298096,-0.40191811323165894,-1.9872244596481323,-1.1846204996109009,3.6797657012939453,0.5169527530670166,1.1385661363601685,0.34048622846603394
98,-1.4064460089302784,-0.2116488704919242,1.7561721052081025,-0.9645113348960876,0.21007226407527924,-0.1599605679512024,-2.409472703933716,-4.247692584991455,9.016097068786621,-1.17850923538208,1.9787094593048096,-0.11410246789455414
99,-1.6893556918978208,-0.9716015468928085,1.5801750275815507,-0.5600188374519348,0.8257899880409241,0.06670832633972168,0.3118852376937866,0.012119367718696594,5.272934436798096,-1.35550856590271,0.4829106330871582,-0.4557006359100342
100,-1.7280585868524234,-1.3231710888945292,1.5822449716410358,-0.2420770227909088,0.9694972038269043,0.03838655352592468,-0.003961342386901379,-0.016500625759363174,2.30918550491333,-1.0009191036224365,-0.5046383738517761,-0.10077977180480957
101,-2.055678715729326,-1.4373304431469143,1.2472396970619037,-0.11773078888654709,0.9911066293716431,0.062024395912885666,-0.7758293151855469,-0.03627966716885567,0.43671274185180664,-1.19777512550354,-0.6170222163200378,-0.08944439888000488
102,-2.1317832362904796,-1.3006793771618044,1.154871121845685,-0.22594493627548218,0.9637396931648254,0.14196689426898956,-0.2507290244102478,1.1787201166152954,-2.6974945068359375,-1.3803935050964355,-0.23920667171478271,-0.2850942611694336
103,-1.7045745321609,-0.9203171096001657,1.492709190937188,-0.6001570224761963,0.7957937121391296,0.080770343542099,-0.3837207853794098,0.5470280647277832,-4.955529689788818,-1.1898057460784912,0.6224954724311829,0.1513921022415161
104,-1.566397380901058,-0.3383479617238586,1.6103419831461374,-0.9432951807975769,0.33192917704582214,-0.00414953101426363,1.9255189895629883,1.1861752271652222,-5.573035717010498,-0.4950440526008606,1.500025749206543,-0.06655967235565186
105,-1.438211978391551,0.19705075218876558,1.7669706663435427,-0.972041666507721,-0.1957780122756958,-0.12963801622390747,1.7283289432525635,1.4246702194213867,-4.62676477432251,0.46964603662490845,1.2447739839553833,0.24693238735198975
106,-1.3160275248414852,0.5831659193529827,1.8455244756999598,-0.8077797293663025,-0.5506693720817566,-0.21036836504936218,0.9816795587539673,1.3245139122009277,-3.0090126991271973,0.707407534122467,1.1866710186004639,0.35016942024230957
107,-1.1123734618521854,0.7736881489738371,1.7495918063953324,-0.6414808034896851,-0.6987782716751099,-0.31656181812286377,-1.3899091482162476,0.8050293326377869,0.5787338614463806,1.20120370388031,1.1252461671829224,0.6062957048416138
108,-1.1382701372912534,0.44616917870048534,1.6999670852682036,-0.8190315365791321,-0.43151289224624634,-0.3781321942806244,-2.2537262439727783,-1.0313279628753662,5.386463642120361,0.6028297543525696,1.3255252838134766,0.3406871557235718
109,-1.4649841063188238,-0.37325506925064433,1.7099627956909458,-0.9259375333786011,0.36464831233024597,-0.09834280610084534,-1.6841332912445068,-2.6389009952545166,9.043325424194336,-1.2057915925979614,2.1270508766174316,-0.29054272174835205
110,-1.569062828832649,-1.0270756309366729,1.625880929837327,-0.5173229575157166,0.8557897806167603,-0.0008967791218310595,0.43465495109558105,-1.2386425733566284,4.863673686981201,-0.9672961831092834,0.42614680528640747,-0.44070786237716675
111,-1.2833560802794537,-1.331564043872592,2.068432781622265,-0.22723481059074402,0.971520185470581,-0.06717678904533386,-0.21060191094875336,0.9381345510482788,1.0266022682189941,-1.098372459411621,-0.6352317929267883,0.362998902797699
112,-1.433466349728765,-1.3846999926140844,1.8452929672713134,-0.18328213691711426,0.982733964920044,-0.02532956562936306,-0.5461702942848206,-0.7030544281005859,-0.24495317041873932,-1.1672732830047607,-0.5939857959747314,0.0235137939453125
113,-1.8651537069279889,-1.2004250175191042,1.3705087792032178,-0.3463934659957886,0.9321929812431335,0.10501416772603989,-1.3130853176116943,1.0629022121429443,-2.9993791580200195,-1.1310540437698364,-0.15782469511032104,-0.3803436756134033
114,-1.7452748139351728,-0.8579695300932374,1.5838939316182856,-0.6440455913543701,0.7565162181854248,0.11352645605802536,1.4519916772842407,-1.1865720748901367,-3.965731620788574,-0.9948245286941528,0.42755043506622314,-0.20956531167030334
115,-1.5964796224398592,-0.36072569891932343,1.6926288353872494,-0.9353322386741638,0.35295331478118896,0.02402769774198532,-0.06212295964360237,1.7487624883651733,-5.058834075927734,-0.34965604543685913,1.208402156829834,-0.10122191905975342
116,-1.3841564878020223,0.1293087444990209,1.705979888222566,-0.9744296073913574,-0.12894868850708008,-0.18400898575782776,0.8964365124702454,1.8433820009231567,-4.315585613250732,0.4414095878601074,1.13224458694458,0.14683854579925537
117,-1.2687690303005303,0.44196816478698386,1.7584570925599028,-0.8629964590072632,-0.4277193248271942,-0.26887425780296326,1.1983506679534912,0.7652873396873474,-1.4260573387145996,0.8706563711166382,1.0442659854888916,0.38241493701934814
118,-1.2528860082882793,0.42479478741020804,1.8474106390615346,-0.8654676079750061,-0.4121338129043579,-0.28480100631713867,0.18453456461429596,0.23023907840251923,2.1085147857666016,0.8574414849281311,0.9015136957168579,0.5446581840515137
119,-1.3088392249691396,-0.008522058682515071,1.864981546843989,-0.9658499956130981,0.008521955460309982,-0.2589620053768158,-1.594794750213623,-1.289725422859192,5.931175231933594,0.16079628467559814,0.9768906235694885,0.052312254905700684
120,-1.549818686923418,-0.6407788079084737,1.8288317090725106,-0.8014539480209351,0.5978199243545532,-0.016815079376101494,-0.7773630023002625,-3.1738688945770264,6.61594295501709,-1.4163804054260254,1.1747171878814697,-0.43167126178741455
121,-1.6917135599873636,-1.0897978203220902,1.8191990361519568,-0.4592863619327545,0.8865333795547485,0.05580788850784302,0.7804349660873413,0.633374035358429,2.1566171646118164,-1.0219757556915283,-0.4002816081047058,-0.3344486951828003
122,-1.4188726477284446,-1.1902812180208782,2.104682965524728,-0.36712077260017395,0.9284734725952148,-0.05620744451880455,1.1802995204925537,0.5571328997612,0.1329020857810974,-0.9785975813865662,-0.9158239960670471,0.18117696046829224
123,-1.390158569979616,-0.9872473970241193,2.173815954271923,-0.5420240163803101,0.83451247215271,-0.09898901730775833,0.4453287720680237,-0.15999600291252136,-3.4981000423431396,-1.650953769683838,0.10445231199264526,0.03329993039369583
124,-1.5126763016289018,-0.5145446217522864,2.1133781535959915,-0.8690469861030579,0.49213847517967224,-0.05056598410010338,-0.7144924402236938,-0.959155797958374,-5.308747291564941,-0.48675739765167236,0.9974550008773804,0.001783609390258789
125,-1.635294279088363,-0.010600386395363579,1.9118992218109903,-0.9978646636009216,0.010600187815725803,0.06444962322711945,-2.526820182800293,0.009881583042442799,-4.32944917678833,0.1440134048461914,1.6054733991622925,-0.351925253868103
126,-1.4416006112658293,0.3103177715383372,1.7566315321222612,-0.9443003535270691,-0.30536124110221863,-0.12268291413784027,-0.9994421601295471,2.120205879211426,-1.907336950302124,1.0044811964035034,1.0574517250061035,0.09018167108297348
127,-1.333851751620229,0.2877578316790647,1.7191418401065222,-0.9320910573005676,-0.28380295634269714,-0.22508201003074646,-0.04087508097290993,-0.20931971073150635,2.153223991394043,1.1245503425598145,0.6669816970825195,0.28686484694480896
128,-1.3824806992170113,-0.07110648392207959,1.7376355305933124,-0.9798386096954346,0.07104657590389252,-0.1867315024137497,-1.3340498208999634,-0.9708343744277954,5.404848575592041,0.5686448216438293,0.6641371250152588,0.1444646716117859
129,-1.5326188532255833,-0.6553167944592596,1.6916893871084684,-0.7922772765159607,0.6094104647636414,-0.030261848121881485,-0.8653401732444763,-0.6951764225959778,5.465965270996094,-1.1220295429229736,0.3762768507003784,-0.3232995271682739
130,-1.5919663847853127,-0.9794020272504221,1.604330211061698,-0.55739426612854,0.8301641345024109,0.011801832355558872,0.4326663613319397,0.10828199982643127,2.596552610397339,-1.33280348777771,-0.3323003649711609,-0.2832556962966919
131,-1.5610011685687282,-1.0174202206258331,1.7850241982676753,-0.525537371635437,0.8507550358772278,-0.005147886462509632,0.09488355368375778,-1.3280982971191406,-2.0526058673858643,-1.4371548891067505,-0.2523815631866455,0.17194175720214844
132,-1.6296594171755128,-0.7002958880604148,1.742635859026777,-0.7633272409439087,0.6444439888000488,0.044983766973018646,0.11140525341033936,0.1460554599761963,-3.4770917892456055,-0.10233438014984131,0.16106748580932617,-0.33042991161346436
133,-1.5835027968186093,-0.35454516803563974,1.857209530115472,-0.937728762626648,0.3471638560295105,0.011915863491594791,0.9041446447372437,-0.055652886629104614,-3.270664691925049,0.4240874648094177,0.4836161732673645,-0.06928896903991699
134,-1.59509798593169,-0.13236785960373587,1.9607469094315495,-0.9909594058990479,0.13198165595531464,0.02408670075237751,-0.07961888611316681,-0.2995009124279022,-1.2301477193832397,0.2977221608161926,0.7350685000419617,0.015433548018336296
135,-1.533069752904614,-0.029654147262733396,1.938193720397963,-0.998849093914032,0.029649801552295685,-0.037701044231653214,-0.8077037334442139,1.344486951828003,-0.7176957726478577,0.44374966621398926,0.8208903670310974,0.0471920371055603
136,-1.4474317333435818,-0.11084228453955361,1.8530010179699035,-0.9863101243972778,0.11061545461416245,-0.1222967877984047,-1.929604172706604,-0.2274390161037445,2.4209349155426025,0.4864322543144226,0.7795364856719971,0.16084051132202148
137,-1.4803490927836354,-0.45230389825931394,1.7430474264634315,-0.8957660794258118,0.43703892827033997,-0.08124122023582458,-1.7037142515182495,0.7501856088638306,3.7535383701324463,-0.00018423795700073242,0.44140955805778503,0.024951577186584473
138,-1.5974020844306092,-0.7608388576806344,1.505645550698458,-0.7240015268325806,0.6895292401313782,0.01926715485751629,-2.9911744594573975,0.3167375326156616,2.4934706687927246,-0.21635186672210693,0.051407039165496826,-0.09859764575958252
139,-1.9755079463803569,-0.9662487414749478,1.03744430083551,-0.522473156452179,0.8227593302726746,0.22380566596984863,-2.076815128326416,-0.33740437030792236,2.647040843963623,-0.582354724407196,-0.11014324426651001,-0.6828968524932861
140,-2.3708222565164956,-1.0992701254994603,0.628439509979707,-0.31646838784217834,0.890876054763794,0.3258649706840515,-0.45629870891571045,-0.22431117296218872,1.4784975051879883,-1.321150779724121,-0.5199041366577148,-0.6318646669387817
141,-2.1149807487816172,-1.05023377345774,0.7912024343837483,-0.4255233705043793,0.8675395250320435,0.25749778747558594,1.9584574699401855,1.55394446849823,-2.211164951324463,-1.0177291631698608,-0.12384140491485596,-0.5472164154052734
142,-1.761811206077405,-0.8104675156194106,1.3616684300860955,-0.6766254901885986,0.7246094346046448,0.1308407336473465,1.563855528831482,-0.7714134454727173,-4.845216751098633,-1.2971446514129639,0.6541442275047302,-0.10059785842895508
143,-1.5268709095024349,-0.2313650727934151,1.6390365337431088,-0.9724153876304626,0.2293064296245575,-0.04274124279618263,2.1804823875427246,0.4836718440055847,-5.8860249519348145,-0.11358308792114258,1.1362330913543701,0.09538406133651733
144,-1.4981009276436414,0.3121098269077953,1.7868096130872337,-0.949174165725708,-0.30706721544265747,-0.06912239640951157,1.381885051727295,0.38450300693511963,-4.268377780914307,0.5934308767318726,1.2086175680160522,0.19078069925308228
145,-1.5024480871689694,0.5767291220149029,1.79627952271301,-0.8362935185432434,-0.5452850461006165,-0.05724836140871048,-0.7729937434196472,0.07180667668581009,-0.7934853434562683,0.6271718144416809,1.2043732404708862,0.14982342720031738
146,-1.4210809320011013,0.4964728433949326,1.6965836081567303,-0.8694323301315308,-0.47632718086242676,-0.13114875555038452,-1.6826889514923096,-0.86845463514328,2.8017048835754395,0.8444077968597412,1.3894131183624268,0.311980664730072
147,-1.5429208514518968,-0.076207150349159,1.6168372015254042,-0.9967104196548462,0.07613340765237808,-0.0277909766882658,-0.5295295715332031,-1.6099116802215576,7.192513465881348,-0.29474788904190063,1.512855887413025,-0.022974975407123566
148,-1.7548681742325278,-0.7770863799579129,1.3755281721002321,-0.7009151577949524,0.7012051343917847,0.13049592077732086,-1.9364829063415527,1.4835131168365479,5.162421703338623,-1.0640536546707153,0.6125155687332153,-0.23697175085544586
149,-2.145404184893028,-1.1780221311192536,0.7617038344417049,-0.3212847113609314,0.9238507747650146,0.20802825689315796,-2.001446485519409,0.22548693418502808,4.354594707489014,-1.2394299507141113,0.018654048442840576,-0.27983617782592773
150,-2.928299725137154,-1.1486199218360262,-0.17320781570456104,-0.08673501759767532,0.9121993184089661,0.40046197175979614,-0.9870952367782593,0.7260839343070984,1.849845051765442,-1.2995870113372803,-0.285078227519989,-1.0274760723114014
151,-3.024074435468625,-1.175118204857569,-0.26290855784274353,-0.04519129544496536,0.9227353930473328,0.3827752470970154,0.6328874826431274,-0.5291696190834045,-1.5427275896072388,-1.5963797569274902,-0.23406058549880981,-0.6189203858375549
152,-2.237433926834399,-1.154730755762838,0.6556061468619876,-0.3176354467868805,0.9146862030029297,0.2499142438173294,2.3530778884887695,-1.181429147720337,-5.007819175720215,-1.296652913093567,0.6706106066703796,-0.4727688729763031
153,-1.682332144550525,-0.6517628932056525,1.3586746646246437,-0.7900757789611816,0.6065889000892639,0.08848898857831955,2.179460048675537,0.29193904995918274,-5.952467441558838,-0.38181447982788086,1.3727507591247559,-0.19563615322113037
154,-1.5366601159182147,-0.10745916238555137,1.5941203045517118,-0.9936527013778687,0.10725247114896774,-0.03393271937966347,1.6453527212142944,1.0117632150650024,-5.419590950012207,0.1525576114654541,1.2912307977676392,0.11687952280044556
155,-1.4015427482646863,0.3843436206749761,1.649390262110288,-0.9137980341911316,-0.37495073676109314,-0.15615758299827576,0.19559141993522644,1.549005150794983,-3.9336061477661133,0.5427042245864868,1.431072473526001,0.35058510303497314
156,-1.2947622836917538,0.5614128602992969,1.5896221284839385,-0.8144583702087402,-0.5323827266693115,-0.2307077944278717,-0.2581663727760315,0.18076293170452118,0.4871935248374939,0.96976238489151,1.1136205196380615,0.2991434931755066
157,-1.3535306375240899,0.2627718418163371,1.6032486833719586,-0.9429711699485779,-0.25975823402404785,-0.20816101133823395,-1.1022077798843384,-2.314310312271118,5.7314043045043945,0.5428705215454102,1.2331011295318604,0.20271360874176025
158,-1.4943906397889866,-0.4259832970371643,1.6180516702937333,-0.9079762101173401,0.41321641206741333,-0.06950986385345459,-1.0253547430038452,0.3145824372768402,6.076138973236084,-0.6945781707763672,1.1246864795684814,0.11070858687162399
159,-1.5895100550789227,-1.0168467998470272,1.4949930965170641,-0.5259582996368408,0.8504534959793091,0.009843789972364902,-0.3646455407142639,-0.8013332486152649,4.717846870422363,-1.0036590099334717,0.2447614073753357,-0.2358417510986328
160,-1.8555379702422645,-1.3154106755180224,1.1276729120929163,-0.24244728684425354,0.9675659537315369,0.07096312940120697,-1.4813988208770752,1.77687406539917,2.0808145999908447,-0.9367367029190063,-0.2851927876472473,-0.18549561500549316
161,-2.4586585792999527,-1.366039857580602,0.427684761226947,-0.12831512093544006,0.9791105389595032,0.1577271968126297,-0.8044918179512024,0.30752912163734436,0.40039026737213135,-1.1492575407028198,-0.3713682293891907,-0.30189216136932373
162,-2.2951612067051848,-1.2811324453107327,0.592654671426362,-0.21391406655311584,0.9583399295806885,0.18927548825740814,0.4340421259403229,-0.21142743527889252,-2.1973037719726562,-1.1511523723602295,0.06296122074127197,-0.5387780666351318
163,-1.761118877828232,-1.0275515385504512,1.2833255952801659,-0.5075828433036804,0.8560358881950378,0.09778804332017899,1.5004857778549194,-1.5256502628326416,-5.029878616333008,-0.9360664486885071,0.7788977026939392,-0.14837096631526947
164,-1.7184690702802823,-0.5963870508128826,1.566616448638543,-0.8183651566505432,0.5616568922996521,0.12173642963171005,0.5474262237548828,0.1648513525724411,-4.413844108581543,-0.2940462827682495,0.7388648390769958,-0.19416990876197815
165,-1.505247821058918,-0.07861747911672069,1.6615427219076109,-0.9947704076766968,0.0785365179181099,-0.06529926508665085,1.525954008102417,1.509805679321289,-4.618459224700928,0.5166209936141968,1.2148900032043457,-0.041329145431518555
166,-1.4896584899734941,0.2841000653945522,1.7745287402759378,-0.9567563533782959,-0.28029370307922363,-0.07779994606971741,0.6134549975395203,0.5538604259490967,-2.841397762298584,0.7388303279876709,1.0810596942901611,0.23189842700958252
167,-1.3311988927769174,0.37586322455536186,1.6970506266361283,-0.9036188721656799,-0.3670756220817566,-0.22074511647224426,-1.7102841138839722,0.6639869809150696,1.3065263032913208,1.1181575059890747,1.0682017803192139,0.4555473327636719
168,-1.3719292539202905,-0.013695622768451047,1.5529350062274394,-0.9801991581916809,0.013695194385945797,-0.19754034280776978,-2.5573439598083496,-1.2859060764312744,5.7421979904174805,0.18095898628234863,1.3720623254776,0.03782656788825989
169,-1.5282946373088433,-0.6213445945177956,1.3982120934412148,-0.8123621940612793,0.5821289420127869,-0.03454757109284401,-1.54314386844635,-0.1249057948589325,5.786418914794922,-0.7765507698059082,0.9089598655700684,-0.2842848300933838
170,-1.7222967711187454,-1.0414922098753738,1.1745378034662823,-0.499149352312088,0.863158643245697,0.07620527595281601,-1.7416154146194458,0.13607919216156006,3.5724756717681885,-0.8907890319824219,0.09980839490890503,-0.14097881317138672
171,-2.392454275818406,-1.1967422702282264,0.37182479260704593,-0.24883481860160828,0.9308536648750305,0.2675676643848419,-2.1396729946136475,0.4535142183303833,2.2331573963165283,-0.9534051418304443,-0.27042293548583984,-0.7032976746559143
172,-2.847858361627515,-1.254363113356136,-0.06016359625894906,-0.09009518474340439,0.950351357460022,0.29785090684890747,1.0701558589935303,-0.9675384759902954,0.6407582759857178,-1.5076831579208374,-0.593814492225647,-0.5343164205551147
173,-2.22031105944312,-1.2124755630190094,0.56691973855092,-0.2792910039424896,0.936487078666687,0.21210446953773499,1.7731083631515503,0.2670077085494995,-3.5739688873291016,-1.1862698793411255,0.16905784606933594,-0.5522992610931396
174,-1.7097892926830076,-0.8042082921774071,1.2202340150674154,-0.6869918704032898,0.7202816605567932,0.09610673040151596,1.5153999328613281,0.21309968829154968,-5.39229154586792,-0.7531784176826477,1.404565691947937,-0.29086995124816895
175,-1.498611044652076,-0.289514125555663,1.5131635573781541,-0.9558866620063782,0.2854866087436676,-0.06912104785442352,2.6154825687408447,0.02599778026342392,-4.6936516761779785,0.373443603515625,0.9718985557556152,0.03227110207080841
176,-1.5389765189601967,0.0986398223558208,1.7132647121814484,-0.9946352243423462,-0.09847994148731232,-0.03165978938341141,1.279266119003296,-0.8463386297225952,-2.38364577293396,0.918249785900116,0.8661648631095886,0.15852141380310059
177,-1.5302711060534397,0.23689727213493159,1.7340897435584934,-0.971272885799408,-0.2346876859664917,-0.039382610470056534,0.02610379457473755,0.3308955132961273,-0.38571101427078247,0.8190205693244934,1.0978926420211792,0.037383731454610825
178,-1.453393773086918,0.09873782258161365,1.7341801369652838,-0.9882791042327881,-0.09857746213674545,-0.11656253039836884,-0.7480903267860413,0.626729428768158,3.391911745071411,0.8602121472358704,0.9611567854881287,0.24449217319488525
179,-1.5322319308896073,-0.3374223516048183,1.5569025789864352,-0.9429094791412354,0.3310559093952179,-0.03638077154755592,-2.2530288696289062,0.9922019243240356,4.932914733886719,-0.20348328351974487,1.1544177532196045,-0.4087486267089844
180,-1.5684632387726531,-0.7924381647076276,1.3817633915885081,-0.7021092176437378,0.7120672464370728,-0.0016380855813622475,-1.5890780687332153,-0.2907000184059143,4.312647819519043,-0.49398142099380493,0.33636409044265747,-0.19196546077728271
181,-1.7969595455090217,-1.1280853100447799,1.0911020173712866,-0.4174814224243164,0.9035935997962952,0.09606240689754486,-1.7622469663619995,0.6635116338729858,2.542505979537964,-0.7877950668334961,-0.20319992303848267,-0.14775919914245605
182,-2.2247248765480503,-1.275178217846998,0.5756570684925532,-0.2312299758195877,0.9566222429275513,0.1772197186946869,-0.3100101053714752,0.8015584349632263,0.9628204107284546,-1.2926957607269287,-0.5725431442260742,-0.2547038793563843
183,-2.2572183299567414,-1.2711615882797982,0.5443701804144081,-0.22832024097442627,0.9554443955421448,0.18707157671451569,0.2686247229576111,-0.7913793921470642,-1.1529179811477661,-1.3526123762130737,-0.40153515338897705,-0.420454740524292
184,-1.84793407064958,-1.0557889240756275,1.0820189673034855,-0.4737473726272583,0.8702890872955322,0.13476119935512543,1.2693495750427246,-1.3254860639572144,-4.293997287750244,-1.2942428588867188,0.7479056119918823,-0.3418992757797241
185,-1.7193183458630068,-0.558772869065138,1.408358492041319,-0.8385714888572693,0.5301461219787598,0.12547026574611664,0.7301251888275146,-0.2659112513065338,-5.8909125328063965,-0.42267417907714844,1.2099661827087402,-0.19277681410312653
186,-1.5992293263670971,-0.04823068415255274,1.5517777794401026,-0.9984333515167236,0.04821198806166649,0.028396107256412506,1.4494593143463135,0.47121942043304443,-4.028536796569824,0.5387623906135559,1.039129376411438,-0.1264796257019043
187,-1.5243989985194606,0.21864519614673153,1.7006372855425775,-0.9751415848731995,-0.21690727770328522,-0.0452764593064785,1.166364312171936,0.6269370913505554,-2.6474404335021973,0.6149885058403015,0.9050634503364563,0.0502355732023716
188,-1.5198115099451825,0.4205011309159785,1.7461993717552926,-0.9116982221603394,-0.4082179665565491,-0.0465230867266655,0.31975987553596497,1.3592722415924072,-0.38772016763687134,0.9642648100852966,1.1191860437393188,0.1360616683959961
189,-1.4798878360623775,0.1582318674577263,1.6609085731691335,-0.9834297299385071,-0.157572403550148,-0.08964920789003372,-2.1643762588500977,-1.3240786790847778,5.75289249420166,0.6612403988838196,1.4511667490005493,0.06204605847597122
190,-1.5137195676545903,-0.489219285662524,1.5804451934743282,-0.8812626600265503,0.46993690729141235,-0.050354309380054474,-1.370578646659851,0.18308015167713165,4.7189788818359375,-0.6623927354812622,0.9495730400085449,-0.05212372541427612
191,-1.5942608437571302,-0.9497960724671192,1.4113808553811382,-0.5816887617111206,0.8132968544960022,0.013651551678776741,-1.1563844680786133,-0.3551812171936035,5.496868133544922,-0.7659979462623596,0.547207236289978,-0.30726122856140137
192,-1.9860595425006045,-1.347319123104147,0.9714263040204163,-0.20278654992580414,0.9751327037811279,0.08940920978784561,-1.449537992477417,1.985923171043396,2.2464287281036377,-1.4156216382980347,-0.32632899284362793,-0.12607598304748535
193,-2.424068978245673,-1.3704258950826913,0.40599658828921925,-0.13086774945259094,0.9799929261207581,0.14995798468589783,0.3736417591571808,-0.26267173886299133,1.0182521343231201,-1.067908525466919,-0.5848208665847778,-0.4516395330429077
194,-2.126478194731312,-1.3604668625900707,0.7452921737267193,-0.17736932635307312,0.9779621958732605,0.11013753712177277,0.33256226778030396,-2.0620553493499756,-2.854116678237915,-1.770521879196167,-0.03371769189834595,-0.29170191287994385
195,-1.8027343961386322,-0.9178538299923963,1.2946943411849305,-0.5912585854530334,0.7942996025085449,0.13964854180812836,-0.11560073494911194,-0.5957155823707581,-6.850783348083496,-1.1511273384094238,1.3299986124038696,-0.3349761962890625
196,-1.6530642412952956,-0.2990051595587197,1.457497789197101,-0.9523979425430298,0.29456964135169983,0.07852903008460999,0.6866351962089539,1.1160227060317993,-5.196889877319336,0.12000054121017456,1.226121187210083,-0.21596503257751465
197,-1.589759526917132,0.1395488906311654,1.5797510322576358,-0.9901008009910583,-0.13909640908241272,0.01877772994339466,1.2217137813568115,0.4332585036754608,-3.5016582012176514,0.46275705099105835,1.1825991868972778,-0.09920680522918701
198,-1.6061814101039535,0.5117565314939284,1.7025592956372673,-0.8713397979736328,-0.4897094964981079,0.03084530681371689,-0.08250908553600311,1.1996594667434692,-3.815675973892212,0.5327320694923401,1.3754974603652954,0.2509845495223999
199,-1.3863590340682785,0.6351734621635786,1.6643594189275872,-0.7913162112236023,-0.5933171510696411,-0.14762596786022186,-0.40334901213645935,0.45266467332839966,0.032212503254413605,0.7315933704376221,1.2745000123977661,0.6187257766723633
200,-1.2960027035165593,0.18126713657712507,1.4898085518081796,-0.9467120170593262,-0.18027609586715698,-0.2669025659561157,-3.156346082687378,-2.8531715869903564,6.1333441734313965,-0.23396730422973633,1.5212795734405518,0.06064951419830322
201,-1.497761633375908,-0.5930326687600276,1.4492643946079409,-0.8270390629768372,0.5588784217834473,-0.06051017343997955,-0.19836391508579254,-0.5176183581352234,6.285096168518066,-1.3707606792449951,0.91885906457901,-0.34163522720336914
202,-1.636313859041649,-1.0903818883855863,1.2783454228104025,-0.4611549973487854,0.8868034482002258,0.03025704436004162,-0.11231920123100281,-1.7256064414978027,5.273481845855713,-1.2506979703903198,0.10654360055923462,-0.553831934928894
203,-1.915550444286275,-1.3419366801193078,1.0175544203068105,-0.2135179340839386,0.9739257097244263,0.07667320966720581,-0.0725216194987297,1.4381999969482422,1.1795557737350464,-1.2187635898590088,-0.540362536907196,-0.41933977603912354
204,-1.4006527851949617,-1.3738102340356744,1.601655747158623,-0.1928885579109192,0.9806609153747559,-0.03313914313912392,0.31233012676239014,-1.313793659210205,-1.3651463985443115,-1.8237130641937256,-0.43181753158569336,0.23090827465057373
205,-1.6508552968657488,-0.9962456167210163,1.4535175471776682,-0.5417172908782959,0.8394365310668945,0.043462224304676056,-0.36836177110671997,-0.20002254843711853,-5.660992622375488,-0.9527590870857239,0.8680678009986877,-0.5622763633728027
206,-1.6060105985627442,-0.5103689360542167,1.5760923525699324,-0.8720234036445618,0.4884991943836212,0.030720368027687073,1.5528767108917236,-0.7438024282455444,-4.479432106018066,-0.07797348499298096,0.8968767523765564,-0.4492841958999634
207,-1.59870659727035,-0.10581394250502166,1.6862105157175733,-0.994019627571106,0.10561659187078476,0.027750562876462936,0.390829473733902,0.0515943244099617,-3.8875741958618164,0.14250296354293823,0.997593879699707,-0.17707300186157227
208,-1.5113533549072244,0.2292855705399963,1.6965892670158889,-0.9721089601516724,-0.227281853556633,-0.057853203266859055,0.08420252054929733,2.732147693634033,-2.3336739540100098,0.6096975803375244,0.9758323431015015,-0.030052654445171356
209,-1.2932078489488004,0.47374466236901847,1.7631778384722545,-0.8558013439178467,-0.45622172951698303,-0.2438564896583557,0.8717637658119202,0.46166321635246277,-0.6052278280258179,1.0203825235366821,1.2501517534255981,0.6508846282958984
210,-1.313992197331527,0.16243134406298979,1.6602401130661597,-0.9544752836227417,-0.16171802580356598,-0.25064751505851746,-2.2214581966400146,-1.7536624670028687,5.775765895843506,0.1945875883102417,1.4885460138320923,-0.049614906311035156
211,-1.5164477838797357,-0.49026068054876143,1.6244128599381655,-0.880907416343689,0.4708558917045593,-0.04792322963476181,-2.2239060401916504,-0.19228124618530273,7.410325050354004,-0.698239803314209,1.1462247371673584,-0.07123266905546188
212,-1.669632503944832,-1.0442863073875195,1.4644820891104602,-0.5000666379928589,0.8645660877227783,0.04958624020218849,-0.20601776242256165,-0.402180552482605,4.842465877532959,-1.2951298952102661,0.1919981837272644,-0.24291515350341797
213,-2.0696604412611137,-1.3322805034821261,0.9523027865639657,-0.20746716856956482,0.9716897010803223,0.11303403228521347,-1.123581886291504,1.2304755449295044,1.187025547027588,-1.3940190076828003,-0.5795998573303223,-0.2911651134490967
214,-2.2013841086600503,-1.3883111328569473,0.8148737387666268,-0.14657346904277802,0.9833957552909851,0.10700088739395142,0.690746545791626,-1.638685941696167,-0.8087912797927856,-2.000551700592041,-0.6407443284988403,-0.1805483102798462
215,-1.8558729533878486,-1.099638410072724,1.3262037499943666,-0.43559813499450684,0.8910433053970337,0.12765587866306305,0.4817263185977936,-1.1684101819992065,-6.026334762573242,-1.3923285007476807,0.49990206956863403,-0.5756386518478394
216,-1.7156186333831098,-0.5332141106173232,1.623484985418296,-0.8521625399589539,0.5083038806915283,0.12428224086761475,0.8683398962020874,-1.6760238409042358,-5.809964179992676,-0.6496531963348389,1.1834075450897217,-0.19653260707855225
217,-1.6822942716669322,-0.023090633520786517,1.7059033392209226,-0.9935256242752075,0.02308858186006546,0.11123740673065186,0.19772376120090485,1.0290850400924683,-4.798296928405762,-0.06866919994354248,1.2768534421920776,-0.32255637645721436
218,-1.6448193979548908,0.39648877323711784,1.8194524621225217,-0.9198966026306152,-0.38618189096450806,0.06821821630001068,0.6674630045890808,0.6484935879707336,-3.744246244430542,0.2990928292274475,1.2014589309692383,0.05974196642637253
219,-1.5128480000126912,0.7586344693286867,1.8221685383875117,-0.7245578169822693,-0.6879310011863708,-0.04203397408127785,-0.16593241691589355,1.41636061668396,-2.1406142711639404,0.5550479888916016,1.7438087463378906,0.22291165590286255
220,-1.4068824691256345,0.5277067887992795,1.7934418603101792,-0.8523836731910706,-0.5035533905029297,-0.14098238945007324,-1.0116914510726929,0.11959107220172882,6.622033596038818,0.5629245042800903,1.5295238494873047,0.22702670097351074
221,-1.5530194499298937,-0.16801918546924546,1.7644403422927102,-0.9857621192932129,0.1672297567129135,-0.01752561889588833,-0.7275072932243347,0.48333409428596497,8.470595359802246,-0.32974380254745483,1.3501347303390503,-0.14200496673583984
222,-1.5596783197674982,-0.8407655263723327,1.6681773320440103,-0.6668512225151062,0.7451538443565369,-0.007414362393319607,-0.6245049834251404,0.7646439671516418,5.867893695831299,-0.9938389658927917,0.34671926498413086,-0.4420790672302246
223,-1.4389539174289578,-1.2243961013988212,1.7809947448470953,-0.33656734228134155,0.9406009912490845,-0.04463275521993637,0.025356892496347427,0.13032297790050507,2.2888410091400146,-1.3761401176452637,-0.7591130137443542,0.04112321510910988
224,-1.231930862117102,-1.2874736634101378,1.9370776459115309,-0.26365023851394653,0.9601318836212158,-0.09292640537023544,0.6656772494316101,-0.9917252063751221,-1.4612981081008911,-2.0413424968719482,-0.5690033435821533,0.22459453344345093
225,-1.7541569818973561,-0.9484058774197123,1.5502785187713461,-0.5732061862945557,0.8124871850013733,0.10629741847515106,-1.8411426544189453,-0.6612046957015991,-4.744667053222656,-0.9342248439788818,0.44108331203460693,-0.5027512311935425
226,-1.7355560732798896,-0.5241569998409422,1.6659348747791853,-0.8540220856666565,0.5004833340644836,0.1419956535100937,0.4097365140914917,-0.6426787972450256,-4.062352657318115,-0.3483704924583435,0.6420947909355164,-0.16125226020812988
227,-1.6528625337806147,-0.13047738123505168,1.684622750324179,-0.9881631135940552,0.13010747730731964,0.08127734810113907,-0.6821879744529724,2.1142630577087402,-3.551637649536133,0.16627883911132812,0.7856640219688416,-0.12529897689819336
228,-1.5154109817498913,0.249181599851962,1.7274116437242746,-0.9676286578178406,-0.24661092460155487,-0.05364731326699257,1.7361397743225098,1.3086048364639282,-3.339048385620117,0.617683470249176,1.1856062412261963,-0.07614398747682571
229,-1.4247192900796102,0.40019275921802216,1.7359939042978376,-0.9111772179603577,-0.3895958662033081,-0.134056955575943,-2.612823009490967,-0.8300331830978394,2.642784357070923,1.370893955230713,1.3304375410079956,0.3855065107345581
230,-1.5377641952805443,-0.062389659226095066,1.7338615556612675,-0.9975100159645081,0.062349192798137665,-0.03296187147498131,-0.30579349398612976,0.0009214673191308975,4.839756965637207,0.009533941745758057,0.9725934267044067,0.22491741180419922
231,-1.6083983023505193,-0.6078301582213054,1.5369191252418635,-0.820309042930603,0.5710875988006592,0.03085978701710701,-1.3841421604156494,-0.9957165718078613,6.69296932220459,-0.4969213008880615,0.8676179051399231,-0.4289311170578003
232,-1.8153311720982428,-1.1524727473557723,1.3904397189909445,-0.3941439986228943,0.9137712121009827,0.0983501598238945,0.05539578199386597,-0.019001025706529617,3.313260793685913,-1.4100399017333984,-0.20741140842437744,-0.1355205774307251
233,-1.9147785509814754,-1.3531547007115154,1.1946256382850389,-0.203278586268425,0.976409375667572,0.07281921803951263,-0.2441946566104889,1.2620265483856201,1.3517675399780273,-1.5246877670288086,-0.4028467535972595,0.006022930145263672
234,-1.730314456441122,-1.3148272868700512,1.5627866201731808,-0.24996864795684814,0.9674184322357178,0.04021622613072395,-0.5889534950256348,-0.687839686870575,-4.019710540771484,-1.7177132368087769,-0.23069357872009277,0.16205430030822754
235,-1.7008465785852842,-0.8447449133642049,1.6304399404571448,-0.6583153605461121,0.7478017807006836,0.0861000344157219,-0.020363489165902138,-1.5736075639724731,-4.78468132019043,-0.6794835925102234,0.5775613188743591,-0.22545850276947021
236,-1.7050484396948509,-0.38242106439327234,1.713697578116223,-0.9194157719612122,0.3731677234172821,0.12418046593666077,0.055478841066360474,0.5069058537483215,-4.9046430587768555,-0.17038226127624512,0.7812511920928955,-0.3105360269546509
237,-1.6291861434585149,0.09197924946455734,1.7888752201028542,-0.9940759539604187,-0.09184961020946503,0.058109965175390244,0.42831307649612427,0.7810834646224976,-4.173825740814209,0.3833733797073364,1.100898027420044,-0.11403346061706543
238,-1.5838336558356614,0.4811258849227019,1.792411174204296,-0.8863990306854248,-0.4627775251865387,0.011556929908692837,-0.7542557120323181,0.8686850666999817,-2.2139015197753906,0.9950264096260071,2.073617458343506,0.08246779441833496
239,-1.4494225740479503,0.27406592169415867,1.8101710155312902,-0.9555960893630981,-0.2706478238105774,-0.11655720323324203,0.019673196598887444,0.2492472231388092,5.672183990478516,0.6400444507598877,1.3678463697433472,0.28272539377212524
240,-1.4893929906093106,-0.36834234564887364,1.795710993894322,-0.9298363327980042,0.3600694537162781,-0.07585941255092621,-1.867360234260559,-0.37707313895225525,6.889095306396484,-0.5173835754394531,1.0710524320602417,0.020973563194274902
241,-1.556285549386285,-1.012500719133855,1.721922088103119,-0.529685914516449,0.8481592535972595,-0.00768669368699193,-0.07261157035827637,-0.8861855864524841,4.838389873504639,-1.2852708101272583,0.0983741283416748,-0.11110299825668335
242,-1.5661237090514812,-1.3216515217688485,1.7306863191593342,-0.24657286703586578,0.9691236615180969,-0.0011521491687744856,0.0195817481726408,0.6162590980529785,0.9669492840766907,-1.534906029701233,-0.7344128489494324,-0.0350874662399292
243,-1.4522103901658758,-1.2858998979271585,1.8933289246561724,-0.2790847420692444,0.9596907496452332,-0.03325153887271881,-1.1015220880508423,-1.9366754293441772,-2.4842724800109863,-1.8951706886291504,-0.4149214029312134,0.4431331157684326
244,-1.8086597564109397,-0.8450138417687828,1.6196920019606298,-0.6450331211090088,0.7479802966117859,0.15639044344425201,0.45212221145629883,-0.30702894926071167,-4.879829406738281,-1.0135209560394287,0.5117548704147339,-0.6934387683868408
245,-1.751359385151914,-0.3465825569798491,1.831024576089485,-0.9252484440803528,0.3396855592727661,0.16890530288219452,0.1262434422969818,-0.251593679189682,-5.463151454925537,-0.40733206272125244,0.8042505979537964,-0.16614343225955963
246,-1.7110358874858478,0.15474201774305174,1.8794709713402165,-0.9783512353897095,-0.15412519872188568,0.13811014592647552,-0.10089503228664398,-0.0027533345855772495,-4.2079081535339355,0.10287821292877197,1.2387351989746094,-0.3137388229370117
247,-1.6681268756698058,0.5461616903926555,1.9197340339714013,-0.8504801988601685,-0.5194111466407776,0.08304008841514587,-0.7428628206253052,1.3791401386260986,-3.7699286937713623,0.10730087757110596,2.097505569458008,0.16480839252471924
248,-1.4696666493492276,0.49662764210470417,1.7926640319026361,-0.8747024536132812,-0.47646328806877136,-0.08876117318868637,0.47585058212280273,1.2579879760742188,4.080068588256836,0.8463820219039917,1.3402938842773438,-0.07882607728242874
249,-1.4979223188539097,-0.1566493979578905,1.8853645435236117,-0.985133945941925,0.1560095101594925,-0.07191801071166992,-0.15175455808639526,-1.550856590270996,8.531330108642578,-0.35947054624557495,1.275219202041626,0.005557537078857422
250,-1.479297870867135,-0.85930375603128,2.0223509713843524,-0.6502335667610168,0.7573881149291992,-0.05966195464134216,0.3036356270313263,-1.308549165725708,4.743532657623291,-1.2204482555389404,-0.01851177215576172,-0.028152406215667725
251,-1.251784680527236,-1.2275975920451807,2.3823412254133935,-0.31952306628227234,0.9416831135749817,-0.10553619265556335,1.4225127696990967,0.9489336609840393,2.0669760704040527,-1.6526601314544678,-0.6602042317390442,0.36733126640319824
252,-1.141472318594531,-1.2041522263087492,2.4913931061293084,-0.32595130801200867,0.933535635471344,-0.1492215245962143,0.8356740474700928,-3.8048899173736572,-1.1187220811843872,-1.7956764698028564,-0.225863516330719,0.1287137269973755
253,-1.6530032336035714,-0.8793001134441513,2.1044007949157306,-0.6355370879173279,0.7702927589416504,0.052363548427820206,-1.7074224948883057,0.9699172377586365,-4.96400260925293,-0.8736335039138794,0.7282882928848267,-0.4610549211502075
254,-1.6436966771013326,-0.4489449590107728,2.1444289035281345,-0.8985125422477722,0.43401527404785156,0.06561816483736038,0.3822431266307831,-1.2305952310562134,-4.317424297332764,0.15048104524612427,0.48229023814201355,-0.20625841617584229
255,-1.6769036503655255,-0.028465469859084654,2.197766805149725,-0.9939731955528259,0.028461625799536705,0.10586543381214142,-0.04400142282247543,-0.18091058731079102,-4.099289894104004,0.2558596730232239,0.9052847027778625,-0.2300872653722763
256,-1.6972882439345924,0.23106404829813706,2.22035125973289,-0.9656461477279663,-0.22901342809200287,0.12280207872390747,0.9879432916641235,0.7000643014907837,-0.5280832648277283,0.5371641516685486,1.159982681274414,-0.6143333911895752
257,-1.589518056990728,0.26952263249060043,2.3143138926579447,-0.9637291431427002,-0.26627132296562195,0.018044784665107727,-0.5503989458084106,1.313328742980957,-0.06909521669149399,0.8099969029426575,1.0410058498382568,0.2566896677017212
258,-1.485052650821496,-0.027734964661160207,2.1438644693457207,-0.995943009853363,0.027731409296393394,-0.08560571074485779,-1.8883543014526367,-0.18538720905780792,4.859922409057617,0.1454487442970276,0.9472441673278809,-0.18084323406219482
259,-1.498034614801022,-0.5213589441769967,2.0520682459882265,-0.8648486733436584,0.4980590045452118,-0.06303916126489639,-0.5327026844024658,0.8802542686462402,4.855968952178955,-0.2895702123641968,0.4304077923297882,-0.19710791110992432
260,-1.4031385423567502,-1.049116289979632,2.1311016161266054,-0.4913499355316162,0.86698317527771,-0.08315928280353546,-0.2920221984386444,-1.0955564975738525,3.7478227615356445,-1.1642134189605713,-0.19086629152297974,0.07388198375701904
261,-1.4354714673297546,-1.299951441315688,2.0727045287510664,-0.2651001811027527,0.9635452032089233,-0.03609525039792061,0.02708555944263935,0.22949877381324768,1.3569597005844116,-1.349432349205017,-0.6514875888824463,-0.199363112449646
262,-1.576231615555839,-1.2674010275972662,1.9672094907085418,-0.29875773191452026,0.9543275833129883,0.0016238506650552154,-0.15287859737873077,-1.5823956727981567,-1.6589585542678833,-1.51438307762146,-0.05312830209732056,-0.33771395683288574
263,-1.6852609218083048,-0.8999357633726585,2.0143141020038993,-0.6175922155380249,0.783286988735199,0.07100281119346619,0.052351005375385284,-0.42259037494659424,-4.758688449859619,-0.6567912697792053,0.6218491196632385,-0.329639196395874
264,-1.6467765596319377,-0.43742675920554924,2.180211999039544,-0.9032313227653503,0.4236099123954773,0.06876008957624435,1.327547550201416,-1.3485273122787476,-4.804516315460205,0.22595471143722534,0.5300644040107727,-0.18429958820343018
265,-1.671860749318371,-0.06141982404982065,2.343557160222532,-0.9930212497711182,0.06138121336698532,0.1007022112607956,1.220380425453186,-0.5089198350906372,-2.4528722763061523,0.5821174383163452,0.8249408006668091,-0.3450411558151245
266,-1.7038050418749695,0.1516748262260209,2.433742374542281,-0.9797883033752441,-0.15109394490718842,0.13109436631202698,-0.46774789690971375,0.735282838344574,-2.024111032485962,0.49214786291122437,1.004045009613037,-0.06777048110961914
267,-1.5160425102421913,0.24902412989046388,2.2566135839727033,-0.9677009582519531,-0.24645830690860748,-0.0530383363366127,-2.8279216289520264,1.1155999898910522,0.9744520783424377,0.8718758225440979,1.2241652011871338,0.004637483507394791
268,-1.4974786987071513,-0.17216055914620912,2.016991591072554,-0.9825700521469116,0.1713113635778427,-0.07216906547546387,-1.7445504665374756,-0.6398033499717712,6.3712477684021,0.1016802191734314,1.0012197494506836,-0.24197888374328613
269,-1.5198776678286685,-0.6620987031354539,1.9585478250497195,-0.7876816391944885,0.6147734522819519,-0.04014239087700844,-2.272568702697754,1.1196072101593018,2.3738889694213867,-0.5410690903663635,-0.04385054111480713,0.4437373876571655
270,-1.8040149223299415,-0.9602886128689418,1.5145132903520777,-0.5577635169029236,0.8193570375442505,0.13249169290065765,-1.431816816329956,-1.2735964059829712,3.2396180629730225,-0.8017945885658264,-0.02359592914581299,-0.5452572107315063
271,-2.1439082377674477,-1.1386004647280017,1.1460963168589358,-0.3519381880760193,0.908048152923584,0.22712954878807068,-0.5205601453781128,0.15627428889274597,1.1074882745742798,-1.288228988647461,-0.46563494205474854,-0.5090204477310181
272,-2.146246948251424,-1.105967525664733,1.1406133773010296,-0.3760746419429779,0.8938983082771301,0.24395419657230377,1.0845801830291748,-0.8006603717803955,-1.5499505996704102,-1.2847377061843872,-0.1737293004989624,-0.7030301094055176
273,-1.8351363160269998,-0.9279024342746778,1.6394788982856798,-0.5786901116371155,0.8003641963005066,0.15663640201091766,1.7160491943359375,-0.790450394153595,-4.222109794616699,-0.8732904195785522,0.3355458378791809,-0.2610980272293091
274,-1.6223715252373396,-0.5039946286432789,1.9838709285217624,-0.8744959831237793,0.4829273223876953,0.045142337679862976,1.9237068891525269,0.023947373032569885,-4.287436485290527,0.14617884159088135,0.5809153914451599,-0.06439900398254395
275,-1.5678619144386878,-0.12733213872180604,2.1538850348237433,-0.9919000864028931,0.12698833644390106,-0.0029106521978974342,0.6399772763252258,-0.09143143147230148,-3.3929033279418945,0.3729119300842285,0.8276930451393127,0.10850149393081665
276,-1.551452900227516,0.11496891550912064,2.1487014173132994,-0.9932126402854919,-0.1147158071398735,-0.019214531406760216,-0.3642246723175049,0.3450234532356262,-1.2579096555709839,0.5506923794746399,1.002197504043579,-0.11907583475112915
277,-1.466094480002744,0.11974017255733352,2.1083546303550547,-0.987402617931366,-0.11945424228906631,-0.10376232117414474,-0.7474965453147888,0.4789811372756958,1.7439813613891602,0.764700710773468,0.8238610029220581,0.12333931028842926
278,-1.4982209170508791,-0.17515109175113072,2.0669890957937946,-0.982107937335968,0.17425692081451416,-0.07140229642391205,-1.1734181642532349,0.009470795281231403,3.670118808746338,0.16001027822494507,0.6620773077011108,0.10457492619752884
279,-1.532391615397896,-0.5941198240609745,1.942494128687113,-0.8280304670333862,0.5597796440124512,-0.031815916299819946,-1.3666805028915405,-0.5980733633041382,3.620419979095459,-0.184695303440094,0.08926820755004883,-0.10005056858062744
280,-1.7090051011664078,-0.9433592800976357,1.7664677971726706,-0.5814737677574158,0.8095347881317139,0.08088041096925735,-1.1711641550064087,-0.42319971323013306,3.2930080890655518,-0.6987234354019165,-0.11997491121292114,-0.14475369453430176
281,-2.0021831292294405,-1.120706648543939,1.4213578166040892,-0.3951903283596039,0.9004080891609192,0.1819063425064087,-0.46621400117874146,0.7681109309196472,1.3315321207046509,-0.9583100080490112,-0.4221060872077942,-0.5589662790298462
282,-1.9202637312355504,-1.1398759631789492,1.5211538179439372,-0.392458975315094,0.9085816740989685,0.14302188158035278,0.47868943214416504,-0.5760592222213745,-1.3576579093933105,-1.3933534622192383,-0.238461434841156,-0.19241464138031006
283,-1.762801986845527,-0.8507732278139027,1.822167406347753,-0.647284746170044,0.7517905235290527,0.1258324682712555,1.3550585508346558,-0.46390554308891296,-4.5016021728515625,-0.8135918378829956,0.5738626718521118,-0.3716362714767456
284,-1.5707867163020919,-0.45309288333419057,2.07561136247044,-0.8990975022315979,0.43774843215942383,-8.64076992002083e-06,1.5622191429138184,0.2435768097639084,-3.751840353012085,0.2341042160987854,0.48705625534057617,-0.04540151357650757
285,-1.5585370557348037,-0.09801816509641055,2.192938674292253,-0.9951252341270447,0.09786128997802734,-0.012200120836496353,0.40917330980300903,-0.17718468606472015,-3.211054563522339,0.43665361404418945,0.8027887344360352,0.08425211906433105
286,-1.5262916862369993,0.14718555819470416,2.151175362819479,-0.9882083535194397,-0.14665471017360687,-0.04400891810655594,-1.0532716512680054,1.063950777053833,-1.5091009140014648,0.5147585868835449,1.064501404762268,0.07168841361999512
287,-1.4323863991250008,0.1661483909174946,2.039511903966688,-0.976797342300415,-0.16538502275943756,-0.1360684633255005,-1.398903489112854,-0.41659966111183167,1.7430219650268555,0.8090727925300598,0.9865367412567139,0.14060033857822418
288,-1.5157693028848265,-0.20121455343026656,1.96276633320871,-0.9783414602279663,0.19985952973365784,-0.053889624774456024,-0.14831645786762238,-0.4190322756767273,4.476310729980469,0.017144620418548584,0.6997071504592896,-0.21690809726715088
289,-1.5092538625002634,-0.6615305565187722,2.0167076448262513,-0.7875590920448303,0.6143252849578857,-0.04852961003780365,0.12713974714279175,-0.10823781788349152,4.298150062561035,-0.2770618796348572,0.10813260078430176,0.09038448333740234
290,-1.5499317177791345,-1.0185751304274628,2.04131952679741,-0.5244651436805725,0.8513614535331726,-0.010944348759949207,0.18524980545043945,-0.49303382635116577,2.6890602111816406,-1.0806373357772827,-0.31535083055496216,-0.056148529052734375
291,-1.5300373339074425,-1.1583227183913587,1.987597774990608,-0.4005434811115265,0.9161320328712463,-0.01633479632437229,-0.20327383279800415,0.783195972442627,0.38292214274406433,-1.0147243738174438,-0.5790197253227234,-0.09976935386657715
292,-1.5472063876987838,-1.1080839568244656,2.0320823220381032,-0.44625282287597656,0.8948450684547424,-0.010529030114412308,0.20061419904232025,-1.463358998298645,-1.8395496606826782,-1.343099594116211,-0.30494022369384766,-0.0876460075378418
293,-1.6841367614613822,-0.7889391152089653,2.0251127477000486,-0.7000778913497925,0.7096061706542969,0.0796886533498764,-0.7357058525085449,-0.5764486789703369,-4.2239580154418945,-1.0534775257110596,0.5538979172706604,-0.2747112512588501
294,-1.6458208961713587,-0.3252524143828054,2.073984935459551,-0.9449044466018677,0.31954798102378845,0.07102435827255249,0.911304235458374,0.3874482214450836,-4.248887062072754,0.17393898963928223,0.7396255731582642,-0.28760766983032227
295,-1.6416891918446734,0.052309444103876855,2.2174325326153963,-0.9961238503456116,-0.05228559300303459,0.07073661684989929,0.8007519245147705,-0.03492070734500885,-3.492177724838257,0.4103694558143616,0.9487546682357788,-0.03339838981628418
296,-1.532683845464439,0.3273168492414998,2.2298364706385763,-0.9462208151817322,-0.32150349020957947,-0.036080293357372284,-0.8768467307090759,1.465275764465332,-2.088620901107788,0.8498920202255249,1.2727210521697998,0.23236936330795288
297,-1.4433096214747356,0.32703210676827515,2.1459702576920567,-0.9393146634101868,-0.3212338387966156,-0.12040314078330994,-0.15462593734264374,0.7128984928131104,1.6523760557174683,0.724318265914917,1.086050033569336,0.12722383439540863
298,-1.4920535372879282,-0.09362575973078474,2.070584668627266,-0.9925352334976196,0.09348903596401215,-0.07831692695617676,-1.4787830114364624,-0.6893318891525269,6.3023905754089355,0.017803847789764404,1.2674423456192017,-0.18199801445007324
299,-1.5419599910974802,-0.6307731687924216,2.0298026060154224,-0.8072358965873718,0.5897693037986755,-0.023284180089831352,-1.4677767753601074,-0.16984522342681885,4.894906520843506,-0.5280148386955261,0.4538402557373047,0.041106462478637695
300,-1.689603795669258,-1.0517409998701914,1.8310214371077909,-0.49256351590156555,0.8682881593704224,0.05879713222384453,-1.1445667743682861,0.459091454744339,2.6782326698303223,-0.8894860744476318,-0.3158436417579651,-0.061879388988018036
301,-2.020017717661218,-1.2323357118111722,1.3778118313508474,-0.2990928292274475,0.9432669281959534,0.1441912055015564,-0.2765519618988037,0.28628095984458923,1.7527059316635132,-1.1229195594787598,-0.4678029417991638,-0.5140185356140137
302,-1.9765652176614599,-1.2786825279851701,1.4349932684536666,-0.2645930349826813,0.9576373100280762,0.11367182433605194,0.18304574489593506,0.08685914427042007,-1.202439785003662,-1.5174808502197266,-0.41031986474990845,-0.12488699704408646
303,-1.8042375509225808,-0.980988661367716,1.6382652657062018,-0.5411148071289062,0.8310476541519165,0.12866421043872833,0.2862935960292816,0.5466675162315369,-4.522781848907471,-1.1015853881835938,0.7280037999153137,-0.5389882326126099
304,-1.5446867105071862,-0.510125157132579,1.9700004226470933,-0.87238609790802,0.48828646540641785,-0.022782843559980392,2.607200860977173,-0.3162032663822174,-4.332236289978027,0.17373180389404297,0.716745913028717,-0.016737403348088264
305,-1.525928640269085,-0.10245031818491852,2.158514178791028,-0.9937554597854614,0.1022711917757988,-0.04461745172739029,1.2565207481384277,-0.20992767810821533,-3.748748779296875,0.4972802400588989,0.7699669599533081,0.0735175609588623
306,-1.4802864455563451,0.21420961713725278,2.163635998400655,-0.973145067691803,-0.21257518231868744,-0.0883205458521843,-0.6141195297241211,0.6893022060394287,-2.272067070007324,0.577301561832428,1.1854908466339111,0.12060815840959549
307,-1.4576285220230145,0.25457391047285993,2.075229530511255,-0.961580216884613,-0.25183308124542236,-0.10928686708211899,-1.0351427793502808,-0.9603560566902161,1.7089461088180542,0.589113175868988,0.9124013185501099,-0.0400051474571228
308,-1.4671279233725256,0.004109229756023041,2.0108962943563817,-0.9946229457855225,-0.004109218250960112,-0.1034819558262825,-1.1990433931350708,0.4047100245952606,2.8215484619140625,0.11931765079498291,0.6711929440498352,0.10477893054485321
309,-1.4989231897845015,-0.4157382725802402,1.9029931387339616,-0.9124566316604614,0.40386542677879333,-0.06569427996873856,-1.1691627502441406,-0.3554942309856415,4.170420169830322,-0.30395883321762085,0.17689931392669678,-0.13637787103652954
310,-1.561298421138415,-0.6787520107880195,1.8008399760663043,-0.7783218622207642,0.6278221607208252,-0.007392650004476309,-1.0610647201538086,0.41358670592308044,2.1969552040100098,-0.31872403621673584,-0.3038322925567627,-0.07012200355529785
311,-1.7382488309727635,-0.8578710969765331,1.5588244818525672,-0.644900918006897,0.7564518451690674,0.10901108384132385,-0.4961029291152954,0.046969108283519745,0.9765509963035583,-0.889431357383728,-0.44019824266433716,-0.7096275091171265
312,-1.6504087124739488,-0.8975218533634385,1.675048621099492,-0.6215742826461792,0.7817840576171875,0.04958982393145561,0.416034072637558,-0.11511894315481186,-0.8384937047958374,-1.0674668550491333,-0.326812744140625,0.015916109085083008
313,-1.6441684821792792,-0.7496740433906914,1.8013701140197516,-0.7299418449401855,0.6814002394676208,0.05365372449159622,1.3469747304916382,-1.489150047302246,-1.9860382080078125,-0.743401050567627,0.23058706521987915,-0.3385200500488281
314,-1.6357011708804619,-0.5048511243920439,2.039006018102651,-0.8734037280082703,0.4836771488189697,0.056767869740724564,1.5419180393218994,-0.3995797634124756,-2.959460496902466,-0.04574006795883179,0.23551544547080994,-0.13998925685882568
315,-1.6017712047878896,-0.2183407900297092,2.17330890142082,-0.9757899641990662,0.2166101038455963,0.030234644189476967,0.680156409740448,-0.19612234830856323,-2.624617338180542,0.46306413412094116,0.3752935826778412,-0.036719560623168945
316,-1.6047092770851143,0.013941672662286004,2.198299780349043,-0.9993278980255127,-0.013941220939159393,0.033903155475854874,-0.2376917600631714,-0.2680497169494629,-1.9627807140350342,0.3858940601348877,0.85232013463974,-0.08059501647949219
317,-1.5586637655717483,0.10922363221429891,2.154869315154594,-0.9939677715301514,-0.10900659114122391,-0.01205996610224247,-0.8607444167137146,1.2978216409683228,-0.33617934584617615,0.3411511182785034,0.9837930202484131,0.038366079330444336
318,-1.4738735469909476,-0.010320430255514348,2.0358660885515936,-0.9952536821365356,0.010320247150957584,-0.09676595032215118,-1.3032832145690918,0.34043702483177185,3.307990312576294,0.42697060108184814,0.8215736746788025,-0.06368017196655273
319,-1.5385041273660163,-0.40001891879471124,1.982264751193206,-0.9205734729766846,0.3894357681274414,-0.0297376811504364,-0.6172768473625183,-0.5184446573257446,4.069991588592529,0.11642003059387207,0.1064901351928711,-0.05719161033630371
320,-1.5834767732849837,-0.77911731493084,1.9444891949957512,-0.7114769816398621,0.7026516199111938,0.009022329933941364,-0.6734125018119812,-0.28633400797843933,3.3479342460632324,-0.29194098711013794,-0.19790607690811157,0.11002671718597412
321,-1.77587303082148,-1.0534215506367497,1.7589786188513936,-0.48423588275909424,0.8691205978393555,0.10072147101163864,-0.5540024638175964,-0.1078752875328064,1.2962406873703003,-1.2499558925628662,-0.4369460344314575,-0.20597662031650543
322,-1.7655845039110565,-1.0761876086844733,1.7281911621901316,-0.46571049094200134,0.8801544904708862,0.09187989681959152,0.7784493565559387,-0.3232378661632538,-0.7245848774909973,-1.1711914539337158,-0.35200202465057373,-0.24135494232177734
323,-1.740262823276051,-0.8871349811320784,1.9337222795347353,-0.6225876212120056,0.7752652764320374,0.10652950406074524,-0.1580907553434372,-0.4037075936794281,-3.870051622390747,-1.2702041864395142,0.4042849540710449,-0.07985709607601166
324,-1.674707842817778,-0.47380257189441305,2.1101625590632453,-0.8850399851799011,0.45627325773239136,0.09229828417301178,1.488121747970581,-0.8368691802024841,-3.974088668823242,0.0882108211517334,0.5283611416816711,-0.19036650657653809
325,-1.6653805846066427,-0.1146860453761905,2.235179613951494,-0.9889903664588928,0.11443480104207993,0.09382287412881851,0.1916646510362625,0.25818967819213867,-3.2608675956726074,0.4311900734901428,0.6774810552597046,-0.08324849605560303
326,-1.6230688909511222,0.1787953972253706,2.2462442795664748,-0.9827146530151367,-0.17784430086612701,0.05141585320234299,-1.0421056747436523,1.6936917304992676,-2.450890302658081,0.34024322032928467,1.1412689685821533,0.1854158639907837
327,-1.4312113768970687,0.3288825729022755,2.108795635094288,-0.9371989369392395,-0.3229856789112091,-0.13167516887187958,-1.3274158239364624,0.9038776159286499,-0.4498758316040039,0.8456004858016968,1.2080106735229492,0.1591409593820572
328,-1.4239974782017124,0.039463102356785344,2.0120722970951603,-0.9884741902351379,-0.03945286199450493,-0.14615827798843384,-0.9261067509651184,-1.9479098320007324,5.247228145599365,0.13944464921951294,1.1856777667999268,0.05266767740249634
329,-1.532056302067614,-0.6044859994107766,2.0486856225309453,-0.8221770524978638,0.5683392286300659,-0.03186710178852081,0.1936141699552536,-0.19223619997501373,5.586920261383057,-0.7786988019943237,0.4687091112136841,-0.04293149709701538
330,-1.591042688637915,-1.0327616809947453,1.9833135994916773,-0.5123441815376282,0.8587175011634827,0.0103745236992836,-1.5343430042266846,0.3624379336833954,3.2784435749053955,-0.8180543780326843,-0.20249801874160767,0.04135274887084961
331,-2.0533902773861743,-1.2751830089201928,1.510474930969327,-0.2580554187297821,0.9566236734390259,0.1351984143257141,-0.6555165648460388,-0.964970588684082,2.526392698287964,-1.2831432819366455,-0.4042555093765259,-0.42801451683044434
332,-1.814821462330322,-1.3193528823453802,1.795546428072974,-0.24143052101135254,0.9685543179512024,0.0601130910217762,0.665259838104248,0.29866230487823486,-2.8569560050964355,-1.485437035560608,-0.38585180044174194,0.0377873070538044
333,-1.6942785930009991,-0.9345762113865841,2.0628800158630085,-0.5896352529525757,0.8043473362922668,0.07318183034658432,0.11367426067590714,-1.1752088069915771,-5.028757095336914,-1.0902199745178223,0.8715101480484009,-0.3139655590057373
334,-1.6383071929754756,-0.44998101951943337,2.1296156753436306,-0.8984042406082153,0.4349484443664551,0.06074436008930206,0.5297214984893799,0.5259420871734619,-4.645907878875732,-0.018725275993347168,0.8551669120788574,-0.3604574203491211
335,-1.5820147653321777,-0.02366191331421036,2.2204382103759843,-0.9996570944786072,0.023659706115722656,0.011215061880648136,0.805941641330719,0.5523214340209961,-3.5936412811279297,0.41394853591918945,0.9653692245483398,-0.14482104778289795
336,-1.5402395703301301,0.310902797868982,2.2943399859152995,-0.9516133666038513,-0.30591827630996704,-0.02908727154135704,0.3958970904350281,1.3594768047332764,-2.7835958003997803,0.5762166380882263,1.2383370399475098,0.07645058631896973
337,-1.3717213824693486,0.4573091224539474,2.2939279670090125,-0.8795232772827148,-0.4415353238582611,-0.1774413138628006,-0.8612037301063538,1.3411738872528076,0.2954848110675812,1.0958471298217773,1.2183297872543335,0.4002653956413269
338,-1.341395503695722,0.14164860714390412,2.1694565852755234,-0.964049756526947,-0.14117540419101715,-0.22511662542819977,-2.8780837059020996,-1.5019291639328003,5.645512580871582,0.2124476432800293,1.4541178941726685,0.07440556585788727
339,-1.4940802719934234,-0.5838131511652245,2.0831578447478147,-0.831912636756897,0.5512095093727112,-0.06394655257463455,-1.6559383869171143,-0.7240607142448425,5.308389663696289,-1.067699670791626,0.591032862663269,-0.06280826032161713
340,-1.5836704251299818,-1.0613665533993328,1.9160026542508832,-0.48763933777809143,0.873022735118866,0.006278263404965401,-0.8534592986106873,0.13720375299453735,4.272839069366455,-1.0518505573272705,-0.07387411594390869,-0.23346638679504395
341,-2.0539857746329577,-1.2800269484603595,1.3475967746653335,-0.25386887788772583,0.9580236077308655,0.13319776952266693,-0.9184780120849609,1.3115880489349365,2.0674052238464355,-1.1287147998809814,-0.41587865352630615,-0.7206459045410156
342,-2.1214644153759084,-1.3506659914329109,1.2964434944012986,-0.186078742146492,0.9758689999580383,0.11425696313381195,0.27636414766311646,-0.371070921421051,-1.2440861463546753,-1.728182077407837,-0.5163657069206238,-0.31079018115997314
343,-1.7537659657182605,-1.0562250676499643,1.7809173211507399,-0.48394647240638733,0.8705037832260132,0.08954904973506927,1.0604100227355957,-1.1956435441970825,-5.165893077850342,-1.3321088552474976,0.772837221622467,-0.581019401550293
344,-1.5709367184290706,-0.5140931429459004,2.0835417150772897,-0.8707391023635864,0.4917454123497009,0.00012224448437336832,1.4891358613967896,0.359622061252594,-5.16141939163208,-0.06299197673797607,1.0069422721862793,-0.1315920352935791
345,-1.5560659729745234,-0.06136010547464517,2.211526676182198,-0.9980098009109497,0.06132160872220993,-0.014702100306749344,1.039656400680542,-0.44252175092697144,-3.863589286804199,0.4175196886062622,0.9908634424209595,-0.07297486066818237
346,-1.5503498355820544,0.2556636228403483,2.256303280311187,-0.9672934412956238,-0.2528875172138214,-0.019780512899160385,-0.022369084879755974,0.39670035243034363,-2.5872621536254883,0.31145548820495605,1.291980504989624,-0.040964722633361816
347,-1.4051143515332507,0.41124137611047745,2.2449043268005875,-0.9040730595588684,-0.3997475206851959,-0.1511744111776352,0.1459461748600006,1.1077452898025513,0.6737306118011475,1.1022847890853882,1.081968069076538,0.17606152594089508
348,-1.4143358988284633,0.1331718905775501,2.1729693582622773,-0.9790389537811279,-0.1327786147594452,-0.15444315969944,-2.4328041076660156,-0.7074224352836609,4.633963108062744,0.6446578502655029,1.1338772773742676,0.13051742315292358
349,-1.5279353645131737,-0.4786365604914998,2.105190777882848,-0.8868086338043213,0.4605693817138672,-0.038032762706279755,-0.4597032070159912,-0.5119455456733704,5.421453952789307,-0.5482348203659058,0.5714893937110901,-0.11334967613220215
350,-1.6048966345619855,-0.883978531127217,1.9944114278369673,-0.633711040019989,0.7732676863670349,0.02161812223494053,-0.5968812704086304,-0.2552160620689392,3.9074862003326416,-0.7081010341644287,0.05069160461425781,-0.21413826942443848
351,-1.8033930873510844,-1.1813184185621721,1.7772814771364864,-0.36948099732398987,0.9251074194908142,0.08752419054508209,-1.1052792072296143,0.8225625157356262,1.8580857515335083,-1.292445421218872,-0.4447757601737976,-0.12382481247186661
352,-1.7879036842854055,-1.2603360830869557,1.77298875485889,-0.2983253002166748,0.9521930813789368,0.0658058151602745,0.6614372730255127,-0.7070080637931824,-0.8467031717300415,-1.5288536548614502,-0.5982959866523743,0.016790032386779785
353,-1.7385221521162468,-1.0022617396255253,1.9626987212653098,-0.5308425426483154,0.8426908254623413,0.08988042175769806,0.2573300004005432,-1.2013522386550903,-4.353862285614014,-1.306758165359497,0.5358797311782837,-0.33315134048461914
354,-1.6401649318524913,-0.5324465180816879,2.14122821577717,-0.8594955801963806,0.5076426863670349,0.059717826545238495,1.035866141319275,0.06922242045402527,-4.596160888671875,0.016615331172943115,0.6625537872314453,-0.18889880180358887
355,-1.618119354636742,-0.1086254819300362,2.256063553809648,-0.9929929971694946,0.1084119901061058,0.04702654480934143,0.5216231942176819,-0.1877952218055725,-3.8259785175323486,0.4260375499725342,0.8533494472503662,-0.09670913964509964
356,-1.6251360009526308,0.20278967343146861,2.269789392457927,-0.9780628085136414,-0.20140261948108673,0.05319998785853386,-0.9163276553153992,0.6894478797912598,-2.215169668197632,0.34698981046676636,1.2866992950439453,-0.0035631656646728516
357,-1.4913991856661162,0.3463084055026302,2.198074978668407,-0.9376688003540039,-0.3394277095794678,-0.0746050551533699,-0.5951610207557678,1.1348425149917603,-0.33492475748062134,0.8091898560523987,1.1231648921966553,0.1595202088356018
358,-1.4509990645830535,0.11337906439608146,2.1307440530767514,-0.9864583611488342,-0.11313630640506744,-0.11874360591173172,-0.6089209318161011,-0.9493955969810486,4.443604469299316,0.342903733253479,1.1001815795898438,-9.185075759887695e-05
359,-1.5048094039027662,-0.3956216722286626,2.1317509085057336,-0.9207490086555481,0.38538190722465515,-0.06084573268890381,-0.5156645774841309,0.10832647979259491,5.636248588562012,-0.3431059718132019,0.629464864730835,-0.02425253391265869
360,-1.5147793189946053,-0.8498418703765148,2.1167909090648975,-0.6590666174888611,0.7511760592460632,-0.03695760294795036,-0.3606380522251129,0.4092393219470978,4.481147766113281,-0.6597352623939514,0.11480605602264404,-0.058852314949035645
361,-1.6464331869687985,-1.1834545928126903,1.9306383579958994,-0.37664854526519775,0.9259164333343506,0.02854296565055847,-1.6037172079086304,1.5601963996887207,2.2297048568725586,-1.4134057760238647,-0.3950021266937256,-0.04297780990600586
362,-1.7930612207945755,-1.2282825988782806,1.6904003091327313,-0.3275943994522095,0.941913366317749,0.07403593510389328,0.005529791582375765,-0.22407691180706024,-0.5809206366539001,-1.254391074180603,-0.45930832624435425,-0.2634584903717041
363,-1.7464664438900397,-1.0381207679133837,1.9522596329544477,-0.5000241994857788,0.8614513874053955,0.08875417709350586,0.7605617642402649,-2.440849542617798,-3.4510252475738525,-1.1606050729751587,0.251295804977417,-0.30417776107788086
364,-1.7198923758603768,-0.6449428420367384,2.1437048622310066,-0.7902684807777405,0.601152777671814,0.11870681494474411,0.07182858139276505,0.5585484504699707,-4.511444568634033,-0.3011012673377991,0.4956490397453308,-0.201027974486351
365,-1.6388507282631954,-0.18718244094050335,2.218382370401202,-0.9802581667900085,0.18609128892421722,0.06681406497955322,0.6401958465576172,-0.03603518754243851,-4.230566024780273,0.385745108127594,0.8013201951980591,-0.19198191165924072
366,-1.679370598953386,0.16243022719113345,2.27672067608467,-0.9810262322425842,-0.16171692311763763,0.10693473368883133,-0.09060905873775482,-0.9411361217498779,-2.4340858459472656,0.480690598487854,1.2529339790344238,-0.2241680771112442
367,-1.6272770925699842,0.2636998729951294,2.291532987861149,-0.9638926386833191,-0.2606543004512787,0.05449935793876648,-0.19805856049060822,1.874039888381958,0.006946583278477192,0.6513774991035461,1.1066017150878906,0.016530264168977737
368,-1.5232485256516173,0.053069470489073185,2.2219030890589084,-0.9974637031555176,-0.05304456502199173,-0.04746297746896744,-1.2257260084152222,0.15356208384037018,3.856083393096924,0.3754695653915405,1.0079090595245361,0.05463462322950363
369,-1.520128644125163,-0.4327938849553765,2.18571064319952,-0.9066326022148132,0.4194087088108063,-0.04597632214426994,0.021263347938656807,-0.6242422461509705,5.383360385894775,-0.10504043102264404,0.5304813981056213,-0.08572232723236084
370,-1.5449973356698665,-0.8608699782938133,2.18972999494072,-0.6515610218048096,0.758409857749939,-0.01681334711611271,-0.7375139594078064,1.086582899093628,4.128052234649658,-0.5686843395233154,0.03011852502822876,0.04604923725128174
371,-1.595826361524511,-1.1431977938877156,2.0797291864575063,-0.4145568311214447,0.9099642038345337,0.010378539562225342,-0.8992177844047546,0.49137911200523376,1.026790738105774,-1.3203216791152954,-0.33293789625167847,0.036908507347106934
372,-1.6657632685673514,-1.1412663754970718,1.9117344617846905,-0.41456717252731323,0.9091616272926331,0.039488960057497025,0.1678721308708191,0.4342179000377655,-0.7500733733177185,-1.1950976848602295,-0.5390748977661133,-0.2739555835723877
373,-1.6481503201147485,-0.9278428043177991,2.0667878083555973,-0.5977688431739807,0.8003284335136414,0.046332258731126785,-0.02122163400053978,-0.8889281153678894,-3.609628438949585,-1.217706561088562,0.1576945185661316,-0.07463729381561279
374,-1.6171277555220445,-0.4951147649608339,2.116597328360778,-0.8789697885513306,0.47513264417648315,0.040753092616796494,0.5566264986991882,0.251365602016449,-4.477524757385254,-0.11547589302062988,0.5559952259063721,-0.22105097770690918
375,-1.578735994896426,-0.07390863711662567,2.210681491750895,-0.9972386360168457,0.07384137064218521,0.007917909882962704,0.896237313747406,0.05214964225888252,-3.7510921955108643,0.3208165168762207,0.8929097652435303,-0.05357217788696289
376,-1.537135703037533,0.23207593517799266,2.22438971759855,-0.9726396203041077,-0.22999830543994904,-0.03275202587246895,-0.7356173396110535,0.9997695088386536,-2.1159160137176514,0.4058825373649597,1.1804378032684326,0.10405629873275757
377,-1.4348487912252856,0.3226357108532263,2.1623566410519848,-0.9396523833274841,-0.31706738471984863,-0.12853625416755676,-0.312845379114151,0.6481844186782837,0.34134215116500854,0.7433328628540039,1.0345051288604736,0.13631828129291534
378,-1.405402333270907,0.07291646135341115,2.093233639104665,-0.9837325215339661,-0.07285186648368835,-0.1642034649848938,-1.8417092561721802,-0.599026083946228,3.621948719024658,0.21800082921981812,1.0338504314422607,0.12451536953449249
379,-1.4345980885543401,-0.42107114069916796,2.078666033775293,-0.9041998386383057,0.40873825550079346,-0.1239176020026207,-0.32415735721588135,-0.6041884422302246,5.3098578453063965,-0.24616020917892456,0.42919808626174927,-0.009840957820415497
380,-1.5244763359377014,-0.8365463878616913,2.04908607899053,-0.6693119406700134,0.7423335313796997,-0.031024714931845665,-0.8187268972396851,-0.4211411476135254,4.207306861877441,-0.6918636560440063,-0.001656651496887207,-0.08576607704162598
381,-1.7412056349977565,-1.146239712157957,1.8028774229990596,-0.4059505760669708,0.911221444606781,0.06985525041818619,-1.4304872751235962,0.48384344577789307,1.90598726272583,-1.2675113677978516,-0.3580750823020935,-0.1542515754699707
382,-1.8804650333651454,-1.2225905529624237,1.6164530922033267,-0.3249821364879608,0.9399864077568054,0.10398201644420624,0.19195686280727386,-0.5435280203819275,-0.5617966055870056,-1.3911585807800293,-0.5887137651443481,-0.28431034088134766
383,-1.7486861777505596,-1.0451139311568283,1.8973241347647736,-0.49388450384140015,0.8649817109107971,0.08879566192626953,1.0438776016235352,-1.8886950016021729,-3.251579523086548,-1.146618366241455,0.1505821943283081,-0.22919178009033203
384,-1.700100440177092,-0.634461544631142,2.0926894680038424,-0.7986677289009094,0.5927439332008362,0.10385044664144516,0.07746287435293198,0.7005513310432434,-5.028846263885498,-0.5842517614364624,0.7157125473022461,-0.2623738944530487
385,-1.5404793705773727,-0.10711017076485914,2.2003830356293332,-0.9938123822212219,0.1069054827094078,-0.03013860061764717,0.8358891606330872,1.7406418323516846,-5.502231121063232,-0.16817498207092285,1.022733211517334,-0.07121026515960693
386,-1.3667255283201394,0.3747430441307763,2.2521466275564994,-0.9112913608551025,-0.3660334050655365,-0.18859323859214783,1.1933212280273438,1.245347023010254,-3.3409955501556396,0.2566741108894348,1.1342066526412964,0.08884651958942413
387,-1.2273884691603147,0.6414627387122682,2.2460266911985514,-0.7544402480125427,-0.5983680486679077,-0.2697695791721344,0.11688242107629776,2.3878023624420166,-1.1902068853378296,0.362060546875,0.9731086492538452,0.3342684507369995
388,-1.107472052035681,0.6504877707082838,2.203143130993437,-0.7118898630142212,-0.6055746674537659,-0.35565727949142456,-0.888678252696991,1.3525320291519165,-0.15267141163349152,-0.06249362230300903,0.49267494678497314,0.27538082003593445
389,-1.001481167300615,0.5260096082160823,2.1008018233706296,-0.7284101843833923,-0.5020864009857178,-0.4661845266819,-1.1753263473510742,-1.0092389583587646,1.314998745918274,0.10969674587249756,0.448375403881073,0.10990703105926514
390,-1.1254431437144798,0.2923481381966203,2.0844457561155187,-0.8641671538352966,-0.2882015109062195,-0.41249871253967285,-1.3929880857467651,-1.2823517322540283,2.6912519931793213,0.47610557079315186,0.6175014972686768,0.29686760902404785
391,-1.2395862290594648,-0.08353897825387763,2.05860720702173,-0.942351758480072,0.0834418460726738,-0.3240535855293274,-1.81234872341156,0.26869502663612366,4.247722148895264,0.003020644187927246,0.2433098554611206,-0.1177646815776825
392,-1.2943514934795373,-0.48403384813492856,1.983533425862614,-0.851518452167511,0.465353399515152,-0.24158354103565216,-1.4521896839141846,0.8177601099014282,2.3779494762420654,-2.3877696990966797,-0.5617736577987671,-0.939080536365509
393,-1.098697114285151,-0.37316028649268385,1.873836156790062,-0.8293233513832092,0.3645600378513336,-0.423460453748703,1.3271104097366333,1.5985573530197144,-2.8459720611572266,-0.9688944220542908,-0.4943665564060211,-0.8966078758239746
394,-0.8500806921379278,-0.00648282718858675,1.8960925326714229,-0.7513179183006287,0.00648278184235096,-0.6599087119102478,3.1413207054138184,2.838310956954956,-2.6344101428985596,-0.3300725221633911,0.5433982014656067,-0.2922855615615845
395,-0.5649937872701517,0.37948962210315895,1.9302773784371376,-0.49731817841529846,-0.37044644355773926,-0.7845024466514587,2.8091418743133545,2.723353147506714,-1.6122688055038452,0.13246527314186096,0.8728725910186768,0.496157169342041
396,-0.4571942815142092,0.59943477002614,1.918931109629759,-0.36447063088417053,-0.5641759037971497,-0.7408553957939148,0.9322018027305603,0.2076016366481781,-1.2049434185028076,0.11033546924591064,0.5590184330940247,0.38401341438293457
397,-0.40438775645926445,0.6790460456648804,1.8946386163419986,-0.30617648363113403,-0.6280509829521179,-0.7154074907302856,0.5333717465400696,0.3992236852645874,-0.42389124631881714,-0.19145837426185608,0.0685265064239502,0.03111189603805542
398,-0.3667980740657928,0.6944540446724338,1.8579917075933667,-0.27557116746902466,-0.6399660110473633,-0.717289388179779,0.27806204557418823,0.39278244972229004,-0.49254822731018066,-0.26837411522865295,0.04987812042236328,-0.21876102685928345
399,-0.36263862011320125,0.705255711569636,1.8623775699027973,-0.2701171934604645,-0.6482285857200623,-0.7119244933128357,-0.27938157320022583,-0.7244386076927185,0.4302656054496765,-0.10094606876373291,0.25020307302474976,0.2878827452659607
400,-0.40536669676613024,0.6340640374360511,1.86135548572009,-0.3177034854888916,-0.5924237370491028,-0.7403368353843689,-0.7370214462280273,-1.5814300775527954,0.22501900792121887,0.1466372013092041,0.5030072331428528,0.6330065131187439
401,-0.6851499061883644,0.48484302664837386,1.8760977204536116,-0.5598589777946472,-0.4660694897174835,-0.6850818991661072,-2.188847780227661,-3.519512414932251,2.116886615753174,0.3452898859977722,0.7525074481964111,0.6836933493614197
402,-0.8852175591446464,0.07833109715231673,1.931150529208977,-0.7716792821884155,-0.07825101912021637,-0.6311797499656677,-2.8448739051818848,1.3591653108596802,3.901402235031128,-0.3565250635147095,0.34840789437294006,-0.0324249267578125
403,-1.0300020338746465,-0.3384651931022837,1.8378807325500082,-0.8086615204811096,0.3320397436618805,-0.48560917377471924,-2.9287357330322266,-1.0281928777694702,3.2189838886260986,-0.41243839263916016,0.2887793481349945,-0.6366442441940308
404,-1.3114336386486156,-0.6593562786277573,1.8684524478751445,-0.7639510631561279,0.6126081943511963,-0.2027062028646469,-0.24481165409088135,-2.638258218765259,2.1464362144470215,-1.349955677986145,-0.21323996782302856,-0.5403205156326294
405,-1.385163712573063,-0.6578070308183818,1.9038632720163147,-0.7777394652366638,0.6113829612731934,-0.14605534076690674,1.8420413732528687,-0.06685296446084976,-1.0839136838912964,-0.4782571792602539,-0.9524016976356506,-0.6169604063034058
406,-1.3922857066822214,-0.4221235993902026,2.103914643034955,-0.8977251052856445,0.40969857573509216,-0.16197766363620758,1.4834227561950684,-1.6945298910140991,-3.029059886932373,-0.7377424240112305,-0.09071362018585205,-0.2072697877883911
407,-1.3180360808265217,-0.05029551559711321,2.1080542126586743,-0.9670014381408691,0.0502743124961853,-0.2497612088918686,0.42425698041915894,1.7349227666854858,-3.6523234844207764,-0.0017027854919433594,0.9190402626991272,-0.11725842952728271
408,-1.2331906101545236,0.24149029927095506,2.0804511205292253,-0.9161711931228638,-0.23914994299411774,-0.3216175436973572,0.6466519236564636,0.49249663949012756,-1.7851033210754395,0.4099149703979492,1.1572407484054565,0.2840656340122223
409,-1.210114426124289,0.23347801942055832,2.0515579564525357,-0.9102697968482971,-0.23136256635189056,-0.3433369994163513,-1.143629789352417,-0.5687638521194458,1.5318447351455688,0.5753393769264221,0.8702175617218018,0.36079299449920654
410,-1.3077532629491995,-0.03976000444834636,2.0050106541661212,-0.9648401737213135,0.03974952921271324,-0.25981467962265015,-1.6915169954299927,-1.1903722286224365,3.8222384452819824,0.3999139070510864,0.7001796960830688,0.23537006974220276
411,-1.5126863810908096,-0.46041335511478104,1.961969285400488,-0.8943568468093872,0.4443184435367584,-0.05202960595488548,-0.6759247779846191,-1.897223949432373,4.172549724578857,-0.10416316986083984,0.24438703060150146,-0.06975079327821732
412,-1.8534668956564835,-0.8534845431847989,1.8529676404631303,-0.6312734484672546,0.7535755634307861,0.18335206806659698,-1.0387629270553589,-1.0634890794754028,3.6422715187072754,-0.9790934324264526,-0.13480108976364136,0.016217604279518127
413,-2.146087619843749,-1.0532306691559417,1.5519470617934328,-0.4151255190372467,0.8690261840820312,0.2691919505596161,0.20668119192123413,-0.218874990940094,1.3713221549987793,-1.2796529531478882,-0.33860015869140625,-0.17455697059631348
414,-2.0702323273631067,-1.0514511908173185,1.67077212000392,-0.43568864464759827,0.8681443929672241,0.23769882321357727,0.2105380892753601,0.19408851861953735,-1.8442847728729248,-1.2602646350860596,-0.23066270351409912,0.2909724712371826
415,-1.6263017684729841,-0.7643379025116026,1.912880144697161,-0.7207292318344116,0.6920592188835144,0.04004552587866783,1.788737416267395,2.9682657718658447,-3.897665500640869,-0.49080342054367065,0.34488236904144287,-0.06584811210632324
416,-1.3704580808000792,-0.4341417168328748,2.1036386045431703,-0.8890861868858337,0.42063188552856445,-0.1805398017168045,1.8477734327316284,0.12586063146591187,-2.443485736846924,0.37796252965927124,0.21633097529411316,-0.02788001298904419
417,-1.3082191236506442,-0.17329358737899037,2.2053567499284648,-0.9512598514556885,0.17242753505706787,-0.25568249821662903,0.8350386023521423,-0.21852906048297882,-2.10398530960083,0.4607508182525635,0.6162077188491821,0.11580514907836914
418,-1.5431666635052652,0.053473399050015503,2.1181547277502224,-0.9981896281242371,-0.053447920829057693,-0.027586663141846657,-1.7194890975952148,-2.413383960723877,-1.9224128723144531,0.3336692452430725,0.9443017840385437,-0.2687084674835205
419,-1.6653105825747776,0.10948035600219087,2.000976048560057,-0.989576518535614,-0.10926178097724915,0.09380858391523361,-0.08859309554100037,-1.5904854536056519,1.8101438283920288,0.6315138339996338,0.7838070392608643,-0.2636237144470215
420,-1.6648733152701907,-0.232086930325947,2.024043349567303,-0.9688852429389954,0.23000900447368622,0.09141966700553894,1.426123023033142,0.3978786766529083,4.331132888793945,0.08483660221099854,0.492281049489975,-0.09758424013853073
421,-1.4417663183610376,-0.7117657708787232,2.1936655079921556,-0.7509151697158813,0.6531718373298645,-0.09743189066648483,0.8971591591835022,1.8342193365097046,3.985426902770996,-0.26870763301849365,-0.162891685962677,0.18636012077331543
422,-1.2710711993357038,-1.003129705697633,2.272620729520617,-0.5136957168579102,0.8431578278541565,-0.1587500125169754,-0.7640308737754822,-0.03763171285390854,2.308913469314575,-0.6579809188842773,-0.1807432770729065,0.1436590552330017
423,-1.381037603681964,-1.2472947403684265,2.1821616971031133,-0.31218215823173523,0.9481281042098999,-0.05996071547269821,-0.18425776064395905,-0.9005047082901001,1.314505934715271,-1.3789951801300049,-0.2744678854942322,-0.2691560983657837
424,-1.4077000424585269,-1.2164327661254997,2.164316167612696,-0.3423890471458435,0.9378675222396851,-0.056342847645282745,0.3843196630477905,-0.01293976604938507,-1.0169551372528076,-1.0228453874588013,-0.07818722724914551,-0.17469048500061035
425,-1.5341601608015607,-0.9724287798228629,2.2137722169447294,-0.56291663646698,0.826256275177002,-0.020632337778806686,-0.21511779725551605,-1.5530339479446411,-3.2052698135375977,-0.5998641848564148,0.2909618616104126,-0.06510686874389648
426,-1.6360716927695844,-0.6268328161340582,2.2379983144130207,-0.808164656162262,0.5865826606750488,0.05282829701900482,0.34004876017570496,-0.8505285382270813,-3.748581647872925,0.09786802530288696,0.23424869775772095,-0.19340753555297852
427,-1.6369249561618036,-0.27930121902252675,2.2771107064781337,-0.9591473340988159,0.2756839990615845,0.06351971626281738,-0.020609037950634956,0.05004705861210823,-3.1704514026641846,0.4351757764816284,0.6064876317977905,-0.15397381782531738
428,-1.6064751666991932,-0.011220626285648537,2.228594551088031,-0.9993007779121399,0.011220390908420086,0.035669028759002686,-1.6525391340255737,1.0413281917572021,-1.9414827823638916,0.49818676710128784,0.9900460839271545,0.0003111399710178375
429,-1.436875228527571,0.03191550425275839,2.1099610651010856,-0.9905412197113037,-0.031910087913274765,-0.1334531456232071,-0.017009340226650238,1.027442216873169,1.0530823469161987,0.7144182324409485,0.9533883929252625,0.004485860466957092
430,-1.4563812743351634,-0.3013557607501185,2.0643005613106484,-0.9486912488937378,0.2968151569366455,-0.10902069509029388,-1.794664978981018,-0.6049912571907043,4.881704330444336,0.12389278411865234,0.978682279586792,0.06899692118167877
431,-1.4685679794737745,-0.7857763775546263,2.066082118908214,-0.7031490206718445,0.7073741555213928,-0.07213322073221207,0.12523479759693146,-0.0004681316204369068,4.0203118324279785,-0.36914706230163574,0.1228564977645874,0.062352366745471954
432,-1.5143494546308804,-1.1343707992002396,1.9198078227794506,-0.4220295548439026,0.9062684178352356,-0.023847581818699837,-1.7316299676895142,1.522711157798767,2.368248224258423,-0.6257151365280151,-0.2341340184211731,-0.07275581359863281
433,-2.008385158964046,-1.2698218744524108,1.2978038334283213,-0.2685181200504303,0.9550480842590332,0.12562304735183716,-1.9741077423095703,0.45629817247390747,1.6185451745986938,-0.7782806158065796,-0.09149223566055298,-0.4035007953643799
434,-2.3924621393686065,-1.345590466936751,0.9313814027815648,-0.1520727574825287,0.9747481346130371,0.16352371871471405,1.1588232517242432,-0.7442213892936707,0.18995317816734314,-1.5840569734573364,-0.06904745101928711,-0.44111168384552
435,-1.7594529021370209,-1.1779398489169761,1.7204183300370517,-0.37603598833084106,0.9238193035125732,0.07179545611143112,0.8548310995101929,-1.5805518627166748,-4.760173797607422,-1.2016617059707642,0.4822627305984497,-0.1931181102991104
436,-1.6199088275877829,-0.6876959918891605,2.04041180811669,-0.7717788815498352,0.6347585320472717,0.037934496998786926,1.5466374158859253,-0.6085451245307922,-4.821120262145996,0.020375072956085205,0.6430887579917908,-0.1523449420928955
437,-1.5911615281858833,-0.25516483516317656,2.1910253805616797,-0.9674211740493774,0.2524048984050751,0.01970445178449154,0.9748702049255371,-0.8144845962524414,-4.204996585845947,0.4268937110900879,0.7356017231941223,-0.11540758609771729
438,-1.6494937049548286,0.06228584266259021,2.2201991305033597,-0.994971752166748,-0.062245577573776245,0.07846371829509735,-0.6524360775947571,0.056890565901994705,-1.7966077327728271,0.4743266701698303,1.1209156513214111,-0.19252312183380127
439,-1.5167532765487688,0.20066940840410516,2.11795847416587,-0.978502631187439,-0.1993253529071808,-0.05293281003832817,-1.1060693264007568,2.342047929763794,-0.45868489146232605,0.7096275687217712,1.152007818222046,0.007186952978372574
440,-1.424075994080728,-0.01649855156858969,2.085238510448129,-0.9891212582588196,0.01649780385196209,-0.1461746096611023,-0.48804888129234314,-1.091392159461975,3.8326406478881836,0.3972785472869873,0.9499176144599915,0.1129256933927536
441,-1.4971968263519844,-0.5139223079039955,2.096721386457898,-0.8684656023979187,0.49159666895866394,-0.06403429806232452,-0.12285306304693222,-0.09014663845300674,5.453875541687012,-0.18864810466766357,0.5123401284217834,-0.07274544984102249
442,-1.50425975417567,-0.9601384541890694,2.0493006880841684,-0.5721378326416016,0.8192709684371948,-0.03812436759471893,-1.3968539237976074,0.5013713240623474,3.5599050521850586,-0.6078243255615234,0.010898709297180176,0.021507561206817627
443,-1.7520003550213907,-1.2392598715221756,1.7339199540286685,-0.3201668858528137,0.9455433487892151,0.058658961206674576,-1.0041619539260864,0.15535755455493927,2.4334592819213867,-1.217384934425354,-0.16301167011260986,-0.3472636938095093
444,-2.017882894336672,-1.2776354450945901,1.3836129036269118,-0.2605762481689453,0.9573352336883545,0.12493766844272614,-0.6813446879386902,1.3108160495758057,-0.7005040049552917,-1.2450847625732422,-0.336653470993042,-0.39100515842437744
445,-1.7440080533291722,-1.1383053337328193,1.7256906800988678,-0.41286173462867737,0.9079245328903198,0.07223636656999588,0.9356563091278076,-1.9991155862808228,-3.2945470809936523,-1.2463788986206055,0.1389961838722229,-0.1545422077178955
446,-1.6136676506862817,-0.767028451113371,2.021179675670729,-0.7193145751953125,0.6939988732337952,0.030856875702738762,1.8058770895004272,-0.7127674221992493,-4.2796807289123535,-0.3796844482421875,0.5784010291099548,-0.2664220333099365
447,-1.5571662279653868,-0.3301806129876609,2.2050109449918316,-0.9458960890769958,0.3242138922214508,-0.012893455103039742,1.226694941520691,-0.46832770109176636,-4.183769702911377,0.2983739376068115,0.6522418260574341,-0.1609652042388916
448,-1.5523035352572454,0.044485191249816036,2.2700373450384523,-0.9988398551940918,-0.044470518827438354,-0.018473442643880844,-0.1565636843442917,0.6888013482093811,-3.1032755374908447,0.5116267204284668,0.9609286785125732,0.005442440509796143
449,-1.4268697947046516,0.24315033778338763,2.198920222953927,-0.9605488777160645,-0.24076148867607117,-0.139211043715477,0.03691822662949562,1.0569058656692505,-0.37501955032348633,0.894005298614502,0.989372968673706,-0.12676489353179932
450,-1.3707359769239056,0.13806852405316827,2.275557001036504,-0.9707280397415161,-0.13763028383255005,-0.19683730602264404,-0.6589980721473694,0.25760817527770996,3.1506805419921875,0.7296544909477234,0.966762363910675,0.36604201793670654
451,-1.421245663771832,-0.34195223236428246,2.188432631402419,-0.9315862655639648,0.3353269398212433,-0.14036737382411957,-1.6623600721359253,-1.0716004371643066,5.983681678771973,-0.22098636627197266,1.002929925918579,-0.26739323139190674
452,-1.4650474291420241,-0.8595944839667186,2.1171572902447644,-0.6490984559059143,0.7575779557228088,-0.06889846175909042,-1.3237531185150146,1.3419666290283203,3.461395740509033,-0.6266583800315857,0.05737876892089844,-0.11941021680831909
453,-1.6197904607838298,-1.1988806462506545,1.9044082979685282,-0.3629644215106964,0.9316328763961792,0.017797371372580528,-0.6781855821609497,-0.671503484249115,2.9990878105163574,-1.1023064851760864,-0.28083038330078125,-0.3217524290084839
454,-1.8331365598437581,-1.3450298758865322,1.6386467290413318,-0.2161945402622223,0.9746228456497192,0.058054495602846146,-0.3286500871181488,0.18053187429904938,0.26533272862434387,-1.4682537317276,-0.48568546772003174,-0.22849512100219727
455,-1.7666365325781082,-1.183555857205432,1.7223540868597984,-0.3704162836074829,0.9259546995162964,0.07348427176475525,-0.05865349993109703,-0.4062269330024719,-3.6886558532714844,-1.362280249595642,0.15125489234924316,-0.28054606914520264
456,-1.6134031051732458,-0.7346373553261978,1.9443050898236856,-0.7414001822471619,0.670318067073822,0.03160780295729637,1.5710012912750244,-0.1342068463563919,-4.772572040557861,-0.3077482581138611,0.7948917746543884,-0.30213093757629395
457,-1.52550352443662,-0.3170913079418169,2.143466935613816,-0.9491719007492065,0.3118042051792145,-0.04302007704973221,1.8486307859420776,-0.26938122510910034,-3.734287977218628,0.3656911253929138,0.6565033197402954,-0.08307850360870361
458,-1.5298661028756662,0.02597928394015635,2.2472231781804997,-0.9988254308700562,-0.025976361706852913,-0.04090499132871628,0.20659859478473663,0.18464653193950653,-2.6590936183929443,0.5541079044342041,0.9637357592582703,0.06602096557617188
459,-1.4600892552602336,0.18950204344335808,2.1827822673831863,-0.9760860800743103,-0.18836987018585205,-0.10850326716899872,-0.7894541025161743,0.5893727540969849,-0.81059730052948,0.6478237509727478,0.988601803779602,-0.019792616367340088
460,-1.3613703349380968,0.09199206350015138,2.1031444174419023,-0.9740146398544312,-0.09186237305402756,-0.20701943337917328,-1.492315411567688,0.1950085461139679,2.4111368656158447,0.6207277774810791,0.8267866969108582,0.2524753510951996
461,-1.4391586632891509,-0.33496793693589993,2.007222377554158,-0.936249852180481,0.32873889803886414,-0.12396260350942612,-1.1676716804504395,-1.1281390190124512,5.026030540466309,-0.189528226852417,0.734752893447876,-0.051345571875572205
462,-1.5806383690958432,-0.7910446640916661,1.857356469255826,-0.7030689120292664,0.7110881805419922,0.0069198571145534515,-1.7812823057174683,0.2116384208202362,3.60912823677063,-0.6097973585128784,0.03508186340332031,-0.12860870361328125
463,-1.8195954225718833,-1.0241291650707793,1.5246812568906345,-0.5038367509841919,0.8542618155479431,0.12800633907318115,-1.836859107017517,0.5503604412078857,2.434309244155884,-0.7084130644798279,-0.06312400102615356,-0.33837926387786865
464,-2.1416549881138827,-1.1795366435979915,1.137951541412802,-0.32088494300842285,0.9244294166564941,0.2060661017894745,-0.16752608120441437,-0.23075376451015472,1.338773488998413,-1.2078931331634521,-0.46117258071899414,-0.4082603454589844
465,-2.1051838088592545,-1.1479380512052135,1.2110951131743368,-0.35315564274787903,0.9119197130203247,0.209006667137146,0.3579394221305847,-0.362175852060318,-2.160166025161743,-1.3140349388122559,-0.16909128427505493,-0.5255197286605835
466,-1.7808516575138007,-0.8508599589827693,1.6813700165996932,-0.6448440551757812,0.7518476843833923,0.1374809443950653,2.028637647628784,-0.5438357591629028,-4.356289386749268,-0.598319947719574,0.6044296622276306,-0.3627464771270752
467,-1.5924960985005607,-0.4625627655396104,2.0211383280495188,-0.8947011232376099,0.446243017911911,0.019417857751250267,2.293714761734009,-0.07261677086353302,-3.6943118572235107,0.24525654315948486,0.5756380558013916,-0.08228409290313721
468,-1.534053524097356,-0.11365940960135994,2.179544439293146,-0.9928771257400513,0.11341485381126404,-0.03649751469492912,0.45059946179389954,0.16098840534687042,-3.2825934886932373,0.27083128690719604,0.9300727248191833,0.14681851863861084
469,-1.4737773556266214,0.13690765305104724,2.17575808223144,-0.9859840869903564,-0.13648036122322083,-0.09596043080091476,-0.1287151575088501,0.40167516469955444,-1.5475994348526,0.6407082676887512,1.0219478607177734,0.08122045546770096
470,-1.3535809977386781,0.19618777404930585,2.0861394483744427,-0.957768976688385,-0.19493165612220764,-0.21137703955173492,-1.4998708963394165,1.3031995296478271,0.30007895827293396,0.6827903389930725,0.8947759866714478,0.28805243968963623
471,-1.316328675383978,-0.09324322754581899,1.9295370365949378,-0.9635933041572571,0.093108169734478,-0.2506366968154907,-2.6332080364227295,-1.3457292318344116,5.206794261932373,0.36032187938690186,0.9667062759399414,0.06260266900062561
472,-1.4891747332762988,-0.681623827100299,1.8726623215873974,-0.7739654183387756,0.6300548315048218,-0.06331295520067215,-0.8393496870994568,-0.10366405546665192,4.477870941162109,-0.7087310552597046,0.22246897220611572,-0.019710123538970947
473,-1.7786594413279755,-1.0465620772357969,1.5181334567840916,-0.48977556824684143,0.865707516670227,0.10329831391572952,-1.9124536514282227,-0.2070903480052948,2.7763524055480957,-1.059662938117981,-0.13719189167022705,-0.5341912508010864
474,-2.157421248569731,-1.1724710010089987,1.0333018192489163,-0.32302767038345337,0.9217118620872498,0.2147095650434494,-0.5795847773551941,0.10814815759658813,1.059063196182251,-1.2238014936447144,-0.5480089783668518,-0.6259492039680481
475,-2.1064307365091923,-1.1345370757569442,1.0895799872025127,-0.363371342420578,0.9063386917114258,0.2156648337841034,0.9483429789543152,-0.036364901810884476,-1.7526614665985107,-1.1687636375427246,-0.20283228158950806,-0.6690187454223633
476,-1.7172387158559492,-0.8769331725191761,1.608700596801324,-0.6326665282249451,0.7687812447547913,0.09331722557544708,2.2386839389801025,-0.5105549693107605,-4.538576602935791,-0.8611993193626404,0.6508811116218567,-0.37658143043518066
477,-1.5238270081001482,-0.42803988237740564,1.9322003136211445,-0.9087777733802795,0.41508832573890686,-0.04271608963608742,1.9967962503433228,0.29832905530929565,-4.286375999450684,0.06511932611465454,0.7537959218025208,0.01776796579360962
478,-1.4523442701467837,-0.022898663478451844,2.069069831786968,-0.9927325248718262,0.0228966623544693,-0.11814428120851517,1.3287149667739868,0.14405794441699982,-3.482966661453247,0.4361833333969116,0.9495917558670044,0.12786410748958588
479,-1.40994521010444,0.24362928952829377,2.05572149109527,-0.957941472530365,-0.24122631549835205,-0.15542875230312347,-0.5216289758682251,0.7323096990585327,-1.5802485942840576,0.5800575613975525,1.161453366279602,0.13405120372772217
480,-1.3679973685809663,0.25194103036376225,1.9954750814015652,-0.9485840201377869,-0.24928417801856995,-0.19505321979522705,-1.199930191040039,0.36712899804115295,1.648094892501831,0.7554382681846619,1.004517912864685,0.24725353717803955
481,-1.4037423161097577,-0.08516885050385677,1.9103336735685443,-0.9825047254562378,0.08506592363119125,-0.16567540168762207,-1.388357400894165,-0.9895541667938232,3.905942678451538,0.11905562877655029,0.7790393233299255,-0.03371119499206543
482,-1.474824819865971,-0.5476095657131431,1.8630863529568897,-0.8498426079750061,0.5206478238105774,-0.08181200921535492,-0.8718867301940918,-0.6147288084030151,3.8993070125579834,-0.34182292222976685,0.14616119861602783,-0.05194651335477829
483,-1.5798524710464745,-0.9217400366603348,1.7278602688534408,-0.6044101715087891,0.7966545820236206,0.005473775323480368,-1.4213387966156006,0.15284256637096405,3.2862632274627686,-0.7621364593505859,-0.058892130851745605,-0.08689463138580322
484,-1.8763779353197256,-1.1428809252284275,1.3167812921779816,-0.3957502841949463,0.909832775592804,0.12484441697597504,-1.0517827272415161,0.45617878437042236,1.3263195753097534,-1.0922715663909912,-0.33385926485061646,-0.5308350324630737
485,-1.9567504850302733,-1.198326383718323,1.2592119355637164,-0.3371470868587494,0.9314313530921936,0.13699409365653992,0.5464665293693542,-0.317780464887619,-0.14597956836223602,-1.1415363550186157,-0.4254651665687561,-0.3317878246307373
486,-1.7414188074564947,-1.110973212860578,1.6413008114790761,-0.4373454451560974,0.8961310386657715,0.07535362243652344,1.6766208410263062,-2.3666374683380127,-2.568603754043579,-1.1800861358642578,0.047243595123291016,-0.26650047302246094
487,-1.6786535355098429,-0.7634787786052518,1.9732875902733555,-0.7182369828224182,0.6914387941360474,0.07776883989572525,1.0283113718032837,-1.0659765005111694,-4.483205318450928,-0.4946994185447693,0.5646799206733704,-0.26409387588500977
488,-1.6069417942657536,-0.3163805125689025,2.1204886107192307,-0.9497469067573547,0.31112876534461975,0.03434400632977486,0.8873627185821533,-0.04096949100494385,-4.542255401611328,0.2510165572166443,0.7486093044281006,-0.12037301063537598
489,-1.5989126854895668,0.05645958817808903,2.1737178303252107,-0.9980119466781616,-0.05642959848046303,0.028067858889698982,-0.29619261622428894,0.2730898857116699,-2.865420341491699,0.4271807074546814,1.0362117290496826,-0.010108234360814095
490,-1.4898488251501254,0.2821967041844679,2.08229047537987,-0.9573010802268982,-0.278466135263443,-0.07766082882881165,-0.7057576775550842,1.4269533157348633,-1.1647989749908447,0.5945539474487305,1.1745691299438477,-0.060370199382305145
491,-1.3483788570122919,0.16056953849540417,2.0472897358364377,-0.9628204107284546,-0.15988044440746307,-0.2177506536245346,-1.0329667329788208,0.04250871390104294,3.739107847213745,0.7696898579597473,0.9724872708320618,0.2983323335647583
492,-1.4111347147050601,-0.40831067777963875,2.072621313088015,-0.9061196446418762,0.39705944061279297,-0.14591450989246368,-0.0873381644487381,-1.02834951877594,6.640812873840332,-0.13263767957687378,0.969334602355957,-0.01389080286026001
493,-1.4147333454873467,-1.0282017839244784,2.115538977092949,-0.5100843906402588,0.8563718199729919,-0.08025792986154556,-1.6536370515823364,0.5117392539978027,5.123867988586426,-0.823472797870636,0.22037994861602783,0.08326392620801926
494,-2.129840134012808,-1.3221071502962087,1.3000348579407115,-0.20866310596466064,0.969235897064209,0.13054345548152924,-2.030909299850464,1.0596022605895996,2.446416139602661,-0.9994667768478394,0.09211969375610352,-0.6030927896499634
495,-3.0699682763183462,-1.4317120949269422,0.3612255725697312,-0.009921303950250149,0.9903433918952942,0.13828158378601074,1.2109640836715698,-1.2488508224487305,1.02956223487854,-1.5494048595428467,-0.41343897581100464,-0.30809664726257324
496,-2.121109765700322,-1.4022284104016647,1.3468798598610574,-0.1430017650127411,0.9858260154724121,0.08773680776357651,0.6800720691680908,-0.9914007186889648,-3.188467264175415,-1.209369421005249,0.08070242404937744,-0.3258655071258545
497,-1.7107854081066225,-0.9721485619366674,1.9394674054422594,-0.5580132603645325,0.8260983824729919,0.07863006740808487,0.7638626098632812,-1.7878338098526,-5.97648811340332,-0.8264014720916748,1.0787630081176758,-0.34344637393951416
498,-1.597968799712299,-0.39417811274733894,2.15180183591059,-0.922971785068512,0.3840494453907013,0.025085600093007088,1.4232628345489502,0.7935036420822144,-5.184150695800781,0.3061198592185974,0.8636312484741211,-0.1433107852935791
