,attitude.roll,attitude.pitch,attitude.yaw,gravity.x,gravity.y,gravity.z,rotationRate.x,rotationRate.y,rotationRate.z,userAcceleration.x,userAcceleration.y,userAcceleration.z
0,-2.065088659510316,-1.1922056857214038,-2.2545340322266285,-0.3253704905509949,0.9291864633560181,0.17534682154655457,3.2679333686828613,1.9719408750534058,-2.0984489917755127,-0.24900084733963013,0.33520251512527466,-0.7706378698348999
1,-0.19118251629920935,0.41081983295286195,-1.1255177493377795,-0.17420914769172668,-0.3993610739707947,-0.9000899195671082,-0.0008064750581979752,0.20164625346660614,0.0015289168804883957,0.018432170152664185,0.014488637447357178,0.11249226331710815
2,-0.16065130263379349,0.4290036779362313,-1.1143905367135587,-0.14546558260917664,-0.4159649610519409,-0.8976708054542542,0.39129364490509033,-0.06626581400632858,0.18324130773544312,0.08198902010917664,-0.23691284656524658,-0.15378183126449585
3,-0.1701015889784346,0.486237880667218,-1.099854419367577,-0.14966215193271637,-0.4673031270503998,-0.8713374733924866,0.5641701221466064,-0.3330264687538147,-0.2397012859582901,-0.08614717423915863,-0.3577396273612976,-0.37625157833099365
4,-0.10207920125843725,0.6104279207446864,-1.1821860359158065,-0.08349879086017609,-0.5732181668281555,-0.8151373267173767,0.5926774144172668,1.084861159324646,-0.721943199634552,0.033037975430488586,0.3379886746406555,0.1978124976158142
5,-0.030798696039858124,0.5872922993312496,-1.267287985306144,-0.02563413977622986,-0.5541090369224548,-0.8320493102073669,-0.2819864749908447,0.001041335053741932,-0.7628799080848694,0.03355345129966736,-0.028547823429107666,0.06096166372299194
6,-0.05404971427778227,0.5801574848454341,-1.2863705142114195,-0.04518389329314232,-0.548155665397644,-0.8351549506187439,0.06042572855949402,-1.0299500226974487,-0.181616872549057,0.05461382865905762,0.21104323863983154,0.3021196722984314
7,-0.13565162674702613,0.6562414209969898,-1.3799135702990932,-0.10714627057313919,-0.6101433038711548,-0.7850126624107361,1.7544869184494019,-0.966645359992981,-0.8056055307388306,0.1974020004272461,0.027562737464904785,0.02567434310913086
8,-0.07112726985241104,0.7912977012300365,-1.5246980406906472,-0.049954842776060104,-0.711266040802002,-0.701145589351654,0.3827095031738281,-0.590473473072052,-2.276632308959961,0.6727117896080017,-0.06403303146362305,-0.6303210854530334
9,-0.043653766829619224,0.6787988871182271,-1.521767482480714,-0.03396613150835037,-0.6278586387634277,-0.7775859236717224,-1.2797001600265503,0.05361155793070793,2.4141669273376465,0.4277802109718323,0.34021520614624023,-0.2693043351173401
10,-0.22116363038306935,0.6561896549029277,-1.2917050016663307,-0.17380790412425995,-0.6101022362709045,-0.7730239629745483,0.7633396983146667,-0.15401843190193176,1.5985997915267944,0.14638787508010864,1.0091042518615723,0.36256253719329834
11,-0.4030318049707553,0.45702026818091784,-1.05513406120345,-0.35195714235305786,-0.4412761330604553,-0.825470507144928,-3.1038403511047363,-0.3697306513786316,2.000802755355835,-0.6240864992141724,0.3367534875869751,0.24908500909805298
12,-0.5390461753507053,0.18293748109281954,-1.0644782075609807,-0.5047522187232971,-0.18191881477832794,-0.8438783884048462,-1.870143175125122,-2.5049595832824707,1.7593638896942139,-0.16960996389389038,-0.43719130754470825,-0.1544126272201538
13,-0.7990079284632977,-0.07016788537312642,-1.0851022550104883,-0.7149009704589844,0.07011032104492188,-0.6957018375396729,-2.460754871368408,-1.6985307931900024,0.43656015396118164,-0.48288339376449585,-0.7801780700683594,-0.7361218333244324
14,-0.9928288328891165,-0.14148471660606934,-0.9110376120801698,-0.8292054533958435,0.14101314544677734,-0.5408636927604675,-0.8084214925765991,-0.4013620913028717,2.872724771499634,-0.17169469594955444,-0.07004453241825104,0.32905644178390503
15,-1.1158915122271806,-0.34452083957269897,-0.9270629602880675,-0.8455162048339844,0.337745726108551,-0.41355785727500916,-0.431212455034256,-2.763633966445923,2.047179937362671,0.12572866678237915,0.49349209666252136,-0.07855325937271118
16,-1.2178053224877479,-0.7203511632314561,-0.8204304621190084,-0.7052343487739563,0.6596486568450928,-0.25982367992401123,-0.2752079367637634,-1.5551977157592773,4.796006202697754,-0.04500985145568848,0.1842692494392395,0.39686283469200134
17,-1.4588235500609739,-0.9957859534047802,-1.003799288083881,-0.5404378771781921,0.8391866683959961,-0.06076851114630699,-0.6447532176971436,-0.43550097942352295,1.6082814931869507,0.06222736835479736,-0.39938247203826904,-0.6032177209854126
18,-1.633496409546207,-0.9731009394949803,-0.9684530797940216,-0.561633288860321,0.8266347050666809,0.035260673612356186,0.1565927416086197,-2.0647034645080566,-1.087633728981018,-0.23977357149124146,-0.14517706632614136,-0.045407768338918686
19,-1.7740777093078808,-0.9000615441969817,-0.9741798905073057,-0.6087634563446045,0.7833651900291443,0.12548352777957916,-0.595561683177948,0.4729537069797516,-0.4105716943740845,-0.3679821491241455,-0.1338900327682495,0.08562183380126953
20,-1.7222744291332723,-0.7737627082903379,-1.0899570539572272,-0.7070956230163574,0.6988316178321838,0.1079363226890564,-0.7067691683769226,2.2724392414093018,-2.1355764865875244,0.2755618095397949,0.38043785095214844,-0.19465208053588867
21,-1.6206732777018742,-0.6138764170487848,-1.1954685932493347,-0.8164047002792358,0.5760404467582703,0.040753576904535294,-0.08538127690553665,1.0118193626403809,-1.7144416570663452,0.32392728328704834,-0.07956528663635254,0.06759905815124512
22,-1.5074397039959333,-0.4765874321825022,-1.1287937495126554,-0.886782705783844,0.45874956250190735,-0.056258853524923325,0.725220263004303,0.9370769262313843,-1.7295796871185303,0.5431854128837585,-0.3720645010471344,-0.08021579682826996
23,-1.434132968224337,-0.34626139268797307,-1.121486552971952,-0.9318776726722717,0.33938348293304443,-0.12815235555171967,0.195741206407547,0.04864206165075302,-0.376727432012558,0.06745195388793945,-0.38219964504241943,-0.11226511001586914
24,-1.47767164333251,-0.17776820753899167,-1.1186889317966533,-0.979976236820221,0.1768333911895752,-0.09152470529079437,1.4598009586334229,0.060661330819129944,-1.8369140625,-0.4167218804359436,-0.033171847462654114,-0.14928948879241943
25,-1.5115491626284512,-0.03422866441298272,-1.1440882893682705,-0.9976608157157898,0.03422198072075844,-0.059177834540605545,0.014444651082158089,0.32099801301956177,-0.059736382216215134,-0.7061509490013123,0.21680036187171936,-0.13305240869522095
26,-1.5691297270079996,-0.04249328245902255,-1.2138833536287497,-0.9990957975387573,0.04248049482703209,-0.0016650944016873837,-0.5592902302742004,-0.47815433144569397,0.7399511933326721,0.5752220153808594,0.2684478461742401,0.1745166778564453
27,-1.5682142318020837,0.022315974786348763,-1.3314889524957203,-0.9997477531433105,-0.022314121946692467,-0.002581449458375573,-2.681685209274292,-0.10595285892486572,-0.4959212839603424,0.24457502365112305,-0.1976718306541443,0.25355803966522217
28,-1.5229302316354618,0.08940510877068994,-1.4088729920618617,-0.9948652982711792,-0.08928605169057846,-0.047656718641519547,-1.2009350061416626,0.39348968863487244,-0.6981853246688843,0.0027540922164916992,-0.34987714886665344,-0.30477553606033325
29,-1.473022797579419,0.09996660937270556,-1.5138162203245586,-0.9902554750442505,-0.09980019181966782,-0.09713047742843628,0.7670971155166626,0.14610019326210022,0.6866182088851929,-0.22815895080566406,-0.24982447922229767,-0.21314169466495514
30,-1.3673673766781975,0.07510015095135214,-1.3364627103112783,-0.9766190052032471,-0.07502957433462143,-0.20145930349826813,1.1577743291854858,1.7568943500518799,-0.7387697696685791,-0.6794936656951904,-0.28880101442337036,-0.24211370944976807
31,-1.1768345541752177,0.2574388079258566,-1.4414070538037858,-0.8929653763771057,-0.25460460782051086,-0.3712000548839569,-1.0980546474456787,1.6958670616149902,-2.4083352088928223,-0.27031904458999634,0.3336908519268036,0.01196238398551941
32,-1.1140183045672007,0.3155700206773739,-1.4589735739467429,-0.8531604409217834,-0.3103584051132202,-0.4192790985107422,0.009468539617955685,-0.9201271533966064,0.7650254964828491,0.43778568506240845,0.1200355589389801,0.4740276634693146
33,-1.2126427699437072,0.21023446596567497,-1.4563888690381075,-0.9159248471260071,-0.20868921279907227,-0.3428272604942322,0.20311683416366577,-0.6119847893714905,1.206486463546753,0.5666206479072571,-0.011006802320480347,0.16118663549423218
34,-1.1793331500530486,0.047123994863989306,-1.4477706377802269,-0.9233255386352539,-0.047106556594371796,-0.38111773133277893,0.029281122609972954,4.955062389373779,-0.11175590008497238,-1.019926905632019,-0.38703653216362,-0.09260663390159607
35,-0.9367131544522813,0.1677816814976475,-1.340680228271437,-0.7943024635314941,-0.1669955998659134,-0.5841199159622192,-1.5543007850646973,-0.8833435773849487,-1.5646123886108398,-0.8209776878356934,0.3951449990272522,0.25871098041534424
36,-0.9616502181677854,0.12515600257618,-1.3471742893120233,-0.8137219548225403,-0.12482951581478119,-0.56769198179245,-0.2549085319042206,-0.597308337688446,1.3827992677688599,0.21408206224441528,0.6235630512237549,0.41093844175338745
37,-1.1381104032330964,-0.13103681394238997,-1.1764040217209442,-0.9000598788261414,0.13066214323043823,-0.4157159626483917,-0.022016683593392372,-1.7785738706588745,2.589261531829834,-0.21528130769729614,-0.12094226479530334,0.06448912620544434
38,-1.4287782689455906,-0.36825654095428423,-1.1636346381749094,-0.9235635995864868,0.3599894046783447,-0.13205169141292572,1.5448969602584839,-3.641554594039917,1.990869402885437,0.013712704181671143,-0.2059977650642395,-0.3340127170085907
39,-1.6254854007860153,-0.49489594431700845,-0.9974619378689094,-0.8787024021148682,0.47494009137153625,0.04810338839888573,0.1419363021850586,-0.7516584396362305,1.4472095966339111,-0.31274956464767456,-0.31991085410118103,-0.35279083251953125
40,-1.595237210560459,-0.5991864963933049,-1.0266858716173444,-0.8255479335784912,0.5639708638191223,0.020181139931082726,-0.7091659903526306,1.7165868282318115,-0.08273836970329285,-0.6137830018997192,0.00490725040435791,0.13382577896118164
41,-1.4384677487835495,-0.4862065660785697,-1.1435124263517047,-0.8763823509216309,0.4672754406929016,-0.11665211617946625,-0.37801820039749146,1.6435033082962036,-1.0822746753692627,0.5402464866638184,0.8673955798149109,-0.05412423610687256
42,-1.293204847713625,-0.47394928246846163,-0.9296971575311789,-0.8557107448577881,0.45640379190444946,-0.24383345246315002,2.1905362606048584,0.815093457698822,-0.5609784126281738,-0.10658478736877441,-0.17611512541770935,0.44503581523895264
43,-1.214118577999032,-0.3951539552001743,-0.9641161193643237,-0.8648494482040405,0.38495028018951416,-0.32225555181503296,-0.5747414231300354,0.5376513600349426,-0.12082497775554657,0.6000332236289978,-0.23509374260902405,0.17664095759391785
44,-1.1826505641979963,-0.48241805718907493,-1.0753584878554232,-0.8199775815010071,0.4639226198196411,-0.33527982234954834,-2.5366902351379395,1.6057531833648682,0.8375567197799683,-0.2594901919364929,-0.4704381823539734,0.08112946152687073
45,-1.0321738247765997,-0.4185650385504528,-1.1862102867722382,-0.7843116521835327,0.4064497947692871,-0.4686722457408905,1.2654775381088257,3.130828857421875,0.1265244483947754,-0.01518779993057251,-0.142060786485672,0.7569413185119629
46,-0.8887520367040017,-0.6740031449478179,-1.2539235823791095,-0.6065348982810974,0.6241187453269958,-0.4925355017185211,-0.8034403920173645,0.07412209361791611,2.4800498485565186,0.4470958113670349,0.09391403198242188,0.30030524730682373
47,-1.0715783529362606,-1.0749305778873663,-1.4304360568422643,-0.4177261292934418,0.8795571327209473,-0.22778084874153137,-5.987158298492432,-1.0110348463058472,2.9504432678222656,0.14372408390045166,-0.11551910638809204,0.3502936363220215
48,-2.4540346765874004,-1.2572233484869197,-2.727210927440921,-0.19576415419578552,0.9512374997138977,0.23837663233280182,-1.9413068294525146,2.060595750808716,0.31534191966056824,-0.5134795904159546,0.47820574045181274,0.19094453752040863
49,-2.30707482843837,-1.1131296159089354,-2.7071419763484044,-0.32740318775177,0.8970859050750732,0.2967216968536377,-2.2564308643341064,-4.059230804443359,0.03337172046303749,-0.08034214377403259,0.20208078622817993,-0.43304377794265747
50,-2.398989675211318,-1.0748409767786484,-2.6038847050722866,-0.32178837060928345,0.8795145153999329,0.3505800664424896,3.056635618209839,1.268017053604126,-1.3485045433044434,-0.5310100317001343,0.37628376483917236,-0.4028567373752594
51,-1.2159093938721628,-1.0937172470883054,-1.6079654094058595,-0.430572509765625,0.8883399367332458,-0.15956006944179535,4.48914098739624,-1.5513989925384521,-0.5686264634132385,0.1361236572265625,0.9809226989746094,0.12586867809295654
52,-1.2232623235070859,-0.9381798456402626,-1.2132458502566734,-0.5559087991714478,0.806483268737793,-0.20137040317058563,2.581993579864502,-1.7301236391067505,-1.6781816482543945,0.11085575819015503,-0.31833940744400024,0.3742830157279968
53,-0.989487127879383,-0.7664222452999241,-1.1063720262670544,-0.6020675301551819,0.6935622692108154,-0.39558321237564087,-0.9256600141525269,2.5799810886383057,-0.18942378461360931,0.5210433602333069,-0.41154932975769043,0.7210684418678284
54,-1.0789646341337693,-0.8504732638243124,-1.3312825254727365,-0.5814415216445923,0.7515926957130432,-0.3115033805370331,-0.028252219781279564,-3.73224139213562,-0.38979488611221313,-0.20214307308197021,0.4321536421775818,-3.2096452713012695
55,-1.180542110282373,-0.8561628856652511,-1.4311999339792663,-0.6060672402381897,0.7553334832191467,-0.2493070513010025,-0.8488740921020508,-1.8500165939331055,0.9069510698318481,0.3249850273132324,0.09445905685424805,0.7252439260482788
56,-1.2600695784510647,-0.8999298730929801,-1.3400522178640935,-0.5918945074081421,0.7832832932472229,-0.19007450342178345,-0.0262945294380188,-4.283860683441162,1.026502013206482,0.8176788091659546,-0.3324776291847229,0.507564127445221
57,-1.4891525193376587,-1.0056058623464177,-1.4341904483511605,-0.5337924361228943,0.8444865942001343,-0.04367794096469879,-3.392160415649414,-3.371493101119995,0.6142794489860535,-0.23599809408187866,0.0936235785484314,0.1318126916885376
58,-2.049745338037684,-1.029445619701918,-1.821192768512274,-0.45731320977211,0.857013463973999,0.23747164011001587,0.27923983335494995,-0.9311703443527222,0.2034323364496231,-0.17331737279891968,-0.05998575687408447,-0.3274984061717987
59,-2.216604982003859,-1.0450499828092026,-1.8798454663796693,-0.4007909297943115,0.864949643611908,0.30204078555107117,-1.556652307510376,-2.812154769897461,0.3238927721977234,-0.3335534930229187,-0.16554784774780273,-0.32656171917915344
60,-2.339860311575699,-1.0350531123659852,-1.8838986541590936,-0.36681169271469116,0.8598894476890564,0.355020135641098,0.5182750821113586,0.7649608850479126,-0.4982457458972931,-0.7910252213478088,0.00020271539688110352,-0.5111175775527954
61,-1.6867614408145848,-0.9613161307981783,-1.4529506321949248,-0.5685967206954956,0.8199456930160522,0.06623455882072449,2.7535297870635986,3.4698665142059326,-1.6470651626586914,-0.11191481351852417,0.6290748119354248,0.3947486877441406
62,-1.3304726327941983,-0.8157286617239042,-1.0656194534246675,-0.6656420826911926,0.7282251715660095,-0.16312211751937866,2.128699541091919,1.4795231819152832,-0.35590454936027527,0.3512805104255676,0.10385191440582275,0.40405839681625366
63,-1.10809290492968,-0.6747192288525469,-0.9515244056501327,-0.6987719535827637,0.6246780753135681,-0.3485616445541382,-0.15775401890277863,2.9856104850769043,-0.5627387166023254,0.5787920951843262,-0.4428238272666931,0.7074788808822632
64,-0.944459431620679,-0.7542904298691868,-1.0822823844401304,-0.5904249548912048,0.684771716594696,-0.42718377709388733,-2.564763307571411,0.7444859147071838,-0.17990532517433167,0.38394302129745483,-0.3902009129524231,0.4655596911907196
65,-1.246901857645333,-0.7800117573072817,-1.2848947886299518,-0.6739405393600464,0.7032877802848816,-0.22625340521335602,-0.16159269213676453,0.9373342990875244,-0.007401413284242153,0.1722010374069214,0.03958636522293091,-0.3384743928909302
66,-1.1880681187478814,-0.7961231969210176,-1.2253880304161928,-0.6488743424415588,0.7146497368812561,-0.26122358441352844,-1.0636661052703857,-2.0674426555633545,0.503013551235199,1.4237767457962036,-0.5918469429016113,1.013481855392456
67,-1.4097496168212562,-0.9210740306647113,-1.2605820907485839,-0.5971370339393616,0.7962518334388733,-0.09700707346200943,-1.6066689491271973,-5.324944019317627,0.9139128923416138,-0.4355625510215759,0.7692388892173767,-0.14542454481124878
68,-1.8925242955809427,-1.0023875734461403,-1.572367914554138,-0.5106722712516785,0.8427585959434509,0.1702112853527069,-2.159367561340332,-0.1815006136894226,0.8180879950523376,0.03075277805328369,-0.13996922969818115,-0.0461726039648056
69,-2.1301017635717976,-1.0064761375315294,-1.7472663630355507,-0.45334428548812866,0.844952404499054,0.28378552198410034,-0.22999145090579987,-2.5715675354003906,-0.026411836966872215,-0.25989726185798645,-0.11690986156463623,-0.26234689354896545
70,-2.271711445543289,-1.0320690541586013,-1.7637782039828547,-0.39209502935409546,0.8583623170852661,0.33087092638015747,0.8554226756095886,-0.6002867817878723,-0.12223438918590546,-0.9854684472084045,-0.09490412473678589,-0.1996452808380127
71,-2.001335969588346,-1.023653941953512,-1.5201367811024413,-0.4727713465690613,0.8540146946907043,0.21713174879550934,2.274409055709839,3.1379730701446533,-1.6066440343856812,-0.5127175450325012,0.054615676403045654,-0.5272208452224731
72,-1.4829046856086807,-0.8974563007986869,-1.1123100722549526,-0.6211934685707092,0.7817431688308716,-0.05473873391747475,1.3339605331420898,-3.020918846130371,-1.143277883529663,0.18167930841445923,1.1840161085128784,-0.014078378677368164
73,-1.2585480766979098,-0.7549631741357804,-0.8844373379059394,-0.6930801272392273,0.6852618455886841,-0.22373197972774506,1.0213046073913574,0.8600577116012573,-1.5915882587432861,0.16192173957824707,-0.29616278409957886,0.5600051879882812
74,-1.1044523377464472,-0.6823841586206301,-0.9056587525398317,-0.6932010650634766,0.6306450963020325,-0.3489401042461395,-1.1572037935256958,2.4547221660614014,0.1731145977973938,0.9540348052978516,-0.4514915943145752,0.7649862766265869
75,-1.1678754378466243,-0.7758766978570689,-1.1072670565636777,-0.6566453576087952,0.7003421187400818,-0.2798888385295868,1.0261821746826172,-0.9093922972679138,-0.9646233916282654,-1.3906264305114746,1.3466243743896484,-3.5016510486602783
76,-1.3031861172649806,-0.7678143093600871,-1.251445931398158,-0.6938228607177734,0.6945644617080688,-0.19023720920085907,-0.45416170358657837,-1.0182572603225708,0.9835275411605835,-0.36834144592285156,0.37240636348724365,0.09093302488327026
77,-1.3989401518536961,-0.8094694377568228,-1.232120488030598,-0.6797200441360474,0.7239212393760681,-0.11797785013914108,0.0422014482319355,-2.289915084838867,1.3697856664657593,0.9521962404251099,0.034928858280181885,0.3535583019256592
78,-1.4887865838339043,-0.9568111045310819,-1.182799623954893,-0.5741929411888123,0.8173584938049316,-0.04719526693224907,-1.830387830734253,0.09626458585262299,0.8954322338104248,-0.21970653533935547,0.17334884405136108,0.6133421659469604
79,-2.069927435033991,-0.9968313997240551,-1.61259606399364,-0.4767233729362488,0.8397547602653503,0.2598975896835327,1.580966591835022,-0.8050942420959473,0.04641057178378105,-0.32721641659736633,-0.20369213819503784,-0.6910194158554077
80,-2.121889930572532,-1.0272962144104434,-1.5274672881710383,-0.44057413935661316,0.8559039235115051,0.27078166604042053,-1.1412849426269531,-1.210282564163208,0.5891899466514587,-0.09706920385360718,-0.23468822240829468,-0.18572920560836792
81,-2.311108441856554,-1.0310475350180113,-1.6481197163375052,-0.3794059157371521,0.8578377962112427,0.34664878249168396,-0.3191048204898834,-1.0697574615478516,-0.2738465964794159,-0.7167397141456604,0.03586941957473755,-0.6027218103408813
82,-1.8146821260856765,-0.9980929101763498,-1.279095404315487,-0.5258691906929016,0.8404390215873718,0.13085684180259705,2.1246771812438965,4.004659175872803,-2.253708600997925,-0.5644475221633911,0.31086695194244385,0.05873356759548187
83,-1.4479862794950273,-0.8244391460636015,-0.9030368370105442,-0.6738550662994385,0.7341670989990234,-0.08317475020885468,2.9892828464508057,1.5492910146713257,-1.50270414352417,0.4816248416900635,0.7829380035400391,-0.1006631851196289
84,-1.2288596741618352,-0.6791622611522677,-0.7602964250345088,-0.733052670955658,0.6281414031982422,-0.2609061598777771,0.895351767539978,1.4326990842819214,-1.4914780855178833,0.36675018072128296,-0.608366072177887,0.5756950378417969
85,-1.016954164882432,-0.7043511969928556,-0.8624140271972799,-0.6481157541275024,0.6475395560264587,-0.40079745650291443,-2.09236216545105,2.485534191131592,0.696545422077179,0.9491411447525024,-0.26280444860458374,0.7751260995864868
86,-1.2990485100407345,-0.7482229428470468,-1.0667652924264874,-0.7060039639472961,0.6803374290466309,-0.19672146439552307,-1.402265191078186,0.9885087609291077,-0.009021193720400333,-0.9284869432449341,-0.48818355798721313,-0.22565703094005585
87,-1.26773008275602,-0.7679902678235587,-1.0768561219871253,-0.6865264177322388,0.694691002368927,-0.21467620134353638,-0.6808150410652161,-0.3155316710472107,0.5267371535301208,0.6714965105056763,0.516612708568573,1.8331760168075562
88,-1.4515914437375825,-0.8847461428544132,-1.0957434471521983,-0.6289904713630676,0.7737541794776917,-0.07533591240644455,0.6545639634132385,-1.0185012817382812,1.3855491876602173,0.2740862965583801,0.38528817892074585,0.47586387395858765
89,-1.7859563229964501,-0.9941544836878681,-1.4455513798972557,-0.5326405167579651,0.8382982611656189,0.11640477180480957,-3.9179229736328125,-1.7984428405761719,0.6550107598304749,-0.2670573592185974,-0.19228696823120117,-0.19564366340637207
90,-1.9992595182682689,-1.029033054570881,-1.4622093757686287,-0.4690361022949219,0.8568007946014404,0.2142380028963089,0.4837213158607483,-1.6328799724578857,0.19404131174087524,-0.2939797043800354,-0.23407423496246338,0.008875995874404907
91,-2.3145019526098944,-1.0225502747974275,-1.6256903214946168,-0.38357847929000854,0.85343998670578,0.3528568148612976,-0.29911166429519653,-0.6759893894195557,0.5481333136558533,-0.5088775753974915,-0.06787174940109253,-0.8503390550613403
92,-2.2178615620888826,-1.0359630549131442,-1.5402405895749427,-0.40666547417640686,0.8603536486625671,0.3072698712348938,1.7504246234893799,1.7307426929473877,-0.9761294722557068,-0.5313533544540405,0.06327617168426514,-0.9034918546676636
93,-1.4626192000907063,-0.9190426125658976,-1.071202409092584,-0.6030359268188477,0.7950212359428406,-0.06549035757780075,1.8993873596191406,0.3225060999393463,-1.9005359411239624,-0.3931646943092346,1.1892470121383667,0.01881372183561325
94,-1.2968685357792429,-0.7760966247566254,-0.7912006214803624,-0.6870454549789429,0.7004991173744202,-0.19305385649204254,1.026874303817749,0.6483899354934692,-0.8379358053207397,0.1509736180305481,-0.1357254981994629,0.40518149733543396
95,-1.123606093968109,-0.6569987494541649,-0.752437603526897,-0.7139648199081421,0.6107431054115295,-0.3424134850502014,-0.8475169539451599,2.987757682800293,-0.047331295907497406,0.6978515982627869,-0.3796945810317993,0.6853090524673462
96,-1.0957744099261544,-0.7922148477747905,-0.9371361314576994,-0.6245167851448059,0.7119104266166687,-0.32118886709213257,-3.295832872390747,-2.9481899738311768,-0.04862607270479202,-0.0020700693130493164,-0.289837121963501,-0.28621771931648254
97,-1.2877904689899649,-0.7799649256879556,-1.050469632718543,-0.6826574802398682,0.7032544612884521,-0.19852468371391296,-0.9356787800788879,-1.6255537271499634,-0.25851431488990784,0.9897863864898682,0.5237963199615479,-0.35968756675720215
98,-1.3188255759254675,-0.8439964704181566,-0.9990183652260547,-0.6434991359710693,0.7473046779632568,-0.16566385328769684,-0.22231462597846985,-1.6527044773101807,1.3065698146820068,1.0085351467132568,-0.36502623558044434,0.5055228471755981
99,-1.3475599476983993,-0.9588129134925055,-1.0540969910046758,-0.5602365732192993,0.8185101747512817,-0.12718497216701508,-2.13679838180542,-0.31784796714782715,0.47849375009536743,-0.2990468144416809,0.3321855664253235,0.344241201877594
100,-1.9875635419799111,-0.9732785941217658,-1.507952191189042,-0.5144355893135071,0.8267346620559692,0.22774095833301544,0.44563573598861694,-1.5724170207977295,-0.03879447281360626,0.2876594662666321,-0.17306339740753174,-0.631442666053772
101,-2.1285458175312093,-1.025234748666249,-1.4543370078125242,-0.44025835394859314,0.8548360466957092,0.2746414542198181,-0.09687334299087524,-1.0818592309951782,0.7803067564964294,-0.315860390663147,-0.14774376153945923,0.023759454488754272
102,-2.2880942575272765,-1.058993940503596,-1.5356581378518734,-0.36906757950782776,0.8718631863594055,0.32193711400032043,-0.18704292178153992,-0.9224132895469666,-0.05603325366973877,-0.9203610420227051,-0.21794790029525757,-0.48258164525032043
103,-1.7730093978911707,-1.025606809155596,-1.1365204530738455,-0.5080136656761169,0.8550290465354919,0.10415046662092209,1.6075249910354614,4.323241233825684,-2.3776180744171143,-0.7676668167114258,0.42658716440200806,0.55898118019104
104,-1.4868381088275686,-0.8344710237710672,-0.878669218775256,-0.6692041754722595,0.7409413456916809,-0.05631758272647858,2.268984794616699,1.4612892866134644,-1.7407387495040894,0.4152368903160095,0.5698496699333191,-0.2616298198699951
105,-1.2433041407942542,-0.7364001621981283,-0.8038696705655446,-0.7015143632888794,0.6716251969337463,-0.23832212388515472,0.5228011012077332,1.2007769346237183,-0.8034611940383911,0.6103736162185669,-0.6492710113525391,0.4794415235519409
106,-1.0500720754686061,-0.742256588066134,-0.8495475035161436,-0.6392697095870972,0.6759526133537292,-0.3666364848613739,-1.8841135501861572,2.85390043258667,0.5373407602310181,0.7986783385276794,-0.23352402448654175,0.7785780429840088
107,-1.2410861010629035,-0.7954622766233596,-1.0130407306980933,-0.6622523665428162,0.7141872644424438,-0.2266235053539276,-1.1297519207000732,-0.4802038073539734,-0.1077628806233406,-0.34481239318847656,-0.5302883982658386,-0.264892578125
108,-1.2736149604932785,-0.8308100319980993,-1.075440539067896,-0.6447212100028992,0.7384778261184692,-0.19744624197483063,-0.06992774456739426,0.37846267223358154,0.5912683010101318,0.21674275398254395,0.533647358417511,1.418500304222107
109,-1.3712399481141317,-0.9422549086706016,-1.0426694287270968,-0.5762972235679626,0.8088859915733337,-0.11655508726835251,-0.4000076651573181,-0.23413577675819397,1.4680261611938477,0.27250993251800537,0.26946789026260376,0.6666649580001831
110,-1.7262052476401075,-1.0137376585554745,-1.463529073039024,-0.5223204493522644,0.8488138318061829,0.0818331241607666,-4.500219821929932,-4.053279399871826,-0.009521344676613808,-0.09817826747894287,-0.2540261149406433,-0.3461306095123291
111,-1.9823625842870969,-1.0265884534965632,-1.4729604516455834,-0.47450703382492065,0.8555376529693604,0.20711976289749146,0.8155562281608582,-1.3721890449523926,0.38559287786483765,-0.20572984218597412,-0.18364733457565308,0.2955658733844757
112,-2.312987395155512,-1.0354625263526211,-1.680220990595366,-0.3759588599205017,0.8600984215736389,0.34479767084121704,-0.4795893132686615,1.1286797523498535,0.4864645302295685,-0.948244571685791,-0.21033352613449097,-1.0100655555725098
113,-2.083314642111547,-1.0562965945919671,-1.4981912672182054,-0.4288707971572876,0.8705390095710754,0.24131256341934204,2.778841018676758,3.0438272953033447,-1.2939289808273315,-0.5933154821395874,-0.07932507991790771,-0.7351784706115723
114,-1.4528793595118075,-0.9066435082193632,-1.1044944130183798,-0.6121118068695068,0.7874392867088318,-0.07251477241516113,1.0950826406478882,-3.06585955619812,-1.5799603462219238,-0.3241369128227234,1.074422836303711,0.23495984077453613
115,-1.3008342094008263,-0.7462805696067587,-0.942058507814491,-0.7076263427734375,0.6789125800132751,-0.19581249356269836,0.7166411876678467,1.4627199172973633,-1.1505943536758423,0.4062653183937073,-0.12060880661010742,0.346966028213501
116,-1.129886557923308,-0.6850100471449905,-0.9565551505446557,-0.700350821018219,0.6326807737350464,-0.33049023151397705,-0.9250440001487732,2.575469970703125,0.34014371037483215,0.8720274567604065,-0.29990190267562866,0.696243405342102
117,-1.1732178824224897,-0.8144701422154287,-1.1092271128857536,-0.6327269077301025,0.7273620963096619,-0.26570841670036316,1.502447485923767,-1.988900065422058,-0.5120553970336914,-1.524484395980835,0.9559569358825684,-3.3619160652160645
118,-1.2805590323930047,-0.7841057516633468,-1.1910583111579134,-0.6784077286720276,0.7061923146247864,-0.20262086391448975,1.785982608795166,1.6896233558654785,0.00016537122428417206,-1.1321238279342651,0.27421534061431885,-0.12760983407497406
119,-1.308096757399363,-0.8624010434617088,-1.171524062400095,-0.6282949447631836,0.7594069242477417,-0.16895745694637299,0.6884366869926453,-1.1167391538619995,1.2248411178588867,0.6678915023803711,0.1778184175491333,0.5542724132537842
120,-1.4563333335878672,-0.9786042376942301,-1.3074939365494285,-0.5545285940170288,0.829719066619873,-0.06375166773796082,-4.093784809112549,-1.52753484249115,0.7246444225311279,-0.2503877878189087,-0.06700855493545532,0.2409062385559082
121,-2.0067732782555474,-0.9962818514627967,-1.7168607033342393,-0.49259379506111145,0.8394562602043152,0.22948718070983887,0.7517070174217224,-1.2601569890975952,0.07608344405889511,0.10454761981964111,-0.21277791261672974,-0.30837514996528625
122,-2.202439383705997,-1.0409131015284454,-1.7193030938077085,-0.4079135060310364,0.8628661036491394,0.2984434962272644,-0.9372865557670593,-1.6748745441436768,0.7701311111450195,-0.2857357859611511,-0.3498045802116394,-0.4171876609325409
123,-2.288771448057226,-1.05513995455086,-1.7647612546079388,-0.37137752771377563,0.8699692487716675,0.32439517974853516,0.15975230932235718,0.4581470191478729,-0.6800638437271118,-1.0195527076721191,-0.258076548576355,-0.5329217910766602
124,-1.6245798830100306,-0.9509608442951735,-1.3712323809061933,-0.5800614953041077,0.8139740228652954,0.03122788667678833,1.8441798686981201,4.938190937042236,-1.9095357656478882,-0.2865767478942871,0.6963562965393066,0.632025957107544
125,-1.408597192092717,-0.7963012447734834,-1.1368970847781903,-0.6901759505271912,0.7147742509841919,-0.11293809860944748,0.8680338263511658,2.451535701751709,-0.4193759858608246,0.5291805267333984,0.0653618574142456,0.8946916460990906
126,-1.2383821965343251,-0.6936123613960499,-1.0807247490132845,-0.7268477082252502,0.6393190622329712,-0.25092563033103943,0.24853678047657013,1.5071618556976318,-0.6790010929107666,0.7180739045143127,-0.5846468210220337,0.6201425194740295
127,-1.0812866366928657,-0.7619167133541123,-1.2017012933852405,-0.6385471820831299,0.690309464931488,-0.34019142389297485,-3.0643928050994873,1.6027473211288452,0.8488447666168213,0.46134692430496216,-0.4432544708251953,0.36213359236717224
128,-1.2808243746012875,-0.7757524974232577,-1.3600652228713526,-0.6840904355049133,0.7002534866333008,-0.2041204422712326,-0.14119793474674225,-0.5162106156349182,-1.0075147151947021,0.5274895429611206,0.03361785411834717,-0.2520867884159088
129,-1.3203764442416044,-0.8340455656112453,-1.375860003997776,-0.6509278416633606,0.7406556010246277,-0.16650032997131348,-0.8449395895004272,-1.3643068075180054,0.9283804297447205,0.9628175497055054,0.02394711971282959,0.701214075088501
130,-1.40008299529026,-0.9819493655910967,-1.3878477890376935,-0.5473291277885437,0.8315816521644592,-0.09435476362705231,-0.4931386709213257,1.0197525024414062,1.2968032360076904,0.03706002235412598,0.14723914861679077,0.5746556520462036
131,-2.062339894046985,-0.9939735825160654,-1.855654291379441,-0.4807954430580139,0.8381996154785156,0.2574046552181244,0.761030375957489,-4.9916157722473145,-0.5594855546951294,0.13516861200332642,0.0536307692527771,-2.371677875518799
132,-1.9952771850920807,-1.0535168183477623,-1.5846609204540016,-0.4506304860115051,0.8691677451133728,0.20366597175598145,-0.6153612732887268,-0.5135689973831177,1.0067943334579468,-0.21585816144943237,-0.317592978477478,0.30503153800964355
133,-2.3430499178037176,-1.0539043136669257,-1.8462780094809446,-0.35400155186653137,0.8693592548370361,0.34481537342071533,0.47078394889831543,0.7296454310417175,0.14873401820659637,-0.8890252113342285,-0.05414307117462158,-0.24548062682151794
134,-2.049068830333883,-1.0247021352092982,-1.6290724652995259,-0.46107739210128784,0.8545595407485962,0.2390304058790207,2.0227081775665283,3.649714469909668,-2.3835811614990234,-0.9770786762237549,0.32378512620925903,-0.4102340042591095
135,-1.5589285629167071,-0.8693982372784497,-1.2212113129627313,-0.6452409625053406,0.7639407515525818,-0.007657926995307207,2.4258029460906982,-1.951731562614441,-1.1373752355575562,0.5319444537162781,1.2214717864990234,-0.21968281269073486
136,-1.2809164002869893,-0.7388424200139446,-0.9441456997586087,-0.7084059715270996,0.6734326481819153,-0.21130476891994476,1.3798902034759521,1.3146084547042847,-1.4221220016479492,0.13964980840682983,-0.583268404006958,0.5320292711257935
137,-1.0582343603070514,-0.6935396493334871,-0.9680127638486774,-0.6701661944389343,0.6392631530761719,-0.377120703458786,-1.24184250831604,2.4892666339874268,0.4192913770675659,1.025421380996704,-0.2463034987449646,0.9026333689689636
138,-1.2463295020734046,-0.8005044327156714,-1.1535538102197795,-0.6600101590156555,0.7177074551582336,-0.22199717164039612,0.08028197288513184,-2.400747299194336,-0.582557737827301,-1.9224178791046143,1.5083210468292236,-2.7389707565307617
139,-1.3346543717061856,-0.8015644790161497,-1.2059215334642317,-0.676279604434967,0.7184451818466187,-0.16273415088653564,2.537097930908203,1.3526192903518677,0.2929116487503052,-1.1409200429916382,0.7612758874893188,-0.9351662397384644
140,-1.456652589711337,-0.9030858464669942,-1.2537218208763383,-0.6151604056358337,0.7852413654327393,-0.07052325457334518,-0.9431479573249817,-0.4801855683326721,1.702181339263916,0.6360955238342285,0.14923739433288574,0.6911287307739258
141,-1.8605705186552064,-1.0011058503471881,-1.5183528739386258,-0.5168840289115906,0.8420679569244385,0.15411770343780518,-1.61237633228302,-2.7529990673065186,0.8323895335197449,-0.24501776695251465,-0.16839253902435303,-0.09270109236240387
142,-2.087705810132648,-1.0225424688964035,-1.6502476480903496,-0.4531038701534271,0.8534359335899353,0.2575738728046417,0.7132706046104431,-1.875932216644287,0.02357538230717182,-0.21823716163635254,-0.27152663469314575,-0.35327693819999695
143,-2.3369174487893267,-1.039513284395122,-1.731955329901005,-0.3650875389575958,0.8621577620506287,0.3512764573097229,-0.031109001487493515,-0.8205797672271729,0.5807554721832275,-0.3662814199924469,-0.10503190755844116,-0.8071022033691406
144,-2.2806190543919573,-1.0563023287538973,-1.6393689155876612,-0.3732423186302185,0.8705418109893799,0.32069745659828186,1.3166449069976807,1.2363598346710205,-1.0983293056488037,-0.6693143844604492,0.022020936012268066,-0.759448766708374
145,-1.545980967004378,-0.9419988366278962,-1.168207801764682,-0.5879916548728943,0.8087353706359863,-0.01459422055631876,2.030210494995117,1.751746654510498,-1.7647696733474731,-0.2880917191505432,1.0599932670593262,0.0714331865310669
146,-1.3349467214978854,-0.8081536040364781,-0.8588742056966453,-0.6717096567153931,0.7230128645896912,-0.16142673790454865,1.3630155324935913,0.00202621566131711,-0.659628689289093,0.23413336277008057,-0.03548234701156616,0.32611483335494995
147,-1.1711911976664897,-0.6828395539781578,-0.7875146481680046,-0.7146637439727783,0.630998432636261,-0.30182239413261414,-0.6805291175842285,3.140227794647217,-0.35566040873527527,0.6754944324493408,-0.448716938495636,0.732318639755249
148,-1.1487083884932503,-0.8046095256316169,-1.0247943656624996,-0.6325376033782959,0.7205599546432495,-0.2840594947338104,-2.3974294662475586,-4.103799819946289,0.2872180640697479,0.0834958553314209,-0.34627705812454224,-1.3111400604248047
149,-1.3080328499203717,-0.7764147681834087,-1.1197214887959772,-0.6889424920082092,0.7007260918617249,-0.1853136569261551,-1.0613198280334473,-0.5983628034591675,0.40269750356674194,0.6270986199378967,0.7354310750961304,0.2400774508714676
150,-1.3279877292709312,-0.8707716081569009,-1.0847564666836778,-0.6253389120101929,0.764826238155365,-0.1548936665058136,-0.41747212409973145,-1.0849931240081787,2.0111043453216553,0.8926881551742554,-0.13012170791625977,0.5434892773628235
151,-1.508376858955372,-1.024540072601521,-1.2556575322642494,-0.5184801816940308,0.8544753789901733,-0.03240535408258438,-2.455434560775757,-2.2992639541625977,0.5525259375572205,-0.37650883197784424,0.01374971866607666,0.2583574652671814
152,-2.0268334955179452,-1.0272869458210958,-1.5231697893141933,-0.4642932713031769,0.8558990955352783,0.22774645686149597,0.9154740571975708,-1.0523171424865723,-0.21302150189876556,0.0003345608711242676,-0.17448735237121582,-0.32300710678100586
153,-2.147627393037157,-1.068246507855023,-1.5038748787885627,-0.4037264883518219,0.8763572573661804,0.26268407702445984,-1.155914306640625,-1.8075984716415405,0.7592965364456177,-0.1515408754348755,-0.2432548999786377,-0.23460793495178223
154,-2.343039101646406,-1.0745202543556085,-1.6233084208750743,-0.34109190106391907,0.8793618083000183,0.3322335481643677,-0.2608892023563385,-0.549669623374939,-0.2799914479255676,-0.8638947010040283,0.025057077407836914,-0.4749947786331177
155,-1.8230478110132413,-1.0144255340177326,-1.2630879522042415,-0.5113947987556458,0.8491773009300232,0.13180771470069885,2.0828943252563477,4.327841281890869,-2.3068058490753174,-0.4120060205459595,0.33394336700439453,0.17587052285671234
156,-1.4531882696178515,-0.8409845452955961,-0.8899076749879355,-0.6621237397193909,0.7452999353408813,-0.07823210954666138,3.302903175354004,1.5728050470352173,-1.485540509223938,0.5514212250709534,0.5325016379356384,0.06037938594818115
157,-1.2293078567036075,-0.6927223543798577,-0.7337799039821543,-0.7250766158103943,0.638634443283081,-0.2577012777328491,0.577513575553894,1.9269901514053345,-1.255709171295166,0.3680056929588318,-0.687554121017456,0.6607621908187866
158,-0.9849029295240941,-0.7368848027400017,-0.8509966804427748,-0.6170527338981628,0.6719841957092285,-0.4094912111759186,-2.5469181537628174,1.9205496311187744,0.5204943418502808,0.7991054058074951,-0.3707605004310608,0.6671664714813232
159,-1.2851333432145058,-0.770409712483378,-1.0474189422869482,-0.6885436177253723,0.6964293122291565,-0.20222225785255432,-0.8189761638641357,1.5874204635620117,-0.3516142964363098,-0.2770019769668579,-0.24357903003692627,-0.1653314083814621
160,-1.2982545553893514,-0.8002041985219241,-1.087587067988269,-0.6708500981330872,0.7174983620643616,-0.18750028312206268,-1.4232343435287476,-0.7122051119804382,0.7622424364089966,0.9396794438362122,0.3196873664855957,1.1528475284576416
161,-1.4000644041958408,-0.9336553909041084,-1.0879711377334107,-0.5862504243850708,0.8037998676300049,-0.101075679063797,0.15182724595069885,-0.4034459590911865,1.485813021659851,0.1628190279006958,0.26697033643722534,0.4426894187927246
162,-1.6979878552782102,-1.0224865070384863,-1.464949788712579,-0.517035186290741,0.8534067273139954,0.06611943244934082,-4.218220233917236,-4.117188930511475,0.39896634221076965,-0.16196566820144653,-0.30206090211868286,-0.4389679431915283
163,-2.039112917208783,-1.0351300715886602,-1.4966110052713124,-0.4554574489593506,0.8599287271499634,0.23039311170578003,1.181842565536499,-2.570164442062378,-0.04646230861544609,-0.07785245776176453,-0.16664570569992065,-0.092819944024086
164,-2.2810400059384013,-1.05114867358349,-1.6144097113558868,-0.37650418281555176,0.8679941892623901,0.32377567887306213,-1.6488866806030273,-1.645926594734192,0.5770003795623779,-0.7082736492156982,-0.11915385723114014,-0.2415308952331543
165,-2.218367237737209,-1.047568725429818,-1.5578941488847373,-0.3985195755958557,0.8662109375,0.30143165588378906,1.6252410411834717,2.5807595252990723,-1.2377753257751465,-0.7636356353759766,0.02952587604522705,-0.7250766754150391
166,-1.46522169513987,-0.9350993250506436,-1.1279933228560897,-0.5904324650764465,0.804658055305481,-0.0625673234462738,1.4552861452102661,-1.6627376079559326,-1.392055869102478,-0.2976289391517639,1.1505725383758545,0.05029924213886261
167,-1.2938344624168936,-0.773519153342509,-0.8917519701658198,-0.6881908178329468,0.6986573338508606,-0.1956305205821991,1.0249818563461304,0.8369295001029968,-1.3760026693344116,0.11951100826263428,-0.17233598232269287,0.449063777923584
168,-1.0580422414062682,-0.6825483405300665,-0.9015220351943626,-0.6761758923530579,0.6307724714279175,-0.3806735575199127,-1.0989910364151,3.836459159851074,0.21845923364162445,0.9795816540718079,-0.357685923576355,0.9321414232254028
169,-1.1559807329418728,-0.793823973812941,-1.095898868320177,-0.6416619420051575,0.7130395770072937,-0.28256773948669434,0.4924905598163605,-1.5464215278625488,-0.958143413066864,-1.2939765453338623,1.235828161239624,-2.305490732192993
170,-1.2638897887502487,-0.7992598566183007,-1.218934731057307,-0.6646573543548584,0.7168402075767517,-0.2106432020664215,0.9602681398391724,0.9076192378997803,0.7759523391723633,-0.4229280352592468,0.7407249808311462,-0.014988526701927185
171,-1.3542357254692612,-0.8619602380806872,-1.1882613081023743,-0.6357458829879761,0.7591200470924377,-0.13987095654010773,0.28075647354125977,-1.3788968324661255,1.7097760438919067,0.8087043166160583,-0.0021468400955200195,0.41289645433425903
172,-1.537227675434359,-1.02141510784748,-1.3072293784777615,-0.5218653678894043,0.8528478145599365,-0.017524898052215576,-3.099501848220825,-1.8658009767532349,0.9914088845252991,-0.2895665168762207,0.0006067752838134766,0.2964250445365906
173,-2.089037306839706,-1.028776827079771,-1.6581645632938178,-0.4481295347213745,0.8566686511039734,0.2555362284183502,0.6502735018730164,-0.960573136806488,-0.04678516089916229,-0.1932278871536255,-0.1769964098930359,-0.40705597400665283
174,-2.2362215777378798,-1.053860704446355,-1.6435614743669378,-0.3887791335582733,0.8693377375602722,0.30512741208076477,-1.074326515197754,-2.265338659286499,0.4982171654701233,-0.09637406468391418,-0.23741024732589722,-0.3596775531768799
175,-2.3345392532650693,-1.0522909302926213,-1.6961172978660037,-0.3579355776309967,0.8685608506202698,0.34275949001312256,0.5673903226852417,0.8680324554443359,-0.780467689037323,-0.9367879033088684,-0.023239314556121826,-0.706742525100708
176,-1.6197887238927433,-0.9377992260494259,-1.2737910679589253,-0.5908541083335876,0.8062581419944763,0.028970541432499886,2.746936082839966,4.922496318817139,-1.8162604570388794,-0.29470497369766235,0.8370371460914612,0.48279404640197754
177,-1.33613137824646,-0.7910340628822548,-0.9285880669425937,-0.6838398575782776,0.7110807299613953,-0.16348524391651154,1.7981468439102173,1.2746087312698364,-0.5703641772270203,0.3730335235595703,0.125482439994812,0.5804469585418701
178,-1.1236059619602081,-0.6592015925109399,-0.8570292771322721,-0.7127499580383301,0.612485945224762,-0.3418309688568115,-0.5994241237640381,3.464146137237549,-0.40291696786880493,0.6665158867835999,-0.46784788370132446,0.7421605587005615
179,-1.023562779528103,-0.7774314950134976,-1.0519992285162474,-0.6086373925209045,0.7014511227607727,-0.3708459734916687,-3.156198740005493,-3.8462839126586914,0.1769028753042221,0.17319738864898682,-0.3851669430732727,-0.8492162227630615
180,-1.234440826840529,-0.7818711604911435,-1.189992599431326,-0.6698333024978638,0.7046084403991699,-0.2342015951871872,-0.46957269310951233,-0.3850128948688507,-0.10361935943365097,0.10296928882598877,0.9010434746742249,-0.4245966076850891
181,-1.3396392548869855,-0.8695824001435047,-1.208212585523645,-0.6279860138893127,0.7640596032142639,-0.14780543744564056,-0.96674644947052,-1.9655841588974,1.5126160383224487,0.8352309465408325,-0.21207290887832642,0.6697628498077393
182,-1.6840139409594552,-1.002005786456088,-1.3548402342831531,-0.5351651310920715,0.8425530195236206,0.060850340873003006,-1.4398666620254517,-2.1381704807281494,0.764508843421936,-0.2911745309829712,-0.1039513349533081,0.2791764736175537
183,-1.984803088893053,-1.0195466526064056,-1.6461830999536347,-0.47950345277786255,0.8518706560134888,0.21069535613059998,-0.7805926203727722,-0.6724969744682312,0.45466890931129456,0.04111853241920471,-0.1543000340461731,-0.5029165148735046
184,-2.109173633976975,-1.0380851888725062,-1.6711878167759895,-0.43602854013442993,0.8614333271980286,0.26040759682655334,-1.0099238157272339,-1.1134198904037476,0.5479680895805359,-0.13976192474365234,-0.1921369433403015,0.0022419989109039307
185,-2.3248177176239824,-1.0394310729455385,-1.7883980752361137,-0.36936256289482117,0.8621160984039307,0.3468817472457886,-0.509476900100708,-0.3249129354953766,-0.14535076916217804,-0.8879005908966064,0.07115709781646729,-0.22096624970436096
186,-2.0226151518202395,-1.0294859082665142,-1.5384482530581598,-0.4635554850101471,0.8570342063903809,0.22496360540390015,2.6805949211120605,3.401402711868286,-2.069732666015625,-0.8196170926094055,0.08252567052841187,-0.3497347831726074
187,-1.5445257584611936,-0.8935510789931832,-1.1196813367990335,-0.6264322996139526,0.7793019413948059,-0.016460519284009933,2.940098524093628,-0.5674288868904114,-1.559828519821167,0.24708354473114014,0.9928995370864868,-0.4115637540817261
188,-1.2723309989888705,-0.7257050308589055,-0.8588661679761251,-0.7149602770805359,0.6636629700660706,-0.219961479306221,1.530600905418396,0.8253300189971924,-1.4451137781143188,0.37920594215393066,-0.3959781527519226,0.5458434820175171
189,-1.0405296836417604,-0.6849478843125081,-0.8863621427137771,-0.6680983304977417,0.6326326727867126,-0.3916895091533661,-0.8989565372467041,2.1305980682373047,0.577241063117981,1.1644514799118042,-0.27188438177108765,0.7453424334526062
190,-1.2522251057230318,-0.757961205526804,-1.0506298424313796,-0.6896974444389343,0.6874422430992126,-0.22746528685092926,-1.7057923078536987,-1.3082908391952515,-0.2320585399866104,-1.8423306941986084,0.017422199249267578,0.028795868158340454
191,-1.186985894964911,-0.7804429983638571,-1.1217344867256014,-0.6589018106460571,0.7035942673683167,-0.26608943939208984,0.3604118525981903,-0.12644566595554352,0.9313021898269653,1.32865571975708,0.01001352071762085,0.5828161239624023
192,-1.4293330990069413,-0.9205045813803997,-1.107052266561964,-0.5993709564208984,0.795907199382782,-0.0853591039776802,0.4383247494697571,-2.649991512298584,1.552012324333191,0.016592025756835938,0.7304142117500305,0.5616621971130371
193,-1.8327529545479346,-1.0604725545012375,-1.2883672571856195,-0.47179606556892395,0.8725864291191101,0.12649688124656677,-1.8558505773544312,0.0461597740650177,1.2489013671875,-0.46300315856933594,-0.4482242465019226,-0.1879744529724121
194,-2.043896542630208,-1.0590025759743547,-1.672280113402203,-0.43594861030578613,0.8718674182891846,0.22314998507499695,0.13887837529182434,-0.7587335705757141,-0.3027544915676117,-0.1808421015739441,-0.42335063219070435,-0.12172485888004303
195,-2.3225332966811707,-1.0418314791758456,-1.7560594937797378,-0.368641197681427,0.8633298873901367,0.34462279081344604,-0.3791772723197937,-0.8951988220214844,0.5746963620185852,-0.831126868724823,-0.08922111988067627,-0.4917328655719757
196,-2.2583480539517145,-1.05061790697289,-1.6929047025077275,-0.3841095566749573,0.8677304983139038,0.31544169783592224,1.3892091512680054,1.4717049598693848,-0.9973268508911133,-0.7353514432907104,-0.05838918685913086,-0.7537808418273926
197,-1.5310563289773402,-0.9354908234023676,-1.2287346371139893,-0.5929546356201172,0.8048904538154602,-0.02357642911374569,1.5372145175933838,0.5007861852645874,-1.4867256879806519,-0.19659608602523804,1.187983512878418,0.07043612003326416
198,-1.359271023406877,-0.7861388335473156,-0.9035501124051198,-0.6908345818519592,0.7076303362846375,-0.1483481377363205,1.70418119430542,-0.3191920816898346,-1.1836071014404297,0.23061418533325195,-0.09065639972686768,0.3457357883453369
199,-1.1699594529241752,-0.6681962552162497,-0.8435090059487579,-0.7227219939231873,0.6195711493492126,-0.3062751293182373,-0.8064169883728027,3.149243116378784,0.05683792009949684,0.9614915251731873,-0.4232821464538574,0.7833869457244873
200,-1.1657990862553707,-0.7765618142294436,-1.037238653898892,-0.6556216478347778,0.7008309960365295,-0.2810625433921814,0.579479992389679,-3.072275400161743,-0.1846843808889389,-0.7710598707199097,0.16243499517440796,-3.3562207221984863
201,-1.2586492328956327,-0.7867992902999776,-1.1758436253338187,-0.6719933152198792,0.7080968618392944,-0.2168499231338501,-0.20239661633968353,0.04673665761947632,0.7852760553359985,0.45895010232925415,0.6953150033950806,0.3098369836807251
202,-1.3792147062918951,-0.8686496050274563,-1.132610509969678,-0.6340416669845581,0.7634574770927429,-0.12297901511192322,-0.309626966714859,-1.9417628049850464,1.874721884727478,0.7096031904220581,0.00660783052444458,0.6089257001876831
203,-1.6073947611309614,-1.024118217915565,-1.209455583322995,-0.5195040106773376,0.8542561531066895,0.019021527841687202,-2.929962158203125,-2.984764337539673,1.0490374565124512,-0.1945309042930603,-0.095284104347229,0.017492767423391342
204,-2.0533206235393227,-1.0455096347745967,-1.5765108272162573,-0.4442077577114105,0.8651801943778992,0.23268647491931915,0.3502388298511505,-1.134337306022644,-0.11605183035135269,-0.24384161829948425,-0.22873598337173462,-0.43475863337516785
205,-2.1923838775635223,-1.0459096994303998,-1.5618099764706304,-0.4073837101459503,0.8653807640075684,0.29181236028671265,-0.8455383777618408,-1.222471833229065,0.6105332374572754,-0.010035663843154907,-0.19858700037002563,-0.07368806004524231
206,-2.374409675725451,-1.0486256678204193,-1.6495928727551017,-0.3461959958076477,0.8667385578155518,0.35904350876808167,-0.005033248569816351,-0.7507802844047546,-0.1921202540397644,-0.8133803606033325,0.009390413761138916,-0.46297118067741394
207,-2.0234156216621892,-1.063840685915186,-1.380367863198093,-0.4366287887096405,0.8742266297340393,0.21232806146144867,2.198259115219116,3.965118408203125,-2.158904552459717,-0.6937423944473267,-0.10802173614501953,-0.14717301726341248
208,-1.5590295591031054,-0.9113867164814354,-1.0210948616206568,-0.6126081943511963,0.7903540730476379,-0.007208750583231449,2.903132915496826,-1.0435911417007446,-1.6890311241149902,0.26614201068878174,0.9678552746772766,-0.6327295899391174
209,-1.3204571428754919,-0.7165044711112067,-0.7929772389445795,-0.7305995225906372,0.6567527055740356,-0.18681666254997253,0.9170370101928711,0.9833609461784363,-1.6801975965499878,0.4326411485671997,-0.40875154733657837,0.4979434013366699
210,-1.073788633837215,-0.6799353704526476,-0.8781151951502609,-0.6835324168205261,0.6287427544593811,-0.37076401710510254,-1.1056783199310303,2.3019344806671143,0.42829135060310364,1.1158292293548584,-0.1769300103187561,0.6597349643707275
211,-1.2872720722758175,-0.7656131319837971,-1.0726599704704478,-0.6921736598014832,0.6929791569709778,-0.20168133080005646,-1.4847118854522705,0.019001448526978493,0.24202071130275726,-1.8223373889923096,-0.17799508571624756,-0.02630022168159485
212,-1.2209773736747922,-0.7748637304696511,-1.093602068825805,-0.6712415814399719,0.6996186971664429,-0.24488459527492523,-0.9101394414901733,-1.1619597673416138,0.21206627786159515,1.4185864925384521,0.34730207920074463,1.1790580749511719
213,-1.5244372640711221,-0.9064160672126592,-1.0935074132218647,-0.6159088611602783,0.7872990369796753,-0.028573429211974144,0.8692055344581604,-2.3944833278656006,1.546775221824646,-0.07688593864440918,0.6736536622047424,0.2516874074935913
214,-1.8713540840568494,-1.037305964997152,-1.456159858358794,-0.48574498295783997,0.8610373139381409,0.15055543184280396,-3.8155601024627686,0.9951696991920471,1.1823387145996094,-0.0922885537147522,-0.3388814330101013,-0.1885192096233368
215,-2.067538876726721,-1.0427616423375117,-1.5955381023557051,-0.44294315576553345,0.8637989163398743,0.24011078476905823,0.26886114478111267,-2.0577893257141113,-0.2183743417263031,-0.15385866165161133,-0.22106808423995972,0.10081639885902405
216,-2.356923394614965,-1.042783568637449,-1.737928789248094,-0.35599327087402344,0.8638100028038025,0.3565126359462738,-0.17756085097789764,-0.2669871747493744,0.47951212525367737,-1.0432376861572266,-0.205439031124115,-0.39331674575805664
217,-2.1770193360790357,-1.0480417069134367,-1.5834891734212362,-0.41030213236808777,0.8664471507072449,0.28446725010871887,1.816352128982544,2.5438385009765625,-1.6809229850769043,-0.8298407793045044,-0.1767956018447876,-0.4810919463634491
218,-1.53944218317315,-0.9109767950603673,-1.1490603917410285,-0.6126730442047119,0.7901028394699097,-0.019216135144233704,1.6155327558517456,-2.911978006362915,-1.2313824892044067,0.20686554908752441,1.4033937454223633,-0.06925433874130249
219,-1.3134903608741244,-0.7577236935483316,-0.8274031562414995,-0.7024884223937988,0.6872696876525879,-0.18485204875469208,1.890464425086975,0.08112674951553345,-1.6651118993759155,0.1642652153968811,-0.38560348749160767,0.3196176290512085
220,-1.1065368686954922,-0.6712310839239609,-0.8326612363403056,-0.7001726627349854,0.6219504475593567,-0.3506219983100891,-1.065588116645813,3.0278961658477783,0.2602981925010681,1.0867540836334229,-0.40036237239837646,0.8470362424850464
221,-1.2135121216006177,-0.7799472239582769,-1.0362927047837638,-0.6660541296005249,0.7032418847084045,-0.24864162504673004,-0.3228370249271393,-1.6265404224395752,-0.9671177864074707,-2.357886791229248,1.5505422353744507,-2.704437494277954
222,-1.2894149893290927,-0.7905126348447844,-1.1489023678935697,-0.6758150458335876,0.7107139825820923,-0.19534465670585632,1.4929845333099365,-0.9973248839378357,0.6641181111335754,0.017825603485107422,0.7048285603523254,-0.02564840018749237
223,-1.4859518674409788,-0.8463004408967654,-1.0888425180942587,-0.6603740453720093,0.7488335967063904,-0.056163907051086426,0.25974327325820923,-3.1606392860412598,1.1597273349761963,0.5906261205673218,0.07051759958267212,0.5122948884963989
224,-1.7012368248764136,-0.9858906876115427,-1.2050521009136856,-0.5474300384521484,0.8337641954421997,0.07181481271982193,-3.1914656162261963,-0.6237025260925293,1.128717064857483,-0.3975313901901245,0.07799404859542847,0.43947672843933105
225,-2.048161840284363,-1.0105409165980241,-1.5195915671496543,-0.4719962179660797,0.8471193909645081,0.24414801597595215,0.7433397769927979,-1.337119698524475,0.1258009970188141,-0.1496315896511078,-0.21987640857696533,-0.04039740562438965
226,-2.316339734056424,-1.0287116376412004,-1.6096105594619188,-0.379058301448822,0.8566350340843201,0.3499870002269745,-0.23094767332077026,-1.4167029857635498,0.5365131497383118,-0.5723881721496582,-0.048560261726379395,-0.6648674607276917
227,-2.3699601895001203,-1.0513201664868266,-1.6138707736446338,-0.3461605906486511,0.8680793642997742,0.3558245003223419,0.8636576533317566,-0.00875571183860302,-0.22783711552619934,-0.6219027042388916,0.04728013277053833,-0.858891487121582
228,-1.7369966375589616,-1.007141435255679,-1.187270424724217,-0.5269169807434082,0.8453080058097839,0.08838911354541779,0.8680585026741028,4.8994340896606445,-2.091351270675659,-0.523833692073822,0.34213078022003174,0.7838795185089111
229,-1.408704216637101,-0.8204667413517965,-0.8756967375689999,-0.6729417443275452,0.731464147567749,-0.11004399508237839,1.2376261949539185,1.2953531742095947,-1.499035120010376,0.39150863885879517,0.304943323135376,0.7340216636657715
230,-1.2494124791720165,-0.647894982080623,-0.8218502782710843,-0.7565307021141052,0.6035093069076538,-0.25186869502067566,-0.40709277987480164,2.9862449169158936,-1.1438922882080078,0.4855194091796875,-0.4834684133529663,0.591956615447998
231,-1.0223590509569052,-0.7242769847401483,-0.961602733141624,-0.639133632183075,0.6625940799713135,-0.3904832601547241,-2.4584736824035645,1.2532694339752197,0.9985377192497253,0.5167429447174072,-0.37261611223220825,0.240870863199234
232,-1.2681998576778655,-0.771559972256196,-1.1283995404055063,-0.6842557191848755,0.6972543001174927,-0.21361331641674042,0.08278711885213852,0.008831591345369816,-0.8712124228477478,0.05892002582550049,0.14886081218719482,-0.5812628269195557
233,-1.340420246812022,-0.8184325657700677,-1.1328863015400816,-0.6653123497962952,0.7300755977630615,-0.1560424268245697,-0.8213004469871521,-2.2406022548675537,1.0416326522827148,1.2276597023010254,-0.297931432723999,0.6618560552597046
234,-1.5619150099604706,-0.9589884462566334,-1.1031413040504299,-0.5743258595466614,0.8186110258102417,-0.005100904032588005,-0.3015533685684204,-3.4534430503845215,1.3828874826431274,-0.3946835994720459,0.28615593910217285,-0.14738017320632935
235,-1.972802492717842,-1.0245349793743947,-1.4786337451909481,-0.4780808985233307,0.8544726967811584,0.2032608687877655,-1.2728148698806763,0.08727520704269409,0.6707696318626404,0.009239345788955688,-0.16956675052642822,-0.3352189064025879
236,-2.1572225360009143,-1.0507925862432252,-1.5336880048782222,-0.41386574506759644,0.8678173422813416,0.27496910095214844,-0.5666829943656921,-1.1937958002090454,0.6148613095283508,-0.2155745029449463,-0.11737489700317383,0.17870518565177917
237,-2.336835259916002,-1.0756127930419548,-1.6414428950456714,-0.34245356917381287,0.8798815011978149,0.3294444978237152,0.002547154203057289,-0.42107513546943665,-0.033326856791973114,-1.0345604419708252,-0.030577540397644043,-0.16530582308769226
238,-2.0180609653841697,-1.05135669207801,-1.391914504028201,-0.4475650489330292,0.8680974841117859,0.21469064056873322,2.3339719772338867,3.59797739982605,-2.2059788703918457,-0.6736660003662109,-0.01191169023513794,-0.4374690353870392
239,-1.5408079773717045,-0.8937834703140379,-1.000821356403596,-0.6261860132217407,0.7794475555419922,-0.018783915787935257,2.643353223800659,-1.1274926662445068,-1.3846616744995117,0.41640812158584595,1.1269551515579224,-0.5914608240127563
240,-1.2867262213266182,-0.7308219436147863,-0.750491158292926,-0.7147833704948425,0.6674818992614746,-0.20869256556034088,1.0364902019500732,1.254024624824524,-1.6185848712921143,0.2049109935760498,-0.4839187264442444,0.5753459930419922
241,-1.0392065069773522,-0.6977119864899534,-0.8204869403499395,-0.6605644822120667,0.6424660086631775,-0.38844799995422363,-1.4070334434509277,2.7998740673065186,0.41791269183158875,1.0849419832229614,-0.31145721673965454,0.8470814228057861
242,-1.2213504407193259,-0.769244926478572,-1.0035705453275703,-0.6750158071517944,0.6955929398536682,-0.24597620964050293,-1.5025203227996826,-0.26410502195358276,0.08606939762830734,-1.4362971782684326,0.10529512166976929,-0.25396278500556946
243,-1.2198898129267128,-0.7723476953171449,-1.0072182032199153,-0.6726257801055908,0.6978187561035156,-0.24621878564357758,-0.006482025142759085,-0.37207648158073425,0.332602322101593,0.4349243640899658,0.9994163513183594,0.8416014909744263
244,-1.4414568879272271,-0.9018322964207153,-1.0140299661428334,-0.6149935722351074,0.7844645380973816,-0.07998945564031601,0.4518590569496155,-1.5357248783111572,1.7635363340377808,0.21846342086791992,0.5012104511260986,0.6167936325073242
245,-1.8219106242605008,-1.039773829758592,-1.2409498204526228,-0.4905322194099426,0.8622897267341614,0.1258358359336853,-2.08441424369812,0.062026165425777435,1.225393533706665,-0.18767517805099487,-0.3874819874763489,-0.24245882034301758
246,-2.068651868803931,-1.0591707898447216,-1.5601834863394934,-0.43016278743743896,0.8719497919082642,0.23380261659622192,-0.10188152641057968,-1.237386703491211,0.19491362571716309,-0.2792030870914459,-0.40457314252853394,-0.23735785484313965
247,-2.3482019895277286,-1.0623868890884764,-1.6877299623099602,-0.3469514846801758,0.8735198974609375,0.3414493203163147,0.055957380682229996,-0.26160556077957153,0.6640698909759521,-0.8278226852416992,0.028350770473480225,-0.5483279228210449
248,-2.1809947505743574,-1.0775681464445876,-1.536998958023261,-0.38802626729011536,0.8808090090751648,0.27131348848342896,1.7946720123291016,2.041281223297119,-1.665203332901001,-0.8650864362716675,-0.057338058948516846,-0.6555449962615967
249,-1.5244145311926232,-0.9513400607023318,-1.1334004740039128,-0.5799681544303894,0.8141942620277405,-0.026919269934296608,2.092536211013794,1.221943736076355,-1.546402096748352,-0.2309296727180481,1.1340937614440918,0.22648900747299194
250,-1.3094915767425328,-0.7869262255343473,-0.8405333052364441,-0.682058572769165,0.7081864476203918,-0.18239548802375793,1.507631778717041,0.33660200238227844,-1.2797696590423584,0.20767807960510254,-0.17870652675628662,0.46549177169799805
251,-1.0973256803961735,-0.6637160762902952,-0.8257033705052831,-0.7010534405708313,0.616048276424408,-0.3591775894165039,-0.6471337080001831,3.338019847869873,-0.2815187871456146,0.8234289884567261,-0.21834325790405273,0.7231607437133789
252,-1.133277176572484,-0.7761662856771874,-1.0200136805567461,-0.6463868021965027,0.7005488276481628,-0.30234959721565247,-1.4781304597854614,-5.767807960510254,-0.097017802298069,-0.20386338233947754,-0.004625976085662842,-1.6591218709945679
253,-1.2968786253538533,-0.804162866936588,-1.154051851332388,-0.6678515672683716,0.7202501893043518,-0.1876532882452011,-0.9276909828186035,-0.11581844091415405,0.48357391357421875,0.09746283292770386,0.9107617735862732,0.4239966571331024
254,-1.3206074766073108,-0.8447764552780331,-1.0817924320773735,-0.6432284116744995,0.7478227019309998,-0.16437257826328278,0.6787790656089783,-2.1090400218963623,1.50607168674469,0.8020113706588745,-0.14813709259033203,0.32318609952926636
255,-1.3358584371227094,-1.0125788251766326,-1.0217391572370544,-0.5151243805885315,0.8482006192207336,-0.12329915165901184,-2.474652051925659,1.6450632810592651,0.955963134765625,-0.4359864592552185,0.17810553312301636,0.844902515411377
256,-2.103087589127746,-1.0480579715001737,-1.6377368848258202,-0.4301808178424835,0.8664553165435791,0.2533760666847229,1.020914077758789,-0.1896069496870041,0.2591862380504608,-0.045832276344299316,-0.07710301876068115,-0.9156685471534729
257,-2.1371034053402136,-1.0711415116618301,-1.51625706691172,-0.404325932264328,0.8777480125427246,0.25705859065055847,-0.8117929100990295,-1.5670843124389648,0.49083611369132996,-0.04737997055053711,-0.12126296758651733,-0.06376028060913086
258,-2.258871910963735,-1.076692182904701,-1.6219201937216992,-0.3663385510444641,0.880393922328949,0.30116909742355347,0.751446008682251,0.7798812985420227,-0.535788893699646,-0.8782141208648682,-0.09859448671340942,-0.39391204714775085
259,-1.6069622250491007,-0.9949504918415318,-1.2176800571222721,-0.5441884398460388,0.8387320041656494,0.0196896493434906,2.4225409030914307,5.274826526641846,-1.434230089187622,-0.3066874146461487,0.5076272487640381,0.650750994682312
260,-1.3597446005520368,-0.8095093538786025,-0.8626805599838159,-0.6745467185974121,0.7239487767219543,-0.14451636373996735,2.6531763076782227,0.8091281652450562,-1.4304888248443604,0.5227980613708496,0.24324482679367065,0.6676028966903687
261,-1.2081709384262709,-0.6706063486931326,-0.848553205919077,-0.7324966788291931,0.6214611530303955,-0.27791154384613037,-0.1530131995677948,2.1319921016693115,-0.7865663170814514,0.6354202628135681,-0.7349101901054382,0.5524171590805054
262,-1.0689193184535053,-0.7621490791869947,-1.0626507248467854,-0.6341507434844971,0.6904776096343994,-0.34798526763916016,-3.5264804363250732,-2.378021240234375,0.027321012690663338,0.1725875735282898,-0.36583149433135986,-0.25369933247566223
263,-1.2394972058223697,-0.7451386466420866,-1.1978162321553862,-0.6950252652168274,0.6780737042427063,-0.2390727549791336,-0.5464632511138916,-0.230965718626976,-0.7120525240898132,0.7261379957199097,-0.3337591886520386,0.1607036292552948
264,-1.3669782013141645,-0.8280301299893236,-1.1950185999076561,-0.6623286604881287,0.7366005182266235,-0.13689547777175903,-0.24826540052890778,-1.6323988437652588,0.8595647811889648,1.1219844818115234,-0.07903826236724854,0.3068937063217163
265,-1.3289220924275142,-0.9623686649911442,-1.1139131343121358,-0.5549399256706238,0.8205477595329285,-0.1369059532880783,-1.339098572731018,1.323266863822937,1.3329375982284546,-0.154380202293396,0.3266996741294861,0.7491800785064697
266,-2.0923141781317205,-0.9872757135371544,-1.759269860616321,-0.47772228717803955,0.8345280885696411,0.2744891941547394,-0.1264880895614624,-2.8446288108825684,0.4812268614768982,0.31869518756866455,-0.07227528095245361,-1.759505033493042
267,-2.1220029714546063,-1.0479264779278505,-1.5932556675625587,-0.42540881037712097,0.8663896322250366,0.2615271508693695,0.00360281765460968,-1.054151177406311,0.5895815491676331,-0.19225171208381653,-0.2930558919906616,0.050621986389160156
268,-2.324390686058908,-1.047678793184164,-1.7307475809418866,-0.36431312561035156,0.8662659525871277,0.3418469727039337,0.6227385401725769,-0.045174796134233475,-0.46542248129844666,-0.8255367279052734,0.010778725147247314,-0.5330548286437988
269,-1.6836436925268585,-0.9735260101393377,-1.3138973380585688,-0.5588101744651794,0.8268738389015198,0.0633293092250824,1.6059162616729736,5.610575199127197,-2.1109344959259033,-0.3144350051879883,0.3784940838813782,0.7519782781600952
270,-1.4097210948991037,-0.8168417146364131,-1.028589336365037,-0.6756660342216492,0.7289875149726868,-0.10978417098522186,3.3160204887390137,0.8748026490211487,-1.3437752723693848,0.589026689529419,0.591157078742981,0.12522608041763306
271,-1.237224986946052,-0.6720841035949134,-0.884690885113888,-0.7393923401832581,0.6226181983947754,-0.25621432065963745,0.2681601047515869,1.6653412580490112,-1.148226261138916,0.4571199417114258,-0.5960984230041504,0.824497401714325
272,-1.0000688873220904,-0.7232552166185281,-1.0016183954910396,-0.630841076374054,0.6618284583091736,-0.4049970209598541,-2.9315619468688965,2.334402322769165,0.580772876739502,0.6311920285224915,-0.38364553451538086,0.6811658143997192
273,-1.229586090826468,-0.7746969984237753,-1.1957465667409946,-0.6734347343444824,0.6994995474815369,-0.23913608491420746,-0.1112002581357956,0.4572080373764038,-0.5690048933029175,0.11810636520385742,0.05922842025756836,-0.31303369998931885
274,-1.2618792658307196,-0.7765473554791396,-1.1497109612682965,-0.6795704960823059,0.7008206844329834,-0.21687395870685577,-0.2199927419424057,-2.929715871810913,0.8615982532501221,1.3504230976104736,-0.2168424129486084,0.33421409130096436
275,-1.2549045545084054,-0.9055612081468349,-1.0087012906227177,-0.5867027044296265,0.7867716550827026,-0.19175566732883453,-1.6830788850784302,0.9774906635284424,1.7116299867630005,-0.13316112756729126,0.3485737442970276,0.8188461065292358
276,-1.8907649667523787,-1.0205274144024994,-1.6072656276559127,-0.49637579917907715,0.8523839116096497,0.1644764095544815,-0.04077907279133797,0.9538298845291138,0.2864389717578888,-0.1338731348514557,-0.16760015487670898,-0.7718830108642578
277,-2.0191295901059503,-1.0266742387448007,-1.6080505061746502,-0.46650660037994385,0.855582058429718,0.2243901640176773,-0.46674397587776184,-1.7455596923828125,0.3203558623790741,-0.05471837520599365,-0.10881698131561279,-0.016916394233703613
278,-2.2467006165253203,-1.0417678076034642,-1.7948774077380085,-0.393733412027359,0.8632977604866028,0.31573861837387085,0.24874141812324524,-0.6746609210968018,0.0023895627819001675,-0.9349103569984436,0.027693331241607666,-0.5920447111129761
279,-1.975231880023043,-1.0197760164465268,-1.5904281225827517,-0.4813186228275299,0.8519907593727112,0.2060195356607437,2.0149552822113037,2.97149395942688,-1.9841262102127075,-0.7194259762763977,-0.003724217414855957,-0.411601185798645
280,-1.458327930483075,-0.8797543373883887,-1.2188150626741188,-0.6333136558532715,0.7705823183059692,-0.07152961939573288,1.5634340047836304,-2.716708183288574,-1.2522711753845215,0.33312755823135376,0.8914659023284912,0.12044931203126907
281,-1.2915134301503248,-0.7214849652066303,-0.9647662060190575,-0.7217337489128113,0.6605003476142883,-0.20697742700576782,0.6753252148628235,0.9495054483413696,-1.6305192708969116,0.03493565320968628,-0.2985619306564331,0.548438549041748
282,-1.1100276486886247,-0.6452345149863199,-1.0204331943161153,-0.715636134147644,0.6013858318328857,-0.3552464246749878,-1.3072530031204224,3.050140142440796,0.08710560202598572,0.948576807975769,-0.24948763847351074,0.7693089246749878
283,-1.172522813994623,-0.7492310516667496,-1.224142047055658,-0.6749041080474854,0.681075930595398,-0.2839723825454712,-1.4143943786621094,-0.3178280293941498,-0.2259557694196701,-1.9052503108978271,0.8745576739311218,0.1526399552822113
284,-1.1869706519405405,-0.7331353687310838,-1.2775323329569148,-0.6890125274658203,0.6692027449607849,-0.2782615125179291,1.2533315420150757,-0.14075636863708496,0.5093175768852234,0.9893054962158203,0.7554798722267151,-1.051481008529663
285,-1.2832492273341585,-0.8370137435554071,-1.112242662698404,-0.6421878933906555,0.7426465749740601,-0.18992282450199127,0.7959743738174438,-1.6707212924957275,1.6380165815353394,0.2620304226875305,0.32807785272598267,0.6771817207336426
286,-1.684450724450543,-1.0149799184155945,-1.486651887629287,-0.5242325663566589,0.8494699597358704,0.059839215129613876,-4.570821762084961,-4.487504482269287,1.255567193031311,-0.3211500644683838,-0.3955516219139099,-0.5578403472900391
287,-1.9475763629788911,-1.0170746009442109,-1.649662059398754,-0.4889697730541229,0.8505733013153076,0.19347745180130005,-0.8911879062652588,-1.6060900688171387,-0.06849118322134018,-0.16508296132087708,-0.1821315884590149,-0.12694907188415527
288,-2.2313150352621607,-1.0166582340985815,-1.8231035725287723,-0.4155351221561432,0.8503543138504028,0.32284435629844666,-1.0063658952713013,-0.5163230299949646,0.7706485986709595,-0.7921522855758667,0.05533117055892944,-0.425276517868042
289,-2.2211287195299283,-1.020307295965763,-1.8225311956699555,-0.416329562664032,0.8522688150405884,0.31671398878097534,0.5647473335266113,1.3414748907089233,-0.839834451675415,-0.7302006483078003,0.04281187057495117,-0.5046260356903076
290,-1.5549454119445487,-0.9274739994724547,-1.3834685026546019,-0.5997818112373352,0.8001072406768799,-0.00950788613408804,2.693528890609741,2.570342779159546,-1.2666975259780884,-0.16694188117980957,0.7858761548995972,0.3179643154144287
291,-1.3551862957812058,-0.7559745296914622,-1.0507597630923453,-0.7107566595077515,0.6859980821609497,-0.15566594898700714,1.7222034931182861,0.5293245911598206,-1.0243165493011475,0.3245871663093567,0.17926687002182007,0.6262317895889282
292,-1.181805242592704,-0.6226629665076574,-0.9932909822731021,-0.7516409754753113,0.5832004547119141,-0.3080796003341675,-0.18798688054084778,2.7553060054779053,-0.9573588371276855,0.45435404777526855,-0.28101539611816406,0.6736191511154175
293,-1.0364939526741044,-0.690000553791032,-1.1657612511599238,-0.6637526750564575,0.6365376114845276,-0.3927497863769531,-1.987785816192627,-2.2432665824890137,0.10736691206693649,0.02433311939239502,-0.4760151505470276,-1.3395195007324219
294,-1.223762873366853,-0.7367234233173514,-1.3100812785959461,-0.6965192556381226,0.6718646287918091,-0.25191032886505127,-1.0689728260040283,0.1684710830450058,0.0983939990401268,0.8724530935287476,-0.09077948331832886,1.1685668230056763
295,-1.3791731489784123,-0.8309251112309849,-1.262434566026389,-0.6618525981903076,0.738555371761322,-0.1284017711877823,0.0958128422498703,-2.7133684158325195,1.2180441617965698,0.6729763150215149,-0.1474909782409668,0.3566427230834961
296,-1.487599862124643,-0.9603133502415502,-1.4116423495566106,-0.5712803602218628,0.819371223449707,-0.04763846844434738,-4.664524078369141,-1.4736378192901611,0.5764970183372498,-0.2251521348953247,-0.04082208871841431,0.1259465217590332
297,-1.979942306975329,-0.9843515365758723,-1.7404079335345395,-0.5077259540557861,0.8329133987426758,0.22015821933746338,0.6868676543235779,-1.4600573778152466,0.135536327958107,-0.16547656059265137,-0.2568788528442383,-0.12160170078277588
298,-2.1591015973250287,-0.9911739794187576,-1.7638324511569596,-0.45562872290611267,0.8366695642471313,0.3039517104625702,-1.3814066648483276,-1.419249176979065,0.4390554130077362,-0.1795336902141571,-0.0937952995300293,-0.1278958022594452
299,-2.2810108109847134,-1.008709501011125,-1.792398084421701,-0.40409669280052185,0.8461447954177856,0.34748342633247375,0.8884519338607788,-0.14215734601020813,0.04859454184770584,-0.6387499570846558,0.07635581493377686,-0.5375622510910034
300,-1.7588835686303061,-0.9646103190634524,-1.4342567517414904,-0.5596890449523926,0.8218269348144531,0.10652957111597061,1.809065341949463,3.7978899478912354,-1.6639559268951416,-0.14877647161483765,0.3927420377731323,0.3698498010635376
301,-1.4151247367954507,-0.8083925550085955,-1.0558678150749647,-0.6823102831840515,0.7231779098510742,-0.10708272457122803,2.9586408138275146,0.5447276830673218,-1.584783673286438,0.29392820596694946,0.49969202280044556,0.4106868505477905
302,-1.22214142826182,-0.6349013156065617,-0.8884860444234572,-0.7566878795623779,0.5930980443954468,-0.2750597596168518,0.5054874420166016,2.6899991035461426,-0.934175431728363,0.5364121198654175,-0.46178102493286133,0.5706530809402466
303,-0.9473364637872792,-0.6362445924294085,-0.9595828891577058,-0.653008222579956,0.5941790342330933,-0.46960774064064026,-1.139772653579712,1.0772165060043335,-0.39288702607154846,0.12021714448928833,-0.518922746181488,-0.054821550846099854
304,-1.073851889728368,-0.6675307991546324,-1.1070157189197265,-0.6903590559959412,0.6190486550331116,-0.3744104206562042,-1.4814181327819824,-0.4594361186027527,-0.37187933921813965,-0.7333927750587463,-0.30665552616119385,0.45337462425231934
305,-1.2374291420869201,-0.7767186396227821,-1.1327185329084513,-0.6739519834518433,0.700942873954773,-0.23338381946086884,0.6640118360519409,-2.7884325981140137,1.9612736701965332,0.6988542675971985,0.07420367002487183,0.7589422464370728
306,-1.5190820261115734,-0.972506910555619,-1.162675328192045,-0.5624769330024719,0.8263002634048462,-0.02911406010389328,-2.808417797088623,-1.4465631246566772,2.164855480194092,-0.4624101519584656,-0.019247710704803467,0.14839202165603638
307,-1.8844134419020326,-1.0611701930708126,-1.6294032922181103,-0.46405571699142456,0.8729269504547119,0.1505027413368225,-1.662410020828247,0.48855626583099365,0.48156997561454773,-0.13996350765228271,-0.27768146991729736,-0.22466038167476654
308,-2.071230248210195,-1.0235099143453994,-1.7054118352526333,-0.4565609395503998,0.8539397120475769,0.24967767298221588,0.018481632694602013,-2.683258295059204,-0.49109378457069397,0.06303679943084717,0.2973358631134033,-0.06085015833377838
309,-2.2870980645382715,-1.0283207842828799,-1.911601576790232,-0.3893817365169525,0.8564332723617554,0.33897465467453003,1.0644372701644897,-0.9687516689300537,0.022904036566615105,-0.9640270471572876,-0.060641705989837646,-0.9940803050994873
310,-2.0190652697723466,-1.0230740232371895,-1.7079699785517395,-0.46929413080215454,0.8537128567695618,0.22569380700588226,1.6354917287826538,3.6091132164001465,-2.161670684814453,-0.8770804405212402,0.018662750720977783,-0.19940289855003357
311,-1.5164375022641812,-0.897172955517867,-1.3519837963736072,-0.6229006052017212,0.7815664410591125,-0.033893536776304245,1.9940671920776367,-0.5894186496734619,-1.357230544090271,0.4460054039955139,1.3359873294830322,-0.23461538553237915
312,-1.3078519784154885,-0.7035168240685451,-0.9896202164508519,-0.7363614439964294,0.6469035148620605,-0.19821137189865112,1.1156599521636963,1.1292273998260498,-2.080925464630127,0.18217748403549194,-0.5211557745933533,0.8040767908096313
313,-1.0462535895145897,-0.6201778347231087,-1.039963390610815,-0.7043655514717102,0.5811799168586731,-0.4075526297092438,-1.070622444152832,4.239297389984131,-0.19394142925739288,0.7030838131904602,-0.3546020984649658,0.6864680647850037
314,-1.077096588882185,-0.6186479535746154,-1.2147356165614127,-0.7173807621002197,0.5799342393875122,-0.38605839014053345,-2.366222381591797,0.23661455512046814,-0.10275345295667648,-0.6621357798576355,0.021643459796905518,-0.13129082322120667
315,-1.1197352082001937,-0.6719481869861296,-1.3310420290567537,-0.7043376564979553,0.6225118637084961,-0.34115612506866455,1.3600647449493408,1.6959246397018433,0.5971964001655579,0.7852550148963928,0.9408731460571289,-0.5386046171188354
316,-1.2397618152184944,-0.8236460257624865,-1.1963874701350472,-0.6426557302474976,0.7336283326148987,-0.22086866199970245,1.0390675067901611,-2.600986957550049,2.0688624382019043,0.12605416774749756,0.599913477897644,0.5573402643203735
317,-1.519553219458436,-1.021502867247594,-1.3596303744543088,-0.5213994383811951,0.852893590927124,-0.02674154005944729,-4.328479290008545,-2.5117385387420654,1.1265121698379517,-0.5477228164672852,-0.370868444442749,-0.33339637517929077
318,-1.9457695685955236,-1.0290263340396555,-1.690853494834902,-0.479824423789978,0.8567973375320435,0.1888568103313446,-0.301519513130188,-0.965693473815918,-0.5439001321792603,-0.14947855472564697,-0.49266159534454346,-0.03643679618835449
319,-2.164424612659853,-1.0012962782100325,-1.7319496978792566,-0.4469609260559082,0.8421706557273865,0.30161967873573303,-1.3026173114776611,1.2170308828353882,1.3690885305404663,0.21611076593399048,0.00656890869140625,0.18431171774864197
320,-2.26833929766314,-1.0292922976971843,-1.8310550808180939,-0.39503368735313416,0.8569344282150269,0.3310765027999878,0.30407342314720154,0.3171175718307495,-0.19202499091625214,-1.0280314683914185,0.006438314914703369,-0.2643498480319977
321,-1.7544251725332383,-0.9539431424828182,-1.4891098391509787,-0.5687455534934998,0.8157028555870056,0.10562801361083984,1.6256552934646606,4.08598518371582,-1.5247480869293213,-0.15111827850341797,0.5461287498474121,0.44663333892822266
322,-1.4470019830297012,-0.8296355337219458,-1.2051213606280984,-0.669978141784668,0.7376853823661804,-0.083365797996521,3.2180488109588623,-0.2991710603237152,-1.6991814374923706,0.4273023009300232,0.40589988231658936,0.299094557762146
323,-1.2999217570768158,-0.6336260916919518,-1.0488569374156727,-0.7765011787414551,0.5920708775520325,-0.2156343162059784,0.5344406366348267,1.9249026775360107,-1.3911643028259277,0.3769040107727051,-0.6435081958770752,0.24992084503173828
324,-1.0494476849529206,-0.6163491138361876,-1.1339517984525056,-0.7075880169868469,0.5780599117279053,-0.4064059853553772,-1.2858010530471802,1.1008135080337524,-0.32185956835746765,0.264030396938324,-0.37693387269973755,0.08598670363426208
325,-1.1955766565204395,-0.6338544097233589,-1.327129781529344,-0.7496923208236694,0.5922548174858093,-0.2952890396118164,-1.340802788734436,1.56669282913208,-0.13377141952514648,0.17777764797210693,-0.2933046817779541,0.0749673843383789
326,-1.2554386393090509,-0.6986411462853521,-1.2977626246993654,-0.7279559373855591,0.6431778073310852,-0.23749209940433502,0.6597151756286621,-1.916688084602356,1.6252118349075317,1.0405170917510986,-0.3859146237373352,1.0774426460266113
327,-1.3874760320048687,-0.8963581568473169,-1.2160434078985674,-0.6139950156211853,0.7810578942298889,-0.11383581161499023,-1.4266254901885986,-1.1157152652740479,2.4835243225097656,-0.2811312675476074,0.5463498830795288,0.5480399131774902
328,-1.9065349974267618,-1.0473584421685949,-1.7002758103351887,-0.4719519019126892,0.866105854511261,0.1646873950958252,-0.7388201355934143,1.100411295890808,0.7818587422370911,-0.2758660316467285,-0.34231746196746826,-0.4640953540802002
329,-2.0229364105955208,-1.0073961438295809,-1.7739832199570078,-0.4803982079029083,0.8454440832138062,0.23332810401916504,0.04316380247473717,-3.5939834117889404,-0.7243846654891968,-0.05588716268539429,0.017348885536193848,-0.25409531593322754
330,-2.2779391442869263,-0.9967954594754805,-1.983202472972204,-0.4127971827983856,0.8397352695465088,0.3527652323246002,-0.2588501274585724,-0.13653413951396942,0.2005295604467392,-1.074660062789917,0.10695058107376099,-0.9536257982254028
331,-2.113092902419622,-1.010062547392992,-1.8118417493330083,-0.4555071294307709,0.8468651175498962,0.27446842193603516,1.2277625799179077,2.7829630374908447,-1.8475371599197388,-0.9596998691558838,-0.05928260087966919,-0.19814392924308777
332,-1.5355907613979243,-0.8954169261027254,-1.4732072832250933,-0.6248059868812561,0.7804698348045349,-0.02200574055314064,0.9749433994293213,-1.440711259841919,-0.9802563786506653,0.15507948398590088,1.0489521026611328,-0.06272625923156738
333,-1.3588232504146942,-0.7230325617262572,-1.147191503958417,-0.7330204248428345,0.6616615056991577,-0.15775041282176971,1.933380365371704,-0.2483939677476883,-1.9717748165130615,0.17219889163970947,-0.19924396276474,0.35226941108703613
334,-1.1353356736403386,-0.5955992097067745,-1.1236496976744326,-0.7505576610565186,0.5610048770904541,-0.34919461607933044,-0.38069239258766174,3.400024890899658,-0.49295011162757874,0.814324140548706,-0.1104128360748291,0.6383029222488403
335,-1.0729938759920363,-0.6107913443995081,-1.2443529614105582,-0.7197721004486084,0.5735158920288086,-0.3911619484424591,-1.3926396369934082,-1.8261425495147705,-0.29115039110183716,-0.9151308536529541,0.050324440002441406,-0.3874788284301758
336,-1.1088088537855976,-0.6301682468858939,-1.3322438462090596,-0.7232319116592407,0.5892807245254517,-0.3601163625717163,1.0723344087600708,3.6431944370269775,0.41230127215385437,-0.0618022084236145,1.3940107822418213,-0.1147218644618988
337,-1.3076164158536736,-0.7798825662274328,-1.2699654257019082,-0.6865148544311523,0.7031959295272827,-0.1849672645330429,1.0196645259857178,-3.422140598297119,2.454352378845215,0.16666316986083984,0.9393669366836548,0.5523531436920166
338,-1.6323921125305267,-1.0041095729088862,-1.445910642386742,-0.5358213782310486,0.8436842560768127,0.03304614499211311,-3.382714033126831,-3.1926534175872803,1.2783268690109253,-0.7065491080284119,-0.2449447512626648,-0.3997453451156616
339,-1.9562418362038878,-1.0435845078351735,-1.725488633826072,-0.46621182560920715,0.864213228225708,0.18916115164756775,-1.4991884231567383,0.7471970915794373,0.3740122318267822,-0.13878390192985535,-0.3776562809944153,0.09301958978176117
340,-2.1807261916166345,-1.0072457270582544,-1.783818270964819,-0.4378702640533447,0.8453637361526489,0.305990070104599,-1.4342114925384521,-1.567819356918335,0.47449472546577454,0.03191018104553223,0.025241732597351074,0.09101307392120361
341,-2.2536508338402577,-1.0109639401794293,-1.9015785648038874,-0.4119705557823181,0.847344160079956,0.335094153881073,0.4618537425994873,0.46577727794647217,-0.5147842764854431,-0.8642439842224121,0.40444105863571167,-0.3772846758365631
342,-1.7136706901025276,-0.9438036439797911,-1.4134197724697857,-0.5807338953018188,0.809795618057251,0.08354120701551437,1.5548402070999146,3.592562675476074,-1.8096342086791992,-0.06904631853103638,0.5839269161224365,0.7527471780776978
343,-1.3758773535492872,-0.804985228505491,-1.154363121761014,-0.6799965500831604,0.720820426940918,-0.134248748421669,2.9880588054656982,-0.775538980960846,-1.702233076095581,0.3814278244972229,0.30904102325439453,0.2284259796142578
344,-1.1583162006305987,-0.6066909647969033,-1.032006783896549,-0.752636194229126,0.5701521039009094,-0.3293408155441284,-0.3363659381866455,4.75333309173584,-1.0159393548965454,0.4768946170806885,-0.2717664837837219,0.6767834424972534
345,-0.9237742010169231,-0.5754527558641259,-1.1083003615520066,-0.669380247592926,0.54421466588974,-0.5057275891304016,-0.5891414284706116,0.16407126188278198,-0.8118265271186829,-0.062171876430511475,-0.48772668838500977,-0.4496403932571411
346,-1.0047594225215455,-0.6364304696693523,-1.2341043731555446,-0.6787900924682617,0.5943285226821899,-0.4312973916530609,0.00022993108723312616,0.5522527694702148,1.6314283609390259,0.9149962067604065,0.9006054997444153,-0.18543225526809692
347,-1.2194861353149826,-0.7639522052777206,-1.2080449352240241,-0.6780032515525818,0.6917807459831238,-0.24849766492843628,-0.6550307273864746,-6.219645023345947,1.3879570960998535,0.199792742729187,0.4061654210090637,0.1406179964542389
348,-1.5798938326708236,-0.9316082204058513,-1.2112167913969143,-0.5965193510055542,0.8025803565979004,0.0054269880056381226,-1.692431092262268,0.6351943016052246,2.2266857624053955,-0.2381058931350708,-0.02961587905883789,0.3212026357650757
349,-1.8559526789395526,-1.0474085525711183,-1.6347152774470286,-0.4796333611011505,0.8661308884620667,0.14060230553150177,-1.7917369604110718,0.7389617562294006,0.8815487027168274,-0.0819510817527771,-0.21677792072296143,-0.20388056337833405
350,-2.11556420497851,-1.0332244099227994,-1.8264935926473937,-0.4379313886165619,0.8589544892311096,0.2653554677963257,-0.0634036436676979,-4.170466423034668,-0.7169486880302429,-0.1795002818107605,-0.15991884469985962,-0.3322805166244507
351,-2.325474954587413,-1.0197159853082858,-1.9904321816517576,-0.3814442455768585,0.8519593477249146,0.3587001860141754,0.5879467129707336,-0.3693547546863556,0.3106926381587982,-0.6011608242988586,0.2634429931640625,-0.9815182685852051
352,-1.9918467322053919,-1.0312913068610754,-1.7314480573152093,-0.46884381771087646,0.8579630851745605,0.20996375381946564,1.8162556886672974,2.7876086235046387,-1.8811146020889282,-0.5750709772109985,-0.006965160369873047,-0.13766765594482422
353,-1.5099754135523826,-0.9134033332274203,-1.3356992874909788,-0.6099253296852112,0.7915879487991333,-0.03714202716946602,1.6189566850662231,-0.9683153033256531,-1.2501919269561768,0.44712936878204346,0.7835767865180969,-0.21517729759216309
354,-1.3484408720749772,-0.7240979265603453,-1.0425584306222861,-0.7306550145149231,0.6624599695205688,-0.16519668698310852,1.361636757850647,0.026938261464238167,-2.1135988235473633,0.15016496181488037,-0.4704281687736511,0.30894970893859863
355,-1.0870711572241485,-0.6243765756423448,-1.0744729489909064,-0.718242883682251,0.5845915675163269,-0.3773324191570282,-0.5618406534194946,3.4167184829711914,-0.18198511004447937,0.9673579335212708,-0.3359801769256592,0.7006967067718506
356,-1.0240583822073135,-0.6235585909969696,-1.1735571927207096,-0.6934647560119629,0.5839277505874634,-0.42206060886383057,-1.4630913734436035,-0.8460804224014282,-0.26416707038879395,-0.9416060447692871,0.03808152675628662,-0.22605645656585693
357,-1.0918980572246026,-0.6721368876095666,-1.2637091126061561,-0.694464921951294,0.6226595044136047,-0.36057403683662415,1.6014374494552612,2.1799063682556152,0.15544766187667847,-1.2384116649627686,2.4608519077301025,-2.3216464519500732
358,-1.311762608163388,-0.7698342848429187,-1.1861096853050561,-0.694071352481842,0.696016252040863,-0.1839199960231781,0.5391225814819336,-3.4111506938934326,2.4494106769561768,0.45989465713500977,0.6077557802200317,0.5889034867286682
359,-1.642346054653258,-1.0188636070330346,-1.3293735764352705,-0.5229923129081726,0.8515127301216125,0.03748394548892975,-2.2544538974761963,-2.6132993698120117,1.9255846738815308,-0.5888240337371826,-0.2578543424606323,-0.39394450187683105
360,-1.9451449147843007,-1.0783319810293728,-1.7467706986851919,-0.4400559663772583,0.881170392036438,0.17288674414157867,-1.8073065280914307,0.844699501991272,0.5187801122665405,-0.272270143032074,-0.30122947692871094,-0.1691025346517563
361,-2.1650106883218236,-1.044718506449997,-1.8263024687427227,-0.41607198119163513,0.8647832274436951,0.2811301350593567,-1.5769261121749878,0.28015008568763733,1.436547040939331,0.20667561888694763,0.10529428720474243,-0.036913275718688965
362,-2.1889807359600755,-1.0931205821267513,-1.803362248873815,-0.3746374845504761,0.8880658149719238,0.2664315402507782,1.135788917541504,0.5564014315605164,-0.5686587691307068,-1.0916558504104614,-0.053944170475006104,-0.2546060383319855
363,-1.6474385634020507,-0.9727606330892405,-1.3894034498868293,-0.5613674521446228,0.8264431357383728,0.043108899146318436,1.6483721733093262,2.547710657119751,-1.6757251024246216,0.0542568564414978,0.9141116738319397,0.4513673782348633
364,-1.3770423685443474,-0.8159818088034975,-1.1297765145335597,-0.672333300113678,0.7283986210823059,-0.13192220032215118,1.430813193321228,-0.033083830028772354,-1.3136980533599854,0.24670463800430298,0.3138682246208191,0.5077614188194275
365,-1.2491144015878728,-0.6227266820636116,-1.073414220219799,-0.7706247568130493,0.5832521915435791,-0.25681614875793457,-0.26584652066230774,3.0947585105895996,-1.171668291091919,0.5991158485412598,-0.2980501055717468,0.4473678767681122
366,-1.0262749854538562,-0.5850807190001461,-1.1765484840153682,-0.7130986452102661,0.5522666573524475,-0.4318470358848572,-0.7253358960151672,2.2933738231658936,-1.131026268005371,0.1444646120071411,-0.21829754114151,0.24271434545516968
367,-1.1376206373321816,-0.5971277503347198,-1.3630655494987598,-0.7505743503570557,0.5622695684432983,-0.3471183180809021,-0.9864097833633423,-0.2745325267314911,-0.24455155432224274,-0.43616271018981934,-0.27757108211517334,0.010051727294921875
368,-1.260155228898291,-0.6793980935508843,-1.3217055145555263,-0.7407166361808777,0.6283248662948608,-0.2377956062555313,0.9339107275009155,-4.215786933898926,1.7480660676956177,0.8225037455558777,0.045899927616119385,1.0526913404464722
369,-1.5926952049247636,-0.8755110337832316,-1.2165185899417625,-0.6404507756233215,0.7678709626197815,0.014027396216988564,-0.9967955946922302,0.41118311882019043,2.5239217281341553,-0.2763124704360962,0.33695679903030396,0.9250137805938721
370,-1.9298050472769432,-1.0103490789001581,-1.5330154652901309,-0.49767547845840454,0.8470174670219421,0.1867634505033493,-1.852889895439148,1.1531195640563965,1.0838027000427246,-0.07904571294784546,-0.38676661252975464,-0.19929099082946777
371,-2.0461417314360837,-0.9971603203575427,-1.6872874363773689,-0.4825242757797241,0.8399333357810974,0.2483595609664917,0.5989652872085571,-3.7593510150909424,-0.7567033171653748,-0.09143507480621338,-0.28362834453582764,-0.22251129150390625
372,-2.314722953889142,-0.9830434832005769,-1.8330611229438563,-0.40800368785858154,0.8321887850761414,0.37549227476119995,0.026028206571936607,-0.4797575771808624,0.294082909822464,-0.7840433716773987,0.23533117771148682,-1.0779764652252197
373,-2.1487971124894663,-1.0341231952285364,-1.6299941284975332,-0.42822539806365967,0.8594143986701965,0.2793377935886383,1.5024833679199219,2.1884727478027344,-1.813405156135559,-0.9185457229614258,-0.09734487533569336,-0.3536328673362732
374,-1.5739577899168076,-0.9249583910419646,-1.20041127951303,-0.6018649935722351,0.7985957264900208,0.0019027803791686893,1.2799006700515747,-1.729291558265686,-1.3489058017730713,0.12031280994415283,0.9754217267036438,-0.13158726692199707
375,-1.3774331600789582,-0.7518237565996612,-0.8884905929987081,-0.7168316841125488,0.6829720735549927,-0.14036257565021515,1.4191527366638184,0.24319185316562653,-1.8928887844085693,0.18606990575790405,-0.2818794846534729,0.24561773240566254
376,-1.0969914033380859,-0.6152803477762832,-0.8562387746991345,-0.7266526818275452,0.5771874785423279,-0.3725998103618622,0.02443055436015129,2.869938850402832,-0.655908465385437,0.7710710167884827,-0.09449094533920288,0.5454818606376648
377,-1.0450801293718124,-0.5812677467767919,-0.9680033182644672,-0.7229092121124268,0.549083948135376,-0.41941529512405396,-1.603745460510254,-0.10914035886526108,-0.3475336730480194,-0.9198672771453857,-0.3314782977104187,-0.4571716785430908
378,-1.0802638378861156,-0.6587565050643724,-1.0889448324406872,-0.6975100636482239,0.6121340394020081,-0.3725208044052124,1.1349271535873413,1.7655810117721558,1.6446739435195923,0.9298250675201416,1.7580595016479492,-1.2555004358291626
379,-1.2419031100566136,-0.8076064880022389,-0.9977157545266123,-0.6541803479194641,0.7226347923278809,-0.22326436638832092,-0.08435001969337463,-2.8186240196228027,2.252516746520996,0.3786371946334839,0.41734933853149414,0.4654823839664459
380,-1.6348284500056427,-1.0119617001998955,-1.1380313563674176,-0.5291117429733276,0.8478735685348511,0.033926527947187424,-0.9886611700057983,-2.296508312225342,1.642914891242981,-0.3712177872657776,-0.19440078735351562,-0.20187997817993164
381,-1.8535941274130046,-1.0866920019322444,-1.5338355768765919,-0.44692906737327576,0.8850921392440796,0.12987129390239716,-1.5593409538269043,0.9036696553230286,0.32718899846076965,-0.22261139750480652,-0.32469773292541504,-0.14570997655391693
382,-2.1047713437769136,-1.0350499675064377,-1.6148795576832908,-0.4394189715385437,0.8598878383636475,0.25981488823890686,-2.135502576828003,-3.4493565559387207,-0.015322958119213581,0.1138879656791687,0.25420206785202026,0.17411446571350098
383,-2.239034882116608,-1.0488598139835832,-1.7826241925671047,-0.39132681488990784,0.8668553233146667,0.30890992283821106,0.7253324389457703,0.2711368501186371,0.2598273456096649,-0.748825192451477,0.2322353720664978,-0.20615717768669128
384,-1.8090088460016636,-1.0160051963403194,-1.4307619477403422,-0.5118908286094666,0.8500104546546936,0.12429886311292648,1.9447646141052246,1.6776469945907593,-1.6974749565124512,-0.4670673608779907,0.37122684717178345,-0.2203986495733261
385,-1.496136279822641,-0.8848379272422932,-1.1894072837290648,-0.6316501498222351,0.7738123536109924,-0.04724684730172157,2.4004950523376465,0.3659370541572571,-2.1396336555480957,-0.023058593273162842,0.4441593289375305,-0.12371265143156052
386,-1.3168947020866961,-0.6566086892446954,-1.0335069759847124,-0.76667320728302,0.6104342341423035,-0.1989533007144928,0.15871886909008026,3.5010242462158203,-1.7440645694732666,0.31849205493927,-0.34667080640792847,0.4855896234512329
387,-0.9683038031149863,-0.5781301222890639,-1.0893968664270874,-0.6900261640548706,0.546458899974823,-0.47460150718688965,-0.1765909641981125,2.237577438354492,-0.3980334997177124,0.5206841230392456,-0.2794910669326782,0.40624213218688965
388,-1.0265211426125282,-0.6082821128458606,-1.246030174449255,-0.7020520567893982,0.5714585781097412,-0.4249211549758911,-1.33700692653656,0.19112765789031982,0.03808645159006119,-0.2697497010231018,-0.607621967792511,0.2581121027469635
389,-1.2364113199515192,-0.6990218250667682,-1.219866103107583,-0.7230743169784546,0.6434692144393921,-0.2512189745903015,0.9351181983947754,-4.092581272125244,1.4925246238708496,1.2118438482284546,-0.5972503423690796,0.6331006288528442
390,-1.479166385859633,-0.9126965525489877,-1.1472603440352842,-0.6090487837791443,0.7911558747291565,-0.05596381425857544,-1.4480993747711182,-0.9490921497344971,2.613189935684204,-0.28630638122558594,0.41259467601776123,0.6313117146492004
391,-1.9206509354814423,-1.0767502950925552,-1.5035773388042446,-0.4454665780067444,0.8804214596748352,0.16253460943698883,-1.277918815612793,1.7356408834457397,0.7964029908180237,-0.2675613760948181,-0.3103989362716675,-0.12937724590301514
392,-2.089341599387734,-1.0350412927893102,-1.7496920012985049,-0.44338181614875793,0.8598834276199341,0.25300776958465576,0.32521119713783264,-3.77530574798584,-0.9730055928230286,-0.05693855881690979,-0.24513739347457886,-0.37095823884010315
393,-2.363851950960362,-1.0270802745304402,-1.906286020934108,-0.3629886209964752,0.855792224407196,0.368590772151947,-0.4213474690914154,-0.521486759185791,0.49249744415283203,-0.8909329175949097,-0.008563101291656494,-0.4319758117198944
394,-2.327334142954052,-1.0487195909501208,-1.855833137941081,-0.3626496195793152,0.8667854070663452,0.3422989249229431,1.5175336599349976,1.196313738822937,-1.2473511695861816,-0.8504241108894348,0.30483025312423706,-0.7896865606307983
395,-1.716701904384514,-1.004978767717226,-1.3591704868467827,-0.5304099321365356,0.8441506028175354,0.07794365286827087,0.9166584014892578,1.6127036809921265,-1.4061980247497559,0.10191261768341064,0.5118522644042969,0.29578983783721924
396,-1.4102772938016248,-0.8396488104853134,-0.9789242072353159,-0.6591404676437378,0.7444086670875549,-0.10672278702259064,2.0452489852905273,-0.049969449639320374,-2.0909841060638428,0.3398655652999878,-0.03057199716567993,0.40980809926986694
397,-1.074951362632044,-0.6233328619544011,-0.9134147188058408,-0.7141532897949219,0.583744466304779,-0.3862995207309723,0.12381147593259811,4.179629325866699,-1.3994241952896118,0.39674001932144165,0.09020566940307617,0.6875385642051697
398,-0.968462041240647,-0.5922401321889548,-1.0524706049151236,-0.6836791038513184,0.5582210421562195,-0.47007665038108826,-1.9319651126861572,-2.6217098236083984,-1.22273850440979,-0.8982605338096619,-0.5043118000030518,-1.0594033002853394
399,-1.0985954470795745,-0.7228084810875633,-1.2262190069421632,-0.6678833961486816,0.6614934802055359,-0.34111326932907104,1.0709292888641357,-0.7452316284179688,1.0215919017791748,0.5890717506408691,2.818593740463257,-2.057354688644409
400,-1.3497586613069876,-0.8215041453796089,-1.1439675242557357,-0.6645493507385254,0.7321711778640747,-0.14933037757873535,0.16487471759319305,-3.4590554237365723,2.2439522743225098,0.5398088097572327,0.4084233045578003,0.5112841129302979
401,-1.575338394418029,-1.0345561664987213,-1.3004639706267607,-0.5109022259712219,0.8596357107162476,0.0023205685429275036,-2.7651195526123047,1.4393457174301147,1.998244047164917,-0.5271683931350708,0.23075735569000244,0.4877612590789795
402,-2.0117678503741225,-1.09907413919498,-1.6562609487005802,-0.4109499156475067,0.8907870054244995,0.1939551681280136,-1.49824857711792,0.8660510778427124,-0.06832676380872726,-0.2852780818939209,-0.3477420210838318,-0.20320190489292145
403,-2.227312864498553,-1.0254836838962762,-1.7258593010105032,-0.4108629822731018,0.8549651503562927,0.31658563017845154,-1.9342594146728516,-1.480169653892517,0.4010670781135559,0.41704273223876953,0.02827465534210205,0.33095160126686096
404,-2.3705734878157094,-1.0448704807273363,-1.8902113854309048,-0.3498366177082062,0.8648595213890076,0.3600447177886963,0.14587706327438354,-0.3591732382774353,0.2939460575580597,-0.6110550165176392,0.20330142974853516,-0.3567488491535187
405,-2.0115904395112616,-1.0380613270511296,-1.6191558404411575,-0.45934349298477173,0.8614212274551392,0.21669575572013855,1.1300883293151855,3.138843536376953,-1.6038267612457275,-0.45197242498397827,0.34222257137298584,0.06466102600097656
406,-1.5412698243076408,-0.9501552170760879,-1.281415636358508,-0.5813032388687134,0.8135057687759399,-0.017168842256069183,2.990332841873169,0.14295507967472076,-1.2448538541793823,0.21263569593429565,0.8111279010772705,-0.5109988451004028
407,-1.3087443582416343,-0.7275066872845024,-0.9429334784854166,-0.7213383316993713,0.665009617805481,-0.1934773027896881,1.565022349357605,1.0790444612503052,-1.7291206121444702,0.48147010803222656,-0.45295822620391846,0.359203040599823
408,-0.9448363846803547,-0.6347663121843099,-0.9404012750540421,-0.652543306350708,0.5929893851280212,-0.47175297141075134,-0.1177375465631485,3.6433117389678955,-0.6456722617149353,0.510453462600708,-0.39937055110931396,0.7359589338302612
409,-0.918088990260251,-0.6118528722901907,-1.0811389045224848,-0.6503187417984009,0.5743851661682129,-0.49715903401374817,-2.3443970680236816,0.4458777904510498,-0.022134114056825638,-0.09221965074539185,-0.24564987421035767,-0.14807406067848206
410,-1.0202521321861213,-0.7182732914567858,-1.1287411205654874,-0.6416882872581482,0.6580855250358582,-0.39390307664871216,-0.3491896688938141,-2.853147268295288,1.2158491611480713,0.9947614669799805,-0.15572041273117065,0.3707554340362549
411,-1.3763057438683088,-0.8658933384676929,-1.0875183913273596,-0.6357434988021851,0.7616744041442871,-0.1252291202545166,-0.16673544049263,-4.181722164154053,1.473886489868164,0.0014356374740600586,0.6030411720275879,0.3692018985748291
412,-1.7029983231951362,-1.0563661566472726,-1.2860354264357254,-0.4877450168132782,0.8705732226371765,0.06485915929079056,-2.2136292457580566,1.2520443201065063,1.5698570013046265,-0.18350431323051453,-0.17361295223236084,0.00015853345394134521
413,-1.993511155534916,-1.1142186606710824,-1.7372320634034735,-0.4020722508430481,0.897566556930542,0.18086525797843933,-0.5981148481369019,0.4240371584892273,0.37444841861724854,-0.2581908106803894,-0.2878100872039795,-0.15532207489013672
414,-2.261897600137144,-1.0715928752819204,-1.7430436144626846,-0.3688799738883972,0.877964198589325,0.30513352155685425,-1.6656650304794312,-0.5665844082832336,0.5289917588233948,-0.14547857642173767,0.03753262758255005,-0.13740897178649902
415,-2.301294216521995,-1.0989873648408126,-1.777120852814857,-0.3385295569896698,0.8907475471496582,0.3032597005367279,1.0776511430740356,0.5738200545310974,-0.6545441150665283,-1.1642932891845703,0.06590217351913452,-0.2518986761569977
416,-1.758477026852361,-1.0031098263483416,-1.358371760643602,-0.528240978717804,0.8431471586227417,0.10032131522893906,1.6714268922805786,2.381425142288208,-1.632635474205017,0.10709840059280396,0.7726365327835083,0.47690343856811523
417,-1.422278261379146,-0.8522283422031462,-1.020330692830774,-0.6510602831840515,0.7527492046356201,-0.09741149097681046,2.5023868083953857,-0.5324994921684265,-1.7836116552352905,0.1875593662261963,0.1491672396659851,0.04603511840105057
418,-1.1797361322743918,-0.6534625842516788,-0.8857363729273103,-0.7340420484542847,0.6079393029212952,-0.30264168977737427,0.07080279290676117,4.447575569152832,-1.1623557806015015,0.48384374380111694,-0.20452749729156494,0.7039631605148315
419,-0.9724145388974941,-0.6130755380552156,-0.995100520899039,-0.6757737994194031,0.5753856301307678,-0.4607181251049042,-1.4059247970581055,-1.200661540031433,-0.8959113955497742,-0.003242313861846924,-0.6837077140808105,-0.3240261673927307
420,-1.1019231772585096,-0.6951430363453377,-1.1242742288728125,-0.6850821375846863,0.6404953002929688,-0.3470277488231659,1.8372488021850586,2.1583473682403564,1.2113200426101685,0.2830588221549988,2.7845535278320312,-2.3548460006713867
421,-1.3190812791663622,-0.8434624042306957,-1.1785657129682312,-0.6439279913902283,0.7469496726989746,-0.16559870541095734,-1.2755802869796753,-2.875704050064087,2.062520980834961,0.514869213104248,0.5221543312072754,0.7148845791816711
422,-1.7398595104186503,-1.0300188800710601,-1.295357073084331,-0.507462739944458,0.8573086857795715,0.08662011474370956,-0.6867732405662537,-1.1810036897659302,1.918545126914978,-0.2884356379508972,-0.03333425521850586,-0.01452232152223587
423,-2.053072227465957,-1.080791067247624,-1.767399668609524,-0.416951447725296,0.8823303580284119,0.2182770073413849,-2.1951451301574707,0.8927080631256104,0.8166993856430054,-0.029856503009796143,-0.20192557573318481,-0.36212167143821716
424,-2.2114056920193095,-1.0459567900169828,-1.7260800529966498,-0.4017268121242523,0.8654043674468994,0.29948389530181885,-0.9665297865867615,-4.944905757904053,-0.46642518043518066,-0.029562801122665405,-0.10789716243743896,0.14971956610679626
425,-2.374127078397748,-1.06155266077148,-1.8652973864366857,-0.33848950266838074,0.8731134533882141,0.35085251927375793,0.38916832208633423,0.0888250321149826,0.3222655653953552,-0.7326469421386719,0.22596168518066406,-0.5473247170448303
426,-1.9729678206340817,-1.0419732233177883,-1.5653225369524963,-0.46426352858543396,0.8634014129638672,0.19747692346572876,1.8813233375549316,2.470393657684326,-1.861016035079956,-0.3999026417732239,0.2731340527534485,-0.11425545811653137
427,-1.5232519229166195,-0.9335877516065711,-1.2109259812817972,-0.5942819118499756,0.8037596344947815,-0.02827608771622181,2.912118911743164,1.2555018663406372,-1.1624441146850586,0.3984352946281433,0.9239320755004883,-0.5808089971542358
428,-1.272694556618157,-0.7190071391877058,-0.8357496447595936,-0.7192733883857727,0.6586378812789917,-0.2210022211074829,1.900429606437683,0.8424986600875854,-1.394106149673462,0.3583114743232727,-0.4671553373336792,0.4460693597793579
429,-0.9028452600222321,-0.6249320667533357,-0.834769519760204,-0.6367122530937195,0.5850421786308289,-0.5023179650306702,-0.15256796777248383,3.1834776401519775,-0.4886179268360138,0.8338557481765747,-0.3290759325027466,0.6563096046447754
430,-0.8859705774603904,-0.6288054861360189,-0.9925626137208113,-0.626385509967804,0.5881791114807129,-0.5115528702735901,-2.1124868392944336,1.403592824935913,-0.02543010376393795,-0.3030272126197815,-0.16737234592437744,-0.32681071758270264
431,-1.0110997236790376,-0.7391424813977691,-1.0206734233061427,-0.6262800693511963,0.6736544370651245,-0.39238134026527405,-0.3718569278717041,-4.884525299072266,1.1862783432006836,0.7549879550933838,-0.14550191164016724,0.40045320987701416
432,-1.437274925515988,-0.8721917937029523,-0.9431476056652427,-0.6374251246452332,0.7657404541969299,-0.08561930805444717,0.05906070023775101,-3.807086944580078,2.1330759525299072,0.18220973014831543,0.3157414197921753,0.24675214290618896
433,-1.7288903017044894,-1.0793384184574755,-1.186478954698024,-0.46602699160575867,0.8816457986831665,0.07429607212543488,-1.9076725244522095,0.8916999697685242,1.3896872997283936,-0.2526162564754486,-0.27800798416137695,-0.12428378313779831
434,-1.9842904756563517,-1.1094247107482578,-1.5982448703188439,-0.4076581299304962,0.8954427242279053,0.17887702584266663,-0.7517915368080139,-0.2736334204673767,0.18045838177204132,-0.2243303656578064,-0.2683981657028198,-0.14662005007266998
435,-2.2430010912581837,-1.0720328916650792,-1.7176728785506419,-0.3742773234844208,0.8781747221946716,0.2978682816028595,-2.370126724243164,2.120955467224121,1.1777602434158325,-0.5916039943695068,0.1471242904663086,-0.37956395745277405
436,-2.1721520542436004,-1.0703233622517567,-1.72839898290983,-0.39566153287887573,0.877355694770813,0.27147483825683594,1.6271462440490723,1.728369951248169,-1.0927075147628784,-0.8336780071258545,0.2125183343887329,-0.4863796830177307
437,-1.5073617718806909,-0.9874876155284785,-1.202370297401674,-0.5496808290481567,0.8346447944641113,-0.03491560369729996,1.5556576251983643,0.788022518157959,-0.9271686673164368,0.17800724506378174,0.6551470756530762,0.5356175303459167
438,-1.3289825006475253,-0.8126500316455333,-0.9528227129971193,-0.6675719022750854,0.7261118292808533,-0.16464993357658386,1.7769564390182495,-0.571944534778595,-1.8077753782272339,0.3334501385688782,0.033470749855041504,0.40503692626953125
439,-1.1054287406621703,-0.6575719045322426,-0.8869683132214905,-0.7073100805282593,0.6111968755722046,-0.35517704486846924,0.01873612031340599,3.698636054992676,-0.6491404175758362,0.6327404379844666,-0.31571048498153687,0.6877118349075317
440,-0.9444803325459229,-0.6198013417673506,-0.9562016277010507,-0.6594916582107544,0.5808734893798828,-0.4771338999271393,-0.5398039221763611,-1.536570429801941,-0.9967988133430481,-0.6725701093673706,-0.3812427520751953,-1.257943034172058
441,-1.0254435427914728,-0.6899315118310202,-1.114673504660521,-0.6594097018241882,0.6364843845367432,-0.40008315443992615,0.5262179970741272,2.608137607574463,1.9437285661697388,1.4672558307647705,0.9617974758148193,-0.8185600638389587
442,-1.2337926530813188,-0.807912511818583,-1.043535645625598,-0.6521393060684204,0.722846269607544,-0.22848951816558838,-0.21117109060287476,-4.116020679473877,1.7578017711639404,0.4182526469230652,0.21926182508468628,0.4582258462905884
443,-1.5949063627545979,-1.0146783572010072,-1.1407794919375804,-0.5277397036552429,0.8493108153343201,0.012726289220154285,-1.434258222579956,-2.1047866344451904,1.9121659994125366,-0.4399269223213196,-0.05681508779525757,-0.0003361701965332031
444,-1.8418935575102597,-1.1011741603170948,-1.4789382375101086,-0.4360213279724121,0.8917393684387207,0.12118767201900482,-2.133535861968994,1.8299429416656494,0.7285779714584351,-0.197630375623703,-0.4436954855918884,-0.054827213287353516
445,-2.0573685842528,-1.0563598089727353,-1.6287691791989727,-0.43493807315826416,0.8705701231956482,0.2300792932510376,0.14239974319934845,-3.3420193195343018,-0.6960545182228088,-0.04524073004722595,-0.04604625701904297,-0.11861385405063629
446,-2.3144714723666517,-1.0393856935936503,-1.8781713638261315,-0.3729603588581085,0.8620930910110474,0.3430681526660919,-0.4036657214164734,-0.6465007066726685,0.29860439896583557,-0.9235788583755493,-0.012132883071899414,-0.9811297655105591
447,-2.1080871970947475,-1.0734128357449335,-1.6851342138594714,-0.40989950299263,0.8788339495658875,0.24419887363910675,2.179776430130005,2.4738943576812744,-1.4448100328445435,-1.0438053607940674,-0.11565041542053223,-0.34504425525665283
448,-1.517055233622926,-0.9537429999740785,-1.2479799863314132,-0.5777990818023682,0.815587043762207,-0.031081480905413628,0.9653609991073608,-1.565859317779541,-1.2249752283096313,0.30768799781799316,0.9181928634643555,0.12622004747390747
449,-1.3747451356645621,-0.7864302553962502,-0.9998040811706326,-0.6928447484970093,0.7078362107276917,-0.13760051131248474,1.0967508554458618,0.32630014419555664,-1.5727622509002686,0.32568782567977905,-0.24615108966827393,0.35911238193511963
450,-1.1410482073243358,-0.6593913473772235,-0.9657598841837016,-0.7184978723526001,0.6126359105110168,-0.3292992115020752,0.13129271566867828,2.7727127075195312,-0.445614755153656,0.8347241282463074,-0.13880479335784912,0.5746300220489502
451,-1.1233293281136376,-0.6584101012731148,-1.0627815254007351,-0.7130921483039856,0.6118600964546204,-0.34223777055740356,-1.7612935304641724,-1.978983998298645,-0.5331695079803467,-1.2129331827163696,-0.30793553590774536,-0.5899979472160339
452,-1.2013294399457684,-0.7304913126192694,-1.2469050255474,-0.6945843696594238,0.6672356724739075,-0.2689777910709381,2.0526177883148193,2.107815980911255,0.8202205896377563,0.04886293411254883,1.7957923412322998,-2.1270029544830322
453,-1.2966586878609938,-0.8395131139762405,-1.1720530583454656,-0.642888069152832,0.7443180680274963,-0.18079158663749695,0.35147547721862793,-1.292128562927246,2.332390308380127,0.6430864334106445,0.08939164876937866,0.6537072658538818
454,-1.5237254371206541,-1.0439131012577534,-1.35092609854242,-0.5022847652435303,0.8643785119056702,-0.02366046980023384,-3.133176803588867,-3.664820909500122,1.1957341432571411,-0.4422495365142822,-0.11134201288223267,-0.44809550046920776
455,-1.9204924775698466,-1.0886200850563466,-1.696457576294162,-0.43564316630363464,0.8859878778457642,0.15887217223644257,-1.7813117504119873,0.9082122445106506,0.4935053586959839,-0.15545177459716797,-0.24839943647384644,0.05642925202846527
456,-2.103131104423338,-1.050756155507056,-1.7912237493367897,-0.4281541705131531,0.8677992224693298,0.2522074580192566,-0.8479398488998413,-3.240200996398926,-0.11664700508117676,0.06565111875534058,0.08087021112442017,-0.032007813453674316
457,-2.3256413970117875,-1.04528427670484,-2.0198282629889253,-0.36539506912231445,0.865067183971405,0.3437225818634033,0.507409393787384,0.1441776603460312,0.06382079422473907,-0.6531596183776855,0.06520015001296997,-0.5450623035430908
458,-1.9625093375237113,-1.0565407633464825,-1.7840079552055301,-0.4546295404434204,0.8706591129302979,0.187788724899292,1.7299442291259766,4.396480560302734,-1.5954020023345947,-0.7107299566268921,-0.07402831315994263,0.05151486396789551
459,-1.524584367442706,-0.9120788450496886,-1.4920322876821324,-0.6114495992660522,0.7907779216766357,-0.028276415541768074,2.751117706298828,-1.4405484199523926,-1.830704927444458,0.354796826839447,0.6991817355155945,-0.6048107743263245
460,-1.291455103953751,-0.7030451601517113,-1.2554879141744009,-0.7333058714866638,0.6465437412261963,-0.21034233272075653,1.107858419418335,1.0230756998062134,-1.8147777318954468,0.32618606090545654,-0.3889448642730713,0.3629149794578552
461,-1.0636380359832172,-0.647824329532743,-1.2910085849992992,-0.697028636932373,0.6034529805183411,-0.38729268312454224,-0.6892687082290649,2.086353302001953,0.3534480631351471,1.0187602043151855,-0.13503867387771606,0.6518343091011047
462,-1.2228214243794198,-0.6877039975406207,-1.433936546041165,-0.7263936400413513,0.6347647309303284,-0.2634885609149933,-2.166067361831665,-2.328613042831421,-0.10477752983570099,-1.070893406867981,-0.14117330312728882,-0.5666048526763916
463,-1.2180717131943977,-0.740700936533313,-1.507222997913179,-0.6925609707832336,0.6748053431510925,-0.2549450099468231,0.222020223736763,0.536077082157135,0.11662739515304565,0.8795116543769836,1.4238426685333252,-0.8658435344696045
464,-1.538551759361251,-0.856311247563414,-1.480720577065678,-0.6548879146575928,0.7554307579994202,-0.021123899146914482,1.0471107959747314,-3.6369004249572754,1.6731613874435425,0.3046376705169678,0.30508559942245483,0.5531673431396484
465,-1.7774377315439391,-1.0075371357599552,-1.632071156034086,-0.5225854516029358,0.8455193638801575,0.1095515564084053,-2.431774616241455,0.561409056186676,1.1918224096298218,-0.3590063452720642,-0.31068354845046997,-0.11226761341094971
466,-2.035245800591268,-1.0225515773131135,-1.9623875610846,-0.4659794867038727,0.8534406423568726,0.23345699906349182,-0.9754146337509155,0.29114940762519836,0.5696802735328674,-0.04731088876724243,-0.14650094509124756,-0.13081121444702148
467,-2.25118178741058,-1.0234032060311684,-2.082550041291717,-0.40457165241241455,0.853884220123291,0.3274194598197937,0.16684596240520477,-0.9471536874771118,0.5621607899665833,-0.03707873821258545,0.08581304550170898,-0.6276208162307739
468,-2.3173021338642696,-1.0453373371482308,-2.1050242674797954,-0.3682152330875397,0.8650938272476196,0.3406325578689575,1.1629433631896973,0.2168687880039215,-0.16500043869018555,-0.6041969060897827,0.033175885677337646,-0.6173808574676514
469,-1.7562060919604576,-0.9924353637223126,-1.732919125957755,-0.5372830629348755,0.8373597860336304,0.10077495127916336,1.194148063659668,4.174492359161377,-1.50653874874115,-0.192712664604187,0.5955778360366821,0.48522353172302246
470,-1.417020956752346,-0.8399277622498093,-1.388889109609585,-0.6596397757530212,0.744594931602478,-0.10224353522062302,2.3493456840515137,0.21907879412174225,-1.5467599630355835,0.4126763343811035,0.400333046913147,0.5469762086868286
471,-1.2563453743314081,-0.6628198352167617,-1.2826054285193034,-0.7496088743209839,0.6153420805931091,-0.2438044399023056,0.014498572796583176,2.5855414867401123,-1.2939109802246094,0.4689081907272339,-0.42260831594467163,0.5714106559753418
472,-1.0604565781600717,-0.6728000452643753,-1.385418999367269,-0.6824261546134949,0.6231783032417297,-0.38202548027038574,-1.3737010955810547,1.5354615449905396,-0.101964071393013,0.4265362620353699,-0.30611586570739746,0.514471709728241
473,-1.3349436466309808,-0.7121450621701425,-1.598018864603351,-0.7360057234764099,0.6534590125083923,-0.17688091099262238,-1.611570119857788,0.7223712205886841,0.2284986972808838,-0.5015735626220703,-0.48938125371932983,0.16539104282855988
474,-1.3527394302345224,-0.7278150445841105,-1.654635144902042,-0.728949248790741,0.6652398705482483,-0.1615206003189087,-1.2088521718978882,-2.611588478088379,0.4810710549354553,1.7652499675750732,-0.16618597507476807,0.4452577829360962
475,-1.609962443183761,-0.8816260458718264,-1.546408169984373,-0.6354093551635742,0.7717738747596741,0.024899249896407127,0.5547090172767639,-3.3353705406188965,1.8102166652679443,0.017657339572906494,0.33187901973724365,0.15915226936340332
476,-1.9266928397196585,-1.0040221433918337,-1.884677374765151,-0.5032673478126526,0.8436373472213745,0.18707714974880219,-2.1789145469665527,0.624953031539917,1.0536428689956665,-0.15432536602020264,-0.3536471724510193,-0.4619795083999634
477,-2.116227892709103,-1.0094947729627013,-2.093471336862569,-0.455055296421051,0.8465630412101746,0.276144415140152,-0.20760750770568848,-2.1254055500030518,0.031749166548252106,-0.20302575826644897,-0.18158501386642456,-0.05194699764251709
478,-2.322464024096817,-1.0157524995741143,-2.1957444935453143,-0.38498643040657043,0.8498773574829102,0.3598531186580658,-0.12604258954524994,-0.4090956151485443,0.18564969301223755,-0.847374439239502,0.051886677742004395,-0.7034962177276611
479,-2.1552398282190444,-1.0245115673081229,-2.0702533914151715,-0.4332864582538605,0.8544605374336243,0.2866353988647461,1.361068844795227,3.417660713195801,-1.7028809785842896,-0.8752157092094421,-0.09046828746795654,-0.47074806690216064
480,-1.5085557877964755,-0.8867166520799775,-1.662249421463521,-0.6307362914085388,0.7750009894371033,-0.03930813819169998,1.6150612831115723,-2.446428060531616,-1.4475128650665283,0.14448446035385132,1.106346607208252,0.06761318445205688
481,-1.3215011424163243,-0.7292895795919491,-1.3925046927027607,-0.722597599029541,0.6663400530815125,-0.18396705389022827,1.7686879634857178,0.06192843243479729,-1.6013469696044922,0.17573779821395874,-0.12253206968307495,0.31679481267929077
482,-1.145287711313767,-0.6064356566145541,-1.3723700289256535,-0.748414158821106,0.5699422955513,-0.3391783833503723,-0.538405179977417,2.695701837539673,-0.2594739496707916,0.8260967135429382,-0.19579684734344482,0.66536545753479
483,-1.1080316680790594,-0.6254815449000255,-1.4883017500826343,-0.7254151105880737,0.5854877233505249,-0.3619072735309601,-0.6307587623596191,-1.71697998046875,-0.7169989347457886,-1.1800870895385742,0.11273914575576782,-1.2517554759979248
484,-1.1205292390187491,-0.6406121894264241,-1.5941121784754553,-0.7218223810195923,0.5976863503456116,-0.34891778230667114,-0.8167355060577393,2.7696685791015625,1.0731247663497925,1.2292532920837402,0.3959507346153259,0.9526317119598389
485,-1.405491031439803,-0.7991231627679514,-1.53889558545582,-0.6878295540809631,0.7167448997497559,-0.11474897712469101,1.261879324913025,-4.768843173980713,1.8431814908981323,0.19564199447631836,0.6982178688049316,0.3991422653198242
486,-1.7004012327764726,-0.9983980289479688,-1.684936077001685,-0.5371066331863403,0.8406043648719788,0.07000405341386795,-3.4095699787139893,-1.5850719213485718,1.3278014659881592,-0.6764553189277649,-0.2508522868156433,-0.16212129592895508
487,-1.9391254311167145,-1.012798453214178,-1.9484040640778513,-0.4939762353897095,0.8483169078826904,0.1906462460756302,-0.5291216373443604,0.15659524500370026,0.13652154803276062,-0.028728842735290527,-0.30038905143737793,-0.06036674976348877
488,-2.159559366849599,-0.9997080236466542,-1.9965303641239935,-0.4495348632335663,0.8413131833076477,0.3001839220523834,-0.9205304384231567,-2.5924670696258545,0.4178924262523651,0.12311887741088867,0.012232840061187744,-0.12737813591957092
489,-2.29354042892958,-1.0055354137399577,-2.127656671495775,-0.40172359347343445,0.8444488644599915,0.35429394245147705,0.7419342398643494,-0.49065306782722473,0.06604132056236267,-0.41874146461486816,0.21177971363067627,-0.752121090888977
490,-1.819111279279806,-0.9782808917236125,-1.772179218782909,-0.5413206815719604,0.8295385837554932,0.13725066184997559,1.5699290037155151,3.696258306503296,-2.1496975421905518,-0.4901733994483948,0.34761595726013184,0.24914763867855072
491,-1.4798151183047161,-0.8212663090194993,-1.4769597915846895,-0.6784770488739014,0.7320091724395752,-0.06189954653382301,3.4577455520629883,0.021468916907906532,-1.9254345893859863,0.38962817192077637,0.7018287181854248,-0.3546043634414673
492,-1.306575570158996,-0.6316614411451013,-1.297756012867239,-0.7790400981903076,0.5904864072799683,-0.2107662558555603,0.5966135859489441,1.400537371635437,-1.6080119609832764,0.4046504497528076,-0.5352190732955933,0.2984432578086853
493,-1.0654067719402036,-0.6331048187131404,-1.372233442153144,-0.7054087519645691,0.591650664806366,-0.3903176486492157,-1.4840542078018188,2.7824950218200684,0.7110032439231873,0.9654337763786316,-0.33652377128601074,0.6936318874359131
494,-1.2679631790750074,-0.6937841092101767,-1.5467400842503711,-0.7338463068008423,0.6394510865211487,-0.22928529977798462,-1.6873735189437866,0.7104094624519348,-0.024737652391195297,-0.6787512898445129,-0.46714890003204346,0.05591495335102081
495,-1.3013684168868982,-0.7281201344131005,-1.6269186272898604,-0.7194979786872864,0.6654676198959351,-0.19868384301662445,1.3357009887695312,-1.1906052827835083,0.06812158226966858,-0.8477169275283813,1.8721299171447754,-2.9543769359588623
496,-1.449345197056929,-0.8319119555290898,-1.55088696223004,-0.6685028672218323,0.739220380783081,-0.08159199357032776,0.981498122215271,-0.8523169755935669,1.0145992040634155,0.4356689453125,0.016776323318481445,0.7226442694664001
497,-1.610956917233776,-0.969190314061387,-1.7750780225388147,-0.565511167049408,0.8244277238845825,0.022723479196429253,-3.6088953018188477,-1.5205329656600952,0.7974778413772583,-0.20597326755523682,-0.14455699920654297,0.16293025016784668
