,attitude.roll,attitude.pitch,attitude.yaw,gravity.x,gravity.y,gravity.z,rotationRate.x,rotationRate.y,rotationRate.z,userAcceleration.x,userAcceleration.y,userAcceleration.z
0,-1.5475293071365002,-0.9397479296391598,1.8259961519411185,-0.589832067489624,0.807409405708313,-0.013726110570132732,0.6159660816192627,-0.7548065781593323,-3.7801754474639893,-0.9778864979743958,0.16999244689941406,-0.1490546464920044
1,-0.23347642471787206,0.6559886031843374,2.868113582171376,-0.18334096670150757,-0.6099429726600647,-0.7709447145462036,-0.27686089277267456,0.3273576498031616,-0.09987352788448334,0.04245656728744507,0.0994907021522522,0.3661595582962036
2,-0.2173185120620447,0.6500621704247335,2.8573981231886454,-0.17163708806037903,-0.6052358746528625,-0.7773224115371704,0.5151823163032532,0.2076014280319214,-0.12512999773025513,0.12494519352912903,-0.031269192695617676,-0.033468544483184814
3,-0.16923463523877733,0.639849325774734,2.847277519068102,-0.1351105123758316,-0.597074568271637,-0.7907257080078125,-0.4050582945346832,0.5466039180755615,0.11345090717077255,0.0864654928445816,-0.10852235555648804,-0.14471435546875
4,-0.20657629689998602,0.5840786224614135,2.8508465052188248,-0.17110714316368103,-0.5514310002326965,-0.8164840936660767,-1.119442105293274,0.7017094492912292,-0.059212859719991684,-0.12534061074256897,0.03511935472488403,-0.25199735164642334
5,-0.17880990782654493,0.5698541733774342,2.8117085781855335,-0.14975331723690033,-0.5395092964172363,-0.8285552263259888,0.31995129585266113,-0.9745764136314392,-0.24517643451690674,-0.004879266023635864,0.07796144485473633,-0.01702582836151123
6,-0.2526631368652258,0.5582088374657656,2.866936309088601,-0.21203723549842834,-0.5296677947044373,-0.8212747573852539,-1.052208423614502,0.4353022575378418,1.6808959245681763,0.20550647377967834,0.24544233083724976,0.5382852554321289
7,-0.3975013636451351,0.6017163147621597,2.9189849120694435,-0.3191247880458832,-0.5660581588745117,-0.7600904703140259,2.433457136154175,-2.416421890258789,-0.6110426187515259,-0.10072082281112671,0.3774442672729492,0.002644181251525879
8,-0.5069452213913578,0.5270416793274546,2.882742340444891,-0.41962480545043945,-0.5029786825180054,-0.7555974125862122,-0.8022091388702393,-0.5995045304298401,0.7578485012054443,-0.29488325119018555,0.21193259954452515,-0.20578253269195557
9,-0.6820264355758177,0.36350448077886366,2.8629682766953923,-0.5891770124435425,-0.35555189847946167,-0.7255709767341614,-1.769313097000122,-0.06179983541369438,0.37364983558654785,-0.41877275705337524,0.17130205035209656,-0.5532528162002563
10,-0.8757136174639313,0.28097426812382115,2.840302893497291,-0.7378841638565063,-0.27729183435440063,-0.6153342127799988,-0.28851112723350525,-1.5812972784042358,0.9356481432914734,-0.16311681270599365,0.14663082361221313,-0.3857186436653137
11,-0.8540856581273102,0.1258802032280234,2.9050954779703693,-0.7480047941207886,-0.12554802000522614,-0.6517103910446167,0.2826076149940491,-0.9018911719322205,1.5554440021514893,0.34238046407699585,-0.26590096950531006,0.0096052885055542
12,-0.9293065903895655,-0.012741320695842691,3.113654475327341,-0.8011402487754822,0.012740976177155972,-0.598341166973114,1.4178755283355713,-1.2497762441635132,1.5236419439315796,-0.11663013696670532,-0.703903079032898,-0.30481135845184326
13,-0.9432729989685463,0.09553892629200658,-3.056138599970233,-0.8057925701141357,-0.09539365023374557,-0.5844641327857971,1.5033892393112183,-1.1391189098358154,-0.9880105257034302,-0.36171841621398926,-0.39299440383911133,-0.4989403486251831
14,-0.9281626302829887,0.30109312883246897,-3.0839664298681813,-0.7645070552825928,-0.29656434059143066,-0.5723448395729065,-0.5808285474777222,1.5889534950256348,-0.5547287464141846,-0.06128334999084473,0.060587167739868164,-0.13825702667236328
15,-0.860742545921579,0.3438022195536469,-3.0295168552873775,-0.71394944190979,-0.33706924319267273,-0.613726794719696,2.612332582473755,-0.19478042423725128,-0.0428854338824749,0.25873398780822754,0.33432263135910034,-0.07896119356155396
16,-0.979601945623227,0.46723942151346437,-2.885707998384637,-0.7412826418876648,-0.45042333006858826,-0.4976132810115814,1.7470417022705078,-0.3660002052783966,-0.7096400856971741,0.3272506594657898,0.6110373139381409,0.26801425218582153
17,-1.0785101991611006,0.5352908553250688,-2.8326060077488306,-0.75798499584198,-0.510091245174408,-0.4065287709236145,-1.4680581092834473,0.18663130700588226,1.565636396408081,0.044773995876312256,0.7157950401306152,0.2678111493587494
18,-1.0554966662547522,0.2864380158441989,-2.841829401312378,-0.834692120552063,-0.28253716230392456,-0.47271728515625,-0.16122832894325256,-1.2512922286987305,3.3242685794830322,-0.43213820457458496,0.5426232814788818,-0.09558102488517761
19,-1.2142315532393537,-0.060837391361561674,-2.643005050360153,-0.9353678822517395,0.060799870640039444,-0.3484114110469818,0.26704585552215576,-0.04056606441736221,4.185011863708496,-0.5802114009857178,0.12695951759815216,-0.2705460786819458
20,-1.0878297992821855,-0.3675480498249644,-2.4037260970882306,-0.8264716267585754,0.35932832956314087,-0.43339118361473083,1.5845946073532104,-0.14621767401695251,2.801551342010498,-0.27336668968200684,-0.6843404769897461,-0.18288081884384155
21,-0.9467807484311348,-0.39679815962268883,-2.2425479332380442,-0.7484846711158752,0.38646724820137024,-0.5389004349708557,0.26316216588020325,-0.33665773272514343,-0.5338827967643738,-0.42271894216537476,-0.8399890065193176,0.670629620552063
22,-1.1139746038595904,-0.35048957550037035,-2.3543899840264304,-0.8428977131843567,0.343357652425766,-0.41428127884864807,-0.39329206943511963,-2.5184226036071777,-0.851441502571106,-0.2182900309562683,-0.11104261875152588,0.15364596247673035
23,-1.3803094011970916,-0.24752162908815334,-2.442813823245665,-0.9519860148429871,0.245001882314682,-0.18356652557849884,-0.06480105966329575,-1.5093880891799927,-0.9499651193618774,-0.49050354957580566,0.0658043771982193,-0.29372841119766235
24,-1.5791792237146494,-0.13156492364908046,-2.5056304186386806,-0.9913229942321777,0.13118569552898407,0.008310353383421898,-1.124251365661621,0.7156285643577576,0.34729260206222534,-0.3010048270225525,-0.026724040508270264,-0.05665016174316406
25,-1.5323965591236843,-0.19288282363869372,-2.6406973048809066,-0.9807322025299072,0.19168904423713684,-0.03767840936779976,-0.49483832716941833,0.599269449710846,0.8654166460037231,0.09486794471740723,-0.23981527984142303,0.059513747692108154
26,-1.4116289664648551,-0.3623503815963137,-2.677010279998238,-0.9232467412948608,0.35447296500205994,-0.14820441603660583,-1.853127121925354,1.8563776016235352,0.8011795878410339,0.3370344638824463,-0.16210538148880005,0.13105355203151703
27,-1.4586419792452017,-0.28106390396666847,-2.838614549325054,-0.9547247290611267,0.2773779630661011,-0.10752775520086288,-0.3804716169834137,-1.4594180583953857,-3.480445623397827,-0.4674249291419983,-0.22789371013641357,-0.1118173599243164
28,-1.6109926645370165,-0.12438392868886036,-2.9314028002722328,-0.9914728403091431,0.12406344711780548,0.039875056594610214,-1.4327597618103027,-0.7234091758728027,-0.7011732459068298,-0.3255285620689392,-0.2885989546775818,-0.052341461181640625
29,-1.6091553003757004,0.06405256873009785,-2.919381845535683,-0.9972152709960938,-0.06400877982378006,0.03827092796564102,1.209180235862732,-1.106846570968628,-2.194514513015747,0.5215835571289062,0.42979246377944946,-0.2574634552001953
30,-1.6739455121409694,0.13548784278776527,-2.729718517490644,-0.985569179058075,-0.1350736916065216,0.10202274471521378,1.8532294034957886,-0.40421533584594727,0.46320095658302307,0.5013008713722229,0.2359342724084854,0.12861384451389313
31,-1.664902334324169,0.021957960077415187,-2.52641955027674,-0.9953353404998779,-0.021956196054816246,0.09394451975822449,2.140958070755005,-0.12309301644563675,0.21544669568538666,0.17725062370300293,0.1358325481414795,0.09137344360351562
32,-1.7008624432258923,-0.06966308116633056,-2.3487204563630972,-0.9891483783721924,0.06960675120353699,0.1293851137161255,1.084505319595337,0.17395524680614471,1.4841004610061646,-0.3939845561981201,-0.2131461799144745,0.317560076713562
33,-1.7372703533343035,-0.15457324119015092,-2.3062878483807934,-0.9744174480438232,0.15395843982696533,0.16373051702976227,-0.18901145458221436,-0.07934035360813141,0.31935688853263855,-0.4043058156967163,0.10307587683200836,0.09876646101474762
34,-1.6841129783030977,-0.1772182963894008,-2.3539096888873154,-0.9780248999595642,0.17629212141036987,0.11130332201719284,-0.8193248510360718,0.5352299809455872,-0.29902514815330505,-0.4196496605873108,0.23943358659744263,-0.45557212829589844
35,-1.6437344788031152,-0.15960098239307693,-2.392476208853696,-0.9846658706665039,0.15892426669597626,0.07194734364748001,-0.16368982195854187,0.3886031210422516,0.10146096348762512,0.5315407514572144,-0.07515348494052887,-0.04248260706663132
36,-1.5742111912259216,-0.17326613953144354,-2.416128103771664,-0.9850211143493652,0.17240050435066223,0.0033637266606092453,-0.07847215235233307,0.8224207162857056,0.2670229971408844,0.5012565851211548,-0.03458315134048462,-0.0847541093826294
37,-1.5337373227892888,-0.17796928571645762,-2.431522579043571,-0.9835293889045715,0.17703129351139069,-0.03646531701087952,-0.5682425498962402,0.024341730400919914,-0.5159470438957214,-0.5719819664955139,-0.35215646028518677,0.3314177393913269
38,-1.6270469265081982,-0.12088030668213003,-2.475678385367642,-0.9911327958106995,0.12058613449335098,0.05581068992614746,-0.617283046245575,-2.1993870735168457,-0.637374997138977,-0.6020678877830505,-0.2965352237224579,0.01410507783293724
39,-1.703936352809763,-0.10140222046975235,-2.5444999406151143,-0.9860585927963257,0.10122853517532349,0.13206513226032257,-0.015913473442196846,0.0132877416908741,-0.03329343721270561,-0.17098486423492432,0.5672895312309265,-0.6151889562606812
40,-1.667879323754927,-0.13018376485249564,-2.4777043516034785,-0.9868690371513367,0.12981635332107544,0.09611034393310547,0.6137031316757202,0.473258376121521,0.32360562682151794,0.37831807136535645,-0.16160041093826294,0.07355212420225143
41,-1.6553334618383255,-0.15998537678056285,-2.440105243767266,-0.983704149723053,0.15930376946926117,0.08335819840431213,0.6297176480293274,0.13881182670593262,0.18933115899562836,0.663879930973053,-0.16569720208644867,-0.14073121547698975
42,-1.632982887554069,-0.15953213104819167,-2.3218644417793084,-0.9853934049606323,0.15885630249977112,0.06135734170675278,0.5535705089569092,-0.08926218748092651,-0.24980296194553375,-0.4768869876861572,-0.17960824072360992,0.40049564838409424
43,-1.661376019755465,-0.14979435252061804,-2.3104182317905337,-0.984748363494873,0.14923478662967682,0.08944296091794968,-0.7284005284309387,0.40319353342056274,-0.003728529904037714,-0.623314619064331,0.028133422136306763,0.05739238113164902
44,-1.6273517988859063,-0.09385367412414218,-2.347191412604337,-0.9940071702003479,0.09371595084667206,0.056276559829711914,0.16245126724243164,0.08448939770460129,-0.49688923358917236,-0.2994193434715271,0.18072864413261414,-0.4034445285797119
45,-1.6074531100746878,-0.08691321912223703,-2.309437088776739,-0.995556116104126,0.08680383861064911,0.03651024028658867,0.1637813299894333,0.49020716547966003,0.0872345045208931,0.44929152727127075,-0.1061367467045784,0.05276894196867943
46,-1.545959740686242,-0.09545041688031217,-2.338881031879202,-0.9951412081718445,0.09530554711818695,-0.024720992892980576,-0.3165910840034485,0.5054744482040405,0.14046292006969452,0.43027597665786743,0.04705898463726044,0.03239619359374046
47,-1.53492110832163,-0.1060231300444866,-2.363492483517412,-0.9937450289726257,0.10582461208105087,-0.035666123032569885,-0.5756277441978455,-0.3749566972255707,-0.08990725129842758,-0.49583321809768677,-0.28094974160194397,0.43860501050949097
48,-1.6623148922580775,-0.08779396485288159,-2.428550905830892,-0.9919796586036682,0.08768122643232346,0.09103886783123016,-0.767490804195404,-1.5141661167144775,-0.32688838243484497,-0.46259474754333496,-0.19350095093250275,-0.18843568861484528
49,-1.7179012139492968,-0.05461465953814106,-2.541660189266025,-0.9877246618270874,0.05458751320838928,0.14635635912418365,-0.14923639595508575,0.20630252361297607,0.03451641649007797,-0.2121196985244751,0.8283776044845581,-0.6442049741744995
50,-1.7080199186169098,-0.0807547789129369,-2.4777173041471,-0.9873713254928589,0.08066703379154205,0.13634753227233887,0.6529857516288757,0.06554386019706726,0.18453280627727509,0.46939653158187866,-0.20174551010131836,0.02878306806087494
51,-1.7255568865818731,-0.09389197715795254,-2.4224031220640274,-0.983696460723877,0.09375408291816711,0.15346457064151764,0.8113816976547241,-0.012557987123727798,-0.22527489066123962,0.47107750177383423,-0.14394024014472961,-0.16458822786808014
52,-1.7549444479109468,-0.06923652374729948,-2.3751903580409546,-0.9807370901107788,0.06918121874332428,0.18267038464546204,-0.09938301891088486,0.3660658895969391,-0.20378541946411133,-0.28020328283309937,0.022020533680915833,0.18515798449516296
53,-1.8003940085223948,-0.03858874652783321,-2.356561699965006,-0.9730332493782043,0.038579169660806656,0.22741638123989105,-0.9384198188781738,0.04627344757318497,-0.48335033655166626,-0.4115646481513977,-0.10963934659957886,0.07145753502845764
54,-1.7592432666150513,0.022627926084355654,-2.38189193546635,-0.9820449352264404,-0.0226259957998991,0.18728560209274292,0.5797507166862488,0.22953931987285614,-0.1499188393354416,-0.38337254524230957,0.23930081725120544,-0.6364585161209106
55,-1.7248475753244774,0.003148958929120649,-2.3400148233301565,-0.988152801990509,-0.003148953663185239,0.153441920876503,0.014151377603411674,0.7068279385566711,0.282866895198822,0.468972384929657,-0.07683762907981873,0.0478673130273819
56,-1.6454224841344676,-0.018586762826880123,-2.3664224676678307,-0.9970446228981018,0.0185856930911541,0.0745440423488617,-0.13204312324523926,0.7777657508850098,0.13400152325630188,0.41527271270751953,0.023986339569091797,-0.04634582996368408
57,-1.5999875994810475,-0.02985138715870502,-2.3832972940001103,-0.9991286993026733,0.029846953228116035,0.02917412482202053,-0.19076871871948242,-0.06913725286722183,-0.0977238267660141,-0.46368563175201416,-0.24342423677444458,0.4056098461151123
58,-1.7147188078215034,-0.005577085664983159,-2.4216052970286466,-0.9896456599235535,0.005577056668698788,0.1434239149093628,-0.6891036629676819,-1.934524655342102,-0.22722482681274414,-0.586358368396759,-0.31685635447502136,-0.025381922721862793
59,-1.7775740928973924,0.005286337929210288,-2.5123109660012575,-0.9786837697029114,-0.0052863131277263165,0.20530448853969574,0.2817097306251526,0.12315327674150467,-0.05364782735705376,-0.21708637475967407,0.5546027421951294,-0.7065557241439819
60,-1.7557912817481587,-0.01661314338668889,-2.441697064961662,-0.9828015565872192,0.016612378880381584,0.18391619622707367,0.6177586317062378,0.002574630780145526,0.2530391216278076,0.33192265033721924,-0.19900068640708923,0.11820793151855469
61,-1.752946709280063,-0.05536760986723685,-2.4040986087677427,-0.9819494485855103,0.055339325219392776,0.18086722493171692,0.8118831515312195,0.2869056463241577,0.09419281780719757,0.5192266702651978,-0.016704082489013672,-0.22229480743408203
62,-1.733513725886891,-0.05941108892948172,-2.320845009767097,-0.9850496053695679,0.05937614291906357,0.16171446442604065,0.5045621991157532,0.3459606170654297,0.016905099153518677,-0.37234169244766235,-0.06357231736183167,0.3165264129638672
63,-1.7869667219051077,-0.05179004359817588,-2.2857512883194966,-0.975416362285614,0.05176689475774765,0.2142031192779541,-0.6115246415138245,-0.21553443372249603,-0.1797049194574356,-0.4905717372894287,-0.058023013174533844,0.07493564486503601
64,-1.7467428264886709,-0.008963536161021501,-2.3443341335234873,-0.9845216274261475,0.008963416330516338,0.17503304779529572,-0.0849536657333374,0.3652056157588959,-0.29962000250816345,-0.3323270082473755,0.2340938150882721,-0.6748805046081543
65,-1.7099290192490304,-0.016026807272228754,-2.312765074046609,-0.9902094602584839,0.016026120632886887,0.13866642117500305,0.04275422543287277,0.6780876517295837,0.2748904228210449,0.4747065305709839,-0.10603770613670349,0.08824706077575684
66,-1.6477796644172034,-0.03392325197163976,-2.339232379599331,-0.9964646697044373,0.03391674533486366,0.07686308026313782,-0.37817132472991943,0.7173686027526855,0.12792204320430756,0.4407395124435425,0.06331223249435425,-0.10289453715085983
67,-1.6050063234046297,-0.048972185689954484,-2.368795028852814,-0.9982166886329651,0.0489526130259037,0.03416231647133827,-0.4652159512042999,-0.2758535146713257,-0.05852581933140755,-0.41770732402801514,-0.3227868378162384,0.5899374485015869
68,-1.7035945917225788,-0.03341322104170833,-2.4246963725395823,-0.9906420111656189,0.033407002687454224,0.1323343813419342,-0.6440610289573669,-1.6936713457107544,-0.1223667785525322,-0.5460096001625061,-0.19504335522651672,0.020528197288513184
69,-1.783425611957379,-0.012079562288070075,-2.519486876181039,-0.977408230304718,0.01207926869392395,0.21101532876491547,-0.21975302696228027,-0.06994661688804626,-0.2220768928527832,-0.30085116624832153,0.5454006195068359,-0.7378097772598267
70,-1.7575448504281803,-0.0260540577474097,-2.4612316164581736,-0.9822796583175659,0.02605110965669155,0.18560193479061127,0.859196126461029,0.10919805616140366,0.18632487952709198,0.3085736036300659,-0.0916638970375061,0.07408738136291504
71,-1.764228420712835,-0.05900623937050082,-2.39200949926485,-0.9796423316001892,0.05897200480103493,0.1918935477733612,1.1032119989395142,0.2450323849916458,-0.08466501533985138,0.586637020111084,-0.057308826595544815,-0.3391103744506836
72,-1.738020640289503,-0.04919533322740318,-2.2812550853611344,-0.9848575592041016,0.04917549341917038,0.16624464094638824,0.1964084655046463,0.18041293323040009,-0.14355140924453735,-0.31793779134750366,-0.1346246898174286,0.535415530204773
73,-1.7608397821933803,-0.04228148949478989,-2.2687983222063024,-0.9811182618141174,0.042268890887498856,0.18873271346092224,-0.49379777908325195,-0.27002039551734924,-0.03361842408776283,-0.47197604179382324,-0.14232078194618225,0.11117872595787048
74,-1.7469620440345281,-0.005358784149829588,-2.3493975736245143,-0.9845088720321655,0.005358758382499218,0.17525343596935272,-0.4434899687767029,0.11260935664176941,-0.26876935362815857,-0.303516149520874,0.296048104763031,-0.2719484567642212
75,-1.7246515289849116,-0.015587679203309626,-2.3674807513456377,-0.9880677461624146,0.015587047673761845,0.15323033928871155,-0.21338419616222382,0.5327737331390381,0.41384464502334595,0.3493193984031677,-0.07747668027877808,-0.008332833647727966
76,-1.6607363806483673,-0.04106904555293098,-2.4199339806422824,-0.9951183199882507,0.04105750098824501,0.08974311500787735,-0.5815115571022034,0.708444356918335,0.22282512485980988,0.5070964694023132,-0.011318117380142212,-0.14240121841430664
77,-1.6073949195952764,-0.06488488082379533,-2.4555757635320767,-0.9972274303436279,0.06483936309814453,0.036513425409793854,-0.38687458634376526,0.3500615656375885,-0.01506389956921339,-0.3231765627861023,-0.35168933868408203,0.40129172801971436
78,-1.6491277618897882,-0.056305297712868865,-2.5053357318655567,-0.995353639125824,0.05627555027604103,0.07812733203172684,-0.5921112298965454,-1.2350459098815918,-0.16727004945278168,-0.6228712797164917,-0.18249626457691193,0.2405981868505478
79,-1.7416469972643802,-0.04633235153939963,-2.574299182170423,-0.9843829274177551,0.04631577804684639,0.16983823478221893,-0.20264950394630432,-0.17329925298690796,-0.010076073929667473,-0.24672669172286987,0.4905647039413452,-0.6883624792098999
80,-1.737306875043019,-0.05311300609740874,-2.5298936033585426,-0.9847784042358398,0.05308803915977478,0.1655084490776062,0.725458562374115,0.1820373684167862,0.08804093301296234,0.3021460175514221,0.00932040810585022,-0.026500821113586426
81,-1.7565853817966053,-0.0780444733907731,-2.4906713129243183,-0.9797991514205933,0.07796526700258255,0.1841597706079483,0.42330634593963623,-0.11456171423196793,0.1738835722208023,0.5655384063720703,-0.12897539138793945,-0.1531081348657608
82,-1.764086838867445,-0.09657541078044515,-2.399000554158201,-0.9768046140670776,0.09642535448074341,0.1911941021680832,0.800319254398346,-0.57552570104599,-0.035756465047597885,-0.16841340065002441,-0.15889482200145721,0.2594132721424103
83,-1.8253159812765536,-0.09659571037507068,-2.3642495985330223,-0.9632728695869446,0.09644556045532227,0.25060686469078064,-0.04714517667889595,-1.0949839353561401,-0.5540138483047485,-0.24513167142868042,-0.07601404190063477,0.2868534326553345
84,-1.790643421874269,-0.06578018828554208,-2.3998063170771773,-0.9738200902938843,0.06573276221752167,0.2176087349653244,0.7050502300262451,-1.2180806398391724,-0.4268479347229004,-0.14438974857330322,0.4750997722148895,-0.6345704793930054
85,-1.780117761917008,-0.040773148665427736,-2.3487334542789466,-0.9773591160774231,0.04076185077428818,0.20762348175048828,0.45344340801239014,0.5057718753814697,-0.03215997293591499,0.16430985927581787,-0.1303156614303589,-0.07209493219852448
86,-1.7101401363944693,-0.03977309877619723,-2.349628797551785,-0.9895241856575012,0.03976261243224144,0.13878346979618073,-0.22755469381809235,0.771712601184845,-0.007238089572638273,0.6472390294075012,-0.012220501899719238,-0.13762378692626953
87,-1.633598339747868,-0.053723702293681834,-2.3524154522089855,-0.9965887069702148,0.0536978617310524,0.06267019361257553,-0.006996944546699524,0.47392264008522034,0.08175250142812729,-0.16289609670639038,-0.12028723955154419,0.09988164901733398
88,-1.6487577943376612,-0.04183121135449355,-2.3736620943746214,-0.9960906505584717,0.0418190136551857,0.07781440019607544,-0.5589290261268616,-1.1977736949920654,-0.09856057167053223,-0.3476290702819824,-0.2051796168088913,0.5745446681976318
89,-1.7884478329641789,-0.025974941338711602,-2.4294300148466306,-0.9760778546333313,0.025972019881010056,0.21586427092552185,-0.7404714226722717,-1.020072102546692,0.036942772567272186,-0.10537350177764893,0.10410916805267334,-0.4528331756591797
90,-1.810132549507172,-0.02362102300809831,-2.421913677031531,-0.9712245464324951,0.023618826642632484,0.23699168860912323,0.8285036087036133,0.2257913053035736,0.0576620027422905,0.10837054252624512,0.24704158306121826,-0.31110358238220215
91,-1.788171394216666,-0.055577166388840096,-2.3460090590999654,-0.9749592542648315,0.05554855987429619,0.2153342217206955,0.6075181365013123,-0.18172340095043182,0.2184567153453827,0.538756251335144,-0.1864079236984253,-0.0007041692733764648
92,-1.7798884359202356,-0.08987339311372776,-2.259997307834759,-0.9742717146873474,0.0897524505853653,0.20673410594463348,1.151242733001709,0.010053163394331932,-0.01891986094415188,0.05082511901855469,-0.0329592302441597,0.05118510127067566
93,-1.795161539298588,-0.10510224615895947,-2.1928008006219284,-0.9695557951927185,0.10490885376930237,0.22125983238220215,0.7182509303092957,-0.7197628021240234,-0.135885551571846,-0.24888914823532104,-0.09816445410251617,0.43882015347480774
94,-1.7952599003864647,-0.055507302533431196,-2.1888255767004225,-0.9734120965003967,0.05547880381345749,0.2222405970096588,-0.9855659604072571,1.7119470834732056,-0.03249756991863251,-0.270499587059021,0.19233918190002441,-0.17100156843662262
95,-1.7608869877676698,-0.02342992294794447,-2.1959356502499814,-0.981717586517334,0.023427778854966164,0.1888960599899292,0.09236636757850647,0.10275141894817352,-0.3862263262271881,-0.17283868789672852,0.02817744016647339,-0.5237196683883667
96,-1.720327936447437,-0.018897396651955754,-2.1920305205530277,-0.9886643886566162,0.018896272405982018,0.14894838631153107,-0.23974356055259705,0.7064595818519592,0.11745709925889969,0.5155351161956787,-0.056890666484832764,0.04105401039123535
97,-1.6441477318102082,-0.02805267387009355,-2.2237534136452375,-0.9969184994697571,0.02804899401962757,0.07325680553913116,-0.26165685057640076,0.6806724667549133,0.30707818269729614,0.26727384328842163,0.003612993285059929,0.04362558573484421
98,-1.6113443882810168,-0.043981254210230046,-2.258349457239118,-0.9982119202613831,0.043967075645923615,0.040497757494449615,-0.18998412787914276,-0.031196484342217445,-0.2278360277414322,-0.437563955783844,-0.2916324734687805,0.3443593978881836
99,-1.74935253191762,-0.04985326202676654,-2.309851809938956,-0.9828786253929138,0.04983261600136757,0.1773882806301117,-1.443111538887024,-1.4636497497558594,0.5065210461616516,-0.46333426237106323,-0.30788925290107727,-0.15848253667354584
100,-1.7900888006166296,-0.0630372507676226,-2.350964047410221,-0.9741129875183105,0.06299550831317902,0.21710702776908875,0.5778771042823792,-0.021329309791326523,-0.09687894582748413,-0.10125017166137695,0.3661579191684723,-0.32161450386047363
101,-1.7853034326930273,-0.08548193898758462,-2.2881589730698235,-0.9735137820243835,0.08537787199020386,0.21208861470222473,0.7343889474868774,0.06601497530937195,0.17591874301433563,0.46350401639938354,-0.16588324308395386,-0.1003943681716919
102,-1.7635422246611443,-0.11724547336871854,-2.197430108216525,-0.9747437834739685,0.1169770359992981,0.1902395784854889,1.1267499923706055,0.2534951865673065,0.028261933475732803,0.2791261076927185,0.016277968883514404,-0.1638113260269165
103,-1.756462815967269,-0.12857163742987102,-2.114248862175661,-0.9747012853622437,0.1282176971435547,0.18307790160179138,0.5307036638259888,-0.008408121764659882,0.08978435397148132,-0.3732143044471741,-0.10374264419078827,0.48066413402557373
104,-1.7999633160880508,-0.10009417276770263,-2.0958969951485837,-0.9689816236495972,0.09992711991071701,0.22602936625480652,-1.0734268426895142,0.329644113779068,-0.1591484397649765,-0.40279877185821533,-0.03437533974647522,0.1517477035522461
105,-1.7607438803051136,-0.06562702502586243,-2.1605554335729806,-0.9799002408981323,0.06557992845773697,0.18840095400810242,-0.09305495023727417,0.3765253722667694,-0.3771829903125763,-0.3366433382034302,0.10924002528190613,-0.4878242015838623
106,-1.7333890891749486,-0.0544722841953458,-2.16536005169473,-0.9853472709655762,0.05444534868001938,0.16163721680641174,-0.14186955988407135,0.5028573870658875,0.10777142643928528,0.40981626510620117,-0.11209306120872498,0.0009757280349731445
107,-1.6726285960955114,-0.05119185338178718,-2.218912436819055,-0.993516206741333,0.0511694960296154,0.10152318328619003,-0.4313162863254547,0.7414103150367737,0.14615380764007568,0.37086623907089233,0.08144461363554001,-0.14838291704654694
108,-1.6339121070849965,-0.05556461026274713,-2.2482080449729356,-0.996468722820282,0.055536024272441864,0.06297654658555984,-0.38887253403663635,-0.036958374083042145,-0.16850335896015167,-0.4345616102218628,-0.35138869285583496,0.3922998905181885
109,-1.7167494144854758,-0.041168651578478564,-2.292109707084546,-0.9885295629501343,0.04115702211856842,0.14531223475933075,-0.6815789937973022,-1.520160436630249,-0.05120832845568657,-0.6207997798919678,-0.3016245365142822,0.010174885392189026
110,-1.785467780254494,-0.04090208314654416,-2.345140854940677,-0.9762293696403503,0.04089067876338959,0.21284829080104828,0.3373473882675171,-0.026441235095262527,-0.1339658945798874,-0.06536620855331421,0.4070768356323242,-0.607303261756897
111,-1.767576420082166,-0.0485034448278642,-2.2929855498281784,-0.9795477986335754,0.048484429717063904,0.19528263807296753,0.4716649055480957,0.244820237159729,0.08813311159610748,0.3037971258163452,-0.04138908162713051,-0.05310119688510895
112,-1.7513119849366225,-0.08246057046903271,-2.229897136709705,-0.9804086685180664,0.08236715197563171,0.17892684042453766,1.1270484924316406,0.15630608797073364,0.25308793783187866,0.33537375926971436,-0.028305254876613617,-0.12991558015346527
113,-1.732037529674452,-0.10074036397340586,-2.0848570793569956,-0.9820244908332825,0.10057005286216736,0.159729465842247,1.4536840915679932,-0.28317850828170776,-0.31000640988349915,-0.16738951206207275,-0.20440612733364105,0.3646235466003418
114,-1.7429889955908848,-0.09344174519052109,-1.9883444580554925,-0.9809135794639587,0.09330582618713379,0.17059554159641266,0.3067172169685364,-0.556868314743042,-0.5850659608840942,-0.28823626041412354,0.006425648927688599,0.18256914615631104
115,-1.7379979820799185,-0.06168330762469773,-1.998692955106892,-0.9841789603233337,0.06164420023560524,0.1661071628332138,0.3296096622943878,-0.1735329031944275,-0.6179090142250061,-0.2404150366783142,0.11267220973968506,-0.4204559326171875
116,-1.713640465508911,-0.03917450980154102,-1.9521187077203976,-0.9890556931495667,0.03916449099779129,0.14224962890148163,0.013785929419100285,0.5246656537055969,0.004812011960893869,0.27567678689956665,-0.1905316710472107,0.027809619903564453
117,-1.6589183980899793,-0.037665778812583255,-1.9605491270509467,-0.9954133629798889,0.03765687346458435,0.08794564753770828,-0.0742245465517044,0.3755154609680176,-0.04249339550733566,0.41564035415649414,-0.01395997405052185,-0.04718947410583496
118,-1.6367101690841617,-0.04699092045745412,-1.9622099704149623,-0.9967271089553833,0.04697362706065178,0.06579342484474182,0.014927552081644535,-0.11630050092935562,0.08336259424686432,-0.14237213134765625,-0.09995212405920029,0.34334051609039307
119,-1.7195907023795831,-0.04973616849131474,-2.0040369325403034,-0.9877275228500366,0.049715664237737656,0.148062601685524,-0.6820759177207947,-1.100782871246338,0.2739700376987457,-0.5131421089172363,-0.04762522131204605,0.1450434774160385
120,-1.7519398826468415,-0.08375491130712745,-2.081420117931539,-0.9801903367042542,0.08365702629089355,0.1795230358839035,-0.3507227599620819,0.0658385306596756,0.2235158085823059,-0.03485482931137085,0.39600300788879395,-0.4056582450866699
121,-1.7509278018088676,-0.10753436283261768,-2.1185068983036954,-0.9781374931335449,0.10732723772525787,0.1781240701675415,-0.5690903663635254,0.1813487559556961,0.39457860589027405,0.29027116298675537,-0.07320855557918549,-0.05915127694606781
122,-1.7597760753381742,-0.13916576168621386,-2.1776142913229903,-0.9727004766464233,0.13871699571609497,0.1860406994819641,-0.4043618142604828,0.14862190186977386,0.3484659194946289,0.3084702491760254,-0.07003720104694366,-0.05470837652683258
123,-1.752850274276262,-0.1407671959849021,-2.1948161759615807,-0.9737460017204285,0.14030276238918304,0.17925912141799927,-0.20654040575027466,-0.4586789608001709,-0.17613808810710907,-0.12412387132644653,-0.15237247943878174,0.39894211292266846
124,-1.811023910817298,-0.10474787052306621,-2.2468978773459423,-0.9659602642059326,0.10455642640590668,0.23661962151527405,-1.1096035242080688,-0.3009161353111267,-0.41524451971054077,-0.18073773384094238,0.08800950646400452,0.24142301082611084
125,-1.7819333877817165,-0.06981646218066377,-2.3773476524249775,-0.9754111766815186,0.06975975632667542,0.20906129479408264,-0.715813159942627,0.1268530786037445,-0.030248504132032394,-0.23844075202941895,0.3970828950405121,-0.3317725658416748
126,-1.7581851337317165,-0.05852365587169352,-2.4526618855971147,-0.9808120727539062,0.05849025398492813,0.18597511947155,-1.0777521133422852,0.42398905754089355,0.19218498468399048,0.1233900785446167,-0.04030176252126694,-0.06839095056056976
127,-1.7120390485649857,-0.04299471683858416,-2.5966580529173666,-0.989126980304718,0.04298147186636925,0.14064349234104156,-1.371397614479065,0.636690616607666,0.13339655101299286,0.30765414237976074,0.06750741600990295,-0.20897231996059418
128,-1.673962358226037,-0.058133712841538794,-2.6819745823577636,-0.993002712726593,0.058100976049900055,0.10280914604663849,-0.6396300196647644,0.1924092173576355,0.23451782763004303,0.02966970205307007,-0.14135293662548065,0.20349572598934174
129,-1.6943388196196927,-0.06076631339120259,-2.742939133185316,-0.9905467629432678,0.06072892248630524,0.12300103157758713,-0.9303725957870483,-0.8012322783470154,0.08659123629331589,-0.22568553686141968,-0.04315079748630524,0.34413158893585205
130,-1.7687668102834966,-0.07497223629257169,-2.848798293255631,-0.9777135848999023,0.0749020203948021,0.19612738490104675,-0.810754656791687,-0.1538066267967224,0.520926296710968,-0.27227115631103516,0.3124728500843048,-0.6282105445861816
131,-1.77516344853834,-0.1040739501159815,-2.8653894315787416,-0.9738914370536804,0.10388617217540741,0.20184938609600067,0.4464530646800995,-0.09090536087751389,0.3879781663417816,0.0951988697052002,0.1421007513999939,-0.04593503475189209
132,-1.7808264816845891,-0.1486774858024201,-2.8728766006201596,-0.9672347903251648,0.14813034236431122,0.20618928968906403,-0.2069423645734787,0.009637001901865005,0.49438363313674927,0.40093547105789185,-0.08566085994243622,-0.07404817640781403
133,-1.7524674123482864,-0.19737971857877168,-2.869299994439563,-0.9644464254379272,0.1961006075143814,0.17716540396213531,0.20687943696975708,0.32786861062049866,0.2978686988353729,0.01661628484725952,0.0606132447719574,0.12527905404567719
134,-1.7605458291693978,-0.20676753796676675,-2.833210446856247,-0.9611334204673767,0.20529736578464508,0.18459536135196686,0.3833613097667694,-0.5714042782783508,-0.07091415673494339,-0.036913394927978516,-0.19714920222759247,0.35913634300231934
135,-1.787684881221547,-0.1980863299516045,-2.7808008757278198,-0.9574747085571289,0.19679343700408936,0.210984006524086,0.12889675796031952,-0.8349243998527527,-0.42366811633110046,-0.19769179821014404,-0.03654564917087555,0.27091896533966064
136,-1.767569878987909,-0.16690014123891853,-2.79729463959503,-0.9670751690864563,0.16612637042999268,0.19278952479362488,0.04700600728392601,0.339590847492218,-0.6277886629104614,-0.23890328407287598,-0.05060206353664398,-0.3588204085826874
137,-1.727821309467934,-0.12328035276945884,-2.7508398235931737,-0.9802009463310242,0.12296832352876663,0.15519367158412933,0.44882166385650635,0.5538806915283203,-0.10704755038022995,0.16443544626235962,-0.26319658756256104,0.012195244431495667
138,-1.648431338254812,-0.11267305643319353,-2.707927847553771,-0.9906660914421082,0.11243480443954468,0.07706526666879654,0.2120065540075302,0.8246606588363647,-0.11745467036962509,0.35622090101242065,-0.08687633275985718,-0.09839701652526855
139,-1.5857984628844464,-0.11370910313385864,-2.689396380987672,-0.9934302568435669,0.11346422135829926,0.014904693700373173,0.2795502245426178,0.15634886920452118,0.0028536724857985973,-0.19825059175491333,-0.10809314996004105,0.23541569709777832
140,-1.6648713711766199,-0.11396457059567451,-2.6977431317320866,-0.9891198873519897,0.11371804028749466,0.09332697838544846,-0.46364933252334595,-1.903221607208252,-0.001600042567588389,-0.549255907535553,-0.31981852650642395,0.30874204635620117
141,-1.7670287674209364,-0.12337004891482299,-2.7331679952187247,-0.9733536839485168,0.12305733561515808,0.19349358975887299,0.08533772081136703,-0.27611029148101807,0.019510168582201004,-0.09189295768737793,0.14293387532234192,-0.5276763439178467
142,-1.7560044426796884,-0.13621404452032113,-2.6432192356754727,-0.9737934470176697,0.13579320907592773,0.18244531750679016,1.0940479040145874,0.1264442354440689,-0.00982518121600151,0.259438157081604,-0.08208228647708893,0.02995702624320984
143,-1.7638732034743816,-0.164821976440215,-2.5607916055627755,-0.9681179523468018,0.16407671570777893,0.18927907943725586,1.0478755235671997,-0.03857148438692093,0.31402599811553955,0.40516018867492676,-0.09020890295505524,-0.10485219955444336
144,-1.7386764083489512,-0.20382245121336495,-2.453460975288714,-0.9655323624610901,0.2024141252040863,0.1636338233947754,1.07369863986969,-0.2860872149467468,0.053972188383340836,-0.10145384073257446,0.0013975352048873901,0.2150893360376358
145,-1.7749606436268606,-0.21327432122554724,-2.3843726346214886,-0.9570446610450745,0.21166115999221802,0.19815528392791748,0.3199194073677063,-0.874467134475708,-0.39254048466682434,-0.30667322874069214,-0.17923620343208313,0.2409011572599411
146,-1.7433964016742147,-0.1850813286775972,-2.414374444271567,-0.9683166146278381,0.18402647972106934,0.16881120204925537,0.42852210998535156,-0.7406989932060242,-0.5530111193656921,-0.17029422521591187,0.38060975074768066,-0.5409425497055054
147,-1.7057080530476496,-0.14527100351593789,-2.3635547480293555,-0.980475664138794,0.14476057887077332,0.13308608531951904,0.5497517585754395,0.18185125291347504,-0.21804319322109222,0.14305806159973145,-0.23487898707389832,-0.08665347099304199
148,-1.6585082285162362,-0.1300315763202089,-2.3372074173318738,-0.987746000289917,0.12966544926166534,0.08685994148254395,-0.3686068058013916,0.4216161072254181,-0.18653547763824463,0.40685921907424927,-0.10480888187885284,0.04209207743406296
149,-1.6213073700777354,-0.12494699383615904,-2.354991881430212,-0.9909388422966003,0.12462214380502701,0.05009596794843674,0.28363922238349915,-0.03820992633700371,0.03418136015534401,-0.03135424852371216,-0.04861810803413391,0.18493521213531494
150,-1.7102999554627836,-0.1270231441502558,-2.4475960542236486,-0.9823068976402283,0.1266818344593048,0.13793130218982697,-2.001648187637329,-0.8137049674987793,0.5466750264167786,-0.4588247537612915,0.08659026026725769,-0.06487226486206055
151,-1.7211964730961626,-0.1793201872136518,-2.5029504772465954,-0.9728574752807617,0.1783607006072998,0.14743122458457947,0.9103668928146362,-0.05633477121591568,0.5720458626747131,-0.13564789295196533,0.5205681324005127,-0.28616416454315186
152,-1.7466201210543997,-0.2475657582754138,-2.4486652994685327,-0.9545646905899048,0.24504466354846954,0.16958633065223694,0.15582145750522614,0.016251564025878906,0.6994279623031616,0.2650047540664673,-0.33580392599105835,0.02905261516571045
153,-1.6585146589959514,-0.3622777889613881,-2.4526406548840796,-0.9314966797828674,0.35440510511398315,0.08191955834627151,0.18030303716659546,1.3696825504302979,1.5131222009658813,0.2794581651687622,-0.012272566556930542,-0.07845581322908401
154,-1.5972023450423651,-0.44333735916913697,-2.420996766929012,-0.9030102491378784,0.4289565682411194,0.023850448429584503,0.7538900375366211,-0.7349967956542969,0.24230074882507324,-0.018834233283996582,-0.06465297937393188,0.2909841537475586
155,-1.629363480053012,-0.42522837704775474,-2.348061158574538,-0.9093827605247498,0.4125288426876068,0.05332093685865402,0.6421728730201721,-0.8573059439659119,-0.7143083810806274,-0.17464739084243774,-0.024345219135284424,0.2697685956954956
156,-1.6038258386647106,-0.3879843660650496,-2.311023005488139,-0.925168514251709,0.37832337617874146,0.030568981543183327,-0.23070204257965088,0.1953088492155075,-0.5075696706771851,-0.009127020835876465,0.29494011402130127,-0.1728724241256714
157,-1.5817244463999816,-0.30734094446406995,-2.342798709654841,-0.9530845880508423,0.30252525210380554,0.010415837168693542,0.2384253442287445,-0.4711579382419586,-0.8289259076118469,-0.11767053604125977,-0.09587541222572327,-0.48874831199645996
158,-1.5834595399698674,-0.24530323915111696,-2.3184565753626027,-0.9699860215187073,0.24285049736499786,0.012283796444535255,0.0046288855373859406,0.3435721695423126,-0.36950039863586426,0.15306097269058228,-0.22119827568531036,0.1523585319519043
159,-1.5601269308519539,-0.21288957305917142,-2.348799875341898,-0.9773688316345215,0.21128511428833008,-0.010428330861032009,-0.05784529820084572,0.14597377181053162,-0.3424948751926422,0.10958623886108398,0.03753994405269623,-0.03461563587188721
160,-1.6019275792856893,-0.20807765867994865,-2.3341420803361674,-0.9779558181762695,0.20657940208911896,0.03045482747256756,-0.0697522833943367,-0.8333173990249634,0.028209224343299866,-0.10441112518310547,-0.30126020312309265,0.3690812587738037
161,-1.7488612178039697,-0.2094842946857645,-2.3675434956602444,-0.962672233581543,0.2079554945230484,0.173253133893013,0.01622689701616764,-0.34567949175834656,0.12966126203536987,-0.26891040802001953,-0.020882755517959595,-0.7457934617996216
162,-1.7259450541457948,-0.21100776562687348,-2.2430553583536117,-0.9660752415657043,0.20944541692733765,0.15109966695308685,1.8496226072311401,-0.06805261969566345,-0.16111762821674347,0.01757371425628662,0.059216082096099854,-0.18038131296634674
163,-1.7209539710469128,-0.2310796716261895,-2.104294472325066,-0.9624663591384888,0.2290286272764206,0.1456177532672882,0.9836339950561523,-0.2791374623775482,0.13107185065746307,0.24937736988067627,-0.2175845205783844,0.16462397575378418
164,-1.7019153005130494,-0.254021808947187,-1.989771356165829,-0.9596011638641357,0.251298725605011,0.12654796242713928,1.2998541593551636,-0.6280819773674011,-0.1506601870059967,0.462607204914093,-0.057039111852645874,-0.14478231966495514
165,-1.7872139769837663,-0.2224305695595747,-1.8819355384483194,-0.9526116847991943,0.22060096263885498,0.20944209396839142,0.2369309514760971,-0.1708487719297409,-0.7566235065460205,-0.1756994128227234,-0.4779099225997925,0.1367187350988388
166,-1.7319505375634143,-0.14207274680700835,-1.881160517343235,-0.9770979285240173,0.1415952742099762,0.15884090960025787,-0.9699990153312683,1.9177168607711792,-0.5309473872184753,-0.6503891944885254,0.6021639108657837,-0.4010741710662842
167,-1.6972349127847566,-0.11241915849918502,-1.9394042446904414,-0.9857552647590637,0.11218251287937164,0.12530595064163208,-0.27355074882507324,0.276231586933136,-0.19059725105762482,-0.4107595682144165,0.34455883502960205,-0.18913353979587555
168,-1.6659079151236482,-0.11744278177651066,-1.9998015820171795,-0.9886229038238525,0.11717299371957779,0.09431406110525131,-1.3802194595336914,0.4479457139968872,-0.10158514976501465,0.4493163228034973,-0.3173683285713196,0.0003056451678276062
169,-1.6222981513899626,-0.08260815478478109,-2.160406061284955,-0.9952684044837952,0.08251423388719559,0.05130350589752197,-0.8817169666290283,0.5159145593643188,-0.15656130015850067,0.2848498225212097,0.033940814435482025,-0.02000773698091507
170,-1.5918903260951718,-0.06897428716817826,-2.2546316124205283,-0.9974002838134766,0.0689196065068245,0.02104228176176548,-1.0183268785476685,0.2268739938735962,-0.21362273395061493,-0.19408226013183594,-0.0686907172203064,0.28155481815338135
171,-1.6480616264798027,-0.05994546010708526,-2.3916976639957612,-0.9952257871627808,0.05990956351161003,0.07704980671405792,-1.9679481983184814,-1.7668853998184204,0.27356570959091187,-0.29627811908721924,0.09701180458068848,0.2507699728012085
172,-1.6767942891271597,-0.08629286118237804,-2.522260167280349,-0.9906874299049377,0.08618580549955368,0.10540591180324554,-1.4499293565750122,0.6231330037117004,0.834977924823761,-0.20766156911849976,0.5244098901748657,-0.16735661029815674
173,-1.6598400483394598,-0.16697012852567203,-2.5630704746352735,-0.9821860790252686,0.16619537770748138,0.08768938481807709,-0.31342819333076477,-0.4129559099674225,0.41598567366600037,0.0028008222579956055,-0.20258758962154388,0.16823101043701172
174,-1.6636440345060146,-0.17869087102706682,-2.690091801685787,-0.9798384308815002,0.17774143815040588,0.09123808145523071,-0.8121318221092224,0.3972637951374054,0.08911701291799545,0.5707046389579773,-0.0029978007078170776,-0.12734031677246094
175,-1.7228636266295534,-0.20587046234259862,-2.629988045639248,-0.9675870537757874,0.2044193148612976,0.14828310906887054,0.7101131081581116,-2.2752249240875244,0.10855655372142792,0.02383100986480713,-0.4417545199394226,0.47340571880340576
176,-1.7401429534176418,-0.189009047181567,-2.597095309231035,-0.9681409001350403,0.18788568675518036,0.16553686559200287,0.4747130274772644,1.2456427812576294,-0.15892992913722992,-0.9177387356758118,0.6938282251358032,-0.46270179748535156
177,-1.6958064541934081,-0.14543757907634958,-2.553136240670048,-0.9817214012145996,0.14492540061473846,0.12336843460798264,0.8398192524909973,0.18383672833442688,-0.7045607566833496,-0.2265610694885254,0.06233474612236023,-0.537003755569458
178,-1.6547491757614585,-0.11098914104105621,-2.4890157500555423,-0.9903468489646912,0.11076141148805618,0.08333832025527954,0.14001169800758362,0.4823431670665741,-0.10799574106931686,0.3519495129585266,-0.06678555905818939,0.19069421291351318
179,-1.630292311638931,-0.09850062628025687,-2.4790555219068575,-0.9933920502662659,0.09834142029285431,0.059172675013542175,0.09132947772741318,0.2685050964355469,-0.12321918457746506,0.2716054320335388,-0.10633699595928192,-0.0815267488360405
180,-1.6193334734651066,-0.09699560703311397,-2.4501483625017215,-0.9941274523735046,0.09684358537197113,0.04829004034399986,0.2688255310058594,-0.22865049540996552,-0.005838991142809391,-0.04630833864212036,-0.18778595328330994,0.3027994632720947
181,-1.6572114975456542,-0.07410932048807257,-2.461966196441678,-0.9935339689254761,0.07404150068759918,0.08607076108455658,-0.10063948482275009,-0.5650485754013062,-0.3298424184322357,-0.22011959552764893,-0.12261021137237549,0.05124306678771973
182,-1.7590257282438233,-0.033212279102685587,-2.4717162620707547,-0.9817954897880554,0.03320617228746414,0.18701669573783875,-0.6471679210662842,-0.8949859142303467,0.05413033068180084,-0.05490201711654663,-0.14599913358688354,-0.08594249188899994
183,-1.7949247482438055,-0.031238135759907363,-2.4839376108679208,-0.97451251745224,0.031233055517077446,0.22214822471141815,0.7131555676460266,-0.12248439341783524,-0.04767274856567383,-0.02219158411026001,0.3412187397480011,-0.35552525520324707
184,-1.8049563608848378,-0.050677809076037424,-2.400210421327974,-0.9714609384536743,0.05065612122416496,0.2317281812429428,0.6915489435195923,-0.6100544929504395,0.10556158423423767,0.33185815811157227,-0.24049073457717896,0.10962620377540588
185,-1.8253452406011053,-0.08101159799214283,-2.3307989175425816,-0.9646031260490417,0.08092301338911057,0.2509830892086029,0.9604631662368774,0.12387894839048386,0.03532044589519501,0.2153964638710022,0.11135298758745193,-0.13173553347587585
186,-1.8152276840521673,-0.08577743075282192,-2.2417671147213682,-0.966707706451416,0.0856722816824913,0.24111485481262207,0.4382825195789337,-0.06674343347549438,-0.13993605971336365,-0.1653723120689392,-0.2047366201877594,0.37685084342956543
187,-1.8400342267390832,-0.060452029551418617,-2.232273920557166,-0.9622129797935486,0.06041521579027176,0.2655109763145447,-0.4811650812625885,0.008202512748539448,-0.2527120113372803,-0.25711679458618164,0.03554730862379074,0.1471630036830902
188,-1.7923133960717306,-0.044303484957590324,-2.2843345651618225,-0.9746080040931702,0.0442889928817749,0.2194942831993103,0.33671602606773376,0.3512878119945526,-0.6209467053413391,-0.32107681035995483,0.3205333948135376,-0.6272244453430176
189,-1.710600346245781,0.007286540136997746,-2.201572921824624,-0.9902170300483704,-0.007286475505679846,0.13934534788131714,-0.10263388603925705,1.3205097913742065,-0.49426132440567017,0.42225438356399536,-0.2593151032924652,0.3487832546234131
190,-1.6054325646703351,0.047190596867940124,-2.2699261764284704,-0.9982876777648926,-0.04717308282852173,0.03459076210856438,-0.851761519908905,0.360454261302948,-0.37668731808662415,0.3929715156555176,0.17391258478164673,0.008042216300964355
191,-1.561118733221973,0.06322981965559488,-2.3684635208333225,-0.9979548454284668,-0.06318769603967667,-0.009658102877438068,-0.8979742527008057,0.39076101779937744,-0.06635671854019165,-0.010162711143493652,-0.17317092418670654,0.2556297779083252
192,-1.54840050946398,0.061124018094219405,-2.441487629836682,-0.9978821873664856,-0.06108596548438072,-0.022352125495672226,-0.8990141749382019,0.23210525512695312,0.007401908747851849,0.03578507900238037,-0.18001815676689148,0.1312999129295349
193,-1.5690908059044233,0.07009234412979744,-2.5260567011974593,-0.997543215751648,-0.07003496587276459,-0.0017013323958963156,-0.9588185548782349,-1.5682913064956665,-0.3502812385559082,-0.3742678165435791,-0.13521099090576172,0.19036102294921875
194,-1.7038772075199415,0.051179595555493625,-2.5494946461673114,-0.9898598790168762,-0.051157254725694656,0.13251465559005737,-0.4216934144496918,0.36098894476890564,0.7205206751823425,-0.5375447869300842,0.25730350613594055,-0.17443062365055084
195,-1.680955058166756,-0.010552601370422644,-2.506736832541733,-0.9938831925392151,0.010552405379712582,0.10992994159460068,0.6734065413475037,-1.1137899160385132,0.577416181564331,0.11178797483444214,-0.23645877838134766,0.2420598268508911
196,-1.7163191522406915,-0.0879699066481235,-2.5166584016382547,-0.9856042265892029,0.0878564864397049,0.14444902539253235,0.3927222192287445,0.9872872233390808,0.9139180183410645,0.48053836822509766,-0.0825464129447937,-0.36149001121520996
197,-1.725897339850041,-0.1388875904405246,-2.3955914122245443,-0.978482186794281,0.13844150304794312,0.1529923677444458,0.9237729907035828,-1.3222776651382446,-0.26837295293807983,-0.166598379611969,-0.3460678458213806,0.7259291410446167
198,-1.7353116194560438,-0.13255909744458452,-2.362285226261039,-0.9778432846069336,0.13217121362686157,0.16233739256858826,-0.6260557174682617,1.6250994205474854,0.5393940806388855,-0.6744241714477539,0.23617592453956604,0.08145225048065186
199,-1.687641259928612,-0.10218319305240837,-2.3819752997042376,-0.9880008101463318,0.10200546681880951,0.115971140563488,0.49560919404029846,0.10137525200843811,-0.7552132606506348,-0.2116299271583557,0.23059037327766418,-0.7088819742202759
200,-1.6841180243219929,-0.07083528461274949,-2.3176216970806687,-0.9910942912101746,0.0707760602235794,0.11279573291540146,-0.030153298750519753,0.37704241275787354,-0.04389480501413345,0.22025078535079956,-0.2077084481716156,0.17918121814727783
201,-1.6555561015347826,-0.0705952300828622,-2.344877214095598,-0.9939281940460205,0.07053660601377487,0.0844474583864212,-0.213810995221138,0.2594641447067261,0.11442606151103973,0.404618501663208,-0.03180977702140808,-0.032964229583740234
202,-1.648528995825829,-0.08044410336184285,-2.356046487798268,-0.9937561750411987,0.0803573727607727,0.07740327715873718,0.005039204843342304,-0.24791696667671204,-0.08899055421352386,-0.043261587619781494,-0.1635940670967102,0.17010951042175293
203,-1.7373405779858329,-0.07623442451288064,-2.4074949039925584,-0.983299195766449,0.07616060227155685,0.16529391705989838,-0.7614344358444214,-1.4114630222320557,0.37379446625709534,0.12024694681167603,-0.20834746956825256,0.07092736661434174
204,-1.8618794640953071,-0.059302984129568276,-2.4954312821929445,-0.9562495946884155,0.05926822870969772,0.2864854633808136,-1.0809836387634277,0.5485841035842896,1.2104589939117432,-0.7698245644569397,0.7336242198944092,-0.4273546040058136
205,-1.8550939105648698,-0.11091514600293666,-2.5028293234648533,-0.953960657119751,0.11068786680698395,0.27875974774360657,1.070448637008667,-0.5655736923217773,0.0873321145772934,-0.011142313480377197,-0.14207524061203003,-0.040310680866241455
206,-1.903003568841083,-0.15435517874214988,-2.484643686843313,-0.9340856671333313,0.1537429690361023,0.32225295901298523,0.5027402639389038,-0.011637192219495773,0.43733182549476624,0.35568612813949585,0.011479184031486511,-0.29283395409584045
207,-1.8697996518409115,-0.20300779675699596,-2.3931893929057986,-0.9360063672065735,0.20161627233028412,0.28851884603500366,0.7757440209388733,-0.33245110511779785,0.08816859126091003,0.0017564892768859863,-0.13609503209590912,0.3357182741165161
208,-1.8826186989480025,-0.2368998544794032,-2.31445110007937,-0.925193190574646,0.23469020426273346,0.29822495579719543,0.8601551055908203,-0.16781829297542572,-0.18986916542053223,-0.0978323221206665,-0.004145175218582153,0.29782915115356445
209,-1.865496468913461,-0.22597606838969322,-2.2630814231657226,-0.9325611591339111,0.22405771911144257,0.2830684185028076,-0.13685549795627594,1.3920413255691528,0.1416752189397812,-0.5119883418083191,0.06296010315418243,0.08265420794487
210,-1.7902854346260657,-0.16996047624238816,-2.3510032563524565,-0.9619460701942444,0.16914339363574982,0.21459385752677917,-0.5371798872947693,0.5163243412971497,-0.27058374881744385,-0.2316117286682129,0.18457062542438507,-0.5421237945556641
211,-1.7694315582640328,-0.1484123472541613,-2.336979625233992,-0.9695600867271423,0.14786812663078308,0.1951623409986496,0.1349487155675888,0.33862224221229553,-0.09305081516504288,0.22880691289901733,-0.2819165885448456,0.007840633392333984
212,-1.7132686598909883,-0.13202421313765314,-2.3349614196597446,-0.9812535643577576,0.13164101541042328,0.14075514674186707,-0.010768106207251549,0.7312002778053284,-0.2457342892885208,0.35423946380615234,-0.06560097634792328,-0.03165484964847565
213,-1.6877199604024045,-0.11420342174456949,-2.3449356316243177,-0.9867026209831238,0.11395533382892609,0.11589749157428741,-0.501426100730896,-0.38872888684272766,-0.12787078320980072,0.009453415870666504,-0.1584804505109787,0.340645432472229
214,-1.7720789401897983,-0.09092325773444349,-2.42501856865758,-0.9757637977600098,0.0907980352640152,0.19910040497779846,-1.1443718671798706,-1.4222333431243896,-0.3643704056739807,-0.15514147281646729,-0.148598313331604,-0.014774292707443237
215,-1.831237285573247,-0.06416019082884714,-2.5471252600873164,-0.9642882347106934,0.06411617994308472,0.25697678327560425,-0.5348913073539734,0.3112102150917053,0.38001054525375366,-0.4487670660018921,0.7665875554084778,-0.3185155689716339
216,-1.8347012830695535,-0.10758083650747159,-2.528311423358095,-0.9597974419593811,0.1073734387755394,0.2593441903591156,-0.0331922322511673,-0.719577968120575,0.4509042501449585,0.2832534909248352,-0.3991825580596924,0.17702656984329224
217,-1.8460199296815951,-0.13577155395644402,-2.5246391935880665,-0.9535081386566162,0.13535480201244354,0.2692611813545227,0.8371325731277466,0.47227415442466736,0.14369530975818634,0.36966097354888916,0.04553814232349396,-0.21265098452568054
218,-1.8253804587945186,-0.13463409449638625,-2.4355737387929084,-0.9590104222297668,0.1342277228832245,0.24956394731998444,0.027841797098517418,0.1550627499818802,-0.47505664825439453,-0.01393580436706543,-0.2709465026855469,0.5124142169952393
219,-1.8383840588060583,-0.10206982647456873,-2.4552187129179885,-0.9593923687934875,0.10189268738031387,0.26302972435951233,-0.9971049427986145,0.8804595470428467,0.19510725140571594,-0.5981029272079468,0.22894836962223053,-0.16519030928611755
220,-1.8092086633635691,-0.08949538485353897,-2.4893531388370356,-0.967825174331665,0.08937596529722214,0.23521502315998077,0.31273749470710754,0.2918868958950043,-0.10748040676116943,-0.15712887048721313,0.02842187136411667,-0.3490608036518097
221,-1.7541061961238407,-0.08421795173461959,-2.4962638363336254,-0.9797607660293579,0.08411843329668045,0.1816388964653015,-0.7533806562423706,0.606836199760437,-0.2204040139913559,0.45890218019485474,-0.17730386555194855,0.051027148962020874
222,-1.6851975206735768,-0.06479435779289933,-2.558699783486426,-0.9913787841796875,0.06474903225898743,0.11391229927539825,0.009010427631437778,0.47093459963798523,0.05705633759498596,0.26283252239227295,0.00301525741815567,-0.1429954618215561
223,-1.658779597845996,-0.048569797247119365,-2.576285541556687,-0.9949573278427124,0.04855070263147354,0.08776618540287018,-0.2117876559495926,0.09716181457042694,-0.4087112843990326,-0.32520270347595215,-0.19811734557151794,0.43178021907806396
224,-1.7745294677741792,-0.014192666229000015,-2.614100011754493,-0.9792195558547974,0.014192190021276474,0.20230630040168762,-0.9823806285858154,-1.358203411102295,0.3699365556240082,-0.3240642547607422,-0.14578397572040558,-0.0554405152797699
225,-1.8112129097571261,-0.02319826414962908,-2.6411178628499723,-0.9709776043891907,0.023196183145046234,0.2380431890487671,0.491196870803833,0.04075070098042488,-0.02797379158437252,-0.005768001079559326,0.37574484944343567,-0.3826049566268921
226,-1.8103138362747107,-0.04319048830492998,-2.5940099326095587,-0.9705464839935303,0.04317706078290939,0.23701266944408417,0.2475971132516861,-0.5959811210632324,0.19415105879306793,0.4225425124168396,-0.22979207336902618,0.11215418577194214
227,-1.8419376745850076,-0.07115712979257315,-2.5449691500107465,-0.9610278606414795,0.07109709829092026,0.2671535313129425,0.7369943261146545,0.1341089904308319,0.031061656773090363,0.23005545139312744,0.055520348250865936,-0.11139175295829773
228,-1.8461139846159056,-0.06571213263416054,-2.4864580069913704,-0.9602620005607605,0.0656648501753807,0.2712659239768982,0.2411385327577591,-0.2588881552219391,-0.2083856463432312,-0.21367299556732178,-0.2146669328212738,0.43332386016845703
229,-1.8708193891825975,-0.03428689351324618,-2.488525297385244,-0.9547681212425232,0.03428017720580101,0.2953685224056244,-0.7171763777732849,0.6273799538612366,-0.18982376158237457,-0.26854419708251953,-0.009621977806091309,-0.04924428462982178
230,-1.8112536080460533,-0.016898353416384453,-2.515936147194523,-0.9710906147956848,0.016897549852728844,0.23811280727386475,0.18868479132652283,0.45463165640830994,-0.18612784147262573,-0.45403462648391724,0.1713806390762329,-0.36926206946372986
231,-1.7795859647875598,-0.019093005446122482,-2.4971269814746258,-0.9781042337417603,0.01909184455871582,0.20723819732666016,-0.04913725703954697,0.598337709903717,0.11677559465169907,0.32168638706207275,-0.08798527717590332,-0.028298377990722656
232,-1.7045103435897782,-0.016090801146139436,-2.552525912794599,-0.9909452795982361,0.01609010621905327,0.13329866528511047,-0.4159531593322754,0.7473629117012024,0.08789601176977158,0.38840627670288086,0.09600096940994263,-0.14423918724060059
233,-1.6495913746595987,-0.029324390202493698,-2.574272994696904,-0.9964687824249268,0.029320187866687775,0.07867971062660217,-0.32004573941230774,0.08356110751628876,-0.05470402538776398,-0.2208622694015503,-0.3623737692832947,0.4130805730819702
234,-1.7181914922900545,-0.009561328036467137,-2.6041382914605364,-0.9891117811203003,0.009561181999742985,0.14685533940792084,-0.2690838575363159,-1.750562071800232,-0.25155431032180786,-0.4872065782546997,-0.1313720941543579,0.32506847381591797
235,-1.8239302485787559,0.002234191504169225,-2.6477065733622283,-0.9681297540664673,-0.0022341895382851362,0.2504385709762573,-0.2462635338306427,0.08568835258483887,-0.059438761323690414,-0.2179509997367859,0.27471038699150085,-0.6632956862449646
236,-1.8006615227200256,0.0008763833550968819,-2.603136139031267,-0.9736966490745544,-0.0008763832156546414,0.227846160531044,0.868319571018219,0.3566596210002899,-0.02403891086578369,0.2200499176979065,0.10910698771476746,-0.053163543343544006
237,-1.7963289800162545,-0.0284135786833799,-2.532372225408996,-0.9742817282676697,0.02840975485742092,0.22353529930114746,0.8281309604644775,-0.24764384329319,0.1817130297422409,0.4711231589317322,-0.055890828371047974,-0.04981386661529541
238,-1.7873292947556296,-0.04382799183455048,-2.427808625920349,-0.9757102727890015,0.04381396248936653,0.21463851630687714,0.9346086978912354,-0.21024562418460846,-0.3542262613773346,-0.06977611780166626,-0.07120347023010254,0.2754279375076294
239,-1.828263519151052,-0.028160758543753665,-2.3782822213505077,-0.9666544795036316,0.028157036751508713,0.25453105568885803,-0.20427905023097992,-0.9862626194953918,-0.6188401579856873,-0.005192935466766357,-0.1623275876045227,0.49992451071739197
240,-1.7301300607406302,-0.0035445507198631947,-2.450530864171476,-0.987326979637146,0.0035445434041321278,0.1586594134569168,0.22446271777153015,0.21209673583507538,0.1474575698375702,-0.3010793924331665,0.5174820423126221,-0.8258194923400879
241,-1.7246206642297806,0.011728990217479751,-2.433075136242869,-0.9881243705749512,-0.011728721670806408,0.15320788323879242,0.22179076075553894,-0.1866397261619568,-0.19437725841999054,0.10479307174682617,0.006159275770187378,0.011342883110046387
242,-1.6788593056263272,0.020095194325783175,-2.5106392440814105,-0.9939661622047424,-0.02009384147822857,0.10783100873231888,-1.4443289041519165,0.9488003849983215,0.181996688246727,0.5989618897438049,0.13072004914283752,-0.01664447784423828
243,-1.6395998729390466,0.01022636706990277,-2.5858411047468137,-0.9975818991661072,-0.010226189158856869,0.0687456876039505,-0.5058054327964783,-0.10832847654819489,0.07830144464969635,-0.09677845239639282,-0.22407251596450806,0.3042095899581909
244,-1.6971188556149246,0.021751623534204022,-2.63498909146544,-0.9917970895767212,-0.021749908104538918,0.12595701217651367,-0.5937474966049194,-1.4650157690048218,-0.31876155734062195,-0.413857638835907,-0.21430356800556183,0.28320738673210144
245,-1.813379399563431,0.026360988067560306,-2.7330696631101743,-0.9703834652900696,-0.02635793574154377,0.24012739956378937,-0.831764280796051,-0.38535407185554504,0.19456660747528076,-0.49745094776153564,0.4138701558113098,-0.6846768856048584
246,-1.813422601307544,0.012726206756747599,-2.7132783391253668,-0.9706315994262695,-0.012725863605737686,0.24023331701755524,0.8673890829086304,0.22900831699371338,0.07169374823570251,0.17570990324020386,-0.07611081004142761,-0.09124653041362762
247,-1.831652695464024,-0.020221949157827306,-2.6710050973372903,-0.9659718871116638,0.020220570266246796,0.25785529613494873,0.7438321709632874,-0.16806147992610931,0.2678185701370239,0.4047536849975586,-0.019457640126347542,-0.15652170777320862
248,-1.8177794906050186,-0.0428618939509032,-2.594505866483371,-0.9687638282775879,0.04284876957535744,0.24425525963306427,0.5406915545463562,-0.029251648113131523,-0.24550388753414154,0.058317720890045166,-0.07177942991256714,0.20458197593688965
249,-1.8497416456739266,-0.01913965390260117,-2.579025999711395,-0.9611701965332031,0.019138485193252563,0.27529144287109375,-0.467203289270401,-0.4626811146736145,-0.3255201280117035,-0.25715261697769165,-0.17551055550575256,0.3341747224330902
250,-1.8194704346075565,-0.0006863772653574334,-2.656957163605929,-0.9692392349243164,0.0006863772287033498,0.24611897766590118,-0.14040005207061768,0.007218925282359123,-0.2109539657831192,-0.32736098766326904,0.287491112947464,-0.11106351017951965
251,-1.7996449858429158,0.007572464371468782,-2.6485973670020826,-0.9739004373550415,-0.007572392001748085,0.22684986889362335,0.10734362155199051,0.2994663119316101,-0.05773800611495972,0.11960655450820923,-0.04270531237125397,-0.11031854152679443
252,-1.7279782239662684,0.011981326804523636,-2.6783046495642187,-0.9876013398170471,-0.011981040239334106,0.15652421116828918,-0.6244059205055237,0.936309278011322,0.13183318078517914,0.5264655947685242,0.040453940629959106,-0.09411586821079254
253,-1.6659337412944737,-0.002878614990060585,-2.7010242732957948,-0.9954737424850464,0.0028786109760403633,0.09499356895685196,-0.31172558665275574,0.2066120207309723,0.027706541121006012,-0.03742420673370361,-0.18886800110340118,0.33002471923828125
254,-1.7205086859323226,0.009629315666690407,-2.749706044683159,-0.9887682795524597,-0.009629166685044765,0.14914681017398834,-0.34794166684150696,-1.7221802473068237,-0.05105556547641754,-0.5104536414146423,-0.20243747532367706,0.36484551429748535
255,-1.8177050087442523,0.0006051498099149289,-2.8080176931758642,-0.9696723818778992,-0.0006051497766748071,0.244407519698143,-0.8160324692726135,0.1300790011882782,0.28623875975608826,-0.22666239738464355,0.28008514642715454,-0.5142897367477417
256,-1.7975314325466385,-0.017472411354538246,-2.8076769242480037,-0.9742567539215088,0.017471522092819214,0.22476306557655334,0.5599203109741211,0.3104594051837921,0.2377164512872696,0.16399985551834106,0.1295163929462433,0.010222181677818298
257,-1.8119200716403814,-0.07243053403871601,-2.786923652504729,-0.9685242176055908,0.07236722111701965,0.2381679266691208,0.35183408856391907,-0.36643531918525696,0.6962295770645142,0.4039337635040283,-0.10891202092170715,-0.013100743293762207
258,-1.768544393809796,-0.12634378829783968,-2.7332059001863986,-0.9726961851119995,0.12600792944431305,0.19489586353302002,1.0174705982208252,0.06633030623197556,-0.06585167348384857,0.051355183124542236,-0.01597680151462555,0.19105994701385498
259,-1.7957811891924478,-0.12261931456748676,-2.6751891506271335,-0.9674782752990723,0.1223122701048851,0.22141653299331665,0.3059943914413452,-0.3716103434562683,-0.7285297513008118,-0.031468749046325684,0.0751669704914093,0.17125317454338074
260,-1.7548993729729747,-0.050331151137408714,-2.7609305410005454,-0.9818558692932129,0.05030990391969681,0.1828329861164093,-1.3970140218734741,0.9209660291671753,0.18642480671405792,-0.26806777715682983,0.2964307963848114,-0.5544912815093994
261,-1.7599982791536688,-0.01278822089653992,-2.813147247954183,-0.982074499130249,0.01278787199407816,0.18805979192256927,0.036706797778606415,0.13156963884830475,-0.2627100348472595,-0.028240561485290527,-0.12208656966686249,-0.2732495963573456
262,-1.71123438339131,-0.0017825073151624365,-2.864613836255894,-0.9901530742645264,0.0017825063550844789,0.1399766355752945,-1.0271223783493042,0.7971415519714355,0.026431629434227943,0.5168102979660034,-0.042386144399642944,-0.041526928544044495
263,-1.6178322220338122,0.0013413398517841367,-2.933141221740663,-0.9988932013511658,-0.0013413394335657358,0.04701851308345795,-0.02510950155556202,0.4489710330963135,0.03331815451383591,0.02480250597000122,-0.10354757308959961,0.17331838607788086
264,-1.6504866905322897,0.009740076476202588,-2.9788256742607517,-0.9967790246009827,-0.009739922359585762,0.07960225641727448,-0.6649271845817566,-1.5272903442382812,0.039016835391521454,-0.4295971989631653,-0.05152411758899689,0.4339933395385742
265,-1.7698064329041352,-0.0006255827521117767,-3.08887140417231,-0.9802626371383667,0.0006255827029235661,0.19769905507564545,-0.756955087184906,0.006073388736695051,0.2125229388475418,-0.3201982378959656,0.3375854790210724,-0.7913422584533691
266,-1.7700398626668365,-0.009011622902577551,-3.0848215601801994,-0.9801768064498901,0.009011500515043736,0.19791986048221588,0.20265822112560272,0.13854622840881348,0.24190722405910492,0.17367351055145264,0.01576877199113369,0.1384754180908203
267,-1.803267327174563,-0.04843171567561142,-3.103395919917176,-0.9719592332839966,0.048412784934043884,0.23011264204978943,0.32659873366355896,-0.27385249733924866,0.4569260776042938,0.37689679861068726,-0.027492977678775787,-0.23885592818260193
268,-1.8053141242238162,-0.08402010035345063,-3.0288153959440307,-0.9691953659057617,0.08392128348350525,0.23155426979064941,0.8245154023170471,-0.6508221626281738,-0.10943444818258286,0.03639519214630127,-0.11938271671533585,0.3366524875164032
269,-1.8525220544494982,-0.075494315278102,-3.002607536146434,-0.9578410983085632,0.07542262226343155,0.2772218883037567,-0.30224770307540894,-0.42662087082862854,-0.6282379031181335,-0.12745553255081177,0.030534401535987854,0.2862546443939209
270,-1.7984905656473402,-0.0531914679500865,-3.075149052269917,-0.9728115797042847,0.05316638946533203,0.22541260719299316,-0.2712338864803314,-0.3989650011062622,-0.07926041632890701,-0.20914942026138306,0.34661388397216797,-0.4464973211288452
271,-1.794165549898861,-0.03572736349327331,-3.043879769120001,-0.9745343923568726,0.03571976348757744,0.22137504816055298,0.23016570508480072,0.3927878737449646,-0.0002442607074044645,0.12945687770843506,-0.21809281408786774,0.029067516326904297
272,-1.7410830146788359,-0.020801864043168555,-3.077397416066661,-0.9853229522705078,0.020800363272428513,0.16942822933197021,-0.7165531516075134,0.7430168986320496,-0.01647200807929039,0.5443592667579651,0.01624797284603119,-0.1751045137643814
273,-1.6790930334832161,-0.027188674791452535,-3.0880885598208367,-0.9937740564346313,0.02718532457947731,0.10804518312215805,-0.002298389095813036,0.05554128438234329,0.04611874744296074,-0.08033770322799683,-0.2058962732553482,0.4142173230648041
274,-1.7700640354805943,-0.008957018929396274,-3.1054316116510483,-0.9801726341247559,0.00895689893513918,0.19794367253780365,-0.6232242584228516,-2.1660854816436768,0.235581174492836,-0.6955477595329285,-0.2399902194738388,0.40491583943367004
275,-1.857158059624099,-0.03854685595255885,3.1145734985527542,-0.9585654139518738,0.03853731229901314,0.2822542190551758,0.5139884352684021,0.22336672246456146,-0.15271249413490295,-0.052253127098083496,0.39713165163993835,-0.6828126907348633
276,-1.8362349716423625,-0.05903079360175265,-3.0730617325427665,-0.96329665184021,0.05899651721119881,0.26187562942504883,0.8005478382110596,0.1253732442855835,0.04737818241119385,0.38753682374954224,-0.1581786572933197,-0.004490405321121216
277,-1.8348053676467713,-0.08366509792850495,-3.0013106922508674,-0.9619750380516052,0.08356752246618271,0.2600400447845459,0.81564861536026,0.05640650540590286,0.05901966616511345,0.3175962567329407,-0.0023907646536827087,-0.07559177279472351
278,-1.8230562358685625,-0.09947182437649224,-2.9206704277746582,-0.963563859462738,0.09930786490440369,0.24835914373397827,0.8563011884689331,-0.5241144299507141,-0.15730687975883484,-0.12292277812957764,-0.09485231339931488,0.38402602076530457
279,-1.8556808933936577,-0.09309497666059663,-2.871377926692356,-0.9555383920669556,0.09296056628227234,0.2798296809196472,0.06361658126115799,-0.7974603772163391,-0.6530839800834656,-0.024167418479919434,-0.05890294909477234,0.3410656452178955
280,-1.8033547020751461,-0.05962537452934894,-2.913007590555326,-0.9713509678840637,0.05959004908800125,0.23005828261375427,0.12059764564037323,-0.7775754332542419,-0.18554027378559113,-0.22261887788772583,0.28449565172195435,-0.7301497459411621
281,-1.7934642732142634,-0.030040817259171338,-2.8712433570812346,-0.9748718738555908,0.03003629855811596,0.2207328826189041,0.2598135471343994,0.3218982517719269,-0.2164386510848999,0.06143486499786377,-0.11901029944419861,-0.024398058652877808
282,-1.7335576912242237,-0.01338101257056286,-2.882036395342334,-0.9866951704025269,0.013380613178014755,0.1620291769504547,-0.3615967631340027,0.6982718110084534,-0.1536152958869934,0.5347451567649841,-0.03440722078084946,-0.12038791179656982
283,-1.6577250935053645,-0.014977279598360859,-2.891939147095054,-0.9961124658584595,0.01497671939432621,0.08680959790945053,-0.03834868595004082,0.5524194240570068,0.09916277229785919,0.027789592742919922,-0.12168142944574356,0.21847307682037354
284,-1.6431465579936222,-0.002886664145974026,-2.914057709760389,-0.9973796010017395,0.0028866601642221212,0.07228682190179825,-0.03689916059374809,-0.7141303420066833,0.09077931195497513,-0.30767399072647095,0.057721249759197235,0.5343263149261475
285,-1.7869712199756433,-0.016567363207467885,-2.9709578857586334,-0.9765912890434265,0.016566606238484383,0.21446573734283447,-0.5454879403114319,-0.8967012166976929,0.501419723033905,-0.1604176163673401,-0.036921825259923935,-0.5413699746131897
286,-1.7993136015680524,-0.025396993101952054,-2.971213254299687,-0.9736891984939575,0.025394262745976448,0.2264605164527893,0.44713082909584045,0.05519486963748932,0.011027290485799313,-0.002384960651397705,0.3379938006401062,-0.30795779824256897
287,-1.7990947569771418,-0.052698874278397916,-2.9318635630518837,-0.972700834274292,0.05267448350787163,0.22600628435611725,0.3046930730342865,-0.6176221966743469,0.3640236258506775,0.44233572483062744,-0.16363638639450073,0.10254600644111633
288,-1.818111745243255,-0.1010333468289067,-2.8772256577009245,-0.9646288156509399,0.1008615493774414,0.24355359375476837,0.9943024516105652,0.10432030260562897,0.04523821920156479,0.19566214084625244,0.02230740338563919,-0.12166643142700195
289,-1.8477452259357594,-0.10620372551973221,-2.7948274018190684,-0.9564744830131531,0.10600418597459793,0.2718815207481384,0.45822247862815857,-0.6152904629707336,-0.19447007775306702,-0.22484564781188965,-0.18547198176383972,0.31477317214012146
290,-1.8706345386993612,-0.06535315362924535,-2.7514500998845963,-0.9533448219299316,0.0653066411614418,0.2947351336479187,-0.46762508153915405,1.779470443725586,-0.14470328390598297,-0.27018117904663086,0.1180124580860138,-0.16659188270568848
291,-1.7988304556329497,-0.04645540053986518,-2.733678167091919,-0.9730618000030518,0.04643869400024414,0.22581909596920013,0.1788347065448761,0.5880622863769531,-0.5607849955558777,-0.37834811210632324,0.07474660873413086,-0.48402833938598633
292,-1.765100128192426,-0.013318157592488215,-2.69668788014769,-0.9810952544212341,0.013317763805389404,0.19306634366512299,-0.19240882992744446,0.6475990414619446,-0.29668641090393066,0.3170785903930664,-0.0967375636100769,0.06149612367153168
293,-1.7011962877423992,0.00825690521493034,-2.7387704315687293,-0.9914761781692505,-0.008256811648607254,0.13002629578113556,-0.27475935220718384,0.5916574001312256,-0.029178950935602188,0.2938443422317505,0.07499875128269196,-0.16127634048461914
294,-1.6719329537916126,-0.0017443514611766705,-2.755668154639737,-0.9948886036872864,0.00174435053486377,0.10096415132284164,-0.5811157822608948,-0.16603899002075195,-0.04160291329026222,-0.14862030744552612,-0.2306414395570755,0.35832536220550537
295,-1.7112446619508555,0.00980480735352309,-2.8144549509227383,-0.9901057481765747,-0.009804650209844112,0.13998031616210938,-0.4617065489292145,-0.9667482972145081,-0.007802987936884165,-0.3953007459640503,-0.11060245335102081,0.3808021545410156
296,-1.7997752358153094,-0.02083222653005527,-2.8725792908793473,-0.9736875891685486,0.02083072066307068,0.226934015750885,-0.07732491940259933,-0.1561342179775238,0.43698635697364807,-0.13619118928909302,0.05497495085000992,-0.721455991268158
297,-1.8013302769099657,-0.04343877024478917,-2.8610745498208257,-0.9726260900497437,0.04342510923743248,0.22828181087970734,0.5900825262069702,0.061003994196653366,0.11143399029970169,0.0441594123840332,0.12054583430290222,-0.1412762701511383
298,-1.8088608011358855,-0.06767517578750137,-2.8303911211884007,-0.9695718288421631,0.06762353330850601,0.23528234660625458,0.3890087902545929,-0.4381271302700043,0.242096945643425,0.32903826236724854,-0.12720909714698792,-0.06090483069419861
299,-1.8072569747158032,-0.10428083109644515,-2.7838451530917263,-0.9668920040130615,0.10409193485975266,0.23299063742160797,0.6776220202445984,0.34000924229621887,0.18201614916324615,0.1047704815864563,0.05972640961408615,-0.024647250771522522
300,-1.824241077022959,-0.09206420195333617,-2.74856219812892,-0.9639546871185303,0.0919342041015625,0.24967825412750244,0.02434835210442543,-0.2891010046005249,-0.37991705536842346,-0.023609280586242676,-0.128936767578125,0.29101690649986267
301,-1.8460434964249535,-0.008729180895938908,-2.7471197052355385,-0.9623213410377502,0.00872907042503357,0.27177444100379944,-0.6010531783103943,0.11380553990602493,-0.8570178747177124,-0.21080482006072998,-0.013611883856356144,0.15507492423057556
302,-1.7666000265561677,0.03632558300887481,-2.8105766648525803,-0.9802445769309998,-0.03631759434938431,0.19442661106586456,-0.40006765723228455,0.2166130244731903,-0.28965675830841064,-0.13991838693618774,0.3987596035003662,0.017014384269714355
303,-1.723392991794787,0.046528893343517515,-2.8532448641892247,-0.987309992313385,-0.04651210829615593,0.15184061229228973,-0.7379181385040283,0.42130276560783386,0.18098416924476624,0.04976421594619751,-0.04339268058538437,0.0876612663269043
304,-1.680921605021779,0.04460236322388461,-2.948564494128601,-0.9929537773132324,-0.044587574899196625,0.1097935140132904,-1.0961624383926392,0.38471174240112305,0.16558212041854858,0.3201938271522522,-0.04859783872961998,-0.00194443017244339
305,-1.6313167863597875,0.032875978095611436,-3.02991586636781,-0.9976299405097961,-0.032870057970285416,0.06045084446668625,-0.35621339082717896,0.3532869815826416,0.2551881670951843,0.1685282588005066,-0.015652894973754883,0.09779799729585648
306,-1.6601191491427671,0.011627308217523122,-3.0821761416131763,-0.9959460496902466,-0.011627046391367912,0.08919806033372879,-0.6718145608901978,-0.8298583626747131,0.26166802644729614,-0.20485961437225342,-0.08766189217567444,0.21608448028564453
307,-1.7619449397115976,-0.013859121568955851,3.1186310230182155,-0.9816924929618835,0.013858677819371223,0.18996848165988922,-0.38542723655700684,0.17684286832809448,0.5407876372337341,-0.6099671721458435,0.060665249824523926,-0.47483476996421814
308,-1.7535357653407595,-0.051574574007740424,-3.109048590771578,-0.9820420742034912,0.05155171453952789,0.1814824491739273,1.2123078107833862,-0.24657244980335236,0.017379578202962875,-0.06538224220275879,-0.1630019098520279,0.006307482719421387
309,-1.789037345848902,-0.08141241931756646,-3.032755792493204,-0.9730462431907654,0.08132251352071762,0.2157955765724182,0.6693031787872314,-0.10096052289009094,0.18436434864997864,0.4387292265892029,-0.0027245059609413147,-0.10983850061893463
310,-1.783126993764241,-0.09402941585093265,-2.956842153985779,-0.9732240438461304,0.09389091283082962,0.2098078429698944,0.6977874636650085,-0.12333223968744278,-0.30535274744033813,0.18806785345077515,0.04183600842952728,-0.024703502655029297
311,-1.7951969329764805,-0.07873931941568889,-2.9014236773936846,-0.9719069004058838,0.07865798473358154,0.22183255851268768,0.2927306294441223,-0.4607890248298645,-0.143978551030159,-0.07661592960357666,-0.23210036754608154,0.42515525221824646
312,-1.8584356564621867,-0.05796100233593738,-2.8764118567995864,-0.957305908203125,0.057928554713726044,0.28321292996406555,-0.2616320848464966,-0.2950267493724823,-0.029806412756443024,-0.3479155898094177,-0.19762276113033295,0.16753169894218445
313,-1.7971390640405676,-0.05227058188503903,-2.89550737339264,-0.9731626510620117,0.052246782928705215,0.2241085320711136,0.06553704291582108,0.6641664505004883,-0.23052978515625,-0.3783387541770935,0.1520836502313614,-0.4947688579559326
314,-1.7472611579372703,-0.03258044967125492,-2.8619364543664045,-0.9839479923248291,0.03257468715310097,0.17545723915100098,0.05909615010023117,0.6375067234039307,-0.11674901843070984,0.1416780948638916,-0.11958029866218567,0.22177480161190033
315,-1.7021219063033903,-0.021912830204632108,-2.9058695162817774,-0.9911512136459351,0.021911077201366425,0.13091698288917542,-0.5386035442352295,0.3412715494632721,0.10165727138519287,0.5499280691146851,0.0041509345173835754,-0.07265889644622803
316,-1.6645983917003857,-0.03304205532316465,-2.9279761707205543,-0.9950604438781738,0.033036042004823685,0.09361344575881958,-0.24294349551200867,0.23004665970802307,0.1562705785036087,0.08328676223754883,-0.17538529634475708,0.27566444873809814
317,-1.6938790321846782,-0.021350094929241503,-2.9957394213920066,-0.9922088384628296,0.02134847268462181,0.12274420261383057,-1.0460796356201172,-1.3595234155654907,-0.04724657163023949,-0.07792067527770996,-0.1886000633239746,0.43664300441741943
318,-1.8269103097572628,-0.007211045416765088,-3.1311627666001307,-0.9673565626144409,0.007210982963442802,0.25331661105155945,-0.7633935809135437,-0.26971670985221863,0.5987838506698608,-0.5552874803543091,0.37042880058288574,-0.6670892238616943
319,-1.813651709972373,-0.026575860008153165,-3.118759981766655,-0.9703125357627869,0.026572732254862785,0.24039028584957123,0.9308633804321289,0.1570282131433487,0.04561023786664009,-0.10379940271377563,0.07750746607780457,-0.03929471969604492
320,-1.8342080609686688,-0.05864721869023517,-3.093811635170044,-0.9638474583625793,0.0586136057972908,0.25992849469184875,-0.01583785191178322,-0.38163328170776367,0.3382166028022766,0.6136428713798523,-0.1483047604560852,-0.05005905032157898
321,-1.8440981793147924,-0.07307119261311781,-2.993882539073246,-0.9603155255317688,0.07300618290901184,0.2691919505596161,1.7541311979293823,-0.2558177709579468,-0.5688990354537964,0.2613409161567688,-0.01802876591682434,0.03772330284118652
322,-1.8516187926180498,-0.04882556493372673,-2.896968537511322,-0.959682822227478,0.048806168138980865,0.2768157124519348,0.7082449793815613,-1.2700310945510864,-0.32220658659935,-0.20018351078033447,0.01895812153816223,0.65097975730896
323,-1.878700640920577,-0.018366269021720574,-2.9027199788081326,-0.9528100490570068,0.01836523599922657,0.30301105976104736,-0.8945655226707458,1.7569808959960938,0.2523050904273987,-0.2083532214164734,0.23093286156654358,-0.14558613300323486
324,-1.8541895715261403,-0.006599134183989427,-2.87346237968961,-0.9600911736488342,0.006599086336791515,0.2796090543270111,0.3537050187587738,0.5125351548194885,-0.3054623007774353,-0.2675851583480835,0.04422794282436371,-0.2579110860824585
325,-1.7920708850031923,0.005556751157514847,-2.892248341307485,-0.9756034016609192,-0.005556722637265921,0.21946988999843597,-0.60865718126297,0.7530072927474976,0.06119075044989586,0.5145896673202515,0.10289254039525986,0.010525807738304138
326,-1.7173499528494653,0.012851372830225876,-2.9625958974296736,-0.9891987442970276,-0.012851019389927387,0.14601755142211914,-0.28118377923965454,0.5755332708358765,0.18727415800094604,0.394548237323761,0.022387754172086716,-0.04549261927604675
327,-1.7026241450578417,0.007343589943126109,-2.9958049532236197,-0.9912965297698975,-0.007343524135649204,0.13144277036190033,-0.3798552453517914,-0.6289425492286682,-0.08805009722709656,-0.20703715085983276,-0.14921164512634277,0.464306116104126
328,-1.808451917123839,0.035054789232327487,-3.0524893022411543,-0.9712955951690674,-0.035047609359025955,0.23528015613555908,-0.8892562985420227,-1.1143574714660645,0.06050959974527359,-0.35913360118865967,-0.10237304866313934,-0.057667821645736694
329,-1.8587499969740553,0.03338766449652124,-3.1354837950118655,-0.9582927227020264,-0.03338146209716797,0.28383249044418335,0.11303332448005676,0.014314430765807629,0.06359492987394333,-0.41824841499328613,0.43604564666748047,-0.4194220304489136
330,-1.8458614301592848,0.006924077577703123,-3.0844356314523336,-0.9623842835426331,-0.006924022454768419,0.2716030478477478,0.11563323438167572,0.3001503050327301,0.2361505925655365,0.4278995990753174,-0.20497478544712067,0.0629153847694397
331,-1.8426780275153924,-0.018882711480457177,-3.052749542345522,-0.9630955457687378,0.01888158917427063,0.26849663257598877,0.8801167011260986,0.19119855761528015,-0.13836398720741272,0.4287480115890503,0.0016719996929168701,-0.19259941577911377
332,-1.8214282796794372,-0.0032854389632047945,-2.975590224069699,-0.9687507152557373,0.003285433165729046,0.248014897108078,0.25352877378463745,0.368900865316391,-0.32393118739128113,-0.1419823169708252,-0.11552909016609192,0.2569594383239746
333,-1.858379519579103,0.03379720696892921,-2.9424711734522666,-0.9583846926689148,-0.03379077464342117,0.28347358107566833,0.0024857844691723585,-0.5079456567764282,-0.46680471301078796,-0.24968427419662476,-0.10985547304153442,0.007938891649246216
334,-1.8580887205615202,0.046607848816606054,-2.9040233455616855,-0.9579730033874512,-0.04659097641706467,0.2830488681793213,0.7711760401725769,0.20339959859848022,-0.35593095421791077,-0.5052531361579895,0.09781473875045776,-0.38525229692459106
335,-1.8150441994798239,0.05442174189362747,-2.8408125561755133,-0.9688830375671387,-0.054394882172346115,0.24146859347820282,-0.09336452186107635,0.8428522348403931,-0.10035198926925659,0.21937119960784912,-0.01379665732383728,-0.04626283049583435
336,-1.716445850202122,0.059797236730414066,-2.881209558674659,-0.9876434803009033,-0.05976160615682602,0.14487570524215698,-0.4376033544540405,0.7878267765045166,0.04521649330854416,0.4586975574493408,0.15912684798240662,0.003760099411010742
337,-1.6962662624443543,0.04432221325538773,-2.918145886924457,-0.9911645650863647,-0.04430770501494408,0.12501809000968933,-0.40040355920791626,-0.7899083495140076,0.2235347181558609,-0.11848503351211548,-0.04693985730409622,0.3251771926879883
338,-1.7932182582562737,0.02464943917056938,-3.0232379634438478,-0.9750698804855347,-0.0246469434350729,0.2205255627632141,-1.8597815036773682,-0.7863290309906006,0.7802419066429138,0.08380389213562012,-0.0031393133103847504,-0.09035274386405945
339,-1.8043004575027095,-0.024619599588599182,-3.129746137388202,-0.9725668430328369,0.024617113173007965,0.23131787776947021,0.3100566864013672,-0.19547167420387268,0.46370387077331543,-0.5216654539108276,0.10839375853538513,-0.08420786261558533
340,-1.807502801608652,-0.04744606335744801,-3.1004664101119137,-0.9710217118263245,0.04742826521396637,0.23423834145069122,0.5055032968521118,0.633185625076294,-0.2728300988674164,-0.6428700089454651,-0.24132168292999268,0.7812492847442627
341,-1.7979236887788272,0.013775103733724228,-3.110192565223547,-0.974224865436554,-0.013774667866528034,0.225158229470253,-0.6452645659446716,0.0493229404091835,-0.9569037556648254,0.7612274289131165,0.0035360194742679596,-0.26341211795806885
342,-1.6638379204390232,0.11741377223441807,3.0979415520358704,-0.9888196587562561,-0.11714418232440948,0.09226775169372559,-0.35711953043937683,1.626517653465271,0.1174824982881546,1.3935282230377197,0.3788781762123108,-0.6114327907562256
343,-1.755945707946812,0.10041790019740778,-2.9872493762174166,-0.9779572486877441,-0.10024922341108322,0.18316596746444702,2.01815128326416,-0.17282997071743011,-0.588828444480896,-1.1207671165466309,-0.7739573121070862,0.7066655158996582
344,-1.7394892512914073,0.11860549048839304,-2.9097799327390828,-0.9788793921470642,-0.11832761019468307,0.16671445965766907,0.27304279804229736,-0.2853257358074188,0.0670001283288002,-0.11346673965454102,0.25316953659057617,0.34436333179473877
345,-1.7514532348737284,0.061492777225889986,-2.956792802033232,-0.9818664193153381,-0.061454031616449356,0.17933620512485504,-1.0922569036483765,0.3670683205127716,0.8412095308303833,0.9175049662590027,0.20242998003959656,-0.25958216190338135
346,-1.8058102218576086,0.022818859448486817,-3.0821060864937517,-0.9722580909729004,-0.02281687967479229,0.23279592394828796,-0.13572892546653748,-2.7144935131073,0.8839918971061707,0.33442533016204834,0.35301706194877625,-0.8619920015335083
347,-1.8611867040267236,-0.00214870517260574,-3.1189559927803714,-0.9581298828125,0.0021487034391611814,0.286325603723526,-0.05341072380542755,-0.22998254001140594,0.11589592695236206,-0.6127928495407104,-0.21932704746723175,0.6171014904975891
348,-1.8225140421297399,0.00994236956377034,3.104775375395784,-0.9684379696846008,-0.009942205622792244,0.24905554950237274,-0.7466278672218323,0.7458091974258423,-0.1526898890733719,0.44982248544692993,-0.04424174875020981,-0.059312522411346436
349,-1.7246234141071166,0.04851945291564621,3.0838805810384464,-0.987028956413269,-0.0485004186630249,0.1530408263206482,0.38346409797668457,0.8485694527626038,-0.5033801198005676,1.111922264099121,0.0817950963973999,-0.3582257032394409
350,-1.7686852075696313,0.03217193783448931,-3.0643404524741573,-0.9799763560295105,-0.032166387885808945,0.1964980959892273,2.08687424659729,0.6098536849021912,-0.4277741611003876,-1.4670603275299072,-0.5663290619850159,0.7840316295623779
351,-1.7447097695980527,0.04924066154713596,-2.936459598356862,-0.9837212562561035,-0.04922076687216759,0.1728283166885376,0.7855352759361267,-0.08621649444103241,-0.07491125166416168,-0.06760919094085693,-0.025226861238479614,0.3153461217880249
352,-1.7266762809339085,0.025928692928086756,-2.9112362590056473,-0.9875433444976807,-0.025925787165760994,0.15519727766513824,-0.06227615848183632,0.1944015473127365,0.16770631074905396,0.9147435426712036,0.17828479409217834,-0.31440746784210205
353,-1.8030359331602397,0.014547530303002,-2.961585707863185,-0.9730503559112549,-0.014547017402946949,0.23013320565223694,-0.614199161529541,-1.8811607360839844,0.7432878017425537,0.6154912114143372,0.22968068718910217,-0.27709975838661194
354,-1.8621327322886578,-0.012607561374146179,-3.067061714655703,-0.9577846527099609,0.012607227079570293,0.28720971941947937,-1.0032029151916504,0.04795733466744423,0.19311532378196716,-0.7927645444869995,0.19387470185756683,0.5726840496063232
355,-1.8455995707544894,0.017872044453577034,-3.1217889025263856,-0.962324857711792,-0.01787109300494194,0.27131423354148865,-1.046765923500061,0.23438303172588348,-0.07449078559875488,0.31361275911331177,-0.11356811225414276,0.19949576258659363
356,-1.8111881045752405,0.060316234021647736,3.075514479748641,-0.9694786071777344,-0.060279667377471924,0.23765021562576294,-0.4674162268638611,0.9165697693824768,-0.3196016252040863,1.0396842956542969,0.006767097860574722,-0.6231329441070557
357,-1.8534434527111796,0.07405779469581944,-3.1399604012667455,-0.9576880931854248,-0.0739901140332222,0.27813419699668884,1.2567890882492065,1.1357935667037964,-0.3913184404373169,-3.240218162536621,-0.08164951205253601,0.6965208649635315
358,-1.7967328242266996,0.06409643826022601,-3.0037498164123537,-0.972583532333374,-0.06405255943536758,0.2235591560602188,0.7263731956481934,0.7386073470115662,-0.4179782569408417,-0.46583205461502075,0.059795357286930084,0.45309188961982727
359,-1.8012408622500005,0.04704412443854797,-2.9795299049046062,-0.9724876880645752,-0.04702677205204964,0.22815759479999542,-0.28537222743034363,0.24976447224617004,0.2130821943283081,0.6804651618003845,0.09779277443885803,-0.05875462293624878
360,-1.7797525050619165,0.06764160374950944,-3.0626799546826424,-0.9760111570358276,-0.06759003549814224,0.20696456730365753,-1.0728036165237427,-0.985567033290863,0.12706835567951202,1.2676368951797485,0.37470367550849915,-0.4213046431541443
361,-1.9071355299190895,0.026063248700453838,3.0839305901759504,-0.9436484575271606,-0.026060298085212708,0.32992151379585266,-1.5863454341888428,0.342733770608902,0.8723447322845459,-1.0052649974822998,0.03951855003833771,0.5080912113189697
362,-1.8856235957635397,0.04135445009573873,3.033004313942097,-0.9500370025634766,-0.04134266451001167,0.3093875050544739,-0.5032877922058105,0.5956440567970276,-0.3436577618122101,-0.03767967224121094,-0.45224863290786743,0.3925473690032959
363,-1.8604165843906997,0.08766162139506678,2.9679058412223083,-0.9546725749969482,-0.08754938840866089,0.28449174761772156,-0.6938824653625488,0.27812308073043823,-0.3791647255420685,0.8660951852798462,-0.08249454945325851,-0.36412736773490906
364,-1.816510522619003,0.10278362851759971,2.9881964811940813,-0.9648446440696716,-0.1026027500629425,0.24196533858776093,1.900130033493042,-2.2448010444641113,1.0628306865692139,0.6010599732398987,0.1425502747297287,-0.8486853837966919
365,-1.8395710942506913,0.08205972366516436,-3.135351541227666,-0.9608527421951294,-0.08196765929460526,0.26465681195259094,1.0955240726470947,0.20882759988307953,-0.290212482213974,-0.7640770077705383,-0.16102856397628784,0.2567511796951294
366,-1.8095042756444288,0.06610380509556116,-3.0835743990539357,-0.9695222973823547,-0.06605567038059235,0.23593102395534515,-0.06726566702127457,0.2025585025548935,0.48626312613487244,0.3745819926261902,0.13508641719818115,0.29866066575050354
367,-1.7837377666103593,0.030702982304220364,-3.131212268255442,-0.976952850818634,-0.030698157846927643,0.21123620867729187,-0.8295865058898926,0.22674152255058289,0.09767679870128632,0.9780362248420715,0.17561088502407074,-0.39536404609680176
368,-1.9222776299920805,-0.017226434175514435,3.102267404008684,-0.9387244582176208,0.017225582152605057,0.3442378342151642,0.6967055201530457,-3.329641342163086,0.3770690858364105,-0.8372460007667542,0.13816992938518524,-1.6145015954971313
369,-1.9022844455144017,-0.02168272781165828,2.994886913118754,-0.9453368186950684,0.021681029349565506,0.3253740072250366,-0.23671835660934448,-0.05028964579105377,-0.275811105966568,-0.37729495763778687,0.06894092261791229,0.152714341878891
370,-1.8619203046415587,0.006746544930535105,2.9737516791024405,-0.9579001665115356,-0.006746493745595217,0.28702259063720703,-0.4274270832538605,0.20878185331821442,-0.28768372535705566,0.5555105209350586,-0.22953586280345917,0.09778884053230286
371,-1.8216419221280395,0.07017000639270952,2.962132290602006,-0.9663189649581909,-0.0701124370098114,0.24761231243610382,0.0650852620601654,-0.07071798294782639,-0.6498470306396484,1.015528678894043,0.1547681987285614,-0.38985466957092285
372,-1.8186943691609596,0.057295244177305575,3.0513834178760053,-0.967839777469635,-0.05726390331983566,0.24496422708034515,1.4444471597671509,0.5630709528923035,-0.256658673286438,-1.2345073223114014,-0.22065970301628113,0.4437565207481384
373,-1.761815507802929,0.07253622133030724,-3.126768683826006,-0.9792295098304749,-0.07247263193130493,0.1893603801727295,0.7067849636077881,0.4142724871635437,0.10329724848270416,0.12402009963989258,0.12648874521255493,0.423844575881958
374,-1.7489920667452865,0.030471257124657605,-3.1389498479993367,-0.9837082624435425,-0.030466541647911072,0.17717188596725464,-0.8248730897903442,0.3972674310207367,0.35496729612350464,0.8298081159591675,0.11348961293697357,-0.2614920139312744
375,-1.7938874014472377,0.048132273290158664,3.030140385797704,-0.9740889072418213,-0.048113688826560974,0.2209889441728592,-0.9523930549621582,-2.9836206436157227,1.074288010597229,0.684644877910614,0.3025387227535248,-0.6411702632904053
376,-1.8598258168119528,-0.004125091109022998,2.93505388475448,-0.9585129022598267,0.004125079605728388,0.28501972556114197,-0.7283669114112854,-0.619276225566864,0.09033393114805222,-0.6069931983947754,0.22211699187755585,0.5923606157302856
377,-1.8526855095925867,0.005815964198688503,2.879904199340885,-0.960515558719635,-0.005815931595861912,0.27816611528396606,-0.8826491832733154,0.27102088928222656,0.10631513595581055,0.34196990728378296,-0.26955944299697876,0.2032335102558136
378,-1.8011609376281357,0.05572127426167909,2.848054626710364,-0.972072184085846,-0.05569244548678398,0.22797814011573792,0.18255086243152618,0.9051080942153931,-0.7047038674354553,1.0276751518249512,-0.05710052698850632,-0.4885983467102051
379,-1.7728286189887006,0.08277355435932275,2.943140261404305,-0.9763066172599792,-0.08267906308174133,0.1999736726284027,2.0722734928131104,1.5981805324554443,-0.3309207856655121,-1.796154260635376,0.17845848202705383,0.1386645883321762
380,-1.7024681178065406,0.09921419268458984,3.071514503377303,-0.9864687919616699,-0.09905150532722473,0.1306460052728653,0.6729562878608704,0.4258716106414795,-0.19906948506832123,-0.3241698145866394,-0.08889102190732956,0.44404566287994385
381,-1.6863462542050975,0.07357431387819896,3.096048686166726,-0.9906442761421204,-0.07350794970989227,0.11498107016086578,-0.3112214505672455,-0.20347906649112701,0.4600691497325897,0.7315958142280579,0.20432156324386597,-0.01180112361907959
382,-1.7401018853658852,0.05127601690760799,3.0173782423886504,-0.984406590461731,-0.0512535497546196,0.16827644407749176,-1.1845606565475464,-1.6462953090667725,0.5346896052360535,1.003678321838379,0.3035423755645752,-0.25424444675445557
383,-1.841417436164793,0.008075216806249405,2.8625492205287593,-0.9635736346244812,-0.008075129240751266,0.26732128858566284,-1.3239179849624634,-0.13141492009162903,0.6609727740287781,-0.8242071270942688,0.18233050405979156,0.6289952993392944
384,-1.8738277673497217,-0.0005885065334658194,2.8203694090125384,-0.9544361233711243,0.0005885065183974802,0.29841485619544983,-0.8101096153259277,0.18664221465587616,0.2819472849369049,0.11343270540237427,-0.6507350206375122,0.37854135036468506
385,-1.8295060586963034,0.030238944387819787,2.7802328686609563,-0.9662789702415466,-0.030234336853027344,0.2557165026664734,-0.26179590821266174,0.8355928063392639,-0.6363371014595032,0.9771279692649841,-0.12261295318603516,-0.27613282203674316
386,-1.7377173911183814,0.022480282379314872,2.8170618729573906,-0.9858519434928894,-0.022478388622403145,0.16610503196716309,0.45810025930404663,-0.41551968455314636,0.4947219491004944,0.37533241510391235,-0.093274787068367,-0.6098612546920776
387,-1.7283375447239626,0.04993796314084251,2.990166510052184,-0.986384928226471,-0.04991720989346504,0.15669478476047516,1.54270601272583,0.618405282497406,-0.7446637153625488,-0.8567242622375488,-0.11251260340213776,0.22604145109653473
388,-1.6724287391093435,0.059205936331632035,3.0680238233812247,-0.9930967688560486,-0.05917135253548622,0.10127976536750793,0.09424874186515808,0.7625356912612915,0.2609790861606598,0.4932188391685486,0.16114583611488342,0.15280961990356445
389,-1.66564542913584,0.04949660867798926,3.0226907290372194,-0.994286060333252,-0.04947640001773834,0.09459096938371658,-0.8294472694396973,-0.7576409578323364,0.05801668390631676,1.123466968536377,0.30287909507751465,-0.22195613384246826
390,-1.8015254320964789,0.035830710800445364,2.8773457909503724,-0.9728751182556152,-0.035823043435811996,0.2285405993461609,-1.8504256010055542,0.1798597127199173,1.1418993473052979,-1.5932106971740723,0.1068527102470398,-0.06650757789611816
391,-1.863951273137784,0.004758602292016341,2.819963348553085,-0.9573262333869934,-0.004758584313094616,0.2889707684516907,-0.8931464552879333,0.06333042681217194,0.43848884105682373,-0.06334954500198364,-0.7082846164703369,0.44079604744911194
392,-1.842252305053489,0.007488952275985331,2.745491059256977,-0.9633544683456421,-0.007488882169127464,0.26812684535980225,-0.41357946395874023,0.5922651290893555,-0.35584530234336853,0.9280151724815369,-0.17436537146568298,-0.25898683071136475
393,-1.7853348110366765,0.044005455078565965,2.7642485678225475,-0.9761290550231934,-0.04399125277996063,0.21269045770168304,0.3483521640300751,0.7099211812019348,1.756456732749939,0.7253049612045288,-0.014571983367204666,-0.41465577483177185
394,-1.7560969949355107,0.0337399666246757,2.903614119888613,-0.9823213815689087,-0.033733565360307693,0.18413718044757843,0.5252635478973389,0.7376366853713989,-0.9927932620048523,-0.9894802570343018,-0.2329595535993576,0.614568829536438
395,-1.7109196262123079,0.036031467875545294,2.9552866554230315,-0.9895561933517456,-0.03602367267012596,0.1395745724439621,-0.03874455764889717,0.7058476805686951,0.35046473145484924,0.544823408126831,0.035657454282045364,0.17461921274662018
396,-1.6983626401929908,0.018509151157149968,2.921077841061705,-0.9917045831680298,-0.018508093431591988,0.12719883024692535,-0.871870756149292,-0.7975886464118958,0.2001383751630783,1.1362816095352173,0.27883830666542053,-0.19670259952545166
397,-1.8334364427399095,-0.02241684677809439,2.787820384335195,-0.965465247631073,0.02241496928036213,0.2595658004283905,-1.1098357439041138,0.3826470971107483,1.133354902267456,-1.7283518314361572,0.05256672203540802,-0.2625412046909332
398,-1.8785549107995083,-0.04006065847491695,2.7619109629995773,-0.9522501826286316,0.04004994407296181,0.30268022418022156,-0.5443288683891296,0.5674209594726562,0.2477666139602661,0.0037487149238586426,-0.5098833441734314,0.39260169863700867
399,-1.8261132854418187,-0.031827682919230736,2.7374144702493624,-0.967093288898468,0.03182230889797211,0.2524242103099823,-0.2923561930656433,0.7072033882141113,-0.6384129524230957,0.9800174236297607,-0.1946183294057846,-0.1862926483154297
400,-1.801171470951277,0.011251969227162269,2.7779866270315186,-0.9735191464424133,-0.011251731775701046,0.22832830250263214,0.47686734795570374,-0.5554656982421875,0.7461977005004883,0.48421555757522583,-0.2608277201652527,-0.3680835962295532
401,-1.747699327429553,0.017339719992358758,2.924595317428479,-0.9842454195022583,-0.01733885146677494,0.17595529556274414,2.019124984741211,0.5864003300666809,-0.9501771330833435,-0.9691694378852844,-0.07572450488805771,0.37825918197631836
402,-1.7166601992853154,0.0387312696671798,3.0293267868454845,-0.9886388778686523,-0.038721587508916855,0.14523820579051971,0.10365595668554306,0.3960878252983093,0.25422823429107666,0.4880436658859253,0.11033108085393906,0.2349802404642105
403,-1.7287847570511563,0.03206725014232189,2.9796515290080685,-0.9870380163192749,-0.032061755657196045,0.15725111961364746,-0.7032768726348877,-1.0613806247711182,0.02099243365228176,1.114922046661377,0.39639586210250854,-0.35360121726989746
404,-1.8741608832738845,0.003813409934643491,2.8846793689524293,-0.9543298482894897,-0.0038134006317704916,0.29873064160346985,-1.5257452726364136,0.10201040655374527,0.6534889340400696,-1.1002964973449707,-0.06321845948696136,0.14479658007621765
405,-1.8810577164630953,0.020232159482957982,2.8431646889743925,-0.9520589113235474,-0.02023077942430973,0.3052450716495514,-0.27845606207847595,-0.0622752346098423,-0.20508117973804474,-0.05714213848114014,-0.610781192779541,0.4304421842098236
406,-1.8320679645453257,0.052835004501028994,2.8176030436119452,-0.9647141098976135,-0.0528104268014431,0.25794875621795654,0.05677587538957596,0.9583609700202942,-0.9054515361785889,0.9537889361381531,-0.1151735782623291,-0.28114214539527893
407,-1.7749039480511075,0.10121188539607334,2.90628282643355,-0.9742310047149658,-0.10103917121887207,0.20165610313415527,2.6264994144439697,-1.3979567289352417,2.4212253093719482,0.7627899646759033,-0.04030298441648483,-0.6610066890716553
408,-1.7607143276250423,0.06337239166358517,3.0716661791065722,-0.9800484776496887,-0.06332997977733612,0.18839943408966064,1.2187309265136719,0.7734299898147583,-0.6929978728294373,-0.952034592628479,-0.17530222237110138,0.29460227489471436
409,-1.7050177706090928,0.0646350641852975,-3.1232453558118687,-0.9889364838600159,-0.06459006667137146,0.1335393786430359,0.04016810283064842,0.39746585488319397,0.2727963328361511,0.5523214936256409,0.01109275221824646,0.34152770042419434
410,-1.7098646363012757,0.07366202504900841,3.103232439729833,-0.9876599907875061,-0.07359542697668076,0.13824456930160522,-0.6869668960571289,-0.8066946864128113,-0.22213095426559448,0.9861188530921936,0.44116440415382385,-0.275970458984375
411,-1.869723917790242,0.002522497345838204,2.989358270117946,-0.9556499719619751,-0.0025224946439266205,0.29449462890625,-1.3880414962768555,0.30447351932525635,0.7303463220596313,-0.947563648223877,-0.07094857841730118,-0.04011532664299011
412,-1.894193026121416,0.011215618875849724,2.9618328602340505,-0.9481016993522644,-0.011215384118258953,0.31776899099349976,-0.7986627817153931,-0.3506331741809845,0.07995761930942535,0.040829479694366455,-0.8752134442329407,0.4335889518260956
413,-1.8695614650142105,0.04692431242070311,2.9103635039010136,-0.954648494720459,-0.04690709337592125,0.2940162122249603,-0.4163531959056854,1.2155547142028809,-1.3648262023925781,0.8896462321281433,-0.16114647686481476,-0.2412208616733551
414,-1.7989749404648272,0.13723945121961764,2.9445997006519438,-0.9649211168289185,-0.13680905103683472,0.22407682240009308,0.6336615085601807,0.36986789107322693,3.064406633377075,0.6179973483085632,-0.01143006980419159,-0.5131392478942871
415,-1.7618234078414357,0.06866499378657,3.085679698570498,-0.9794961810112,-0.06861104816198349,0.18941998481750488,1.0268874168395996,0.4146796464920044,-0.9703488945960999,-1.0412251949310303,-0.2204209268093109,0.2974727153778076
416,-1.6951414789335522,0.07769513204324699,-3.1298216764237043,-0.9892855286598206,-0.07761698961257935,0.12365080416202545,0.20165863633155823,0.6517989635467529,0.2731122672557831,0.5204288363456726,0.05392009764909744,0.28688693046569824
417,-1.710327597933034,0.06604238535887448,3.0850320486886873,-0.9881224036216736,-0.06599438935518265,0.1387757509946823,-1.0439954996109009,-0.8133538961410522,0.5624613165855408,1.0713896751403809,0.45982372760772705,-0.23978902399539948
418,-1.8015332603183316,0.002720039939911156,2.9843451523762154,-0.9734945297241211,-0.002720036543905735,0.2286941409111023,-0.932980477809906,0.5446425676345825,1.0128810405731201,-1.9180002212524414,-0.11417754739522934,0.307392954826355
419,-1.8734507175114776,-0.02211026584225216,2.9269129100690146,-0.9543153047561646,0.02210846357047558,0.2979821264743805,-0.7260043025016785,0.14005011320114136,0.5185621976852417,0.1824800968170166,-0.7783188223838806,0.8786994218826294
420,-1.8398393062631624,0.0021568714902641577,2.914220068400167,-0.9640234112739563,-0.0021568697411566973,0.2658083438873291,-0.013040583580732346,0.49711599946022034,-0.8709372282028198,1.109561800956726,-0.12713085114955902,-0.4131472408771515
421,-1.7922593148207524,0.052231379532423516,3.0074235214664626,-0.9742467403411865,-0.05220763385295868,0.21935757994651794,0.7802014946937561,0.7022139430046082,0.2235252857208252,-0.3324549198150635,-0.20995362102985382,-0.20267975330352783
422,-1.703883140086625,0.07618656211984103,3.1214868972594982,-0.9882819652557373,-0.07611288130283356,0.13230937719345093,0.4704115092754364,0.7489809989929199,-0.9243021607398987,-0.9735711812973022,-0.10302530974149704,0.6650996208190918
423,-1.6860398666374616,0.0740957799050226,-3.130997777192234,-0.9906413555145264,-0.07402800023555756,0.11467313021421432,0.13233129680156708,0.22912710905075073,0.029311345890164375,0.6652628183364868,0.20745083689689636,0.023693576455116272
424,-1.7367451585141636,0.05687812440177619,3.089603791210748,-0.9846671223640442,-0.0568474605679512,0.16492107510566711,-0.8802379965782166,-1.3616448640823364,0.42557448148727417,1.066301703453064,0.3805779218673706,-0.4032480716705322
425,-1.8243511044841154,0.0291550655545907,2.9410315477190294,-0.96761554479599,-0.029150934889912605,0.25074008107185364,-2.303532361984253,0.10538012534379959,0.9925177097320557,-1.2817895412445068,0.16118523478507996,0.19336703419685364
426,-1.8666006135217712,0.022891340296335282,2.870021125353138,-0.9563174843788147,-0.022889340296387672,0.2914329469203949,-0.9753088355064392,0.13880085945129395,0.313770055770874,0.20048856735229492,-0.7498005032539368,0.47445157170295715
427,-1.8407764698231963,0.052531910703959975,2.8161550425205526,-0.9624466300010681,-0.052507754415273666,0.2663443684577942,-0.5299817323684692,0.6327498555183411,-0.7375094294548035,1.134077548980713,-0.05099261924624443,-0.3079703152179718
428,-1.823734797859393,0.08670011590802199,2.8512720422506423,-0.9645447134971619,-0.08659153431653976,0.24931004643440247,0.13267815113067627,0.3468497097492218,0.2510874271392822,-0.40010982751846313,-0.14344996213912964,-0.27349531650543213
429,-1.7776662800334848,0.08600168447266528,2.988859099217145,-0.9750615358352661,-0.08589570969343185,0.20463846623897552,1.3929376602172852,0.3515823483467102,-0.7481310963630676,-1.0455836057662964,-0.33239346742630005,0.3507051467895508
430,-1.7409813202871194,0.08290998471313123,3.074934547314107,-0.9821680784225464,-0.0828150287270546,0.16878290474414825,0.6484330296516418,-0.16290903091430664,0.20417214930057526,0.5863854885101318,0.2555902898311615,0.45971131324768066
431,-1.813072103065402,0.06638138730059935,3.0208651289742967,-0.9686565399169922,-0.06633264571428299,0.23938420414924622,-0.2655428349971771,-1.1172690391540527,0.5288988351821899,1.0113810300827026,0.4685848355293274,-0.9319195747375488
432,-1.8749751830807657,0.03245964611593563,2.9553011169410213,-0.9535907506942749,-0.03245394676923752,0.29935207962989807,-2.374311685562134,-0.08075933903455734,0.6696423292160034,-1.0682904720306396,-0.24914699792861938,0.5902963876724243
433,-1.873971045038566,0.016693336699529365,2.860127024600941,-0.9542603492736816,-0.01669256202876568,0.29850998520851135,-0.16482311487197876,0.4006814956665039,0.2915579676628113,0.1690431833267212,-0.4746556878089905,0.532193660736084
434,-1.8422891415069558,0.027898492700972045,2.8441149413355356,-0.9629967212677002,-0.027894873172044754,0.26806551218032837,-0.1529582291841507,0.4850827157497406,-0.6275397539138794,1.1177513599395752,-0.13287171721458435,-0.40301430225372314
435,-1.8615481895079171,0.059048205011080004,2.9006249412652974,-0.9563589096069336,-0.05901389569044113,0.2861729860305786,0.7033168077468872,-0.3400416076183319,-0.7321005463600159,-1.4170236587524414,-0.19403785467147827,-0.11213123798370361
436,-1.825355438404667,0.07200736741295598,3.026991849707285,-0.9652664661407471,-0.07194515317678452,0.2511661648750305,1.13792884349823,0.7685819268226624,-0.5937460660934448,-0.8252608180046082,-0.2068939507007599,0.27784082293510437
437,-1.763667159019141,0.08265832580073709,3.0804824358993015,-0.978107213973999,-0.08256423473358154,0.1910228729248047,0.1937154084444046,-0.033545807003974915,0.005964865908026695,0.884616494178772,0.32142531871795654,-0.0160503089427948
438,-1.8240123804962127,0.08531284186848434,3.040735101655039,-0.9645907282829285,-0.08520939201116562,0.2496076077222824,-0.5131347179412842,-1.2626351118087769,0.32270023226737976,0.8230655193328857,0.3275189697742462,-0.5024456977844238
439,-1.8893473869925563,0.07183394361465552,2.9064063135167797,-0.947240948677063,-0.07177218049764633,0.31238311529159546,-1.8765350580215454,0.2461862564086914,0.5094860792160034,-0.9820192456245422,0.27721652388572693,0.27541598677635193
440,-1.8763025439958765,0.07465091128642823,2.837052443996508,-0.951038658618927,-0.07458159327507019,0.29993829131126404,-0.387182354927063,0.4766596853733063,0.32909151911735535,0.19829213619232178,-0.5394320487976074,0.20004650950431824
441,-1.8367638891264673,0.09184327340095276,2.825763991889161,-0.9607721567153931,-0.09171421080827713,0.26173514127731323,-0.3651846945285797,1.2783255577087402,-0.44609907269477844,1.0654323101043701,-0.06284205615520477,-0.49809375405311584
442,-1.8247023175010266,0.10174824656031073,2.9290644080291557,-0.9629325866699219,-0.10157277435064316,0.24988751113414764,1.8719255924224854,1.0250822305679321,-0.34270820021629333,-1.4344673156738281,0.24987295269966125,0.1457422971725464
443,-1.7745527559384233,0.12818896822386366,3.116331115091211,-0.9712783694267273,-0.12783817946910858,0.20068924129009247,0.25436729192733765,0.13847056031227112,-0.39948588609695435,-0.5324601531028748,-0.3123626410961151,0.6354924440383911
444,-1.7289196309382735,0.11719530520622294,3.1039170397421736,-0.9807505011558533,-0.11692721396684647,0.15638504922389984,-0.0872032418847084,0.13697543740272522,0.21561017632484436,0.7472606301307678,0.42671117186546326,-0.05293050408363342
445,-1.791043353371788,0.0938824136964178,3.0103450927133175,-0.9715461134910583,-0.09374456107616425,0.21750858426094055,-1.136995792388916,-1.618027925491333,0.4979889988899231,0.4638710021972656,0.26688605546951294,-0.33838868141174316
446,-1.8479431119907943,0.07235575018038458,2.8663018133745846,-0.9593232870101929,-0.07229263335466385,0.27289649844169617,-2.099316120147705,-0.43598008155822754,0.6913484334945679,-1.0190396308898926,0.0022853240370750427,0.44617387652397156
447,-1.8929532333006225,0.04562768152969282,2.7529572924516197,-0.9475675225257874,-0.045611850917339325,0.3162837326526642,-0.9252668619155884,0.23598305881023407,0.21728679537773132,0.42373329401016235,-0.3514828681945801,-0.023818492889404297
448,-1.863481317847665,0.0836332131759883,2.7202591582300797,-0.9541260600090027,-0.08353575319051743,0.2875156104564667,-0.2600046396255493,1.3892512321472168,-0.5730258822441101,1.051400899887085,-0.13370363414287567,-0.3978365659713745
449,-1.7988870089311095,0.07667118714289027,2.787110243807855,-0.9712382555007935,-0.07659608870744705,0.22545379400253296,1.045397162437439,0.42775559425354004,0.5645496249198914,-1.1832265853881836,0.30657655000686646,-0.6421103477478027
450,-1.7708094753299881,0.0881253378394473,2.9262935211655,-0.9762608408927917,-0.08801131695508957,0.19791123270988464,0.21341362595558167,0.2151145339012146,-0.4818286597728729,-0.7403834462165833,-0.43007034063339233,0.7822980880737305
451,-1.7612830677420754,0.06668672481591824,2.9073273093919467,-0.9797296524047852,-0.0666373074054718,0.18891601264476776,-0.38651323318481445,-0.1045001670718193,0.43511730432510376,0.7646875381469727,0.2355521023273468,0.07930302619934082
452,-1.822580585873262,0.04275931308123559,2.821554859241277,-0.9675842523574829,-0.04274628311395645,0.24890464544296265,-0.6503473520278931,-1.718568205833435,0.6998949646949768,0.8064666986465454,0.41596102714538574,-0.5149720907211304
453,-1.8659766440575085,-0.00011024684226818888,2.7078874230650607,-0.9567497372627258,0.00011024684499716386,0.290912389755249,-2.187732458114624,0.006230812985450029,0.6853890419006348,-0.8833228945732117,-0.036609262228012085,0.708721399307251
454,-1.8836632446552357,-0.012040326411079563,2.602470184669032,-0.9513863325119019,0.012040035799145699,0.307765394449234,-0.49965304136276245,0.5676860213279724,0.29032230377197266,0.2017829418182373,-0.32573020458221436,-0.07642683386802673
455,-1.839676149354787,0.018135563287395188,2.586056516093596,-0.9639103412628174,-0.018134569749236107,0.26560795307159424,-0.31929704546928406,0.7258332967758179,-0.4991779327392578,1.048062801361084,-0.10509541630744934,-0.4092389941215515
456,-1.8382667178481047,0.047577800470525684,2.633323865627829,-0.9633511900901794,-0.04755985364317894,0.2639935612678528,0.7307697534561157,0.3261714279651642,-0.11384948343038559,-1.3102235794067383,0.13970766961574554,-0.18475472927093506
457,-1.751854332638689,0.06783414683513579,2.797663510566119,-0.9813914895057678,-0.06778213381767273,0.1796562522649765,0.923689603805542,0.6787776350975037,-0.5822469592094421,-0.7252125144004822,-0.26000717282295227,0.6141364574432373
458,-1.7238269084334035,0.05540252544714409,2.861461086170128,-0.9867972135543823,-0.05537418648600578,0.1522001028060913,0.2956479489803314,-0.16808095574378967,0.2999107837677002,0.7390555739402771,0.10440067946910858,0.1743379682302475
459,-1.7722744109310573,0.056215228008497445,2.808910249911606,-0.9782241582870483,-0.05618562549352646,0.19980162382125854,-0.6656055450439453,-1.1516871452331543,0.42916733026504517,1.0341476202011108,0.25757113099098206,-0.5077391862869263
460,-1.839673706891939,0.008667173930765161,2.710018552072716,-0.9640336036682129,-0.008667065761983395,0.26563936471939087,-1.6765979528427124,-0.28444942831993103,0.6465263366699219,-0.9896408319473267,0.20820623636245728,0.6258705854415894
461,-1.8817493910805125,-0.021037396894337607,2.628725077508578,-0.9518319368362427,0.021035844460129738,0.3058984875679016,-0.5517260432243347,0.2443353235721588,0.3562088906764984,0.17265695333480835,-0.3233734667301178,-0.12167903780937195
462,-1.8563248320196093,-0.012024016351095497,2.6107604967251437,-0.9594436287879944,0.012023726478219032,0.2816442549228668,-0.21568921208381653,0.3594020903110504,-0.39384251832962036,0.9672713279724121,-0.20248393714427948,-0.34240472316741943
463,-1.8400181879225235,0.020622290234807373,2.6622531322129275,-0.9637730717658997,-0.02062082849442959,0.2659248113632202,1.079547643661499,0.21229389309883118,-0.5818017721176147,-0.8868890404701233,-0.020532114431262016,-0.6349128484725952
464,-1.7640835776182782,0.04651526610956602,2.8472175990102704,-0.9803165197372437,-0.04649849236011505,0.19187816977500916,1.283713459968567,0.6134952306747437,-0.959949791431427,-0.9148859977722168,-0.19399526715278625,0.590195894241333
465,-1.7012252872373637,0.05280540649679035,2.9269705197700397,-0.9901241660118103,-0.0527808703482151,0.1298781931400299,0.5303919911384583,0.5421843528747559,0.19904859364032745,0.6367154121398926,0.1010138988494873,0.01791846752166748
466,-1.7453046901333955,0.030730374065733423,2.902880229179706,-0.9843469262123108,-0.03072553686797619,0.17354199290275574,-0.8312796354293823,-1.2801212072372437,0.3241666555404663,1.0116603374481201,0.35624128580093384,-0.16449345648288727
467,-1.8161608170976575,-0.008541262983351207,2.8015650790070517,-0.9700135588645935,0.008541159331798553,0.24290108680725098,-1.534264087677002,-0.2433241903781891,0.5440235137939453,-0.9513884782791138,-0.10009390115737915,0.4732396900653839
468,-1.8460830057146482,-0.025563430051447938,2.7129511878543937,-0.9620327949523926,0.025560645386576653,0.27173399925231934,-0.39692848920822144,0.45304909348487854,0.3796963691711426,0.16956770420074463,-0.3815634548664093,0.2084142565727234
469,-1.843521494804397,-0.017236232528304012,2.7104568639623254,-0.9628972411155701,0.01723537966609001,0.26931682229042053,-0.20933909714221954,0.43801358342170715,-0.4532031714916229,0.9146949052810669,-0.3435598611831665,-0.19830244779586792
470,-1.7940511474786305,0.00750812335468225,2.7493311171920802,-0.9751546382904053,-0.007508052978664637,0.22139862179756165,0.913031280040741,0.6170565485954285,0.19613860547542572,-0.7936595678329468,-0.1474602073431015,-0.46677514910697937
471,-1.710746450540135,0.05356162839452288,2.9070959063276147,-0.9888029098510742,-0.05353602021932602,0.13929368555545807,1.3682831525802612,0.8950919508934021,-1.2652487754821777,-1.0512666702270508,-0.06304112076759338,0.6065711975097656
472,-1.6546868905915995,0.054915822202957876,2.9701866033938016,-0.9949809908866882,-0.054888226091861725,0.0836658775806427,0.24128516018390656,0.34121736884117126,0.46361181139945984,0.714188814163208,0.20430229604244232,0.08573710173368454
473,-1.6810751609751207,0.027507329989137255,2.9226710793209705,-0.993549644947052,-0.027503861114382744,0.11001383513212204,-0.9284767508506775,-1.129909634590149,-0.2001623809337616,0.99652498960495,0.3275374174118042,-0.24926553666591644
474,-1.7906451134939458,-0.025775671195695186,2.8005852598295093,-0.9756063222885132,0.0257728174328804,0.21800962090492249,-2.2459216117858887,-0.13565076887607574,0.5521710515022278,-0.8818460702896118,-0.2129523754119873,0.1664661169052124
475,-1.8509662118165569,-0.02794011324145275,2.7120849171821395,-0.9606335163116455,0.027936477214097977,0.2764110267162323,-0.7149133086204529,0.13968032598495483,0.3237559199333191,0.12220871448516846,-0.42548897862434387,0.41183677315711975
476,-1.8391752418942762,-0.013870358943236346,2.6688454564880764,-0.9641091823577881,0.01386991422623396,0.26514318585395813,-0.32134196162223816,1.072675108909607,-0.5284663438796997,0.9902628660202026,-0.27027860283851624,-0.32126501202583313
477,-1.8042448670119213,0.0017703295225679474,2.6756112180444336,-0.972872793674469,-0.0017703286139294505,0.23133350908756256,0.5147886276245117,0.11192835122346878,0.022734716534614563,-1.7075164318084717,0.19352753460407257,-0.31910210847854614
478,-1.7255110398572615,0.05521784570627637,2.8600829963943273,-0.9865497350692749,-0.05518978834152222,0.15386338531970978,1.4715615510940552,0.6367893218994141,-1.214751124382019,-0.8276135325431824,-0.4733746647834778,0.5597444772720337
479,-1.6694993587404485,0.05529626464812798,2.9384998903900965,-0.9936118125915527,-0.05526809021830559,0.09839222580194473,0.5011551976203918,-0.046617645770311356,0.1459111124277115,0.7334494590759277,0.3618934452533722,0.03944039344787598
480,-1.7531499312493135,0.03664815751281435,2.909590795125661,-0.982759416103363,-0.03663995489478111,0.18122291564941406,-1.017626404762268,-1.7424373626708984,0.05828367918729782,0.8721330761909485,0.2749212086200714,-0.32189369201660156
481,-1.8155519706738001,0.0038728076166236395,2.8478800638327297,-0.9701892137527466,-0.0038727978244423866,0.24231742322444916,-1.0699104070663452,-0.2028866559267044,0.3282659649848938,-0.9776867032051086,0.2336091250181198,0.5724713802337646
482,-1.871529442207796,-0.025613088315881886,2.761007258447735,-0.954806387424469,0.025610288605093956,0.29612335562705994,-0.9718999862670898,0.48416954278945923,0.5728254318237305,0.20144939422607422,-0.216757133603096,0.11027923226356506
483,-1.841276471349591,-0.008851516212291289,2.755200395770693,-0.9636049270629883,0.008851400576531887,0.26718369126319885,-0.005461442284286022,0.6370887756347656,-0.60198974609375,1.0080080032348633,-0.30645883083343506,-0.24722519516944885
484,-1.7908711372036776,0.02078744305883359,2.7675382077247868,-0.9756702184677124,-0.020785946398973465,0.2182554453611374,-0.3468278646469116,1.301828384399414,0.2622544467449188,-0.8321910500526428,0.058536186814308167,-0.40778493881225586
485,-1.7404871423777515,0.04572494174227583,2.920540862007001,-0.9846068620681763,-0.04570901021361351,0.16870109736919403,1.1145930290222168,0.26918211579322815,-0.9859612584114075,-0.8889740705490112,-0.3013216257095337,0.573867917060852
486,-1.7088593141115511,0.052305438030347144,2.9836899413679316,-0.9891298413276672,-0.052281592041254044,0.13743658363819122,0.5367094874382019,0.11023308336734772,0.027099573984742165,0.501031756401062,0.22865793108940125,0.03720031678676605
487,-1.7597085475831247,0.04090448513230985,2.947991584673011,-0.9813873767852783,-0.0408930778503418,0.1876334697008133,-0.9291678071022034,-1.2159450054168701,0.2649628520011902,1.0178254842758179,0.2758631706237793,-0.33195117115974426
488,-1.809224083514276,0.020895493967045417,2.8505753319560063,-0.971498429775238,-0.020893974229693413,0.23612360656261444,-1.278698444366455,0.2785061001777649,0.4654200077056885,-0.853574812412262,0.12151041626930237,0.42111825942993164
489,-1.837064293223456,0.004906854923325183,2.7612933490971465,-0.9647479057312012,-0.004906835034489632,0.2631295621395111,-1.550162434577942,0.37466418743133545,0.6894913911819458,0.12818491458892822,-0.4349430203437805,0.6573415994644165
490,-1.8140881403965001,0.01297975791476514,2.67929719312371,-0.9704686403274536,-0.01297939382493496,0.24087853729724884,-0.1700461506843567,0.20951448380947113,-0.34668979048728943,0.8813114166259766,-0.2827664613723755,-0.21918055415153503
