,attitude.roll,attitude.pitch,attitude.yaw,gravity.x,gravity.y,gravity.z,rotationRate.x,rotationRate.y,rotationRate.z,userAcceleration.x,userAcceleration.y,userAcceleration.z
0,-1.7414502260761373,0.02360764749630557,2.9174986770397155,-0.9851993322372437,-0.023605454713106155,0.1697794646024704,-1.0370584726333618,0.3100621700286865,0.9329603910446167,-1.1802059412002563,0.5634461641311646,-0.5997415781021118
1,-0.15189618352671666,0.6150529541193219,-3.0666544326895906,-0.12358362227678299,-0.5770017504692078,-0.8073388934135437,0.45982447266578674,-0.37290847301483154,-0.260848730802536,-0.1298953890800476,-0.13898640871047974,-0.1554601788520813
2,-0.17580709794261912,0.6122382961856624,-3.11717468872494,-0.14313414692878723,-0.574700653553009,-0.805749237537384,0.27263227105140686,-0.5239500403404236,-0.11609084159135818,-0.050515130162239075,0.21750766038894653,-0.26097744703292847
3,-0.2533882919063583,0.6609228470784472,3.139295470516478,-0.19789767265319824,-0.6138456463813782,-0.7642186284065247,0.3752245604991913,-0.13345542550086975,-0.43157345056533813,0.015753507614135742,0.14697247743606567,0.24718981981277466
4,-0.2831802170363482,0.7297104941065077,3.0575350946602833,-0.20826356112957,-0.6666538715362549,-0.715680718421936,0.5311039090156555,-3.6387033462524414,-1.9872114658355713,-0.04735167324542999,0.25460559129714966,0.2847267985343933
5,-0.4428308992264109,0.6187289223444724,3.021886515852092,-0.34906232357025146,-0.5800001621246338,-0.7360402941703796,-2.7007997035980225,-1.2441363334655762,6.535744667053223,0.37170636653900146,0.3308088779449463,0.21829432249069214
6,-0.6853174823908561,0.5663719470393714,3.1315865749716707,-0.5340906381607056,-0.5365740656852722,-0.6533265113830566,-1.144313931465149,-2.6131579875946045,0.17347370088100433,0.46879827976226807,0.003309905529022217,0.37024545669555664
7,-0.891898086261487,0.36505146674938244,-3.074289837816443,-0.7269815802574158,-0.35699737071990967,-0.5865583419799805,-1.1065971851348877,-1.2315242290496826,1.6985515356063843,-0.35079246759414673,0.37663543224334717,0.21831798553466797
8,-0.9888105848519141,0.15063125269000827,-3.132486044854522,-0.8259134888648987,-0.15006226301193237,-0.5434595346450806,-1.2622382640838623,-0.7026697993278503,1.4160654544830322,0.1978769302368164,-0.05645018815994263,0.15356695652008057
9,-1.0189256107071185,-0.06672576290314312,3.0914708038470455,-0.8496502041816711,0.06667625904083252,-0.5231144428253174,-1.675039291381836,-1.797155499458313,0.8910295367240906,0.06786620616912842,-0.08666528016328812,-0.06283825635910034
10,-1.1579634595319308,-0.24387978175613453,3.017837880747692,-0.8888824582099915,0.24146941304206848,-0.3893335163593292,-0.7466166615486145,0.14629405736923218,0.7394132614135742,-0.588580310344696,-0.7507009506225586,-0.9807379245758057
11,-1.036977521403574,-0.26989419166796697,3.100710260863434,-0.8297059535980225,0.2666294574737549,-0.4904046356678009,1.517524003982544,0.22655902802944183,0.19325870275497437,-0.5050260424613953,-0.7513248920440674,-0.3982367217540741
12,-1.063224220652026,-0.10492617099332904,-3.021284798019561,-0.8691208958625793,0.10473374277353287,-0.48338374495506287,2.1822307109832764,-0.7562206387519836,-1.5002973079681396,-0.48859089612960815,-0.11832933127880096,-0.10517829656600952
13,-1.1382517892144854,0.1393990603783868,-2.96321911301951,-0.8990951776504517,-0.13894802331924438,-0.41511616110801697,1.428400993347168,-0.5232993364334106,-2.6621389389038086,0.03950655460357666,0.08473354578018188,-0.09957808256149292
14,-1.142674987656439,0.43769836336123796,-2.960638287000095,-0.8239851593971252,-0.4238559305667877,-0.37602493166923523,1.3330034017562866,0.10692563652992249,-2.572227954864502,0.27003008127212524,0.6087619066238403,0.11349743604660034
15,-1.0278085291042225,0.6157287448698783,-3.036212358327515,-0.6989356875419617,-0.5775535702705383,-0.4218064844608307,-0.9722149968147278,0.1548715978860855,-0.49056288599967957,0.20181965827941895,1.070259928703308,0.2718278467655182
16,-1.032762056157652,0.44095303631065785,-3.136466841321348,-0.7765772938728333,-0.42680153250694275,-0.46343082189559937,-2.6001949310302734,-0.9321354031562805,2.5637810230255127,0.12080037593841553,1.0991801023483276,0.33806464076042175
17,-1.1830374137750297,-0.04239196414875362,2.9933879999948356,-0.9249270558357239,0.042379267513751984,-0.3777749538421631,-2.959030866622925,-1.330471396446228,3.9507827758789062,-0.7863613367080688,1.0065709352493286,-0.4868795573711395
18,-1.2327017966083118,-0.5635386728388387,2.8946211832827995,-0.7975124716758728,0.5341809988021851,-0.28040093183517456,-2.290020227432251,-0.048214126378297806,3.9193947315216064,-0.5146977305412292,-0.05131655931472778,-0.31075504422187805
19,-1.3428881872102105,-0.8786138989417137,2.6151640958152793,-0.621715247631073,0.7698549628257751,-0.14419932663440704,-3.2431371212005615,0.8325585126876831,1.0755525827407837,-0.4628641605377197,-0.34930747747421265,-0.47896963357925415
20,-1.6915841656370165,-0.962713090628597,2.1539406353528974,-0.5671331286430359,0.8207445740699768,0.06883788853883743,-2.226233959197998,-0.06701815873384476,0.019254501909017563,-0.7537440061569214,-0.5998429656028748,-0.9708306789398193
21,-1.7901972244021267,-0.9593433660829521,2.1031761742953083,-0.5602965354919434,0.8188148140907288,0.12494077533483505,1.6259417533874512,-0.0663919746875763,-0.46984562277793884,-0.9505524635314941,-0.5577064156532288,-1.1381396055221558
22,-1.4644285825667913,-0.7808372947414003,2.560130496135845,-0.7063099145889282,0.703874409198761,-0.07541321963071823,4.039788722991943,-1.29618501663208,-2.8111462593078613,-1.0735667943954468,0.327985942363739,-0.9781908988952637
23,-1.2581077173345343,-0.3229770685210726,2.9970280487270298,-0.9023119807243347,0.3173910975456238,-0.29171255230903625,3.854149341583252,0.9933644533157349,-4.012289047241211,-0.45390450954437256,0.9564736485481262,-0.21530652046203613
24,-1.1065873771132608,0.1875267603876263,-3.1329279380482653,-0.8784996271133423,-0.18642958998680115,-0.43986642360687256,2.937401294708252,0.680898904800415,-4.0191497802734375,0.033055901527404785,1.2448097467422485,0.11657845973968506
25,-0.9123158540557652,0.5434176011240305,-3.1286762048086656,-0.6769877076148987,-0.5170642733573914,-0.5237671136856079,0.8665801286697388,1.6395574808120728,-2.1763839721679688,0.19697678089141846,1.3422443866729736,0.3149659037590027
26,-0.7606913043397655,0.6384631423528578,3.1002739141451436,-0.5536149144172668,-0.5959620475769043,-0.5816699266433716,-0.29814276099205017,1.7083085775375366,0.7942649722099304,0.5175583958625793,1.0855402946472168,0.6380358934402466
27,-0.7891571807912869,0.36117724838894566,3.0819139107707025,-0.6639671325683594,-0.35337576270103455,-0.6589940786361694,-4.744995594024658,-0.9841834306716919,2.651355504989624,-0.2614021301269531,1.182965636253357,0.6515325307846069
28,-0.7834276562430809,-0.12004069146715586,2.911790665062551,-0.7006335854530334,0.11975260823965073,-0.7034002542495728,-4.173163890838623,1.4126454591751099,0.5552367568016052,-0.8381694555282593,0.23989705741405487,-0.5656274557113647
29,-0.6099043924195839,-0.43131810093885503,2.675514898552414,-0.5203304886817932,0.4180685579776764,-0.7446306943893433,-3.88618540763855,2.4042627811431885,0.05185401067137718,0.010488569736480713,-0.2710348665714264,-0.33825504779815674
30,-0.5579937482569912,-0.6726319069917964,2.4636094922956264,-0.4141552448272705,0.6230467557907104,-0.6635420918464661,-1.9452533721923828,-0.473935604095459,-1.2051335573196411,0.04625058174133301,-0.633712649345398,-1.0884872674942017
31,-0.6280721518320374,-0.7069400113262392,2.280021333197577,-0.4467726945877075,0.6495101451873779,-0.6152485609054565,1.0793609619140625,2.0371243953704834,0.05426110699772835,0.450236439704895,-0.7243697643280029,-1.395325779914856
32,-0.3199749996550808,-0.4404148541117261,2.4578304379525266,-0.2845275402069092,0.4263147711753845,-0.8586616516113281,4.369412899017334,2.094974994659424,0.3963814377784729,-0.0014374256134033203,-0.02310127019882202,-1.1605339050292969
33,-0.044220095994606794,-0.035379811723106384,2.618871757434711,-0.04417802020907402,0.03537243232131004,-0.9983972907066345,4.062083721160889,2.121664524078369,1.0166969299316406,0.05246354267001152,0.5214665532112122,-0.5473180413246155
34,0.14099383008323002,0.3219130132127491,2.723839512373786,0.133308544754982,-0.31638187170028687,-0.9392184615135193,4.002003192901611,2.949509620666504,1.2384847402572632,-0.3657304048538208,0.7251800894737244,-0.06818205118179321
35,0.4797801266164458,0.681572717523705,2.5888351824968363,0.3584583103656769,-0.6300151348114014,-0.6889038681983948,2.8859148025512695,1.4694337844848633,-1.1277559995651245,-0.5499256253242493,0.9084880948066711,0.23025518655776978
36,0.602674121732198,0.6903344523559604,2.488599022870125,0.4370582103729248,-0.6367951035499573,-0.6351946592330933,-1.3096404075622559,-2.2179994583129883,0.31147149205207825,-0.3510596752166748,0.8292542099952698,0.02494990825653076
37,0.3970049926785135,0.6044514806472976,2.7123439055505933,0.31814759969711304,-0.5683108568191528,-0.7588180899620056,-1.647766351699829,-0.8265848755836487,0.25924447178840637,-0.3633289337158203,0.5077334642410278,0.08395242691040039
38,0.26432766416435555,0.4519559718343037,2.6938570229224457,0.23502840101718903,-0.4367259442806244,-0.8683502078056335,-1.4328280687332153,-2.6804909706115723,-1.0063203573226929,-0.31713593006134033,0.6489452123641968,0.026705920696258545
39,0.09915536106523647,0.15482677327985744,2.726591861139899,0.0978088304400444,-0.1542089432477951,-0.9831851720809937,-2.8594601154327393,-1.0697002410888672,0.2932398021221161,-0.2780609130859375,0.1206243485212326,-0.27647364139556885
40,0.07552794092395419,-0.06970731912135333,2.7123754793181467,0.07527290284633636,0.06965088099241257,-0.9947274923324585,-2.6486361026763916,-0.6775400638580322,-1.0955361127853394,0.08277763426303864,-0.06460022181272507,-0.2644277811050415
41,0.0169234180268327,-0.40235468935378627,2.682837058043219,0.015571195632219315,0.3915860652923584,-0.9200097322463989,-1.5401217937469482,0.3914352357387543,-0.4930409789085388,0.4661182761192322,-0.7289121150970459,-1.5265387296676636
42,0.19885464925741636,-0.4003994941791972,2.6271205419056995,0.1819217950105667,0.3897862732410431,-0.9027575254440308,0.9688501954078674,2.897170066833496,2.0330936908721924,1.0079585313796997,-0.7579808235168457,-1.0224286317825317
43,0.44432497988058905,-0.15696847987835594,2.808660146791292,0.42456382513046265,0.15632468461990356,-0.8918005228042603,1.821558952331543,2.4871304035186768,2.011106491088867,0.33157020807266235,0.06643837690353394,-0.7316125631332397
44,0.6128208250571516,0.13576361943170187,2.8612254372875943,0.5698846578598022,-0.13534694910049438,-0.8105015158653259,2.1542677879333496,1.395620584487915,2.1585934162139893,-0.08142030239105225,0.4136520028114319,0.0603032112121582
45,0.7928933892837623,0.3888937729451739,2.9054035554919397,0.6591922044754028,-0.37916502356529236,-0.6493839621543884,2.0534229278564453,1.1633079051971436,1.826639175415039,-0.36239349842071533,0.6645501852035522,0.13581889867782593
46,0.7982027131339258,0.5355176958430088,2.947258707353747,0.615851640701294,-0.5102863311767578,-0.6002787947654724,-0.14955143630504608,-0.9888332486152649,0.5623450875282288,-0.28676533699035645,0.7518939971923828,-0.03245741128921509
47,0.6293231280412881,0.46198859210627036,3.0548711227060448,0.5268937945365906,-0.4457291066646576,-0.7236770987510681,-0.9646088480949402,-2.0586495399475098,-0.9570544362068176,-0.6241685152053833,0.3867233693599701,-0.2168898582458496
48,0.6794517592130754,0.1936558394405396,2.9372352334914202,0.6166207194328308,-0.19244767725467682,-0.7633759379386902,-2.579493999481201,-1.439763069152832,-1.8427940607070923,0.1351035237312317,0.3139533996582031,-0.04331052303314209
49,0.561384573934593,-0.10071550667810433,2.9473832278999863,0.5296610593795776,0.10054532438516617,-0.8422290682792664,-2.05355167388916,1.8990137577056885,-0.8675813674926758,0.27899372577667236,-0.023579992353916168,-0.31766778230667114
50,0.5673507559516793,-0.25583042995074046,3.020794953578077,0.5199092626571655,0.2530488967895508,-0.8158802390098572,-1.5723873376846313,-0.14401905238628387,0.27174144983291626,0.11256754398345947,-0.3679475784301758,-0.10816144943237305
51,0.5573857881746842,-0.29204924436118934,3.097468920837704,0.5065707564353943,0.28791528940200806,-0.8127058744430542,-0.6195248961448669,-0.2990538775920868,0.48354580998420715,-0.2810305953025818,-0.29317960143089294,0.0570601224899292
52,0.5074303364842935,-0.319429540981709,3.1272209852825648,0.4613519310951233,0.31402501463890076,-0.8297847509384155,-0.2806698977947235,0.18525052070617676,-0.23969796299934387,0.2951178252696991,-0.32795628905296326,-0.6389957666397095
53,0.5248125301206364,-0.20422637375147742,-3.127647615164447,0.49063801765441895,0.202809676527977,-0.8474329113960266,2.4300973415374756,0.4353635609149933,1.8765426874160767,0.7649619579315186,-0.199452742934227,-1.1982519626617432
54,0.6489852191032156,0.13242422119235575,-3.1318388481970127,0.5990867614746094,-0.13203752040863037,-0.789722204208374,3.5990068912506104,1.9160478115081787,1.9580473899841309,0.10606765747070312,0.5917085409164429,-0.449718713760376
55,0.7710445169705172,0.4632891125444135,3.121040072038439,0.6234242916107178,-0.4468929171562195,-0.6415830254554749,2.9609155654907227,0.44670435786247253,2.2354085445404053,-0.54119473695755,0.725777804851532,0.17692238092422485
56,0.741239657119738,0.7674790769603368,-3.124303439246624,0.48591870069503784,-0.6943232417106628,-0.5308467745780945,0.9306532740592957,-0.6302925944328308,1.8255170583724976,-0.7083155512809753,0.9072596430778503,0.36055874824523926
57,0.663666214446868,0.8355612818861298,-3.082227171287405,0.4131951332092285,-0.7416731119155884,-0.5283851027488708,-1.436694622039795,-0.32299885153770447,-0.3826919198036194,-0.598391056060791,0.9967542886734009,0.5528753995895386
58,0.6153697636498253,0.49392805386362926,-2.9951231003710137,0.5082648396492004,-0.4740881025791168,-0.7189626693725586,-4.215394496917725,0.6943060755729675,-2.70874285697937,-0.24964362382888794,1.157758116722107,-0.3235177993774414
59,0.6303099331928381,-8.365422361298607e-05,3.11910927195157,0.5893951654434204,8.36542239994742e-05,-0.807844877243042,-2.034203290939331,-1.4455671310424805,-3.4339966773986816,0.8664611577987671,0.8741381764411926,-0.8718273639678955
60,0.525693687185855,-0.37937921400726626,3.0056818844661004,0.4661315977573395,0.3703438937664032,-0.8034716844558716,-2.099740505218506,0.4234478175640106,-2.45229172706604,0.5837341547012329,-0.024244070053100586,-0.4181469678878784
61,0.4872002006146031,-0.6570337890101156,2.843653471017526,0.3706875741481781,0.6107708811759949,-0.6996783018112183,-1.0313483476638794,0.3568251430988312,-2.8412606716156006,0.3411196768283844,-0.3813244700431824,-0.22958195209503174
62,0.35178825763784227,-0.830927064737037,2.480113335365819,0.2323109209537506,0.7385566830635071,-0.6329026222229004,0.14066438376903534,1.2825747728347778,-2.8641302585601807,1.0239146947860718,-0.7055519223213196,-0.23767238855361938
63,0.34768759383201925,-0.8715214154555457,2.321961186765386,0.21931186318397522,0.7653090953826904,-0.605148196220398,0.21849185228347778,0.5637140274047852,0.25954583287239075,1.3160732984542847,-0.8777205944061279,-0.40219128131866455
64,0.5866279365675345,-0.7292484388056442,2.5833808217758065,0.4127730131149292,0.6663094162940979,-0.6210074424743652,0.3015073239803314,-0.33958908915519714,3.842878818511963,1.2059098482131958,0.0787162184715271,-0.5180306434631348
65,0.8052110474984622,-0.35131033354457936,2.958605748718742,0.6769415140151978,0.34412840008735657,-0.6506349444389343,1.4545818567276,0.6413145065307617,5.365058422088623,0.6287835836410522,0.8750488758087158,-0.4475095868110657
66,0.9468413240532424,0.1423416541983099,-3.138377250327705,0.8033663034439087,-0.1418614685535431,-0.5783407688140869,1.7106326818466187,0.84457927942276,4.4056243896484375,-0.1986452341079712,1.1784520149230957,-0.15202116966247559
67,0.9872693583191088,0.5390373075665778,-3.0595539626944057,0.7161917090415955,-0.5133100152015686,-0.47284483909606934,1.3974833488464355,1.1433192491531372,2.023108959197998,-0.41837066411972046,1.3035168647766113,-0.06365418434143066
68,1.0872299976633244,0.6908038145140307,-3.068837845392147,0.6823636293411255,-0.6371569037437439,-0.35834476351737976,-0.557278573513031,1.140245795249939,-0.09720693528652191,-0.772588849067688,1.2040514945983887,0.22708868980407715
69,1.136461675010177,0.4528046639865103,-3.1245983062745237,0.81573086977005,-0.43748927116394043,-0.378399521112442,-0.8486987352371216,-0.6889790296554565,-4.580959796905518,-0.6959646940231323,1.0327041149139404,-0.03729566931724548
70,0.9733370469674553,-0.09788886214756513,3.013928933434077,0.822809636592865,0.09773260354995728,-0.5598506927490234,-2.1933372020721436,-2.721475124359131,-5.333390235900879,0.48819512128829956,1.1547698974609375,-0.6230564713478088
71,0.7230162548362797,-0.6598018312714211,2.8549640450881077,0.5227782130241394,0.6129602789878845,-0.5924378633499146,-1.5387992858886719,-1.1244614124298096,-4.503485679626465,0.9684022068977356,-0.01702827215194702,-0.7497557401657104
72,0.49421069448697713,-0.873230380058619,2.5318889227103156,0.3046922981739044,0.7664079666137695,-0.5654922127723694,-0.17936091125011444,0.1687750518321991,-1.489051103591919,0.8875073790550232,-0.37389087677001953,-0.13496243953704834
73,0.3539506653286621,-0.9529634329840132,2.3515796838173983,0.20077863335609436,0.8151357173919678,-0.5433615446090698,-0.09625694155693054,-0.4697932004928589,-1.0020222663879395,0.885525107383728,-0.6089284420013428,-0.23160183429718018
74,0.3509570934139082,-0.9309405067986791,2.3311301159023126,0.2052740454673767,0.8021818399429321,-0.5606842041015625,0.1894073486328125,0.33028581738471985,1.6444453001022339,1.3560051918029785,-0.5053068995475769,-0.15463250875473022
75,0.6639816360609715,-0.7291796972407294,2.747987779222047,0.4595562219619751,0.6662581562995911,-0.5872887969017029,0.8918818831443787,0.2472527027130127,4.585085868835449,1.0581287145614624,0.48536843061447144,-0.5314245223999023
76,0.9032453104331163,-0.3468823639464895,3.0545218328451136,0.738563060760498,0.3399675190448761,-0.5821913480758667,1.2527003288269043,1.4299622774124146,4.991209983825684,0.17502641677856445,0.8055860996246338,-0.3687821626663208
77,1.0261327785475143,0.11402116241494954,-3.0786636543295525,0.849747896194458,-0.11377426236867905,-0.5147659778594971,1.2189080715179443,0.7521126866340637,4.167037487030029,-0.28697317838668823,1.068638801574707,-0.1282241940498352
78,1.076848618114487,0.45249446972327895,-3.0310099760886673,0.791857123374939,-0.4372103214263916,-0.426391065120697,0.9519747495651245,0.8024088740348816,2.170393228530884,-0.45811694860458374,1.158081293106079,0.04418894648551941
79,1.118162729792291,0.5511501957038252,-3.023451074474327,0.7661328911781311,-0.5236674547195435,-0.3725760579109192,-0.30320337414741516,0.20524495840072632,-0.615684449672699,-0.7914776802062988,1.008103370666504,0.1389029324054718
80,1.0894819997372927,0.2502822368593646,-3.047630305907591,0.8587695956230164,-0.24767741560935974,-0.44852039217948914,-2.169402599334717,-1.1650032997131348,-4.695570468902588,-0.31923413276672363,1.1722227334976196,-0.14291024208068848
81,0.9353651002042936,-0.30982857764372973,-3.0955274404211996,0.7664952278137207,0.3048953711986542,-0.5652644634246826,-2.8060762882232666,-1.620727777481079,-4.881725788116455,0.5505518913269043,0.8417110443115234,-0.7176945209503174
82,0.7504101984132757,-0.7791930438842958,2.9975322054705136,0.48518645763397217,0.7027055025100708,-0.5203836560249329,-0.6439613699913025,0.2511430084705353,-4.064125061035156,0.9302645921707153,-0.2780686616897583,-0.5577413439750671
83,0.5200398281968371,-0.953685871362492,2.6536394723231718,0.287555068731308,0.8155539631843567,-0.502178966999054,-0.22136595845222473,-0.3712875247001648,-1.4711315631866455,0.7891660928726196,-0.603380560874939,-0.19601738452911377
84,0.3661295862702346,-0.9929911366912016,2.5718823444022454,0.19553716480731964,0.837663471698761,-0.5099854469299316,0.5267149209976196,-1.0423697233200073,0.30875566601753235,1.0226024389266968,-1.0740373134613037,-0.5676054358482361
85,0.39329769211209414,-0.7684007477248346,2.6758354996942457,0.2755557894706726,0.6949862241744995,-0.6641258001327515,3.1855809688568115,-0.13833081722259521,2.621638536453247,1.0519282817840576,-0.3644503951072693,-0.6797309517860413
86,0.46663126359907664,-0.28592899427990903,2.902198047511657,0.4316151440143585,0.2820488512516022,-0.8568295240402222,4.352981090545654,-0.20672579109668732,4.037715911865234,0.9347331523895264,0.8417152166366577,-1.1723452806472778
87,0.4251679833545113,0.33941510178397577,3.031208395625991,0.38894200325012207,-0.332935631275177,-0.8589982390403748,5.238101005554199,0.38928067684173584,3.265228033065796,0.08733057975769043,1.1391489505767822,-0.7075300216674805
88,0.4349604830965403,0.9040480508450169,3.1266789682871554,0.26059237122535706,-0.7858368158340454,-0.5608495473861694,4.674725532531738,0.19845232367515564,1.65396249294281,-0.49174773693084717,1.3601471185684204,-0.5164819955825806
89,0.6255366288676938,1.1963030668311054,2.9723669194802658,0.21418851613998413,-0.9306930899620056,-0.29653650522232056,1.1927549839019775,-0.14509764313697815,0.594270646572113,-0.6010445356369019,1.3489668369293213,0.13299277424812317
90,0.5433086810173486,1.0816120298716967,2.985353887406427,0.24292774498462677,-0.8827164769172668,-0.4022407829761505,-2.6604208946228027,-2.0105276107788086,-1.279810905456543,-0.6305009722709656,1.1448776721954346,0.013965696096420288
91,0.22293036861549734,0.6222546048271619,3.064959012101235,0.1796490103006363,-0.5828686356544495,-0.7924584150314331,-5.095107078552246,-2.4250919818878174,-0.8704564571380615,-0.20003476738929749,0.7454052567481995,-0.8235388994216919
92,0.07123536795726007,0.10413003863465753,2.989002719216454,0.07078960537910461,-0.10394196212291718,-0.9920609593391418,-4.336458206176758,-1.2588937282562256,-1.9110368490219116,-0.11163738369941711,0.30486971139907837,-0.9498793482780457
93,0.04611258606916007,-0.31232313126270955,2.7135559498490496,0.04386621713638306,0.30727019906044006,-0.9506107568740845,-3.6285383701324463,0.8702755570411682,-3.422858476638794,0.31927770376205444,0.08069974184036255,-0.686458945274353
94,-0.09060455228773902,-0.6146525591207294,2.3500580093295547,-0.07392031699419022,0.5766746997833252,-0.8136228322982788,-2.983182907104492,0.4789307117462158,-3.501645088195801,0.7013311982154846,-0.0916893482208252,-0.5911165475845337
95,-0.34481206480648635,-0.7637528814047679,1.985168918432421,-0.24413327872753143,0.6916368007659912,-0.679733395576477,-1.4726598262786865,0.2618347704410553,-1.5695611238479614,1.1861040592193604,-0.5869767665863037,-0.8467406034469604
96,-0.3479611845373345,-0.8227213234912737,1.8593510645422808,-0.23194576799869537,0.7329996824264526,-0.6394627690315247,0.9072437286376953,0.7304603457450867,1.5003514289855957,1.3215911388397217,-0.9125651121139526,-1.0152919292449951
97,0.018847638360524447,-0.6845960201348825,2.3427061632107224,0.014599921181797981,0.6323601007461548,-0.7745369672775269,2.827890634536743,0.45369818806648254,4.673274517059326,0.7603024244308472,0.16720044612884521,-0.9174796342849731
98,0.3206663989301722,-0.26713386733122235,2.7849698958689966,0.30401939153671265,0.2639680504798889,-0.9153649806976318,3.7189552783966064,0.9006136059761047,3.999610662460327,-0.035266339778900146,0.6369108557701111,-0.38213562965393066
99,0.35665575831809015,0.20584162015834695,2.9725165058150425,0.34177178144454956,-0.20439109206199646,-0.9172875285148621,4.081839561462402,0.4428618848323822,2.417799949645996,-0.24617546796798706,0.8656765222549438,0.08063280582427979
100,0.5752951817886547,0.6451063800614142,2.868785715373102,0.43474137783050537,-0.6012834310531616,-0.6704163551330566,4.332086563110352,0.9384317994117737,0.829530656337738,-0.16649186611175537,0.9701189398765564,-0.3457884192466736
101,0.7488427068790355,0.7048375633333419,2.74473244563971,0.5185703039169312,-0.6479101181030273,-0.5579401850700378,-1.5800296068191528,0.7557456493377686,-1.4348700046539307,-0.3396458029747009,1.1491765975952148,0.019274413585662842
102,0.7328126331612815,0.39232416541658255,2.7747990677931176,0.6181370615959167,-0.3823370337486267,-0.6868223547935486,-3.1516659259796143,-0.4620184004306793,-2.3111624717712402,-0.12215012311935425,0.8067449927330017,-0.4639344811439514
103,0.7373186849572634,-0.1403658346859881,2.7707829436002447,0.6656932234764099,0.13990536332130432,-0.7329932451248169,-4.071216106414795,0.7736706137657166,-4.2640061378479,-0.002256333827972412,0.18602237105369568,-0.3153160810470581
104,0.7236286650379589,-0.5594460523831695,2.664736101917405,0.561169445514679,0.5307167768478394,-0.6351602673530579,-2.020723581314087,-0.049705322831869125,-3.929464101791382,0.20866698026657104,-0.08511435985565186,-0.26887720823287964
105,0.5061668589396993,-0.8141618712929091,2.4212710819549224,0.3328239917755127,0.7271504998207092,-0.6004001498222351,-0.3481180667877197,-0.5509403944015503,-3.059800386428833,0.9262855052947998,-0.5211568474769592,-0.3530147671699524
106,0.35089708650413326,-0.9046258395660574,2.2260961350879658,0.2124246060848236,0.7861939668655396,-0.5803230404853821,0.023533307015895844,-0.18179064989089966,-0.402442067861557,1.0551382303237915,-0.9549561738967896,-0.5913230776786804
107,0.46440143271625556,-0.8181253459735812,2.488182560710346,0.30617180466651917,0.7298656105995178,-0.6111913919448853,1.097326397895813,-1.1135852336883545,4.335836410522461,1.4748187065124512,-0.4684826135635376,-0.8196404576301575
108,0.6881810162290785,-0.34976232815373287,2.7727279360221666,0.596678614616394,0.34267452359199524,-0.7256368398666382,3.276491641998291,1.6749184131622314,5.293605327606201,0.8507548570632935,0.7245709300041199,-0.4251810312271118
109,0.8409324828273402,0.18839537338982051,2.9688027890623734,0.732078492641449,-0.18728290498256683,-0.6549703478813171,2.251760721206665,1.4796086549758911,4.431901931762695,0.15421301126480103,1.068752646446228,-0.3270699977874756
110,0.9950396413754422,0.6318077018496813,3.02580147178118,0.6768633723258972,-0.5906044840812683,-0.43936586380004883,1.8197388648986816,2.2524757385253906,3.5169968605041504,0.14077883958816528,1.3284432888031006,-0.25762510299682617
111,1.1513458940606458,0.9292643107429469,3.0384137791387618,0.5465480089187622,-0.8011798858642578,-0.2437131553888321,0.09977499395608902,1.530333161354065,0.8230597376823425,-0.4670192003250122,1.4829273223876953,-0.0850679874420166
112,1.2728257269394436,0.7226270056553421,2.9592001398175114,0.7170184850692749,-0.6613574028015137,-0.22020643949508667,-0.42311280965805054,-1.0525414943695068,-4.588028907775879,-0.5986255407333374,1.4596514701843262,-0.43416672945022583
113,1.0918736791150816,0.13342408989222143,2.905522766245103,0.8796040415763855,-0.1330285668373108,-0.4567275941371918,-2.6868746280670166,-2.2511091232299805,-6.000098705291748,0.7304117679595947,0.9761071801185608,-0.6661514043807983
114,0.8652937978289112,-0.45325136547306205,2.8136113826875704,0.6844173073768616,0.4378909170627594,-0.5829446315765381,-1.7499526739120483,-1.5139408111572266,-4.617188930511475,1.0590671300888062,-0.1242159903049469,-0.5441457629203796
115,0.6495880194370319,-0.7698555789988984,2.540582677004454,0.43429508805274963,0.6960315704345703,-0.5717760324478149,0.11808919906616211,0.1451200395822525,-2.6492111682891846,1.1535040140151978,-0.6327534317970276,-0.2796338200569153
116,0.517095842577545,-0.8930956895804935,2.3796594338512986,0.30996403098106384,0.7790164947509766,-0.5450281500816345,-0.5966898202896118,-0.6602895259857178,-0.70539391040802,1.0190154314041138,-0.9983615875244141,-0.322662889957428
117,0.5972372043257271,-0.8622693991491786,2.5278078176179957,0.3659366965293884,0.7593212723731995,-0.5380721092224121,0.5623495578765869,-0.4534497857093811,3.4420626163482666,1.5196070671081543,-0.8058300018310547,-0.4686417579650879
118,0.8028645203840632,-0.5015438420036613,2.855527502487243,0.6307548880577087,0.48077982664108276,-0.6090969443321228,1.309762716293335,0.4671991467475891,4.94249963760376,1.0644203424453735,0.48235493898391724,-0.3391604423522949
119,0.9548246295172425,-0.0007232358692335643,3.087352116230661,0.8162121772766113,0.0007232358329929411,-0.5777517557144165,1.969465732574463,1.190295934677124,4.707584381103516,0.2010454535484314,0.8846985101699829,-0.307975172996521
120,1.0243332095648872,0.4566319924693394,-3.131922742572305,0.7668316960334778,-0.4409276843070984,-0.4664248526096344,1.9263519048690796,0.5897253155708313,3.74064040184021,0.08766061067581177,1.2833501100540161,-0.336889386177063
121,1.1258007658878038,0.7568242492417233,3.0831570157483377,0.6562175750732422,-0.686616063117981,-0.31294867396354675,0.8948215842247009,0.8924582004547119,1.2946054935455322,-0.2000408172607422,1.5610514879226685,0.01676034927368164
122,1.182293182266235,0.6872080306788027,3.063868570061365,0.715412437915802,-0.6343814134597778,-0.2928227484226227,-0.8395148515701294,-0.20453691482543945,-3.0440878868103027,-0.6034435033798218,1.3814976215362549,-0.17258557677268982
123,1.0781794755277951,0.22319626692947336,3.034939457012292,0.8592426180839539,-0.22134773433208466,-0.46120208501815796,-2.9182286262512207,-1.3747378587722778,-5.197676658630371,0.44088250398635864,1.1772040128707886,-0.581705629825592
124,0.9188543686880595,-0.35715019013591354,3.006282858278916,0.7447459697723389,0.3496056795120239,-0.5684446096420288,-1.651402235031128,-1.187054991722107,-5.1598358154296875,0.5952198505401611,0.036182284355163574,-0.5943819284439087
125,0.6930602584454103,-0.7040203656388567,2.7023481134657663,0.48699474334716797,0.6472874283790588,-0.5863916277885437,0.14263014495372772,-0.19635245203971863,-3.4556398391723633,0.9676408767700195,-0.43935590982437134,-0.2139165997505188
126,0.4549621893819059,-0.8628029430405727,2.3958770673212166,0.2857649624347687,0.7596683502197266,-0.5841596126556396,-0.8022496700286865,-0.8353317975997925,-1.3052157163619995,1.2388627529144287,-0.9516391754150391,-0.14167046546936035
127,0.4670725504925944,-0.8994797244666769,2.4685445234152468,0.2800785005092621,0.7830033898353577,-0.5553933382034302,0.19180698692798615,0.3238251805305481,1.8677961826324463,1.4676326513290405,-1.1641221046447754,-0.3165091276168823
128,0.7176955365887288,-0.5958708128108448,2.8793176321069676,0.5443110466003418,0.5612297058105469,-0.6234956383705139,1.513492226600647,-0.04050442948937416,5.4767069816589355,1.5405735969543457,0.3384590148925781,-0.6841520667076111
129,0.8856089433215202,-0.09001530655931961,-3.108124289356562,0.7711656093597412,0.08989379554986954,-0.6302560567855835,1.338484764099121,0.5815058350563049,5.828126430511475,0.4638655185699463,0.9304308891296387,-0.34043174982070923
130,0.8991364251088111,0.3904866680710471,-2.9329808238430433,0.7238645553588867,-0.3806384801864624,-0.5754429697990417,1.6734644174575806,0.4227120578289032,3.6721112728118896,0.07476526498794556,1.2646105289459229,-0.11153829097747803
131,0.8885064324481108,0.7080994780414319,-2.886630169403693,0.5895484089851379,-0.6503913402557373,-0.47898200154304504,1.3885451555252075,0.16045942902565002,1.7974411249160767,0.17444390058517456,1.5081336498260498,-0.08818721771240234
132,0.9728464523393968,0.7979226522182976,-2.8859362795044157,0.5770524740219116,-0.7159072160720825,-0.3930485248565674,0.29061973094940186,1.1340464353561401,-1.349704623222351,-0.6397966742515564,1.411036729812622,0.07583361864089966
133,1.0666737395892443,0.487593080103591,-3.0160497851434434,0.7735590934753418,-0.4685008227825165,-0.4267474412918091,-1.6596364974975586,-1.1360374689102173,-4.568429470062256,-0.23982185125350952,1.2237193584442139,-0.2654827833175659
134,0.9553757949754823,-0.0922678521263669,-3.080354558981812,0.813057541847229,0.09213698655366898,-0.5748463273048401,-2.9397590160369873,-1.3393298387527466,-5.170937538146973,0.575888991355896,0.6106370687484741,-0.6743906736373901
135,0.7840400683198776,-0.5996012085766859,3.0646931183625368,0.5829662680625916,0.5643132925033569,-0.5845518708229065,-0.9810327887535095,-0.008171637542545795,-4.2599921226501465,1.0287890434265137,-0.3711676001548767,-0.559140145778656
136,0.5798333793040218,-0.7877475975255991,2.690980213611673,0.38650161027908325,0.7087661027908325,-0.5901415348052979,0.3945502042770386,-0.10625865310430527,-2.0869646072387695,1.004611611366272,-0.5945083498954773,-0.2757946848869324
137,0.48651524876991026,-0.8780003959089018,2.6205751090986316,0.29861894249916077,0.769463300704956,-0.5645821690559387,-0.18047410249710083,-0.2515791356563568,-0.025195633992552757,1.0799821615219116,-0.9847036600112915,-0.3578726649284363
138,0.5854825805675195,-0.7935193730167944,2.766714654317752,0.3875621557235718,0.7128259539604187,-0.584529459476471,0.3574278950691223,-0.548778235912323,3.2647337913513184,1.1194416284561157,-0.660564661026001,-0.3653606176376343
139,0.7575740566901166,-0.4283386094701483,-3.128031973109423,0.6250808835029602,0.41536009311676025,-0.6608706116676331,1.4085246324539185,0.2673385441303253,5.148716926574707,0.9956161379814148,0.5746148824691772,-0.4068174362182617
140,0.8915811699737196,0.0395185029118509,-2.931258312607778,0.7774584889411926,-0.039508216083049774,-0.6276921033859253,2.124382495880127,1.038598895072937,4.208970069885254,0.12259644269943237,0.8531373739242554,-0.21445566415786743
141,0.9350628580395257,0.43509878045438194,-2.851051901201449,0.7296671867370605,-0.42149996757507324,-0.5384455919265747,1.3927546739578247,0.12156332284212112,3.027838706970215,-0.025138378143310547,1.2031314373016357,-0.022528529167175293
142,0.9543040687965026,0.6551374070691228,-2.8032430669037867,0.6469887495040894,-0.6092681884765625,-0.4584735035896301,0.4118923544883728,0.8061262965202332,0.9171227216720581,-0.14885032176971436,1.2813873291015625,0.010444939136505127
143,1.0325401648945283,0.632345847183578,-2.837702146642984,0.6925870776176453,-0.5910386443138123,-0.41351720690727234,-0.44769707322120667,-0.011926937848329544,-1.705478310585022,-0.43988633155822754,1.2123613357543945,-0.08253079652786255
144,1.0058089062669175,0.28805444419454856,-2.8820935547058486,0.8097966909408569,-0.2840873599052429,-0.5133456587791443,-2.768132209777832,-1.1857354640960693,-4.551609516143799,0.08000433444976807,1.1220238208770752,-0.4384213089942932
145,0.8931726328439321,-0.25414210318552055,-2.890432177062076,0.7540406584739685,0.2514151632785797,-0.6068056225776672,-2.363461494445801,-0.8547859191894531,-4.326032638549805,0.4171629548072815,0.04358300566673279,-0.6258450746536255
146,0.7101521102912361,-0.6080181937843914,3.1037441247025686,0.5351079106330872,0.5712419748306274,-0.6223681569099426,0.7819844484329224,0.34566399455070496,-4.438261032104492,0.8846155405044556,-0.31785452365875244,-0.2619702219963074
147,0.5471174131397363,-0.7750819451754213,2.8063590970635586,0.3716316819190979,0.6997746229171753,-0.6100863218307495,-0.7722946405410767,-0.07132341712713242,-0.9222106337547302,0.9523123502731323,-0.9477605223655701,-0.09380155801773071
148,0.609598843258457,-0.7830461959307039,2.8507240730068073,0.40579700469970703,0.7054417133331299,-0.5811030864715576,0.993384838104248,0.7086385488510132,1.1291656494140625,0.8561506271362305,-0.7813084125518799,-0.3361179828643799
149,0.7820132875331982,-0.5593221480504437,3.0109866949158297,0.5973221659660339,0.5306117534637451,-0.6013796329498291,0.5215690732002258,0.49979367852211,3.9622044563293457,0.7779677510261536,-0.03825640678405762,-0.3438870906829834
150,0.9515941563130031,-0.16056953041055583,-3.0502708401393983,0.803866446018219,0.15988042950630188,-0.5729198455810547,1.1904504299163818,1.37496817111969,4.2857208251953125,0.5341615080833435,0.7834026217460632,-0.5846576690673828
151,1.0447675898396218,0.27412049790391224,-2.897185275573145,0.8325191736221313,-0.2707003653049469,-0.4833562672138214,0.8187987208366394,0.8005800247192383,3.989358425140381,-0.08837848901748657,1.1822147369384766,-0.3836023211479187
152,1.0776205505922323,0.5529463416217218,-2.837893171130547,0.7495726943016052,-0.5251967906951904,-0.4028761386871338,0.6472979187965393,0.0825517550110817,1.5920718908309937,-0.4567718505859375,1.121189832687378,-0.07801985740661621
153,1.1016811643813853,0.6098572485357147,-2.876904983294396,0.7311732769012451,-0.572750449180603,-0.3705975413322449,0.4679505527019501,0.03910862281918526,-0.9861048460006714,-0.6157710552215576,1.009243369102478,0.13590210676193237
154,1.1063829376657495,0.4183439781982015,-2.968204204169476,0.8169811964035034,-0.4062477946281433,-0.4092729389667511,-0.8936232328414917,-0.7608504891395569,-2.964620590209961,-0.3083447813987732,0.9295480251312256,0.08758720755577087
155,1.0486862750359573,1.35002493159779e-05,-3.036662475442909,0.8667688369750977,-1.3500249224307481e-05,-0.49871018528938293,-1.9529889822006226,-0.7464427351951599,-4.545068264007568,0.3504095673561096,0.7786389589309692,-0.22373241186141968
156,0.942450211065436,-0.48116616376529003,-3.026009402190871,0.7171434760093689,0.46281322836875916,-0.5210654735565186,-3.1731321811676025,-1.2439337968826294,-3.011490821838379,0.9509931206703186,0.059067875146865845,-0.683203935623169
157,0.9085152591727165,-0.8287737468654824,-3.12507583242369,0.5329145789146423,0.7371032238006592,-0.4155488908290863,0.06172595173120499,1.40784752368927,-2.990154266357422,0.8577867150306702,-0.9307372570037842,-0.3275998830795288
158,0.8646274826655697,-0.9045713383510993,3.030350395294598,0.4702247083187103,0.7861602902412415,-0.4010494351387024,0.32959288358688354,0.10935086756944656,-0.1237887591123581,0.5242668390274048,-0.8290833234786987,-0.18221774697303772
159,0.8685543771331681,-0.8440671088702363,3.085606575169007,0.5072223544120789,0.7473515868186951,-0.42917507886886597,0.18870845437049866,-0.42695972323417664,1.62794828414917,0.8234661817550659,-0.6447362303733826,-0.30581027269363403
160,0.9154718976857691,-0.6872881948246955,-3.1413202134076905,0.6128489375114441,0.6344434022903442,-0.47106024622917175,1.0028578042984009,0.22358264029026031,1.8522212505340576,0.7321675419807434,-0.1931135058403015,-0.34986260533332825
161,0.9967113081982056,-0.45968137489120897,-3.0555081877511805,0.7525245547294617,0.4436625838279724,-0.48669302463531494,0.7247040867805481,0.26832249760627747,2.603130340576172,0.4568259119987488,0.0447254478931427,-0.44517645239830017
162,1.0287513070483953,-0.15644215829242294,-2.9615453551026527,0.8461938500404358,0.1558048129081726,-0.5095888376235962,1.321691632270813,-0.20425090193748474,3.249162435531616,0.33274590969085693,0.5315731167793274,-0.47844821214675903
163,1.0875464743025023,0.1737508345026801,-2.9586187484297994,0.8721569180488586,-0.17287792265415192,-0.45766308903694153,1.2647253274917603,0.6889554858207703,2.6427581310272217,-0.19510924816131592,0.8103901147842407,-0.12426134943962097
164,1.121175465340125,0.421384795972062,-2.9275357582185784,0.8218294382095337,-0.40902450680732727,-0.39660465717315674,0.7355707883834839,0.3585752546787262,1.5250717401504517,-0.6776491403579712,0.7904484272003174,0.009519696235656738
165,1.1631850564320454,0.48571114582770775,-2.992002176644221,0.8118893504142761,-0.4668373763561249,-0.35056906938552856,0.45735466480255127,0.033939845860004425,-0.7387517690658569,-0.8249356150627136,0.8460487723350525,0.16892844438552856
166,1.164464796496802,0.27673463936008486,-3.0779085704791225,0.8836275935173035,-0.27321597933769226,-0.38020434975624084,-0.8552649021148682,-0.6854436993598938,-3.669081449508667,-0.30946987867355347,0.9027020931243896,-0.07028090953826904
167,1.0830919350028525,-0.16555740014092174,3.1176202904100063,0.8713316917419434,0.16480213403701782,-0.4621918201446533,-0.5576919913291931,-1.5767773389816284,-5.559317111968994,0.5847992300987244,0.2918018698692322,-0.8111388683319092
168,0.8734622923178115,-0.5508763714958361,3.0136914009045404,0.6531571745872498,0.5234341621398926,-0.547176718711853,-1.75271737575531,-0.8995680809020996,-1.597795844078064,1.398676872253418,-0.5286374092102051,-0.2968937158584595
169,0.9548922121268109,-0.609976738383955,3.124223968673563,0.6690497398376465,0.572848379611969,-0.47351565957069397,0.09831587225198746,0.5590330958366394,0.7265627384185791,-0.13096386194229126,-0.6399108171463013,0.06340524554252625
170,0.9894105804432516,-0.5373618762454149,-3.1231022594298867,0.7179202437400818,0.5118714570999146,-0.4717818796634674,0.33139219880104065,-0.1783604472875595,0.5854514837265015,-0.2621554732322693,-0.46214306354522705,0.1377059817314148
171,0.8764232768677661,-0.5189902520129289,3.0739953660429715,0.6672652363777161,0.4960035979747772,-0.5556415319442749,0.7203071117401123,-1.3298438787460327,0.13650847971439362,1.1957261562347412,-0.2097182273864746,-0.2980419397354126
172,0.9625901631902818,-0.31031546041462743,3.0834830508593947,0.7814766764640808,0.30535903573036194,-0.5441047549247742,0.1509779840707779,1.7271491289138794,2.2272417545318604,0.3846610188484192,0.47352585196495056,-0.36451029777526855
173,1.0490337622182724,-0.07707051768074463,-2.9466828410881254,0.8643685579299927,0.07699424028396606,-0.49692943692207336,0.6950556635856628,0.043417226523160934,3.162593364715576,-0.008365750312805176,0.26431435346603394,-0.47090500593185425
174,1.1442363363991415,0.18825374569065875,-2.96631854088632,0.8943099975585938,-0.18714377284049988,-0.4064317047595978,0.6529591083526611,0.46448662877082825,1.98427414894104,-0.660896360874176,0.6535592079162598,0.08651599287986755
175,1.1511914484833203,0.36457964902336315,-2.9662173611560516,0.8532254695892334,-0.35655659437179565,-0.3806227743625641,1.0783302783966064,0.220810666680336,0.3663443624973297,-0.8184354305267334,0.8265120387077332,0.044898927211761475
176,1.1853116575433476,0.3010415879609454,-3.092414816243734,0.8849446177482605,-0.2965151071548462,-0.3590984642505646,0.232352152466774,-0.31233900785446167,-2.413957118988037,-0.631862461566925,0.9139925241470337,0.08955195546150208
177,1.1367301024569632,-0.07875007545032725,3.082873057048781,0.9044514298439026,0.07866870611906052,-0.41926002502441406,-1.045795202255249,-1.5700339078903198,-4.308595180511475,0.4203929305076599,0.7229517698287964,-0.5358638763427734
178,0.888312690038698,-0.5578836947658644,2.9807668785812687,0.6583481431007385,0.5293919444084167,-0.5350905060768127,-2.7640748023986816,-2.2300832271575928,-3.2892794609069824,1.8208847045898438,0.012615501880645752,-0.8145188689231873
179,0.8765846206340163,-0.7417003168572491,3.072739276442517,0.5666741132736206,0.6755425930023193,-0.4717230498790741,0.44097235798835754,0.46172621846199036,-0.057264987379312515,0.3544378876686096,-0.7245995402336121,-0.10432672500610352
180,0.9043287654804997,-0.7429638162397469,3.0881262711453488,0.5788705945014954,0.6764736175537109,-0.45529359579086304,-0.8692834973335266,-0.39802759885787964,-0.14890164136886597,-0.33968907594680786,-0.7676754593849182,0.2523517310619354
181,0.8563810021818018,-0.7755960654137295,-3.130843981943245,0.5394129753112793,0.7001417875289917,-0.4677979648113251,0.373006135225296,-0.8393257260322571,0.45053476095199585,0.6084293723106384,-0.7375869154930115,-0.22101423144340515
182,0.8311309107634914,-0.5461551349971144,3.1002650304117965,0.6312347650527954,0.5194055438041687,-0.5759866833686829,2.564164876937866,1.8682582378387451,1.857795000076294,0.8741515874862671,0.1009100079536438,-0.22325342893600464
183,0.9821222489578652,-0.23023194473705813,3.1228835477023162,0.8097324967384338,0.22820335626602173,-0.5406073927879333,-0.09872229397296906,0.9248867034912109,3.10152006149292,0.1505792737007141,0.3416055738925934,-0.2556877136230469
184,1.0238072937742155,0.052697661513244766,-3.0019930023881356,0.8529087901115417,-0.05267327278852463,-0.5193958878517151,0.5851978659629822,0.5086349844932556,3.131558656692505,0.07781630754470825,0.6009978652000427,-0.3292521834373474
185,1.0945129240152152,0.29026632881306774,-2.9463005474507806,0.8515284657478333,-0.2862074375152588,-0.43930014967918396,0.09888996928930283,0.1517949104309082,1.4456486701965332,-0.8751338124275208,0.7912275791168213,0.08111536502838135
186,1.051148448406995,0.39866574630374496,-2.929403935802258,0.7999258041381836,-0.38818907737731934,-0.45763304829597473,1.6042648553848267,-0.2063238024711609,0.023348046466708183,-0.8559103012084961,0.7818353176116943,0.22824764251708984
187,1.098075680598406,0.3001441467973417,-3.0892585118864946,0.8505296111106873,-0.2956579029560089,-0.4349551498889923,-0.4456508457660675,0.061406418681144714,-3.0135178565979004,-0.33994001150131226,0.880298376083374,0.14569425582885742
188,1.0972299524742586,-0.11263742322882907,3.1058069256989027,0.8843079209327698,0.1123993992805481,-0.4531730115413666,-1.241619348526001,-0.8731015920639038,-4.4200286865234375,0.5083311796188354,0.4731566309928894,-0.5900245904922485
189,0.9295697363787666,-0.5403424242116618,3.110282528259758,0.6871946454048157,0.5144296884536743,-0.5129578709602356,-3.0543272495269775,-0.4688499867916107,-2.054614543914795,1.330993890762329,-0.48430877923965454,-0.6555602550506592
190,0.9911974176018312,-0.6540841851845542,3.1410620665131193,0.6639958024024963,0.6084327101707458,-0.4346485733985901,0.2832511365413666,0.2653021514415741,0.2713009715080261,-0.1821078658103943,-0.7697485089302063,0.047670602798461914
191,0.9325705818317194,-0.6525135787763305,3.121869960450862,0.638154149055481,0.6071854829788208,-0.4733761250972748,0.47914308309555054,-1.2389177083969116,-0.5806795358657837,0.20001107454299927,-0.5118486285209656,-0.047818273305892944
192,0.8557793748402069,-0.5907374967454623,3.0541210383665267,0.6271184682846069,0.5569736957550049,-0.5445206761360168,0.9519035220146179,0.6791927814483643,0.8826949596405029,0.9255243539810181,-0.20675396919250488,-0.19571375846862793
193,0.9525825044060511,-0.4064547440314048,3.0739484071858887,0.7485224604606628,0.3953554034233093,-0.5323610901832581,0.37677785754203796,0.34240713715553284,1.849204182624817,0.20852404832839966,-0.036834895610809326,-0.3950986862182617
194,0.9842127192728485,-0.15103225354125416,-3.089413856047435,0.8233557939529419,0.1504587084054947,-0.547217845916748,0.8375778198242188,1.0975046157836914,2.5748000144958496,0.0642174482345581,0.3541646897792816,-0.3048176169395447
195,1.0643017328779019,0.13403424799214975,-3.039191956027373,0.8666073679924011,-0.13363328576087952,-0.48076388239860535,0.7603759765625,0.42973020672798157,2.900275707244873,-0.5083004236221313,0.49482405185699463,0.14616906642913818
196,1.08375687131268,0.35075557219573533,-3.010590682021601,0.829915463924408,-0.34360748529434204,-0.43951600790023804,1.0285581350326538,0.2847054600715637,1.0162296295166016,-0.7156729102134705,0.783365786075592,0.13653749227523804
197,1.1600117666537875,0.3072032936720506,-3.121572544660243,0.8738855123519897,-0.3023940622806549,-0.38063332438468933,-0.167536661028862,-0.3292264938354492,-2.8882527351379395,-0.7072443962097168,0.8825637698173523,0.1722899079322815
198,1.0776015055684656,-0.04546823064177431,3.0956068831586463,0.8799144625663757,0.04545256495475769,-0.47295308113098145,-0.9609725475311279,-0.6929453015327454,-4.802302837371826,0.29075509309768677,0.6376833915710449,-0.48064494132995605
199,0.9076485210303853,-0.4598124071842461,3.114370990605145,0.7062072157859802,0.44378000497817993,-0.5516616702079773,-3.336740255355835,-1.3134312629699707,-1.2432472705841064,1.144805908203125,-0.3310786485671997,-0.5328109860420227
200,0.9667373558929675,-0.6268106958363571,-3.05681203792219,0.6665796041488647,0.5865647196769714,-0.4600147008895874,-1.2973077297210693,0.23226945102214813,0.4391241669654846,-0.018737196922302246,-1.1001298427581787,0.026298880577087402
201,0.9963308087394221,-0.606886901930812,-2.9262060355465453,0.6895741820335388,0.570313036441803,-0.4463522732257843,0.3559442460536957,-1.2845048904418945,1.1315803527832031,0.2789011001586914,-0.8420416116714478,-0.4399239718914032
202,0.8941993900000207,-0.40849218640682294,-2.937098744171536,0.7155542969703674,0.3972260355949402,-0.5746246576309204,2.2020864486694336,0.4347369372844696,2.134748935699463,0.9686498045921326,0.13361197710037231,-0.3750671148300171
203,1.032263827596526,-0.08364228321404162,-3.0092873582575455,0.8554611206054688,0.0835447907447815,-0.511083722114563,1.3130437135696411,1.5384244918823242,1.8085367679595947,-0.37941741943359375,0.963650643825531,-0.273492693901062
204,1.029722526043667,0.022334467133676778,-3.0307335390895163,0.8569422960281372,-0.022332610562443733,-0.5149282217025757,0.5765591859817505,-0.27752333879470825,-0.3069705367088318,-0.4540950655937195,1.0133147239685059,0.02959197759628296
205,1.0487401413031672,-0.10135955636939523,-3.0489461836055507,0.8623468279838562,0.10118608921766281,-0.49610406160354614,-0.8300952315330505,-0.14211349189281464,-1.5398191213607788,-0.7302209734916687,0.2331187129020691,0.20603451132774353
206,0.990947033838895,-0.2928795042413015,3.1158306046454047,0.8009222745895386,0.2887102961540222,-0.5245665311813354,0.6391037106513977,-0.44035398960113525,-3.0409064292907715,-0.2684667110443115,0.18057379126548767,0.11247235536575317
207,0.8058432259831935,-0.5580089636517009,2.9046974880304517,0.6119841933250427,0.5294982194900513,-0.587458074092865,-1.3446462154388428,-1.0454792976379395,-3.3150222301483154,0.8302612900733948,-0.04130852222442627,-0.17186498641967773
208,0.6355150982404086,-0.8035216859994773,2.844878173625229,0.4120575189590454,0.7198052406311035,-0.5586494207382202,-0.6176697611808777,-0.5362958908081055,-0.47740438580513,1.294744849205017,-0.6940178871154785,-0.7019859552383423
209,0.7185668495302108,-0.6875758422444388,2.981767847372355,0.5087305903434753,0.6346656680107117,-0.5817152261734009,0.853779673576355,-0.3145175576210022,3.62276554107666,0.7456181049346924,-0.32018208503723145,-0.5073044896125793
210,0.8557826462494664,-0.3680831042581213,3.120193440151667,0.7045078277587891,0.35982760787010193,-0.6117129921913147,1.2888715267181396,0.9978218078613281,2.7862143516540527,-0.12159162759780884,-0.006342500448226929,0.07464945316314697
211,0.8952551856271476,-0.05166573585696711,-3.0209385667420965,0.779327392578125,0.051642753183841705,-0.6244852542877197,0.7861735224723816,-0.30519768595695496,3.0598130226135254,-0.3011474609375,0.537880539894104,0.1503337025642395
212,0.8548354287541896,0.13256414041354078,-2.96756212893085,0.7478433847427368,-0.1321762204170227,-0.6505840420722961,0.4778764843940735,-0.5413957834243774,0.6014787554740906,-0.1484324336051941,0.9611557126045227,-0.004124820232391357
213,0.8736135523277775,0.10347657735901519,-3.0061495935131517,0.7625532746315002,-0.10329201817512512,-0.6386260986328125,0.05539419874548912,0.25202617049217224,-1.3373810052871704,-0.37113481760025024,0.7188467979431152,0.0557861328125
214,0.8657014825802312,-0.0913598878110951,-3.113055051432477,0.7583741545677185,0.09123285114765167,-0.6454032063484192,-1.124697208404541,-0.3203009068965912,-2.886864423751831,0.074862539768219,0.7256616950035095,-0.15907061100006104
215,0.849784672463822,-0.40313055809573833,-3.125158947564293,0.6909250617027283,0.3922998607158661,-0.6072259545326233,-1.795024037361145,0.17172470688819885,-2.0439159870147705,0.0069509148597717285,-0.1947290599346161,-0.11970275640487671
216,0.8496557171931235,-0.6280794463806127,3.0823469599696893,0.6077203154563904,0.587591826915741,-0.5342395901679993,-0.2369377464056015,0.2533092796802521,-2.0462722778320312,-0.031777262687683105,-0.49758023023605347,-0.12049978971481323
217,0.7155975734474678,-0.7823337625479545,2.920331779067696,0.46532994508743286,0.7049366235733032,-0.5352872610092163,-0.18168869614601135,-0.7427919507026672,-1.8405156135559082,0.5146352648735046,-0.4071308374404907,-0.4302736520767212
218,0.607909330147941,-0.8555211063097617,2.806768786668563,0.37457630038261414,0.754912793636322,-0.5383301377296448,0.35769328474998474,0.3774867653846741,0.15642131865024567,0.9820826053619385,-0.642028272151947,-0.46905505657196045
219,0.685995256275522,-0.7107360296879638,2.9617769881592992,0.4800753593444824,0.652391791343689,-0.5864406824111938,0.1820685714483261,-0.9316075444221497,3.3898775577545166,0.9273343086242676,-0.060335516929626465,-0.36059606075286865
220,0.8044335438865805,-0.405534572820799,-3.021255445018574,0.6620044112205505,0.39451003074645996,-0.6372692584991455,1.3890713453292847,0.5450498461723328,3.5222275257110596,0.22810178995132446,0.19516587257385254,-0.146010160446167
221,0.8824623792897639,-0.045695070859931824,-2.8858960227200905,0.7714992761611938,0.04567917063832283,-0.6345882415771484,1.2500417232513428,-0.24906882643699646,3.8578426837921143,-0.17625391483306885,0.5752772688865662,0.10849571228027344
222,0.8677213192600416,0.26363993426284993,-2.808985205952022,0.7364991903305054,-0.2605964243412018,-0.6242262125015259,1.347623586654663,0.2076532244682312,1.4251830577850342,-0.20430320501327515,1.1251137256622314,-0.07043009996414185
223,0.9185547162972442,0.36169726395877794,-2.864622135480282,0.7433045506477356,-0.3538621962070465,-0.5676969885826111,0.9067827463150024,0.33787602186203003,-0.9402844905853271,-0.5854371190071106,1.2829546928405762,0.053475797176361084
224,0.928404627935357,0.1338819146576952,-3.001444783907442,0.7935001850128174,-0.13348232209682465,-0.5937507748603821,-1.4377530813217163,-0.9472044706344604,-3.336711883544922,0.05957293510437012,1.0708755254745483,-0.20820540189743042
225,0.8570303200359655,-0.2860562365663523,-2.997114883976711,0.725184977054596,0.2821709215641022,-0.6280814409255981,-2.566824197769165,-0.5140355825424194,-2.9086272716522217,0.08873409032821655,-0.04303517937660217,-0.37706077098846436
226,0.7912357011792684,-0.5808126517435076,3.132437450847556,0.5945940613746643,0.5487034916877747,-0.5876923203468323,0.30897319316864014,0.5528820157051086,-3.5707316398620605,0.1066235899925232,-0.34100091457366943,-0.20361316204071045
227,0.5744112899076486,-0.7822524285309277,2.8103843142486475,0.3854065537452698,0.7048789262771606,-0.5954893231391907,-0.621954083442688,-0.5223408937454224,-2.7941954135894775,0.8315123915672302,-0.34440529346466064,-0.2472078800201416
228,0.46527967102138046,-0.8956908952968888,2.702236361796592,0.28041133284568787,0.7806410789489746,-0.5585418939590454,0.2884546220302582,0.5997688174247742,0.6314522624015808,1.3560327291488647,-1.0141615867614746,-0.6705077886581421
229,0.6117581599565699,-0.6832870029473613,2.8231022439327846,0.44537651538848877,0.6313455104827881,-0.6348563432693481,1.5008350610733032,0.09424304962158203,3.550962209701538,1.0844391584396362,-0.09747099876403809,-0.5645912885665894
230,0.8037241701514566,-0.31436974042545407,3.1177180740685193,0.6846622228622437,0.3092171549797058,-0.6600168943405151,1.7637919187545776,0.9781787395477295,4.047393321990967,0.22604328393936157,0.3447898030281067,-0.38542377948760986
231,0.9206720800206949,0.11361294749440534,-3.0630968762953974,0.7908767461776733,-0.1133686900138855,-0.6013830304145813,1.5214756727218628,0.7058758735656738,4.012792587280273,-0.13274991512298584,0.8546406626701355,-0.0819513201713562
232,0.9504560295564499,0.4269335266109906,-2.9852118390260496,0.7406445145606995,-0.41408151388168335,-0.5291333794593811,1.0457265377044678,0.4684717655181885,1.551348328590393,-0.42913639545440674,1.1726264953613281,-0.07987534999847412
233,1.0162401884773216,0.45936114066338424,-3.027648503879934,0.7620058655738831,-0.4433755576610565,-0.4719800353050232,-0.41980046033859253,0.1490393579006195,-1.3588963747024536,-0.6062746644020081,1.2413949966430664,-0.1220293641090393
234,0.9782693835625813,0.1331904425443638,3.13460904902925,0.8221851587295532,-0.1327970027923584,-0.5535128712654114,-0.908841073513031,-0.9833587408065796,-5.07755708694458,0.1664164662361145,1.161041021347046,-0.4347531795501709
235,0.9322600697174742,-0.3492996319804501,2.98725553200322,0.7544798851013184,0.3422398269176483,-0.5600286722183228,-1.6981350183486938,-0.03547600656747818,-3.8552024364471436,0.5610260963439941,0.031081736087799072,-0.41635072231292725
236,0.7739115332890297,-0.6651816674578115,2.720142396046198,0.5499277114868164,0.61720210313797,-0.5627087354660034,1.1889081001281738,-0.5047863125801086,-3.447672128677368,0.5801839828491211,-0.3987877368927002,-0.027287602424621582
237,0.5073797836968365,-0.7731133914377043,2.3951733753561966,0.34776994585990906,0.6983669996261597,-0.6255713701248169,-0.126228466629982,-0.32032689452171326,-2.309399366378784,0.9245383739471436,-0.46820348501205444,0.06426161527633667
238,0.38687316917652337,-0.823608671268243,2.181337599728751,0.2564011514186859,0.7336030006408691,-0.629352867603302,0.4475010633468628,1.0526506900787354,-0.37107235193252563,1.3497694730758667,-0.7789673805236816,0.193287193775177
239,0.6108747519593996,-0.7390912669918396,2.4123687021764786,0.4239251911640167,0.6736165881156921,-0.6054156422615051,-0.5867285132408142,-0.3229503035545349,4.342500686645508,1.3843632936477661,-0.26788538694381714,-0.2035747766494751
240,0.9041613312634122,-0.39577284712682625,3.004332810867962,0.7251553535461426,0.38552141189575195,-0.5705461502075195,-0.32019561529159546,0.5413423776626587,6.314944267272949,0.7403444647789001,0.6401286125183105,-0.3983411192893982
241,1.0393322063375146,0.08878958019426589,-3.020365105734363,0.858670175075531,-0.08867296576499939,-0.5047996640205383,0.8772227764129639,0.42389804124832153,5.078614234924316,0.002734243869781494,0.9702189564704895,-0.1467963457107544
242,1.0102682323708974,0.4830903749204365,-2.899814172486107,0.7500497698783875,-0.46451810002326965,-0.47079533338546753,1.1792211532592773,-0.10335954278707504,2.5221810340881348,-0.11786293983459473,1.3954873085021973,-0.16512995958328247
243,1.0676485378681955,0.6008221213267774,-2.9271589746220026,0.7226442098617554,-0.5653207898139954,-0.39774104952812195,0.34918203949928284,0.9106795191764832,-0.11629466712474823,-0.46861588954925537,1.249387502670288,-0.00791388750076294
244,1.1371544647133576,0.47432773490105873,-3.0550533806692792,0.8072600364685059,-0.45674049854278564,-0.3737907111644745,0.43200111389160156,-0.8080018162727356,-3.7346856594085693,-0.22957754135131836,1.1686698198318481,-0.3240089416503906
245,1.0767673477643163,-0.0011769698766976515,3.106746426710375,0.8804289698600769,0.001176969613879919,-0.4741766154766083,-3.2555525302886963,-1.4577914476394653,-4.69285774230957,0.2981293797492981,0.6936320066452026,-0.22137996554374695
246,0.9237304467734281,-0.5420661202640978,3.1192709789293294,0.6834790706634521,0.5159070491790771,-0.5164264440536499,-1.657049298286438,-0.8363993763923645,-4.303708076477051,0.6692430973052979,-0.35224127769470215,-0.6825023889541626
247,0.6225857770488651,-0.8154956600991355,2.6558051777900116,0.399745374917984,0.7280654907226562,-0.5568881034851074,1.2486567497253418,1.06027352809906,-3.992274522781372,1.3106123208999634,-0.39125823974609375,0.09219694137573242
248,0.5445986243284814,-0.9311520466738769,2.4814569872649965,0.3092440664768219,0.8023081421852112,-0.5105582475662231,-0.560416042804718,0.26632946729660034,0.11250235885381699,1.159551739692688,-0.9857646226882935,-0.25389182567596436
249,0.7048260321527748,-0.8161005221019576,2.7002551384015967,0.4438559412956238,0.7284799814224243,-0.521832287311554,0.5627380609512329,-0.8165019750595093,4.227757930755615,1.4639198780059814,-0.3122354745864868,-0.33711546659469604
250,0.9489201293937248,-0.4210414697380639,3.0804559409376595,0.7418012022972107,0.40871119499206543,-0.5316824913024902,0.6544539332389832,1.0042108297348022,5.209771156311035,0.5509539246559143,0.5317032337188721,-0.22794580459594727
251,1.1151881953249334,0.034953498319958684,-2.9618808498239644,0.8974452018737793,-0.03494638204574585,-0.43973976373672485,-0.07180671393871307,0.9288732409477234,4.50922966003418,-0.15661561489105225,0.9735907912254333,-0.10249662399291992
252,1.099582077538263,0.39049314058741275,-2.8387417322544004,0.8239432573318481,-0.38064447045326233,-0.4197944700717926,0.8768590688705444,0.5017911195755005,2.1665430068969727,-0.14894020557403564,1.333860993385315,-0.137822687625885
253,1.1613816523005438,0.484983801947348,-2.918370885224884,0.811566948890686,-0.4661940336227417,-0.35216769576072693,1.2505466938018799,-0.1925767958164215,-1.1419020891189575,-0.6857430338859558,1.3686903715133667,-0.03889980912208557
254,1.144344081297591,0.1895565285829296,-3.1013825486190782,0.8941310048103333,-0.18842338025569916,-0.40623414516448975,-0.9017422795295715,-1.605217695236206,-4.249564170837402,0.2129397988319397,1.3425524234771729,-0.11413627862930298
255,1.0048607093156896,-0.3056855864374391,-3.08163126143375,0.8049561381340027,0.30094704031944275,-0.511347770690918,-2.3689756393432617,-1.2913858890533447,-4.258995532989502,0.22067862749099731,0.15895283222198486,-0.48309803009033203
256,0.824267193189526,-0.7107106507435914,2.9658666673772554,0.5563356876373291,0.6523725390434265,-0.5146851539611816,0.4141523241996765,-0.04859893023967743,-4.089640140533447,0.7430264949798584,-0.318556010723114,-0.22666311264038086
257,0.5567587027906964,-0.884400916763608,2.5954051680016472,0.3348986804485321,0.773535430431366,-0.5380388498306274,-0.15632449090480804,0.14825600385665894,-2.079515218734741,1.1345531940460205,-0.542486846446991,-0.15916574001312256
258,0.5019871157518209,-0.934089204513007,2.5192238632094544,0.28607919812202454,0.8040578961372375,-0.5212001800537109,0.32624295353889465,0.24457138776779175,0.37216639518737793,1.1053087711334229,-0.7945973873138428,-0.34044837951660156
259,0.6625444079728606,-0.8091501937287287,2.7709984162476196,0.42450615763664246,0.723701000213623,-0.544106125831604,0.313428670167923,-1.8436594009399414,4.123103141784668,1.1834955215454102,-0.28276777267456055,-0.563895583152771
260,0.8153046978280184,-0.4282249084424739,-3.1254166647955683,0.6622052192687988,0.41525664925575256,-0.6237357258796692,1.57877779006958,0.479187935590744,4.839789390563965,0.5691180229187012,0.45894989371299744,-0.16485381126403809
261,0.9314705567584463,0.05999739284590127,-2.9862610510437855,0.8010542392730713,-0.05996140465140343,-0.5955809354782104,1.5812129974365234,0.31139495968818665,4.391196250915527,-0.11167746782302856,0.9934178590774536,-0.0006714463233947754
262,0.8955164478857359,0.40584871610323314,-2.87011235818637,0.7171276211738586,-0.3947986662387848,-0.5743362307548523,1.1796257495880127,-0.007057462818920612,2.1484994888305664,-0.23266106843948364,1.152489185333252,0.06312096118927002
263,0.9771360269996913,0.5043829043121025,-2.933990046553132,0.7256783843040466,-0.48326727747917175,-0.48973849415779114,0.09455357491970062,0.7786287069320679,-0.7670316100120544,-0.36818021535873413,1.2923645973205566,0.02623748779296875
264,1.0378929503909677,0.2518338012135131,-3.053028050273438,0.8341667056083679,-0.24918033182621002,-0.4920113682746887,-0.9599366784095764,-0.3979031443595886,-4.452753067016602,-0.10127180814743042,1.1268353462219238,-0.2550131678581238
265,0.9585137205792945,-0.18965969832760332,-3.0979669070036975,0.8036641478538513,0.18852470815181732,-0.5644309520721436,-3.022230625152588,-0.9203197360038757,-4.0624613761901855,0.4666299819946289,0.4983954429626465,-0.44278639554977417
266,0.8989970316311444,-0.6375426347121727,3.1070953400546215,0.6289495825767517,0.5952225923538208,-0.5001325011253357,-0.6806849837303162,0.5523087382316589,-3.9544837474823,0.48825323581695557,-0.4414139986038208,-0.2867632508277893
267,0.7099492054003905,-0.8407836727051321,2.7854433266481524,0.4346686005592346,0.7451659440994263,-0.505757749080658,0.6510384678840637,0.23673710227012634,-2.278353452682495,0.8411949872970581,-0.37816160917282104,-0.13218164443969727
268,0.5814128603611338,-0.943782782742331,2.5910948333139956,0.3222346305847168,0.8097833395004272,-0.4903221130371094,-0.571347177028656,0.19273120164871216,-0.21146011352539062,1.1181797981262207,-0.8211053609848022,-0.16540908813476562
269,0.7542107569041364,-0.8772444926548977,2.7623144249680665,0.4377186596393585,0.7689802646636963,-0.4659096300601959,0.1404169797897339,0.021627485752105713,2.725654125213623,0.8698527216911316,-0.6419203281402588,-0.4434531331062317
270,0.8827310618046978,-0.5170063415630848,3.0601371896641125,0.6715155839920044,0.4942799508571625,-0.5520453453063965,0.8575050234794617,-0.07004185020923615,4.652186393737793,0.8606346249580383,0.5549448728561401,-0.31666797399520874
271,1.0031030078591248,-0.10595399124170575,-3.0260170875747154,0.838415265083313,0.10575585812330246,-0.5346733331680298,0.7928798794746399,0.6264866590499878,4.471556663513184,0.004770159721374512,0.6618527770042419,-0.0009101629257202148
272,1.0308545371541002,0.2569833228385106,-2.8748707462897203,0.8295714855194092,-0.25416409969329834,-0.49720409512519836,0.634869396686554,0.06143926829099655,3.141824960708618,-0.34254133701324463,0.9584792852401733,0.025036334991455078
273,1.0407358556312343,0.4349477900551727,-2.8585498755588854,0.7824451327323914,-0.42136305570602417,-0.45851147174835205,0.7076091170310974,0.4780392646789551,-0.07430914789438248,-0.39214056730270386,1.139289140701294,0.09185802936553955
274,1.1122106517243424,0.3205064527735968,-2.9623186657400735,0.8510169982910156,-0.3150472640991211,-0.42013731598854065,-0.5790126323699951,-0.11309653520584106,-3.5430116653442383,-0.4847602844238281,1.2279043197631836,0.02180659770965576
275,1.0119713113118145,-0.08735937207569971,-3.0107144514744992,0.8446453213691711,0.087248295545578,-0.5281684398651123,-2.6134486198425293,-1.0727163553237915,-3.7703351974487305,0.6418963670730591,0.7986159324645996,-0.4184104800224304
276,0.9658649808546964,-0.4769930111464043,-2.9954860433067676,0.7307286858558655,0.459109902381897,-0.5052263736724854,-0.5769332647323608,0.42837241291999817,-2.5154380798339844,0.333037793636322,-0.43121686577796936,-0.21829962730407715
277,0.9425157337758688,-0.6771067060112907,3.0546698795299707,0.6305561065673828,0.6265406608581543,-0.45808929204940796,0.9619460701942444,0.6536830067634583,-2.7683968544006348,0.04076957702636719,-0.3425593376159668,-0.11554962396621704
278,0.6979607166573849,-0.8474619844109276,2.6668898073059553,0.42536661028862,0.7496029138565063,-0.5071082711219788,0.662142813205719,-0.3210994005203247,-2.908273220062256,0.7812831401824951,-0.44616663455963135,-0.08532953262329102
279,0.5713700706997235,-0.9341902507136973,2.514691763359305,0.32148027420043945,0.8041179776191711,-0.500044584274292,-0.41178661584854126,0.5662006139755249,0.5719369649887085,1.263099193572998,-0.8904217481613159,-0.37381094694137573
280,0.7556823573947499,-0.7891043811368171,2.733838254968118,0.4831230044364929,0.709722638130188,-0.5127241015434265,0.4871467649936676,-0.39591148495674133,3.5092761516571045,1.0126045942306519,-0.243230938911438,-0.5104082226753235
281,0.9526294930632054,-0.4359436137831303,3.0478564604590974,0.7387223243713379,0.4222659468650818,-0.5253388285636902,0.5646902322769165,1.015965461730957,4.331602573394775,0.4521803855895996,0.4638729691505432,-0.18478995561599731
282,1.077762734877023,-0.05006680127049858,-3.0206307709054823,0.8797973394393921,0.050045885145664215,-0.4727073013782501,-0.2217126339673996,0.2719540596008301,4.449743747711182,-0.0006315708160400391,0.8900481462478638,0.09152746200561523
283,1.0613047214952602,0.232248641181057,-2.782683779738754,0.8495538830757141,-0.23016637563705444,-0.4746384918689728,-1.0241117477416992,-0.3256579041481018,2.678262233734131,-0.4048517346382141,1.1555204391479492,0.23002487421035767
284,1.0525071555218328,0.29194143537037887,-2.700689952923526,0.8319120407104492,-0.2878120541572571,-0.4744330644607544,0.6138632297515869,0.4805153012275696,-1.398313045501709,-0.8035305738449097,0.9308784008026123,0.055197834968566895
285,1.1199328950719158,0.08708238824811405,-2.967148568083642,0.8966606259346008,-0.08697237074375153,-0.434091717004776,1.5723360776901245,0.2858174741268158,-4.297122478485107,0.10735243558883667,0.8913546800613403,0.1918126344680786
286,1.085238579136298,-0.2842374433476138,3.0265072400090682,0.8489283323287964,0.2804255783557892,-0.44797566533088684,-0.7420873641967773,-0.36730867624282837,-4.557181358337402,0.4571629762649536,0.6872258186340332,0.15471696853637695
287,0.9886843534431874,-0.6951309215845554,2.9067302512221342,0.6414877772331238,0.6404860019683838,-0.4222215712070465,-0.4499683082103729,0.012544318102300167,-3.4981143474578857,0.610602617263794,-0.34646445512771606,-0.329502671957016
288,0.7879926974736381,-0.9079076206416012,2.5675864143287055,0.43627843260765076,0.7882178425788879,-0.43402040004730225,1.0310019254684448,0.5666755437850952,-2.5275707244873047,0.8172310590744019,-0.5017188191413879,-0.13868772983551025
289,0.6338703396500907,-1.005698537369845,2.3581857382295746,0.31715840101242065,0.8445362448692322,-0.4314731955528259,-0.8496706485748291,-0.35905611515045166,-0.1023511067032814,1.0259201526641846,-0.8674549460411072,-0.23664814233779907
290,0.769759030840928,-0.9597596064133982,2.5363525103510542,0.39928528666496277,0.8190536499023438,-0.4119737148284912,0.07019241154193878,-0.0006702258251607418,2.4855949878692627,1.2993230819702148,-0.5303573608398438,-0.3659193515777588
291,0.9882090444245283,-0.5891491559348812,2.903287460736512,0.6942654252052307,0.5556538105010986,-0.45743244886398315,0.13587196171283722,-0.011908486485481262,5.335980415344238,0.8263797163963318,0.5924327373504639,-0.12337809801101685
292,1.0750717982075966,-0.11640430359750663,-3.1232357094813987,0.8736716508865356,0.11614160239696503,-0.4724501073360443,0.6196478009223938,-0.2120903581380844,5.030265808105469,-0.0061789751052856445,0.7764059901237488,0.006919682025909424
293,1.0567952549389932,0.2635958170054703,-3.0021294565288117,0.8407067656517029,-0.26055383682250977,-0.4746827781200409,0.9048972129821777,-0.2933174967765808,2.992882490158081,-0.22577756643295288,1.0676674842834473,0.09266376495361328
294,1.0498764548611146,0.4536400041957696,-2.990691164257044,0.7796348333358765,-0.43824028968811035,-0.4473419487476349,0.3934798240661621,0.6011848449707031,0.20058056712150574,-0.3146233558654785,1.1867144107818604,0.2922821342945099
295,1.112079913965848,0.330565051692917,-3.0482203451410297,0.8480777740478516,-0.32457754015922546,-0.41882413625717163,-0.4059666097164154,-0.11825618147850037,-3.395477771759033,-0.43932533264160156,1.1205217838287354,-0.04212862253189087
296,1.107107804242527,-0.10825481080204981,3.1204092065256748,0.8891732096672058,0.10804349184036255,-0.44463208317756653,-2.2383594512939453,0.17878317832946777,-4.787499904632568,0.5328696370124817,0.7767831683158875,-0.11080312728881836
297,1.1002242612389825,-0.5800425928460947,-3.136549746164947,0.7455259561538696,0.5480595827102661,-0.37923845648765564,-1.5356535911560059,-0.007380389608442783,-3.524756908416748,0.41702592372894287,-0.2382909059524536,-0.39479416608810425
298,0.9894624264203931,-0.8967630226567448,2.9269178904847113,0.5216150879859924,0.7813106775283813,-0.34274107217788696,0.8950014114379883,0.39461103081703186,-3.2900450229644775,0.6579350829124451,-0.43373072147369385,-0.35026735067367554
299,0.7497943175702788,-1.0701452612246076,2.637176459317542,0.32711225748062134,0.8772702217102051,-0.3512756824493408,-0.7963240742683411,-0.31852471828460693,-1.065874457359314,1.1823787689208984,-0.7682156562805176,-0.3130462169647217
300,0.7946110405031719,-1.0302063091687303,2.7144218121723678,0.3672439754009247,0.8574051856994629,-0.3605388104915619,0.44162115454673767,-0.1580929309129715,2.019209146499634,1.128636121749878,-0.7019333839416504,-0.3605304956436157
301,0.9128443789139064,-0.6857594134878682,3.0350762244152936,0.6123758554458618,0.6332609057426453,-0.47326144576072693,0.7735490202903748,-1.115786075592041,4.7576985359191895,0.9871572256088257,0.42109090089797974,-0.24098718166351318
302,0.971320548422947,-0.2660721681114682,-3.0173927410616987,0.7965784668922424,0.2629438638687134,-0.5443558096885681,1.2210369110107422,-0.2426421344280243,4.452022552490234,0.12496083974838257,0.5206712484359741,0.03268289566040039
303,0.9633400377324474,0.1291753916313056,-2.9108195340417744,0.8142615556716919,-0.12881645560264587,-0.5660251975059509,1.3528637886047363,-0.2862073481082916,3.208740711212158,-0.06415468454360962,0.9993456602096558,0.13629192113876343
304,0.979185800768318,0.393142460395255,-2.884431393943457,0.7667193412780762,-0.3830930292606354,-0.5151516199111938,0.9148725271224976,0.8754715323448181,1.2707217931747437,-0.14503049850463867,1.298315167427063,0.22717249393463135
305,1.0934493567906702,0.38504490528550483,-2.9146149867354834,0.823183000087738,-0.37560075521469116,-0.42578598856925964,-0.4918004870414734,0.9642527103424072,-2.5353400707244873,-0.7621326446533203,1.151510238647461,0.22833728790283203
306,1.1040418054665424,-0.0005781906185672775,-3.0179959310397577,0.8930333256721497,0.0005781906074844301,-0.44999030232429504,-1.4942623376846313,-0.5252056121826172,-4.993811130523682,0.29870861768722534,1.1593186855316162,-0.18804073333740234
307,1.0609947704629712,-0.49859750381606416,-3.02930410269889,0.7665764093399048,0.4781942665576935,-0.4285915195941925,-2.0073189735412598,-0.3797091245651245,-4.160492420196533,0.46265625953674316,-0.07447725534439087,-0.3835574984550476
308,1.0013180708108154,-0.8432057678347032,3.091545257729248,0.5601122379302979,0.7467790246009827,-0.3586021661758423,0.7285222411155701,0.9111573696136475,-3.0442981719970703,0.7286908626556396,-0.5687394738197327,-0.3234809637069702
309,0.8663220563312624,-0.9584050857872682,2.791300104578034,0.437989741563797,0.8182758092880249,-0.3722763657569885,0.2597406208515167,1.0531740188598633,-0.7387489676475525,1.020643711090088,-0.6688617467880249,-0.18027490377426147
310,0.9442434387604937,-0.9134523803986428,2.8014671828898123,0.4949560761451721,0.7916179299354553,-0.35827311873435974,0.274923175573349,0.8179923295974731,1.4863477945327759,1.0120630264282227,-0.5518565773963928,-0.39899009466171265
311,1.0660284612218986,-0.6397737062361779,2.9333681021367166,0.7021819949150085,0.5970138907432556,-0.3879622519016266,1.7467224597930908,0.03469206392765045,3.8215696811676025,0.7011840343475342,0.1562819480895996,-0.5293809175491333
312,1.1167602328335196,-0.3280731616749873,3.0125590966589924,0.8507528901100159,0.3222195506095886,-0.415203720331192,-0.3884485363960266,-0.7911862730979919,3.075535535812378,-0.18978792428970337,0.178360253572464,0.2745939791202545
313,1.0954345878125167,-0.07750854375007775,-3.1276051956018662,0.8864577412605286,0.07743096351623535,-0.4562860429286957,0.36534151434898376,-0.12931787967681885,2.6242799758911133,-0.2667068839073181,0.30045294761657715,0.14998114109039307
314,1.0728452879591752,0.15856896664774892,-3.1299671912081437,0.8675408363342285,-0.15790529549121857,-0.47163423895835876,1.5441583395004272,-0.0908069759607315,1.1108405590057373,-0.06292963027954102,0.9702832102775574,0.04425084590911865
315,1.111580156765578,0.22642818043213728,3.1134973194018096,0.8735190629959106,-0.22449831664562225,-0.4319315254688263,-0.09032764285802841,0.5518980622291565,-0.693524181842804,-0.3803856372833252,1.0009723901748657,-0.11080831289291382
316,1.1302426737137325,-0.003961836933748756,3.073405520914881,0.9045085906982422,0.003961826674640179,-0.4264369606971741,-1.607262134552002,-0.26210349798202515,-2.599729299545288,-0.011030197143554688,0.6207177639007568,-0.10787999629974365
317,1.0999229686433316,-0.34396217101603777,3.09612112542162,0.838972806930542,0.33721983432769775,-0.4270917773246765,-1.0651055574417114,0.00833960622549057,-3.3467226028442383,0.05349844694137573,-0.028275132179260254,-0.32170283794403076
318,1.0613559215648543,-0.6359643367310602,2.971949451197788,0.7023419141769409,0.5939536094665527,-0.39234524965286255,0.18222211301326752,0.2500554919242859,-2.7583839893341064,0.1805773377418518,-0.3775840401649475,-0.16814053058624268
319,0.9175161405514916,-0.8334287924033604,2.760199971080892,0.5339027643203735,0.7402410507202148,-0.40864554047584534,0.20877164602279663,-0.2256724089384079,-2.1206109523773193,0.6182731986045837,-0.37412160634994507,-0.16307079792022705
320,0.7925593433189914,-0.9397732155595787,2.6273404507976856,0.4201493263244629,0.8074243068695068,-0.41417446732521057,-0.45287591218948364,-0.06639198213815689,-0.3891568183898926,0.9415297508239746,-0.6008050441741943,-0.10322052240371704
321,0.8667670906417255,-0.8981357495667289,2.756082361997987,0.47492846846580505,0.7821667194366455,-0.40330907702445984,-0.4382956922054291,-1.0475711822509766,2.20304536819458,0.9144910573959351,-0.484635591506958,-0.3241231441497803
322,0.9622740878102545,-0.6009802210763607,3.062249093404832,0.6767282485961914,0.5654512047767639,-0.47149112820625305,0.8672372102737427,-0.2743363380432129,4.186341762542725,0.7210836410522461,0.2583555579185486,-0.22289055585861206
323,1.0628156162165128,-0.17902454378739885,-3.061729911467327,0.8597643971443176,0.17806978523731232,-0.47863996028900146,1.0098921060562134,0.5278280377388,4.230407238006592,-0.1066669225692749,0.5646517276763916,0.025087714195251465
324,1.0721709157713517,0.18644248445703723,-2.9684047628487806,0.863020658493042,-0.18536421656608582,-0.46993115544319153,0.8094428777694702,-0.10707271844148636,2.6210641860961914,-0.35543709993362427,0.9785771369934082,0.0757509171962738
325,1.0751769825421305,0.34106108440091715,-2.9746297582903334,0.8290053606033325,-0.33448725938796997,-0.44818350672721863,0.40103286504745483,0.423756867647171,0.21902166306972504,-0.2615004777908325,1.0799553394317627,0.14020007848739624
326,1.1188968284705696,0.23241361230616997,-3.039871963179187,0.875431478023529,-0.23032690584659576,-0.42493438720703125,-0.6258741617202759,-0.17024487257003784,-2.973806381225586,-0.5109447836875916,0.9708664417266846,0.12616732716560364
327,1.0620073023393557,-0.11107900915594152,-3.1130268443144473,0.8679527044296265,0.11085072159767151,-0.48411792516708374,-1.3742755651474,-1.1978703737258911,-4.392490386962891,0.23887401819229126,0.8790784478187561,-0.31594613194465637
328,1.0114031918296893,-0.6184528833561577,-3.122670883913587,0.6905859708786011,0.5797752737998962,-0.43237894773483276,-1.9195382595062256,-0.15154682099819183,-3.1921770572662354,0.41736990213394165,-0.365053653717041,-0.36147478222846985
329,0.9414928753082127,-0.8577214984650997,3.0283529950441275,0.528849720954895,0.756354033946991,-0.385028213262558,0.4705135226249695,0.4286496937274933,-2.395840883255005,0.43864911794662476,-0.5466066002845764,-0.2808653712272644
330,0.7306459920474575,-0.983264778035384,2.7578313373247325,0.36991798877716064,0.8323115110397339,-0.4128172993659973,-0.10051427781581879,-0.09100174903869629,-1.5856114625930786,0.8620918989181519,-0.48129838705062866,-0.1375824511051178
331,0.7283533606599837,-1.0196082823853467,2.7723451624825093,0.3485964238643646,0.851902961730957,-0.39082223176956177,0.14782892167568207,0.4211983382701874,1.028896450996399,1.0916653871536255,-0.6802873611450195,-0.27862662076950073
332,0.8752558538952789,-0.8063202890560504,2.9819386967029113,0.5313757061958313,0.7217451333999634,-0.44353583455085754,1.0444992780685425,-1.123200535774231,3.852421998977661,1.0572779178619385,0.022197186946868896,-0.5138311386108398
333,0.9946505218724585,-0.3847184230740246,-3.0728948590657943,0.7772727012634277,0.3752981424331665,-0.5049736499786377,1.3325304985046387,1.3531999588012695,4.772049903869629,0.58992999792099,0.707175612449646,-0.23426884412765503
334,1.1710690875111982,0.06437130028539877,-2.9445985299731388,0.9192593097686768,-0.06432685256004333,-0.3883610665798187,-0.1778845340013504,0.4373341202735901,5.018391132354736,-0.17740750312805176,1.1133075952529907,-0.018957018852233887
335,1.139959664270041,0.3784968725548271,-2.6980248527206654,0.8443058133125305,-0.36952415108680725,-0.3880717158317566,-1.133937120437622,0.20537219941616058,2.0498077869415283,-0.6233890652656555,1.2089406251907349,0.055323243141174316
336,1.1102437478699259,0.35183680936493156,-2.604973632225342,0.8409309983253479,-0.3446226716041565,-0.4172171354293823,-1.7039180994033813,0.6702660918235779,-2.0763211250305176,-0.2530404329299927,1.3012725114822388,0.3020895719528198
337,1.1728554334625374,-0.0035667400899002553,-2.531988125061599,0.9218550324440002,0.003566732630133629,-0.3875184953212738,-3.052708148956299,1.584043025970459,-2.6907339096069336,0.8949174284934998,0.5660285949707031,-0.013665556907653809
338,1.342950432821604,-0.28344760222985765,-2.3372553759110097,0.935283362865448,0.27966734766960144,-0.21686629951000214,-1.6309373378753662,2.082493543624878,-0.7743315100669861,1.0975229740142822,-0.8891491889953613,-0.7421485185623169
339,1.4930578499664549,-0.2589417593573077,-2.4492946223775114,0.9637420773506165,0.2560577392578125,-0.07507112622261047,1.61838960647583,0.9110446572303772,1.0467925071716309,-0.30843812227249146,-0.851043701171875,-0.4879171848297119
340,1.450266014511835,-0.12478900848997289,-2.52696048189391,0.9850252270698547,0.12446538358926773,-0.11930368840694427,0.24438397586345673,-0.9991492033004761,1.192854404449463,-0.8561344146728516,-0.08277840167284012,-0.24611380696296692
341,1.335209657774022,-0.03619934418221753,-2.5070935362603635,0.9717404246330261,0.036191437393426895,-0.23326054215431213,-1.0582369565963745,-0.664277195930481,0.8845383524894714,0.33573925495147705,0.1971612274646759,0.15356390178203583
342,1.2892225098329138,-0.011545596529561886,-2.3716298923528596,0.9605552554130554,0.011545339599251747,-0.27784931659698486,-2.192307949066162,-0.09043797105550766,0.3971328139305115,0.3832404613494873,0.2798517346382141,0.07924094796180725
343,1.3677853854710202,-0.1313154264264806,-2.1782782257404847,0.9710313677787781,0.1309383511543274,-0.19988353550434113,-1.8923758268356323,0.9727213382720947,-1.4986953735351562,0.4211500883102417,0.1454288512468338,0.11652478575706482
344,1.428980794142141,-0.2692276483152269,-2.1334359634885995,0.9542993903160095,0.26598697900772095,-0.1362490952014923,0.2811543047428131,0.5538671016693115,-1.0729115009307861,-0.6444695591926575,-0.08480408787727356,-0.127560093998909
345,1.4722863075011152,-0.49654622468059273,-2.1939805874076495,0.8749704957008362,0.4763917028903961,-0.0864732638001442,0.576123833656311,-0.4976785480976105,-2.466188907623291,-0.3439798355102539,-0.40221869945526123,-0.2728254795074463
346,1.3928131956164211,-0.539765778484896,-2.34470111590337,0.8442777991294861,0.5139350891113281,-0.15187430381774902,1.528428077697754,-1.5360811948776245,-0.37215614318847656,0.19101572036743164,-0.17836380004882812,-0.674724817276001
347,1.2651876916870175,-0.5775378015817226,-2.514590109631998,0.7989888191223145,0.5459627509117126,-0.25207483768463135,0.36946535110473633,0.21901756525039673,-0.9101591110229492,0.3977122902870178,0.08417946100234985,0.06747400760650635
348,1.3682443246231708,-0.7744316953583654,-2.4982263633365114,0.7002049088478088,0.6993099451065063,-0.14379988610744476,-0.7347447872161865,3.212280511856079,-2.420499563217163,-0.2877447009086609,-0.3783109188079834,0.25958362221717834
349,1.3707500520704403,-1.020644239209575,-2.487131603281242,0.512390673160553,0.8524450063705444,-0.10389141738414764,-2.6258349418640137,-2.927001476287842,-4.768204689025879,-0.2991185784339905,1.282488465309143,-0.34174150228500366
350,1.4206385635864685,-1.3073406321119785,-2.1497853765966832,0.25748810172080994,0.9654958248138428,-0.03895707428455353,-0.3392670154571533,-3.4546332359313965,-0.9041785597801208,-0.27795013785362244,-1.0709187984466553,-0.04545450210571289
351,1.3236666604512128,-1.2649667453880875,-2.1088950795513117,0.2919369637966156,0.9535974860191345,-0.07365180552005768,-0.47036367654800415,-0.9481092095375061,0.38850265741348267,0.05440706014633179,0.1090245246887207,-0.5027337074279785
352,1.2597637771011378,-1.2329593925397009,-2.1264268815291363,0.3155438303947449,0.9434738159179688,-0.10143672674894333,0.8772495985031128,-0.44301000237464905,0.6446021199226379,0.13301879167556763,-0.09694671630859375,-0.6242254972457886
353,1.3282715367173028,-1.2545049955580168,-2.198415910805097,0.3019411563873291,0.9503955245018005,-0.0746985375881195,-0.28824710845947266,2.5590999126434326,-1.5452407598495483,-0.01301601529121399,0.44662290811538696,0.2633582353591919
354,1.5982228537294678,-1.4234816481340606,-2.025806958031039,0.14672774076461792,0.9891688227653503,0.004025241360068321,-1.1893606185913086,-0.8163403868675232,-0.9437347650527954,-0.2696983218193054,-0.13505804538726807,0.19116520881652832
355,2.163100680639839,-1.4138027672712,-1.5055273463581096,0.12971651554107666,0.9877017736434937,0.08728601038455963,-0.8039808869361877,1.3959743976593018,-0.1977614313364029,-0.11932528018951416,-0.5911411046981812,-0.16812705993652344
356,2.6565166443010604,-1.3711583838924086,-1.0465385812765342,0.09246896207332611,0.9801384210586548,0.1754363626241684,-0.37027961015701294,-0.11674953997135162,0.025021053850650787,0.4034416675567627,0.20244812965393066,-0.5484832525253296
357,2.3469639066877006,-1.3314782731034798,-1.3194539270558692,0.16915270686149597,0.9714998602867126,0.16605842113494873,0.5937849283218384,-0.2618871033191681,0.6529146432876587,0.28124094009399414,0.7865109443664551,-0.07688607275485992
358,2.579746592526988,-1.37432134875172,-1.1284631122442492,0.10399962961673737,0.9807608127593994,0.1652035415172577,0.8547505140304565,-0.09452497959136963,-0.788182258605957,-0.30723145604133606,0.11680382490158081,0.4401583671569824
359,2.8198222926142575,-1.3936225239643685,-0.8865948447357129,0.05573808029294014,0.9843457341194153,0.16720320284366608,-0.459170937538147,-0.9806705117225647,-0.24268272519111633,-0.08048783242702484,-0.6015790104866028,-0.39306390285491943
360,2.901628477051233,-1.3721861666286714,-0.7021509396283867,0.04689343646168709,0.9803417325019836,0.19165310263633728,-0.17068584263324738,-1.2268940210342407,-0.5754099488258362,-0.07310804724693298,-0.5714520812034607,-0.08905304968357086
361,2.8763386629962753,-1.3643319661623645,-0.5619021808467831,0.05374201014637947,0.9787618517875671,0.1978316605091095,-0.35191646218299866,-0.08489672839641571,-0.7169731855392456,-0.050140924751758575,0.5485667586326599,-0.23675689101219177
362,2.9139030987091714,-1.3944529064429865,-0.5033174559899987,0.0395997017621994,0.984491765499115,0.17090380191802979,-0.97666996717453,1.1480646133422852,-0.33309584856033325,-0.4850342571735382,0.5683342814445496,0.5951789617538452
363,3.1032966498334487,-1.3595706338434512,-0.29380681223724836,0.008027143776416779,0.9777746796607971,0.20950539410114288,-0.16698245704174042,-0.8088445663452148,-0.21817199885845184,-0.09358317404985428,0.10634708404541016,0.7786842584609985
364,-3.139237724439545,-1.2901666521502049,-0.23565793906003443,-0.0006522232433781028,0.960881233215332,0.2769603729248047,-1.2163136005401611,0.5205991268157959,0.21338623762130737,0.14789952337741852,-0.4549912214279175,-0.1831035315990448
365,-3.060371765707879,-1.2654737971186063,-0.3288289289277844,-0.02438824065029621,0.9537500739097595,0.2996099591255188,0.2932683825492859,2.518772602081299,0.1543012410402298,-0.12749774754047394,-0.7101892828941345,-0.23779666423797607
366,-2.9587067342044127,-1.2607763449348033,-0.3114382731325323,-0.055483970791101456,0.9523274898529053,0.2999902367591858,0.523958146572113,-0.23724015057086945,0.14194610714912415,0.7030974626541138,0.8819926977157593,-0.5060755014419556
367,-3.086907595451428,-1.3643869281149223,-0.4177825245691825,-0.011201960034668446,0.9787731170654297,0.20464076101779938,1.2089154720306396,-0.954692542552948,0.5162822008132935,0.14207659661769867,0.5546283721923828,0.056315064430236816
368,3.0378274057056713,-1.3993827360441597,-0.4964141092138882,0.017667997628450394,0.985344648361206,0.1696573793888092,-0.11295746266841888,-0.4627824127674103,-0.07938384264707565,-0.5266249179840088,0.1302405595779419,0.8582051992416382
369,3.0570444399192165,-1.3971961961169985,-0.43439615720055325,0.014586581848561764,0.9849693179130554,0.17211253941059113,0.04143930971622467,-1.2576987743377686,-0.6532589197158813,0.10598836839199066,-0.3044273257255554,-0.2634059190750122
370,-2.95597578420004,-1.384360067385284,-0.10962317817126802,-0.03420828655362129,0.9826710224151611,0.1821737140417099,-0.23629160225391388,-0.6964499354362488,-0.37201833724975586,0.0687999576330185,-0.7250875234603882,-0.15014542639255524
371,-3.040171425357286,-1.3919009662570196,-0.025323949993362387,-0.018016327172517776,0.9840408563613892,0.17702911794185638,0.4974077045917511,-1.8453580141067505,-0.022719688713550568,-0.017719758674502373,0.5458970069885254,-0.3715939521789551
372,-2.8232578941984334,-1.395480695422494,0.256085276396526,-0.054590556770563126,0.9846715331077576,0.1656556874513626,-0.06806617975234985,-0.0587170235812664,-0.11494015157222748,-0.043599747121334076,0.5102167129516602,0.08521400392055511
373,-2.8656518414914465,-1.3960841035564757,0.19397963064533535,-0.04735909774899483,0.9847766160964966,0.16724936664104462,0.0810130313038826,-0.6982158422470093,0.2292519360780716,0.08356820791959763,0.08677184581756592,0.48489606380462646
374,-3.0755459678468426,-1.4021411610562804,0.04710922479477269,-0.01107831858098507,0.9858114123344421,0.16749069094657898,-0.17489345371723175,-0.3593812584877014,0.17556823790073395,-0.06156877428293228,-0.31703394651412964,-0.16221117973327637
375,-3.1181526832501514,-1.3579671066678056,-0.06021183771882557,-0.004950676579028368,0.9774371981620789,0.21116791665554047,-0.8437697291374207,1.0509529113769531,0.1634775847196579,-0.14012989401817322,-0.5022175312042236,-0.049195900559425354
376,-3.075815477217771,-1.3294224904946657,-0.04672816000367654,-0.01571180298924446,0.9710105061531067,0.23851947486400604,0.6698276400566101,-0.23088675737380981,0.04530605301260948,0.17805005609989166,0.39446789026260376,-0.6742801070213318
377,-2.956696121355542,-1.436060615790448,0.10643503850638299,-0.02469569258391857,0.9909368753433228,0.1320393979549408,1.3906055688858032,-0.2618204951286316,-0.23990106582641602,0.04495936632156372,0.6943811178207397,0.11731982231140137
378,-2.668150908341222,-1.4527362073986203,0.29801426070466847,-0.05370516702532768,0.9930390119552612,0.104830801486969,0.05511292442679405,1.289790153503418,0.0170883908867836,-0.3115749955177307,-0.05878901481628418,0.7325714826583862
379,-2.6151844104935753,-1.429692030195031,0.4072704642413611,-0.07066017389297485,0.9900612831115723,0.1215967908501625,-0.13677625358104706,-0.11225255578756332,-0.24544869363307953,0.062084734439849854,-0.44385772943496704,-0.18989503383636475
380,-2.6094353104899413,-1.3901002730815957,0.48764757803778863,-0.09118616580963135,0.9837188124656677,0.1548629105091095,-0.33255434036254883,-1.0577030181884766,-0.3604033887386322,0.22486841678619385,-0.6029052138328552,0.08447122573852539
381,-2.727155553687921,-1.4116631792189136,0.41847150209083905,-0.0638091042637825,0.9873650074005127,0.1450481414794922,0.48218780755996704,-2.186774492263794,0.29070156812667847,0.04012744873762131,0.5651863813400269,-1.0316905975341797
382,-2.4935712862496673,-1.4333717039914655,0.7138378193600047,-0.08268928527832031,0.9905720949172974,0.10922032594680786,0.6342214345932007,-0.41667261719703674,0.7038263082504272,-0.249357208609581,0.2624337077140808,0.07779131084680557
383,-2.8843496417291883,-1.4293421573810967,0.30606986396825037,-0.035868339240550995,0.9900120496749878,0.13634440302848816,-0.010444078594446182,0.034355029463768005,0.13737232983112335,-0.1470235139131546,0.13764309883117676,0.252571702003479
384,-2.9835039163257577,-1.4363632359538963,0.23768823198012165,-0.021100301295518875,0.9909774661064148,0.13235749304294586,-0.19778287410736084,-0.34500324726104736,0.1626821905374527,-0.023089149966835976,-0.2004196047782898,0.09501373767852783
385,3.131238189488003,-1.3860590753159474,0.047851544208013866,0.001901961979456246,0.9829845428466797,0.18367865681648254,-0.8276410698890686,0.14570671319961548,0.2218470722436905,-0.10576853901147842,-0.6097698211669922,-0.11502933502197266
386,3.123213065561988,-1.3164940572612371,0.019357953610120018,0.004623486194759607,0.9678390622138977,0.25152716040611267,-0.5328786969184875,0.1438159942626953,-0.09071050584316254,-0.01498420350253582,0.14181047677993774,-0.29190197587013245
387,3.11437325070816,-1.3362862445927113,-0.025939564779407627,0.006324118003249168,0.9726282954216003,0.23228120803833008,1.0439345836639404,0.19805990159511566,-0.10865402966737747,-0.08052761107683182,0.6675238013267517,-0.4336208999156952
388,-3.058825296473037,-1.407018685376525,0.043030412783012915,-0.013479619286954403,0.9866183996200562,0.16248948872089386,0.10585466772317886,0.8561447262763977,-0.42661982774734497,-0.13367614150047302,0.0954129695892334,0.5225232839584351
389,-2.9072118729109544,-1.3889308967703542,0.18503296661479138,-0.042004067450761795,0.9835079908370972,0.17591920495033264,-0.15080691874027252,-0.9162774085998535,0.013569798320531845,-0.1402621567249298,-0.21431249380111694,-0.03862060606479645
390,-3.0590561120650066,-1.392225443770643,0.03575033371661054,-0.014643726870417595,0.9840985536575317,0.17701806128025055,-0.09526152908802032,0.5481964349746704,0.2791917622089386,0.07866960763931274,-0.4166548252105713,-0.25262537598609924
391,-2.8363457363503293,-1.335386218678564,0.2055310431284756,-0.0700959637761116,0.9724187850952148,0.2224600464105606,-0.6371853947639465,0.05673181638121605,-1.0984879732131958,0.004132218658924103,-0.3010777235031128,-0.11221525073051453
392,-2.47954409946179,-1.3545673840878871,0.5998436496103418,-0.13189035654067993,0.9767134785652161,0.16922198235988617,0.9799503684043884,0.32458165287971497,-0.6812759637832642,-0.11583609879016876,0.579606831073761,-0.2503376007080078
393,-2.1489286676570956,-1.3771089380010597,0.7460269988988029,-0.1611984670162201,0.9813011884689331,0.10518238693475723,0.13615356385707855,1.2471098899841309,0.5944793820381165,-0.5929824113845825,-0.5250174403190613,0.361706018447876
394,-2.7003550999461963,-1.4160663351599698,0.20373505921917015,-0.065815769135952,0.9880532026290894,0.13935361802577972,-0.636171281337738,-1.549710750579834,1.660784363746643,-0.0185043066740036,-0.1616828441619873,0.3887988328933716
395,2.7116574795096375,-1.4353554545235172,-0.7096476059211362,0.0562811978161335,0.9908419251441956,0.12273930758237839,0.8014114499092102,1.4532886743545532,0.8100306987762451,-0.0083838552236557,-0.3357362747192383,-0.24059820175170898
396,2.479924318516407,-1.448580989774199,-1.0276916102928495,0.07490658015012741,0.9925410151481628,0.09618432074785233,-0.6385644674301147,0.4652343690395355,-0.16723568737506866,-0.10304379463195801,-0.35330456495285034,-0.144722580909729
397,2.5977922558733013,-1.4295462304584916,-0.9207086569590225,0.07283952832221985,0.9900407791137695,0.12047410011291504,0.7131087779998779,0.1916043907403946,0.24259082973003387,0.30463239550590515,0.324931263923645,-0.43904709815979004
398,1.5697177785877143,-1.477679028261175,-1.9587136431061614,0.09298267215490341,0.9956676959991455,-0.00010028633550973609,1.308212161064148,0.5285927057266235,0.02294616587460041,0.17299328744411469,0.6121203303337097,0.012139499187469482
399,2.844928980137095,-1.4924301858448321,-0.6305072226070747,0.02288549393415451,0.9969309568405151,0.0748663991689682,-2.2716917991638184,-3.0418033599853516,-0.8532134890556335,-0.4084598422050476,-0.10124003887176514,0.0945366621017456
400,2.8309972050003402,-1.4950995808042795,-0.5887283972072729,0.023112591356039047,0.9971363544464111,0.07200539112091064,0.6051437258720398,0.4069008231163025,0.40901151299476624,-0.04174356907606125,-0.5099385380744934,-0.11537086963653564
401,1.8827970679570363,-1.495496247360613,-1.5334493619596559,0.07159731537103653,0.9971662759780884,0.023092638701200485,-0.5308161377906799,-1.0169203281402588,-0.3137543201446533,0.051647916436195374,-0.6588026285171509,0.06508791446685791
402,2.3808742262244236,-1.5168184140916994,-1.016299159746151,0.03719772771000862,0.9985435605049133,0.03908064216375351,0.028436798602342606,-1.3149205446243286,-0.03344942629337311,0.06599746644496918,0.30963826179504395,-0.7946653366088867
403,1.875657703827173,-1.5320833885079967,-1.5020688579010943,0.036918021738529205,0.9992507696151733,0.011617026291787624,0.22354461252689362,0.6916045546531677,0.496348112821579,-0.04375395551323891,0.3394485116004944,-0.14352929592132568
404,2.9233050654648376,-1.4683015426716777,-0.4963310147527757,0.022157350555062294,0.9947519898414612,0.09988794475793839,0.15326707065105438,-3.06085205078125,0.34043553471565247,-0.12198035418987274,0.10346883535385132,-0.11830520629882812
405,2.6632988009363396,-1.4496802326438314,-0.7296537603448349,0.055609241127967834,0.9926744103431702,0.1072617694735527,-0.09411963820457458,0.41668054461479187,0.08448439091444016,-0.03429272398352623,-0.23995840549468994,0.0741347000002861
406,2.6388355973330575,-1.463043352240804,-0.8701184885365704,0.051820263266563416,0.9942002892494202,0.09423788636922836,-0.182638019323349,1.2725774049758911,-0.38477611541748047,-0.08604571968317032,-0.6138137578964233,-0.1273035854101181
407,2.977657680055861,-1.436714011698794,-0.610663696358269,0.02181689254939556,0.9910244345664978,0.131888285279274,-0.06801631301641464,0.10497789829969406,-0.03046463057398796,0.3195984959602356,0.2635989785194397,-0.4596623182296753
408,2.7262787458435005,-1.4935721446002541,-0.8622391492442505,0.03112674318253994,0.9970197081565857,0.07058800756931305,1.1570489406585693,0.41447678208351135,0.4393235743045807,0.20835994184017181,0.7524003982543945,-0.2214212417602539
409,2.869250808791135,-1.4560251759742777,-0.706684601138815,0.030804075300693512,0.9934210181236267,0.1102977842092514,-0.3063715100288391,-0.959988534450531,-0.5977035164833069,-0.5076107382774353,0.14096301794052124,0.7751392126083374
410,2.665143366013398,-1.4646881779585923,-0.8793583738570754,0.04857209697365761,0.9943758249282837,0.09411261975765228,0.5449556112289429,-0.04426177591085434,0.2675842046737671,-0.0942874327301979,-0.29535555839538574,-0.13023020327091217
411,2.3676535500007843,-1.526770773176983,-1.1127834452135823,0.030763939023017883,0.9990310072898865,0.0314771942794323,-0.421975702047348,-0.2478526532649994,-0.3669985830783844,0.004636455327272415,-0.6507948637008667,-0.006407018750905991
412,2.8314586735499154,-1.4905315217089579,-0.5196192322790671,0.024469148367643356,0.996780514717102,0.07635269314050674,-0.07882855832576752,-1.3450161218643188,-0.010915696620941162,0.013540487736463547,0.3553769588470459,-0.4810004234313965
413,2.744400593527699,-1.5177165258967225,-0.572275192347654,0.020524434745311737,0.9985916018486023,0.0489274337887764,0.5028051733970642,0.4040178954601288,0.5499404668807983,-0.03912489861249924,0.37209028005599976,0.010215647518634796
414,2.9336708693406948,-1.4586038388791183,-0.4248752021957193,0.023110901936888695,0.9937130212783813,0.1095455139875412,0.5886979103088379,-1.3856661319732666,0.5275569558143616,-0.15537409484386444,0.24943572282791138,0.23751568794250488
415,2.5216684632159807,-1.4386764723896104,-0.8010863877294548,0.07653527706861496,0.9912848472595215,0.10722311586141586,-0.08317320793867111,-0.053251512348651886,0.20086431503295898,-0.07880882918834686,-0.32262951135635376,0.030334949493408203
416,2.6818359669018488,-1.4186950479793765,-0.7220306015092401,0.067232146859169,0.9884548783302307,0.13578253984451294,-0.5153899192810059,1.1282254457473755,-0.08168086409568787,-0.1778430938720703,-0.7067928910255432,-0.052713632583618164
417,2.881539262521293,-1.383996787700748,-0.5662114028032188,0.04775327444076538,0.9826036691665649,0.1794704794883728,0.06104845553636551,0.050214774906635284,-0.09595933556556702,0.2562475800514221,0.3404706120491028,-0.4687618017196655
418,2.693936703829831,-1.4270605796856881,-0.7638802322552962,0.06200239807367325,0.9896878004074097,0.1291266530752182,1.284958839416504,-0.13894140720367432,0.42611488699913025,0.23519302904605865,0.5868502259254456,-0.4559546709060669
419,2.3140691765471813,-1.4694539885859355,-1.2035252323962167,0.07448707520961761,0.9948692321777344,0.06846174597740173,-0.019239060580730438,-0.06156501919031143,-0.18655391037464142,-0.4394772946834564,0.2162514328956604,0.5509077310562134
420,2.4620204808563395,-1.483243210436728,-0.9979541998435999,0.05495370179414749,0.9961696863174438,0.06801588088274002,-0.4505130350589752,-1.0411847829818726,-0.13114973902702332,-0.05095590651035309,-0.27029383182525635,0.0949479341506958
421,2.743528475762013,-1.4631492886265764,-0.660489034410977,0.041647423058748245,0.9942116737365723,0.09903950244188309,-0.3417800962924957,-0.4312872588634491,-0.3601502776145935,0.028558261692523956,-0.674921452999115,-0.11371850967407227
422,2.9105276887158635,-1.4291623271648206,-0.4001226169769976,0.03232778236269951,0.9899866580963135,0.13740891218185425,-0.23413893580436707,-1.431739330291748,0.03217357024550438,-0.025552887469530106,0.11523789167404175,-0.453342080116272
423,2.837945746918822,-1.4357476746421127,-0.43910389765328894,0.04025721549987793,0.9908947944641113,0.12847910821437836,0.7461043000221252,-0.005839235614985228,0.036279790103435516,-0.07484889030456543,0.32973814010620117,-0.40666210651397705
424,2.876861451005177,-1.473388834996359,-0.4749846971381727,0.025446178391575813,0.9952596426010132,0.09386478364467621,1.0212301015853882,0.013053575530648232,0.16317561268806458,-0.37632203102111816,0.48528528213500977,0.1205059140920639
425,2.851758387096914,-1.4950367598103362,-0.4183821758564145,0.021630818024277687,0.9971316456794739,0.072530098259449,-0.85875004529953,-0.9742505550384521,-0.1861800104379654,0.17732852697372437,-0.03984099626541138,0.29040026664733887
426,2.811809122209463,-1.4471671943397932,-0.5598731168485487,0.039934270083904266,0.9923676252365112,0.11667031794786453,-0.1347179114818573,1.3145607709884644,-0.4106808304786682,-0.13267718255519867,-0.8059813976287842,-0.19313214719295502
427,3.1379305000979936,-1.4253889585982267,-0.2791701325932607,0.0005306260427460074,0.9894469380378723,0.14489389955997467,-0.32749462127685547,-0.21914564073085785,-0.07900802791118622,0.10831031203269958,-0.09758609533309937,-0.22329355776309967
428,3.0316696624055743,-1.4563310969267813,-0.3450897579461369,0.012529529631137848,0.9934560060501099,0.1135251447558403,0.8121302723884583,-0.43728843331336975,0.13886915147304535,0.004987558349967003,0.3866250514984131,-0.4723966121673584
429,2.3785672508661135,-1.4986332263372015,-1.041145543231501,0.04983033239841461,0.9973973631858826,0.0521114319562912,-0.4342535138130188,0.9881581664085388,-0.02753257378935814,-0.15154540538787842,0.08023947477340698,0.3612797260284424
430,2.626516318581053,-1.492081526569209,-0.7999583483418543,0.03873605653643608,0.9969035983085632,0.06843314319849014,0.30045580863952637,-0.16280707716941833,-0.0789252370595932,-0.23720712959766388,0.06843465566635132,-0.013226740062236786
431,2.867778079198251,-1.493234753311365,-0.49062307378669745,0.020952308550477028,0.9969936013221741,0.07459808886051178,-0.2852059304714203,-0.14104482531547546,-0.10764611512422562,0.17602339386940002,-0.5229335427284241,-0.12220549583435059
432,-3.044521337652241,-1.476771113156268,-0.05624415365340767,-0.009099442511796951,0.9955828785896301,0.09344514459371567,-0.22526565194129944,-1.4477719068527222,-0.3884340524673462,-0.08019499480724335,-0.18227416276931763,-0.2145388126373291
433,3.0409239397166474,-1.4615126366633469,-0.17110520252330755,0.010961057618260384,0.994034469127655,0.10851439833641052,0.5371212363243103,-0.47240862250328064,-0.08120155334472656,-0.09254980087280273,0.5642998814582825,-0.5335022211074829
434,3.0278803799338903,-1.4765174286875915,-0.19553318882297582,0.010681700892746449,0.99555903673172,0.09353099018335342,-0.8859537839889526,0.8766190409660339,-0.04804854840040207,-0.20968683063983917,0.24910032749176025,0.4742485284805298
435,2.750919793136975,-1.4485089115664218,-0.45808651579567616,0.046452898532152176,0.9925321936607361,0.11279309540987015,-0.16194456815719604,-0.711607813835144,0.2304513156414032,0.04384862259030342,0.07625454664230347,0.43858325481414795
436,2.756876397422408,-1.4096326202722034,-0.45947744361003984,0.06022273376584053,0.9870412349700928,0.14873787760734558,-0.44028323888778687,0.8471922874450684,0.08058086037635803,-0.07264338433742523,-0.4573934078216553,-0.22591674327850342
437,2.864775766208851,-1.3707165087350577,-0.43240942413043987,0.05431687831878662,0.9800507426261902,0.19118179380893707,-0.30168819427490234,0.3480396270751953,0.025017550215125084,-0.09495103359222412,-0.22428280115127563,-0.201359361410141
438,2.8825055034496594,-1.3860673064998026,-0.41817234403773224,0.047058310359716415,0.9829860329627991,0.1775488257408142,0.7779226899147034,0.20493167638778687,0.04639272391796112,0.1488645374774933,0.3929598331451416,-0.509244441986084
439,2.4712378636354058,-1.4646535817762345,-0.8776005941852236,0.06581974029541016,0.9943721294403076,0.08301854133605957,0.1733410805463791,1.190599799156189,-0.041341111063957214,0.06403256952762604,0.33518725633621216,0.44530177116394043
440,2.654812695876436,-1.4710861575456373,-0.7427375015042671,0.046566158533096313,0.9950330853462219,0.08798367530107498,-0.0009061499731615186,-0.6740711331367493,-0.05406245216727257,-0.3242303431034088,-0.12624329328536987,0.36532437801361084
441,2.6031533049832447,-1.4674956496775693,-0.7038487924160904,0.05287880450487137,0.9946691989898682,0.08852821588516235,-0.048108406364917755,-0.4060041308403015,-0.13183705508708954,0.17710167169570923,-0.4143925905227661,-0.29711592197418213
442,2.8531337384295155,-1.4522783130100345,-0.40454187260773505,0.03363674506545067,0.99298495054245,0.1133560836315155,-0.3103967308998108,-1.0005823373794556,-0.3797701597213745,-0.04866665229201317,-0.47655123472213745,-0.1301865577697754
443,2.782090654657889,-1.4354598944825023,-0.356658387403673,0.047467052936553955,0.9908559918403625,0.12629778683185577,-0.25499457120895386,-0.48169180750846863,-0.2933836579322815,-0.08643800020217896,0.5536385774612427,-0.24925316870212555
444,2.6614421899753147,-1.4709870279235209,-0.4779037351697231,0.046027202159166336,0.9950231909751892,0.08837752044200897,0.43087729811668396,1.453957438468933,0.2599618434906006,-0.06485654413700104,0.5349299311637878,0.2298293113708496
445,2.8441888836494837,-1.4698474343776782,-0.3457691920434562,0.02953191287815571,0.9949089884757996,0.09635400772094727,-0.10218547284603119,-0.5056113004684448,-0.029437536373734474,-0.09494633972644806,0.08890753984451294,0.6671957969665527
446,2.8967008765824374,-1.434167883442387,-0.2280457573255158,0.03302304446697235,0.9906808733940125,0.13214096426963806,-0.4198179244995117,-0.15823039412498474,0.07533778250217438,-0.015933193266391754,-0.3066749572753906,-0.23728929460048676
447,2.9378267372657074,-1.4017033516124768,-0.2733207862418873,0.03405475988984108,0.9857378005981445,0.16480737924575806,-0.35107535123825073,0.7188499569892883,0.09646379947662354,-0.09257221221923828,-0.4433945417404175,-0.08263872563838959
448,3.029111783056882,-1.3891937031918613,-0.2209266333241498,0.020271921530365944,0.9835554957389832,0.17946478724479675,0.2950925827026367,0.2747616469860077,0.033166952431201935,0.2089761197566986,0.29470378160476685,-0.3865264654159546
449,2.889537189214457,-1.4608846508975286,-0.380993566047784,0.027356212958693504,0.9939658045768738,0.10622429102659225,1.1358270645141602,0.3637254238128662,0.14056602120399475,0.13493625819683075,0.6666176319122314,-0.04837823659181595
450,2.8336026331399125,-1.5103437531790818,-0.5087931001009147,0.018314383924007416,0.9981732964515686,0.05757199600338936,0.38152122497558594,0.632254421710968,-0.036161985248327255,-0.369602233171463,0.04256761074066162,0.5708307027816772
451,2.9591665063812593,-1.508027402869681,-0.3404129019795365,0.011380307376384735,0.9980306625366211,0.06168953329324722,-0.07834962755441666,-0.5115966200828552,-0.2128770500421524,-0.017377011477947235,-0.28089797496795654,-0.19027531147003174
452,-3.022482399452611,-1.4916994974620146,0.009480001115404296,-0.009389204904437065,0.9968734979629517,0.07845471054315567,-0.35498520731925964,-0.4727208614349365,-0.18792322278022766,0.10446672141551971,-0.5824753046035767,-0.02327895164489746
453,-3.030843801945695,-1.4564516413845903,0.1145715285055592,-0.012610247358679771,0.993469774723053,0.11339755356311798,-0.16386036574840546,-1.7794846296310425,-0.019329208880662918,-0.09301109611988068,0.17726093530654907,-0.334588885307312
454,-2.8503150547029876,-1.4593226282642204,0.3581472156284193,-0.031946152448654175,0.993793249130249,0.10655654221773148,0.7255743145942688,-0.6661554574966431,-0.40967676043510437,-0.06365016102790833,0.15348446369171143,-0.4386945962905884
455,-2.9659485306354583,-1.4716886120654036,0.17567413020121198,-0.017289958894252777,0.9950928688049316,0.09742306917905807,-0.6726162433624268,0.6115858554840088,-0.09496725350618362,-0.18771186470985413,-0.00928354263305664,0.47067689895629883
456,-3.1156728917923946,-1.4664179169024334,0.03814610216676752,-0.0027002133429050446,0.9945574998855591,0.10415253043174744,-0.24420695006847382,-0.6904844641685486,0.22983253002166748,0.012450579553842545,-0.006673157215118408,0.2758980989456177
457,3.0118440314457375,-1.433139304953378,-0.10514816361793851,0.01775467023253441,0.9905402064323425,0.13607023656368256,-0.3306407928466797,0.766643762588501,0.3133457601070404,-0.05541335791349411,-0.44610655307769775,-0.15517424046993256
458,2.9855349783981175,-1.3870037778503803,-0.2010745168345761,0.028405454009771347,0.9831576347351074,0.18053892254829407,-0.6392167210578918,0.21357369422912598,-0.0077904341742396355,-0.06447723507881165,-0.21860074996948242,-0.13863825798034668
459,3.0135703675231253,-1.395431555589168,-0.18100209382043822,0.022274697199463844,0.9846629500389099,0.17303918302059174,0.7816060185432434,0.5541054606437683,0.08921840041875839,0.11282661557197571,0.41458314657211304,-0.48398280143737793
460,2.7502720096124893,-1.4975479843535593,-0.48939404634789746,0.02791263349354267,0.9973185658454895,0.06765066087245941,1.1673234701156616,0.9093164205551147,0.14228235185146332,0.14855526387691498,0.354961097240448,0.1654731035232544
461,2.6520790843041153,-1.5316364067451695,-0.6899504753221923,0.018408073112368584,0.9992333650588989,0.03455205261707306,0.03475508093833923,0.2719540297985077,-0.02275427244603634,-0.4829161465167999,0.11616885662078857,0.6775299310684204
462,3.0024167049976875,-1.527521636235898,-0.2893808764410681,0.0060014501214027405,0.9990637898445129,0.04284253716468811,-0.16033107042312622,-0.2892753779888153,-0.2852155268192291,0.04032423347234726,-0.19240796566009521,-0.20431113243103027
463,-2.760798149908232,-1.5023350802123674,0.24288802091605916,-0.025424057617783546,0.9976574182510376,0.0635070726275444,-0.23169012367725372,-0.5954450368881226,-0.3351265788078308,0.070986807346344,-0.5874401926994324,-0.024337999522686005
464,-2.785438879737264,-1.4759570632930918,0.3739654035850067,-0.033018533140420914,0.9955061078071594,0.08875519037246704,0.06103251129388809,-1.666907548904419,0.062481459230184555,0.006132546812295914,0.13632982969284058,-0.3330179452896118
465,-2.7783192773661107,-1.4890124276130356,0.3814622036128068,-0.029027963057160378,0.9966575503349304,0.0763603150844574,0.6271846294403076,-0.22270430624485016,0.21265311539173126,-0.13727757334709167,0.40911930799484253,-0.4559227228164673
466,-2.9421174645114125,-1.4818633282653657,0.12165223491171098,-0.017599210143089294,0.996048092842102,0.08705424517393112,-0.21360233426094055,0.6365768909454346,-0.08703920245170593,-0.2222689539194107,0.07240277528762817,0.3871126174926758
467,-2.9883457293535303,-1.480007930871289,0.07624597530619234,-0.013839531689882278,0.9958815574645996,0.08960063755512238,-0.10668148845434189,-0.2367190718650818,-0.0013782919850200415,-0.10327167063951492,-0.060533106327056885,-0.0689554288983345
468,-3.014626983137142,-1.462433877184916,-0.011832173315377541,-0.01369461975991726,0.9941345453262329,0.10728060454130173,-0.22591736912727356,1.6097254753112793,0.31173187494277954,-0.0076524242758750916,-0.5281616449356079,-0.09180819988250732
469,-3.0678560971192375,-1.4308842151890635,-0.15323520490345152,-0.010273749008774757,0.9902282357215881,0.13907785713672638,-0.2416570484638214,0.15150390565395355,-0.08799832314252853,0.012181094847619534,-0.09810781478881836,-0.30332350730895996
470,-3.0427470180927267,-1.438339547146467,-0.1354069875170011,-0.013033176772296429,0.9912404417991638,0.13142414391040802,0.5983828902244568,-0.16777798533439636,-0.03945266082882881,-0.0470711886882782,0.47387784719467163,-0.5463259220123291
471,-2.6705783894189765,-1.5210501450832072,0.19071773567019965,-0.022565221413969994,0.9987629055976868,0.044311344623565674,0.4816644787788391,1.003629207611084,-0.07303149998188019,0.03844963014125824,0.18522757291793823,0.4379580020904541
472,-2.388994660894444,-1.5239672152759236,0.47133523652183973,-0.03199777379631996,0.9989036917686462,0.034168828278779984,-0.06816662102937698,-0.6926149129867554,-0.13886089622974396,-0.33599844574928284,-0.037981510162353516,0.14091050624847412
473,-2.4403164493851524,-1.5026139232305515,0.47206088220622894,-0.04395725950598717,0.9976764917373657,0.052052926272153854,-0.26870203018188477,-0.2772967517375946,-0.17340485751628876,0.12942174077033997,-0.528987467288971,-0.07764196395874023
474,-2.5538713700874935,-1.4716266114487286,0.42689433283623773,-0.05489673092961311,0.9950867295265198,0.08239530771970749,-0.27727189660072327,-1.3689996004104614,-0.01721360720694065,0.007487673312425613,-0.258544921875,-0.06892168521881104
475,-2.7702011330966547,-1.4573131760943345,0.31373187466102853,-0.04109625890851021,0.993567705154419,0.10551980137825012,-0.16718444228172302,-0.062362462282180786,-0.011761030182242393,-0.12217278778553009,0.35071635246276855,-0.19144201278686523
476,-2.748693572461249,-1.4660067697008716,0.2870776549376329,-0.04004688560962677,0.9945145845413208,0.09662707149982452,-0.5815920829772949,2.0979561805725098,0.14641810953617096,-0.013511460274457932,0.5219801068305969,0.2423621416091919
477,-2.7658389818218105,-1.4648502808278783,0.21404407341365644,-0.03880716487765312,0.994392991065979,0.09837118536233902,0.35670536756515503,-0.5021213293075562,0.3797210454940796,0.05154825374484062,0.21030378341674805,0.6758445501327515
478,-3.077267164045693,-1.4572507714003229,-0.07560789768876942,-0.007283060345798731,0.9935606122016907,0.11306579411029816,-0.3407319188117981,0.2844254970550537,0.2552969753742218,0.06438145041465759,-0.33648681640625,-0.09226812422275543
479,3.133049690706535,-1.4261764291672063,-0.23427631386090148,0.0012311703758314252,0.9895607829093933,0.14411164820194244,-0.4032714068889618,0.6754294037818909,0.12893101572990417,-0.14962288737297058,-0.5928170084953308,-0.11933135986328125
480,-3.1316927218073682,-1.4211288301521758,-0.23840318372587585,-0.0014761502388864756,0.9888207316398621,0.14910224080085754,0.635258138179779,0.16333988308906555,0.051213525235652924,0.20235809683799744,0.43531256914138794,-0.5990381240844727
481,2.790335479007917,-1.5227125479869965,-0.6282158632092786,0.016538025811314583,0.9988442063331604,0.04512990266084671,1.1604747772216797,0.7778294682502747,0.46312442421913147,0.20315802097320557,0.6130636930465698,0.11177623271942139
482,2.1977408177439868,-1.5441169669448145,-1.3017162186763394,0.021603042259812355,0.9996441006660461,0.015650222077965736,-0.10184914618730545,0.13781622052192688,-0.08606306463479996,-0.5245937705039978,0.24495422840118408,0.7462363243103027
483,2.2440501204911114,-1.5472663260838924,-1.197282277369851,0.01839393563568592,0.9997231960296631,0.014670341275632381,0.5422401428222656,-1.0910043716430664,-0.2995520234107971,0.04860740900039673,-0.21929717063903809,-0.41931819915771484
484,2.9779197571076006,-1.5448124409970232,-0.39780430380196063,0.0042344434186816216,0.999662458896637,0.025639943778514862,-0.44430866837501526,-0.6084557771682739,-0.08790141344070435,0.152397021651268,-0.9133890867233276,0.040934208780527115
485,2.9396135224348123,-1.5265352227176323,-0.2926536260680421,0.008875846862792969,0.9990206360816956,0.04334516450762749,0.1439209133386612,-1.1010116338729858,0.26232534646987915,-0.25074291229248047,0.5523098111152649,-0.42629504203796387
486,2.2924306266652064,-1.5414923256320014,-0.939583988128756,0.021998872980475426,0.9995706677436829,0.019358206540346146,0.7279565930366516,0.3549746870994568,0.5675382614135742,0.07013370096683502,0.4971335530281067,-0.07546472549438477
487,2.5443267871600748,-1.5249444140474715,-0.7757350121670334,0.02577633410692215,0.9989489912986755,0.03789910301566124,0.2989672124385834,-0.39191934466362,0.09643639624118805,0.0198169257491827,0.06081962585449219,0.5366858243942261
488,2.60346008735173,-1.4940247234791806,-0.6576253976916081,0.039309561252593994,0.9970545172691345,0.06585685163736343,-0.543235182762146,-0.36795246601104736,0.0878201425075531,-0.039584219455718994,-0.23162788152694702,-0.02223193645477295
489,2.811534372077538,-1.450129495746957,-0.4963343481222356,0.039012860506772995,0.992728590965271,0.11387624591588974,-0.5341126322746277,0.9055683016777039,0.14044196903705597,-0.1863212138414383,-0.6120219230651855,-0.06718434393405914
490,2.9514784453921705,-1.421495285300327,-0.4037840394179576,0.02810872346162796,0.9888752698898315,0.14606617391109467,0.21552161872386932,0.13537107408046722,-0.08025012165307999,0.12096963822841644,0.23088163137435913,-0.44333794713020325
491,2.7704825069631616,-1.4893177885001458,-0.6111757409869082,0.029515553265810013,0.9966824650764465,0.07584799081087112,0.995398759841919,0.213134765625,0.20908764004707336,0.1816355586051941,0.587469756603241,-0.12363851070404053
492,2.3229871449610116,-1.5320691496647418,-1.1274536535091328,0.028273185715079308,0.9992501735687256,0.026455136016011238,-0.05361344665288925,0.4736878573894501,-0.07206116616725922,-0.18231067061424255,0.08578705787658691,0.620532751083374
493,2.5934088463761005,-1.5294272416375183,-0.8132187286870978,0.02155226282775402,0.999144434928894,0.03529633581638336,-0.02802058681845665,-0.7807502150535583,-0.12455125898122787,-0.06536024808883667,-0.13522237539291382,-0.17090117931365967
494,2.900813813073943,-1.5233220155605618,-0.4578648869482885,0.01131631713360548,0.9988732933998108,0.046087026596069336,-0.2961226999759674,-0.4820357859134674,-0.24252375960350037,0.09348104894161224,-0.6369196176528931,-0.08772826194763184
495,3.12035670363815,-1.5032880162581168,-0.1316859674433944,0.0014324304647743702,0.9977222084999084,0.06744294613599777,0.10967233031988144,-1.5511573553085327,0.14650768041610718,-0.05010796710848808,0.010609149932861328,-0.2505941390991211
496,3.00385907049559,-1.5134625781479478,-0.18906376510931933,0.007867763750255108,0.9983568787574768,0.05676138773560524,0.7673511505126953,-0.3437111973762512,0.08246202766895294,-0.08242220431566238,0.36083513498306274,-0.5578447580337524
497,2.770236869648861,-1.5046521515896734,-0.4619143353686651,0.02398569881916046,0.9978132843971252,0.06159280240535736,0.3441861569881439,-0.4191778600215912,-0.015309721231460571,-0.06480295956134796,0.1288805603981018,0.10436177998781204
498,2.4821026973794793,-1.5143360754306567,-0.6681799354913199,0.034575868397951126,0.9984065294265747,0.044597454369068146,-0.2039152979850769,-0.7515274286270142,0.07704807817935944,0.020691461861133575,-0.1518794298171997,0.027301907539367676
