,attitude.roll,attitude.pitch,attitude.yaw,gravity.x,gravity.y,gravity.z,rotationRate.x,rotationRate.y,rotationRate.z,userAcceleration.x,userAcceleration.y,userAcceleration.z
0,-2.9804364398967818,-1.4466828095308597,-0.03118960169729243,-0.019863968715071678,0.9923077821731567,0.12219016999006271,-2.123058557510376,0.031541623175144196,-0.09061018377542496,-0.20256340503692627,0.08421492576599121,0.27949750423431396
1,0.021776898875271813,0.2584250898681489,-2.8408471876529493,0.021052103489637375,-0.2555582523345947,-0.966564416885376,-0.00037702859845012426,0.7446479797363281,0.19891154766082764,-0.024164896458387375,-0.08103537559509277,-0.20503592491149902
2,0.005097995727788809,0.26468391048232004,-2.8220910633453076,0.004920437932014465,-0.2616041898727417,-0.9651626944541931,0.30045759677886963,-0.11426234245300293,-0.17153529822826385,-0.06250710785388947,0.07280722260475159,-0.4530653953552246
3,0.03065090732701028,0.2932403627865729,-2.8525456618942595,0.029337896034121513,-0.2890557646751404,-0.9568626284599304,0.33567100763320923,0.4620630443096161,-0.5378064513206482,-0.10358716547489166,0.13315671682357788,-0.02133256196975708
4,0.08704214957703904,0.3849433625993338,-2.994706971552586,0.08057054877281189,-0.3755066394805908,-0.9233109951019287,0.985695481300354,-0.6820439100265503,-2.3175477981567383,0.00927320122718811,0.08986210823059082,0.3113114833831787
5,0.07372140821187648,0.4274300728989889,3.1088024589554166,0.0670282393693924,-0.41453346610069275,-0.907562255859375,0.20277146995067596,-1.053898572921753,0.2124997079372406,0.1427343338727951,0.17384129762649536,0.135223388671875
6,-0.15309853133764312,0.47372391052007584,3.135481296898254,-0.1357070505619049,-0.45620325207710266,-0.8794669508934021,-1.2242777347564697,-1.3516478538513184,0.22707435488700867,-0.0008743703365325928,-0.33713170886039734,-0.07098770141601562
7,-0.4254216671221139,0.4299397944283346,-3.0486000680287675,-0.37514498829841614,-0.4168160855770111,-0.8279677629470825,0.012056419625878334,-1.6382635831832886,0.8028069138526917,-0.40320584177970886,0.07579740881919861,-0.5577896237373352
8,-0.7388966691825521,0.4422455442805575,-3.026779290197556,-0.6086798906326294,-0.4279700517654419,-0.6680946350097656,0.052573662251234055,-3.7267532348632812,-0.8268877267837524,-0.1261833906173706,0.3390113115310669,0.08217239379882812
9,-0.8175283302641998,0.3946341446590747,-2.9853876575096865,-0.6733892560005188,-0.38447049260139465,-0.6314501166343689,0.2119881808757782,0.17778274416923523,1.370593547821045,0.2940252423286438,0.13645413517951965,0.17727231979370117
10,-0.8427396611688742,0.41225535240284167,-2.8621279830058777,-0.6839293837547302,-0.40067675709724426,-0.6096709966659546,0.6642432808876038,0.469619482755661,0.11345036327838898,0.0236358642578125,-0.010730743408203125,0.1674255132675171
11,-0.8195465069860689,0.3826841499061376,-2.8559426744478875,-0.6779718399047852,-0.37341180443763733,-0.6331807374954224,0.22744877636432648,-0.019107844680547714,0.6947279572486877,-0.13716793060302734,-0.07443365454673767,-0.25050151348114014
12,-0.8740528677476618,0.3322992147987771,-2.735385030291471,-0.7249806523323059,-0.32621732354164124,-0.6066179275512695,0.7554632425308228,-1.5966237783432007,1.58674156665802,-0.21763098239898682,-0.12437468767166138,-0.3498334288597107
13,-1.084480905765506,0.22327474553982138,-2.535536129148108,-0.8621164560317993,-0.22142426669597626,-0.4557704031467438,1.0724613666534424,-1.628370761871338,2.9117424488067627,0.16567480564117432,0.40764254331588745,-0.1544896364212036
14,-1.223914769522223,-0.050148066377574595,-2.2519325006789432,-0.9392551779747009,0.0501270517706871,-0.33953937888145447,1.5332921743392944,0.6760962009429932,4.413815975189209,0.3324894905090332,0.3521709144115448,0.03372272849082947
15,-1.113194051384748,-0.362384357821729,-1.8916419334332015,-0.8388505578041077,0.3545047342777252,-0.41310539841651917,2.594506025314331,0.37950772047042847,3.832594394683838,-0.13549935817718506,-0.14370453357696533,-0.19860422611236572
16,-0.9342848952947382,-0.4486761758312483,-1.574554259902437,-0.724578857421875,0.43377313017845154,-0.5355618596076965,1.1474894285202026,0.8709834218025208,-0.8235670924186707,-1.3500823974609375,-0.6254692077636719,0.27353793382644653
17,-1.0186954488686002,-0.4056240661791765,-1.7679257246163966,-0.7823367714881897,0.3945922553539276,-0.4819191098213196,-1.109785556793213,-2.7047078609466553,-1.385136604309082,-0.23897969722747803,0.03428652882575989,-0.37577739357948303
18,-1.2348871493840943,-0.31257588095050504,-1.880961142060674,-0.8983637690544128,0.30751073360443115,-0.31365543603897095,-0.43476682901382446,0.320184588432312,-0.3773292303085327,0.24275463819503784,0.5008846521377563,0.028926461935043335
19,-1.2231610906884958,-0.24037970045055965,-1.9628028966406363,-0.9131485819816589,0.23807142674922943,-0.3308802545070648,0.17200319468975067,-0.7100546956062317,-0.2934255003929138,0.3681199550628662,-0.04172131419181824,-0.05876821279525757
20,-1.2783609003964331,-0.2647573647384403,-1.884332493503805,-0.9241799712181091,0.261675089597702,-0.2782401144504547,1.0138994455337524,-0.40388479828834534,0.9128166437149048,0.36061185598373413,-0.16894742846488953,0.3010520339012146
21,-1.297374996519644,-0.31769385398349603,-1.814277140334397,-0.914669930934906,0.31237664818763733,-0.25651463866233826,-0.1931232213973999,-0.6552140712738037,-0.052039675414562225,-0.023165762424468994,-0.15266287326812744,0.17753511667251587
22,-1.3914596193944953,-0.2876588156108738,-1.8352820142256736,-0.9435319304466248,0.28370800614356995,-0.17104758322238922,-0.4582008719444275,-1.0692156553268433,-0.48426124453544617,-0.27692699432373047,0.028105348348617554,0.18352925777435303
23,-1.407187073089299,-0.2534885249750527,-1.8224234257217649,-0.9551160335540771,0.2507825195789337,-0.15767522156238556,0.7393932342529297,-0.1072104424238205,-0.08626293390989304,-0.05379509925842285,0.1729845404624939,-0.30391836166381836
24,-1.4451641707945642,-0.23288588992573175,-1.7808325565578582,-0.9653358459472656,0.23078645765781403,-0.12191934138536453,-0.3879883289337158,0.06104118376970291,-0.702214777469635,-0.3066520690917969,-0.003628849983215332,-0.059385597705841064
25,-1.3027663485026952,-0.21770301481656093,-1.8977982606154318,-0.9415334463119507,0.215987429022789,-0.2585812211036682,-2.4534504413604736,2.4220497608184814,-0.5965868234634399,0.3530324697494507,0.06257703900337219,0.025777876377105713
26,-1.227833102510124,-0.2186117583910197,-2.1535571828230866,-0.9193479418754578,0.2168746292591095,-0.328275591135025,-1.9403239488601685,-0.072708360850811,-0.8577385544776917,0.44833964109420776,-0.1179366409778595,0.07896220684051514
27,-1.4588342734866895,-0.17506105276833805,-2.351220319733936,-0.978550374507904,0.17416825890541077,-0.11002061516046524,-1.3197393417358398,-4.773528099060059,-1.1769983768463135,-0.20139646530151367,-0.5112196207046509,-0.027796804904937744
28,-1.663254804687046,-0.0958763905453653,-2.396202783594949,-0.991155743598938,0.09572957456111908,0.09190277755260468,-0.8934259414672852,1.6513959169387817,-0.7701471447944641,-0.6165559887886047,-0.15108844637870789,0.1869363784790039
29,-1.5643301237856864,0.010690468165987933,-2.4296783775660606,-0.9999220967292786,-0.010690264403820038,-0.006465789396315813,1.927164912223816,0.689626932144165,-0.5696377754211426,0.4805585741996765,0.8900085091590881,-0.6001931428909302
30,-1.5722418061498693,-0.1452761129233516,-2.322116815545002,-0.9894649386405945,0.14476564526557922,0.0014302521012723446,0.637969434261322,-0.008630970492959023,1.3562724590301514,0.12506979703903198,0.3343755900859833,-0.11176657676696777
31,-1.5848718645604503,-0.26869649358348613,-2.224883596861552,-0.964022159576416,0.26547491550445557,0.013570026494562626,1.1099026203155518,-0.4397633671760559,1.4835784435272217,0.27792608737945557,-0.20018261671066284,-0.03220105171203613
32,-1.6002883583695287,-0.4056810922414327,-2.085963578920063,-0.9184342622756958,0.3946446478366852,0.027094347402453423,1.0210604667663574,-0.01501161977648735,1.7234485149383545,-0.1677778959274292,-0.13484853506088257,0.46072912216186523
33,-1.5942702329665617,-0.4661933163477793,-2.039478275434312,-0.8930395841598511,0.4494890868663788,0.02096697874367237,-0.09415134787559509,-0.18351978063583374,-0.751193642616272,-0.3112907409667969,0.12454646825790405,0.07830667495727539
34,-1.539160832696483,-0.43059955518997756,-2.071229149539281,-0.9082608222961426,0.41741570830345154,-0.028742870315909386,-0.20499353110790253,-0.3036700189113617,-0.30959826707839966,-0.0757783055305481,0.2523687779903412,-0.5273483991622925
35,-1.5552294423801636,-0.4119799944153032,-2.0441257490392846,-0.9162186980247498,0.40042445063591003,-0.014263822697103024,0.24194705486297607,-0.09346218407154083,-0.008501646108925343,0.1510363221168518,-0.09405851364135742,-0.16076970100402832
36,-1.5190347348279345,-0.41129897138346067,-2.038034158356342,-0.9153746366500854,0.39980030059814453,-0.04742360860109329,-0.2313760370016098,0.8212517499923706,-0.10078127682209015,0.47859179973602295,-0.17105582356452942,0.0873863697052002
37,-1.491365905991072,-0.4209189975648138,-2.0817238921887324,-0.9098362326622009,0.4085994064807892,-0.07242104411125183,-0.42036858201026917,-0.04201936721801758,0.03533927723765373,-0.32690393924713135,-0.10490366816520691,0.18406957387924194
38,-1.5517865093787306,-0.36579105092051717,-2.1400861020528095,-0.9336724281311035,0.35768812894821167,-0.01775108091533184,-1.0154298543930054,-0.9846069812774658,-1.0067859888076782,-0.554013729095459,-0.08460158109664917,0.16003930568695068
39,-1.5861468845795526,-0.2762431318383461,-2.2926612819318115,-0.9619736075401306,0.2727431356906891,0.014767991378903389,-0.8747779130935669,1.9016932249069214,-0.25456148386001587,0.020735204219818115,0.6063004732131958,-0.48486077785491943
40,-1.5617521305115156,-0.27456322273314443,-2.2582474247371653,-0.9625043272972107,0.27112653851509094,-0.008705316111445427,1.1049013137817383,-0.5509654879570007,0.29690787196159363,0.19156932830810547,-0.11640241742134094,-0.0271528959274292
41,-1.5911199386066293,-0.33626296031999287,-2.1853131238627093,-0.9437994360923767,0.3299616575241089,0.0191840548068285,0.4977293908596039,-0.5835416913032532,0.3117804527282715,0.3194860816001892,-0.2711085081100464,-0.042850494384765625
42,-1.5781649796671677,-0.349188084093118,-2.0817290000917374,-0.9396252036094666,0.3421350121498108,0.0069238971918821335,1.523585557937622,0.03832612931728363,-0.05272090807557106,-0.025294721126556396,-0.06869751214981079,0.19104361534118652
43,-1.566467244065939,-0.35320305413170766,-2.007379666265078,-0.9382607936859131,0.3459049165248871,-0.004061833955347538,0.25797608494758606,-0.8990304470062256,-0.08720581233501434,-0.3120291233062744,-0.0358157753944397,0.40968626737594604
44,-1.507313001539833,-0.3387639745618146,-2.0372927210594693,-0.9412662386894226,0.33232155442237854,-0.05983511358499527,0.10405374318361282,1.0083988904953003,0.27505651116371155,0.09115332365036011,0.49649009108543396,-0.6722053289413452
45,-1.539484459894848,-0.3194221518654967,-1.9873049964846483,-0.9489515423774719,0.31401798129081726,-0.029723159968852997,0.7213193774223328,-0.5852315425872803,-0.08988860994577408,0.09093469381332397,-0.056480199098587036,-0.1943826675415039
46,-1.5228715530725845,-0.3172058641951189,-1.966938372486545,-0.9490198493003845,0.31191304326057434,-0.04551641270518303,-0.4393655061721802,0.5051451325416565,-0.18494077026844025,0.49128657579421997,-0.24132585525512695,0.08734077215194702
47,-1.4613243780792247,-0.33500178820914467,-2.018490523599601,-0.9387564659118652,0.32877084612846375,-0.10318000614643097,-0.2389814555644989,0.6693398356437683,0.453366219997406,0.10805273056030273,-0.12987253069877625,0.15711987018585205
48,-1.4571005508382002,-0.3463662781002259,-2.0483197356489105,-0.9345394968986511,0.3394821286201477,-0.10671340674161911,0.06602443009614944,-0.49117311835289,-0.19605180621147156,-0.4615634083747864,-0.1405228078365326,0.3837825059890747
49,-1.5767748146570888,-0.3336411309921151,-2.1221610364599,-0.9448392987251282,0.3274855315685272,0.005648777820169926,-0.8429141044616699,-0.006946572568267584,0.24562521278858185,-0.14154064655303955,0.2264542579650879,-0.7903015613555908
50,-1.5566468773486029,-0.3385049673318867,-2.165700316127596,-0.9431577324867249,0.3320772647857666,-0.013346053659915924,1.1184018850326538,-0.14658582210540771,0.06150336191058159,0.13465559482574463,0.3519589602947235,-0.13171923160552979
51,-1.5576804912826792,-0.348726014917098,-2.129643875537753,-0.9397279620170593,0.34170079231262207,-0.01232602447271347,-0.3823341727256775,-0.36281320452690125,0.2019672691822052,0.3615419268608093,-0.38732457160949707,0.14286500215530396
52,-1.5707087567572358,-0.3694162398199031,-2.0794037883874417,-0.9325382113456726,0.3610711097717285,-8.166240877471864e-05,1.3724626302719116,-0.2646126449108124,-0.047898028045892715,0.3450291156768799,-0.0887170135974884,-0.06942212581634521
53,-1.5947186720873254,-0.35715349019346637,-1.991063505084294,-0.9366278052330017,0.34960877895355225,0.02241060882806778,0.17027832567691803,-0.38024771213531494,0.23942537605762482,-0.35278570652008057,0.09243834018707275,0.32510828971862793
54,-1.6278170832199366,-0.3381934388607216,-1.995055656133761,-0.941822350025177,0.3317834138870239,0.05376170203089714,-0.4494783580303192,1.7816938161849976,0.09894181042909622,0.024372458457946777,0.2664068639278412,-0.06487012654542923
55,-1.5760512205485133,-0.31246036814340783,-1.9579524435277287,-0.9515670537948608,0.30740079283714294,0.005000429693609476,0.6170300841331482,-0.17991046607494354,-0.30127590894699097,-0.15294039249420166,0.06624117493629456,-0.5955919027328491
56,-1.5567278529047877,-0.2902764155454281,-1.9158837810104767,-0.958069920539856,0.2862170934677124,-0.013479471206665039,0.06541052460670471,0.44666171073913574,-0.22854644060134888,0.33296316862106323,-0.1444934606552124,0.12645554542541504
57,-1.4933179068448597,-0.2877316591893274,-1.9214088559702232,-0.9560135006904602,0.2837778627872467,-0.0742189809679985,-0.01328528393059969,0.6350166201591492,0.10828301310539246,0.3168075680732727,-0.07465618848800659,0.0324099063873291
58,-1.4586746051211688,-0.30409441642046564,-1.9277594374828722,-0.9481275677680969,0.2994292676448822,-0.10675341635942459,-0.4468953311443329,-0.2283780574798584,-0.11768843233585358,-0.47388482093811035,-0.23358756303787231,0.3786802887916565
59,-1.586280924999071,-0.27678596521892923,-1.9881687548515026,-0.9618234038352966,0.27326536178588867,0.014894639141857624,-1.1853164434432983,-1.519648551940918,-0.3800717294216156,-0.5875998139381409,-0.23087647557258606,-0.05116474628448486
60,-1.6257304174494558,-0.28183605032160935,-2.1072642848332084,-0.9590974450111389,0.2781197130680084,0.05274020880460739,-0.1645791232585907,0.011114444583654404,-0.048286378383636475,0.16243606805801392,0.6147635579109192,-0.5499783754348755
61,-1.6235214350271725,-0.29317662132925765,-2.015841281988096,-0.9560003280639648,0.28899475932121277,0.05045197904109955,0.6854673027992249,-0.24392034113407135,0.061240874230861664,0.13553524017333984,-0.3144463896751404,0.21450161933898926
62,-1.655610419751367,-0.3077600731444014,-1.9807937228561232,-0.9495888352394104,0.3029247224330902,0.08073218911886215,0.7989558577537537,-0.1347939521074295,0.08597128093242645,0.4560890793800354,-0.2003704011440277,-0.17223906517028809
63,-1.6267034675671492,-0.29954732410249885,-1.8669974048312707,-0.9539774656295776,0.2950877249240875,0.053389787673950195,0.672679603099823,-0.16928483545780182,-0.2754509150981903,-0.32061970233917236,-0.014463305473327637,0.3073279857635498
64,-1.639447084896131,-0.285501193403094,-1.8333097865368415,-0.9572604298591614,0.28163838386535645,0.06582009047269821,-0.09864378720521927,-0.6803645491600037,-0.7150698900222778,-0.4300839304924011,-0.06845784187316895,0.3196932077407837
65,-1.5765200275245943,-0.26132675681968925,-1.86215632104112,-0.9660322070121765,0.2583625018596649,0.005529339890927076,-0.16103221476078033,1.0592528581619263,0.13205021619796753,0.051206767559051514,0.4726403057575226,-0.5769404172897339
66,-1.5860154481463062,-0.25763640010065125,-1.8727222784543691,-0.9668828248977661,0.2547956705093384,0.014716243371367455,0.048384103924036026,-0.1409507691860199,0.043034955859184265,0.20327210426330566,0.03444990515708923,-0.2585211992263794
67,-1.559864884152035,-0.27361801842381833,-1.8950669307577601,-0.9627419710159302,0.27021661400794983,-0.010524578392505646,-0.46695831418037415,0.7195438742637634,0.1537204086780548,0.5170328617095947,-0.12795895338058472,-0.03364962339401245
68,-1.4905986019838542,-0.29055811567945616,-1.9369031663519187,-0.9550046920776367,0.28648698329925537,-0.07675382494926453,-0.001679959474131465,0.4073810279369354,0.26040342450141907,-0.2211121916770935,-0.16105973720550537,0.13946747779846191
69,-1.5208349923289028,-0.2903749509853519,-1.9711793323719968,-0.9569409489631653,0.2863115072250366,-0.0478498674929142,-0.4003351032733917,-0.6453726887702942,-0.09252128005027771,-0.31056076288223267,-0.04958668351173401,0.2992842197418213
70,-1.6415837907709943,-0.2701299492475332,-2.0408438378990827,-0.9613227844238281,0.26685667037963867,0.06816349178552628,-1.5867701768875122,-0.03514733910560608,0.02788998745381832,-0.10642635822296143,0.029469013214111328,-0.30075323581695557
71,-1.64335843288215,-0.27443996309099405,-2.1034203747963076,-0.9600442051887512,0.2710078954696655,0.06978534907102585,0.7814376354217529,-0.11514820903539658,0.3329393267631531,0.21904683113098145,0.3683811128139496,-0.25957417488098145
72,-1.633892049146679,-0.31448051395385307,-1.9934764816029924,-0.9490648508071899,0.3093225061893463,0.05996152386069298,0.6451317667961121,-0.20267175137996674,0.2270708680152893,0.3821398615837097,-0.3718683123588562,0.0040948353707790375
73,-1.6249652636661367,-0.3280024151040318,-1.931124742263841,-0.9452990889549255,0.32215258479118347,0.05125598981976509,0.9251235127449036,-0.022040827199816704,0.0925421342253685,0.09687995910644531,-0.05614617466926575,0.08317387104034424
74,-1.6240402283457915,-0.3228695708044026,-1.8771611440736646,-0.9469849467277527,0.31728917360305786,0.05046887323260307,0.0926971510052681,-0.05093470960855484,-0.24656371772289276,-0.21509391069412231,0.11526700854301453,0.06754255294799805
75,-1.638915175794074,-0.28054430795674706,-1.925872611042734,-0.9586761593818665,0.2768787145614624,0.06540511548519135,-0.10936670005321503,1.636603832244873,-0.1336999535560608,0.18070697784423828,0.3808819055557251,-0.5956175327301025
76,-1.6121921922062503,-0.25566176586230527,-1.8705122852107332,-0.9666673541069031,0.25288572907447815,0.040038906037807465,0.5176111459732056,0.0486125685274601,-0.07108727842569351,-0.0519179105758667,0.10114872455596924,-0.3717801570892334
77,-1.5817302463727858,-0.2530424460349504,-1.8310727280457737,-0.9680973887443542,0.250350683927536,0.010585520416498184,0.03993208706378937,0.4866544008255005,-0.07389391213655472,0.422366738319397,-0.1663205325603485,0.19562172889709473
78,-1.52451318935258,-0.2629738022728883,-1.8403422269817633,-0.9645872116088867,0.25995326042175293,-0.044676028192043304,0.14870502054691315,0.5148605108261108,0.29619595408439636,0.20561504364013672,-0.05792692303657532,0.07510209083557129
79,-1.5340650999715706,-0.2755702211605562,-1.8514594296024254,-0.9616211652755737,0.2720956802368164,-0.0353374183177948,-0.3960293233394623,-0.5530291199684143,-0.15226343274116516,-0.41905510425567627,-0.1621561050415039,0.2166423797607422
80,-1.6274073196675722,-0.2558033219739984,-1.8873584600318982,-0.9659105539321899,0.2530226707458496,0.05473964661359787,-0.8142942786216736,-0.5462884306907654,0.18824250996112823,-0.19838082790374756,-0.099000483751297,-0.11490511894226074
81,-1.6302939716338398,-0.27018148994610286,-1.922498271434647,-0.962017297744751,0.26690635085105896,0.05730539932847023,0.7327744960784912,-0.09037943929433823,0.232458233833313,0.2614710330963135,0.5300754308700562,-0.29711246490478516
82,-1.6221534137132712,-0.29507976068342806,-1.8458967195319806,-0.955517590045929,0.29081615805625916,0.04911578819155693,0.2791993319988251,-0.06872021406888962,0.1261616200208664,0.3395049571990967,-0.32417187094688416,0.044481635093688965
83,-1.6075193809528734,-0.3104181836574863,-1.8068320195259309,-0.9515638947486877,0.30545684695243835,0.034960050135850906,0.5694637894630432,0.16478174924850464,0.07183464616537094,0.22474205493927002,-0.08698153495788574,-0.017122507095336914
84,-1.5941542677252751,-0.3027047010047582,-1.759097439696207,-0.9542732238769531,0.2981030344963074,0.02229391224682331,0.3358420133590698,-0.09943696856498718,-0.0016319011338055134,-0.2698019742965698,-0.01445743441581726,0.31832802295684814
85,-1.6291568133259409,-0.2952504622456356,-1.7459337857401662,-0.9551005363464355,0.2909794747829437,0.05580350384116173,-0.1576736867427826,-0.4166247546672821,-0.3120443820953369,-0.35964250564575195,-0.028146833181381226,0.11918425559997559
86,-1.599836983290832,-0.28697879567229484,-1.7895402980006745,-0.9586989879608154,0.2830558717250824,0.02784907817840576,0.12355435639619827,-0.8568786978721619,-0.39173799753189087,0.043019115924835205,0.2358345091342926,-0.5905779600143433
87,-1.6170709804832637,-0.2697956028647207,-1.7361354971215837,-0.9627935290336609,0.2665344476699829,0.044584766030311584,0.514911949634552,0.040624458342790604,0.016932133585214615,0.02228766679763794,-0.1253448724746704,-0.11358499526977539
88,-1.5867916223516467,-0.265339965726688,-1.7266491298571331,-0.9648800492286682,0.2622373402118683,0.015434857457876205,-0.36565130949020386,0.5047568082809448,-0.007693448103964329,0.42037010192871094,-0.10208109021186829,0.061103224754333496
89,-1.542639032241556,-0.27963728594691906,-1.7313789534832964,-0.9607744812965393,0.2760070562362671,-0.02705996111035347,0.17189347743988037,0.13825109601020813,0.160883828997612,0.03996777534484863,-0.12886658310890198,0.2357696294784546
90,-1.584941495399447,-0.2693965673183363,-1.7514204790803578,-0.9638352990150452,0.2661498188972473,0.013634522445499897,-0.5512303113937378,-0.9013339877128601,-0.2845422327518463,-0.5137953758239746,-0.0480102002620697,0.1276313066482544
91,-1.6578049591506476,-0.24931523480731008,-1.8623343690825527,-0.9654157757759094,0.2467404305934906,0.08421212434768677,-1.1656731367111206,0.4065849184989929,-0.09836144745349884,-0.04375481605529785,0.3485201895236969,-0.529021143913269
92,-1.6382963124730292,-0.2495238390247964,-1.8624257143306533,-0.9668234586715698,0.24694257974624634,0.06535986810922623,0.4841037094593048,0.15590079128742218,0.13057895004749298,0.22971713542938232,-0.0014744102954864502,0.08908963203430176
93,-1.6284170221830196,-0.26507073419931665,-1.857366069664509,-0.963472306728363,0.26197752356529236,0.055577464401721954,-0.16554388403892517,0.02137647569179535,0.19041524827480316,0.3986377716064453,-0.23391664028167725,-0.007969982922077179
94,-1.5967649506582968,-0.28560158685306636,-1.8228530403177141,-0.9591688513755798,0.28173473477363586,0.02491389587521553,0.9339346289634705,-0.16308468580245972,0.048046186566352844,-0.05074942111968994,0.04030203819274902,0.18700015544891357
95,-1.624543983638947,-0.2876479066125291,-1.8026283563519874,-0.9575291275978088,0.28369754552841187,0.05151456221938133,0.051918212324380875,-0.878486692905426,-0.13834881782531738,-0.16812700033187866,0.10793453454971313,0.4230794906616211
96,-1.6091113859761008,-0.25068479502151575,-1.8268213890505414,-0.9680318236351013,0.24806740880012512,0.03710835799574852,-0.1451008915901184,1.5612475872039795,-0.01738831028342247,0.10313308238983154,0.16382837295532227,-0.4968557357788086
97,-1.6002468332783,-0.2323571033902399,-1.7927786029940398,-0.9727042317390442,0.23027192056179047,0.0286549162119627,0.726276159286499,0.06354545056819916,-0.12457287311553955,-0.06036144495010376,-0.029069557785987854,-0.30886733531951904
98,-1.5634977724982821,-0.22104672461262032,-1.7651452718356249,-0.9756425023078918,0.21925099194049835,-0.007120905909687281,0.005025245249271393,0.4444567561149597,-0.09879664331674576,0.39889079332351685,-0.10444389283657074,0.07371026277542114
99,-1.5112072020552805,-0.23151300893137003,-1.7731884401549354,-0.971592903137207,0.22945043444633484,-0.0579649955034256,-0.135135218501091,0.430949866771698,0.36842644214630127,0.17337501049041748,-0.018299251794815063,0.11364435404539108
100,-1.5243265140658766,-0.24957836709328327,-1.8129035225225818,-0.967970609664917,0.24699541926383972,-0.04501381888985634,-0.38462984561920166,-0.42353537678718567,-0.09242360293865204,-0.3870556950569153,-0.24443191289901733,0.28291356563568115
101,-1.6261033650572052,-0.22737305700075547,-1.8513570796406156,-0.9727721810340881,0.22541896998882294,0.05385607108473778,-0.64105224609375,-0.9224556684494019,-0.1009560376405716,-0.2752593755722046,-0.1746072769165039,-0.16735100746154785
102,-1.6571672259518841,-0.21401158100740977,-1.9100339298580133,-0.9735440611839294,0.21238166093826294,0.0842955932021141,0.3044125437736511,0.06936787813901901,-0.0693536326289177,0.1131773591041565,0.3965049982070923,-0.4811004400253296
103,-1.6334917864505818,-0.22596473719030172,-1.8334830961209465,-0.9726636409759521,0.22404667735099792,0.061061616986989975,0.6060367822647095,-0.03974594548344612,0.13708887994289398,0.3062666058540344,-0.2324695587158203,0.10001014918088913
104,-1.62240606264701,-0.2549894959506097,-1.7655951893276793,-0.9663774371147156,0.2522352337837219,0.04991881176829338,0.9793750643730164,0.08092472702264786,0.27157509326934814,0.26619744300842285,-0.01918777823448181,-0.08536505699157715
105,-1.5921249544092502,-0.27183448731572807,-1.690563141004879,-0.9630608558654785,0.2684990167617798,0.020543882623314857,0.4242894947528839,0.1600741147994995,0.19103959202766418,-0.3111701011657715,0.023935705423355103,0.30011963844299316
106,-1.6203379429721656,-0.26388513090723437,-1.6758119036439658,-0.9641995429992676,0.26083314418792725,0.04780711978673935,-0.3081228733062744,-0.14274321496486664,-0.47980624437332153,-0.439731240272522,-0.10568177700042725,0.12638723850250244
107,-1.5469623743850294,-0.25406068475044064,-1.7076039754852488,-0.967624843120575,0.25133636593818665,-0.023066692054271698,0.3805250823497772,0.011364245787262917,-0.09453827142715454,0.10618996620178223,0.32424038648605347,-0.4894760847091675
108,-1.5493814393025378,-0.22962911323369714,-1.6741041732528572,-0.973527729511261,0.22761638462543488,-0.020851174369454384,0.2213071882724762,-0.03859839215874672,-0.17829596996307373,0.09770363569259644,-0.036667853593826294,-0.11284631490707397
109,-1.5306980451266021,-0.22084968434908234,-1.6889774006648142,-0.9749274253845215,0.21905875205993652,-0.03911387920379639,-0.4211649000644684,0.48358094692230225,-0.09391984343528748,0.357999324798584,-0.14129996299743652,0.03998363018035889
110,-1.47727920430939,-0.2286019728606808,-1.7175857060860602,-0.9697283506393433,0.22661608457565308,-0.09095149487257004,0.006152542773634195,0.5104357600212097,0.2646660804748535,0.09443843364715576,-0.031898677349090576,0.12217098474502563
111,-1.481403142716624,-0.23767415929394528,-1.74345814492134,-0.968007504940033,0.23544280230998993,-0.08676451444625854,-0.5934133529663086,-0.6129581332206726,-0.017447588965296745,-0.36664819717407227,-0.14479035139083862,0.4602539539337158
112,-1.5862062342831158,-0.23741843844576052,-1.8238893764609996,-0.9718329906463623,0.23519426584243774,0.014977041631937027,-1.251914620399475,-0.2977249324321747,0.20884141325950623,-0.2136833667755127,0.0015611052513122559,-0.13173723220825195
113,-1.5789632276837824,-0.24872616513385074,-1.91737069794019,-0.9691945314407349,0.24616952240467072,0.007915491238236427,0.5123447179794312,-0.005001924000680447,0.17463815212249756,0.29582417011260986,0.5196996331214905,-0.24297714233398438
114,-1.575383506474399,-0.271589177016918,-1.894894963179574,-0.9633356928825378,0.26826271414756775,0.004419025033712387,-0.35988953709602356,-0.07122115045785904,0.23722101747989655,0.3598201274871826,-0.30537205934524536,0.10523068904876709
115,-1.5642059934886356,-0.3009539069194594,-1.8941034228682199,-0.9550334215164185,0.29643136262893677,-0.006294080056250095,0.2947097718715668,0.3007069528102875,0.17805327475070953,0.22915762662887573,-0.011198818683624268,-0.0261765718460083
116,-1.557743189996546,-0.2930271654120267,-1.8588312903753874,-0.9572922587394714,0.28885167837142944,-0.012496376410126686,-0.11902738362550735,0.028853610157966614,-0.14563220739364624,-0.3131392002105713,-0.22079750895500183,0.46801698207855225
117,-1.5692632824211032,-0.2798312561791971,-1.867601970095964,-0.9611008763313293,0.2761934697628021,-0.001473411452025175,-0.303158164024353,0.4777134656906128,-0.0829659178853035,-0.3572583794593811,0.13680091500282288,-0.08742433786392212
118,-1.519027402473221,-0.2754353074487507,-1.8924453314782639,-0.9610177874565125,0.2719658613204956,-0.049795348197221756,0.6491959691047668,-0.7632977366447449,-0.163752019405365,-0.034664034843444824,0.3488532304763794,-0.33507710695266724
119,-1.5372346671078885,-0.25455496001401856,-1.881715575869792,-0.9672305583953857,0.25181472301483154,-0.032474055886268616,-0.3259320855140686,0.16514372825622559,-0.07733931392431259,0.10404086112976074,-0.12098589539527893,0.06070280075073242
120,-1.5079255303869292,-0.24876057906578447,-1.922463359751122,-0.967303454875946,0.24620288610458374,-0.060895394533872604,-0.5313971042633057,0.6640565991401672,0.011514822952449322,0.48375242948532104,-0.06688159704208374,-0.09051758050918579
121,-1.4761271491858465,-0.2616563964016219,-1.9439828633740854,-0.9616374373435974,0.25868090987205505,-0.09131037443876266,-0.40777528285980225,-0.19138802587985992,-0.010147763416171074,-0.2476520538330078,-0.21389636397361755,0.46399104595184326
122,-1.569672779652828,-0.24209096127995772,-2.0185376208632277,-0.9708383083343506,0.23973312973976135,-0.0010907830437645316,-0.681404709815979,-1.1832836866378784,-0.519061803817749,-0.7300436496734619,-0.06920090317726135,-0.24651354551315308
123,-1.6250445027612461,-0.23799980988415675,-2.129972121126981,-0.9703819751739502,0.23575928807258606,0.05269315093755722,-0.7212604880332947,0.2138691395521164,0.13957180082798004,0.050978779792785645,0.6246228218078613,-0.7327315807342529
124,-1.6229314252962683,-0.26609240421163977,-2.0758249471179764,-0.9634949564933777,0.2629633843898773,0.0502774640917778,0.37185874581336975,-0.005583318881690502,0.27860504388809204,0.16645210981369019,-0.19492441415786743,0.1425631046295166
125,-1.6326783829674487,-0.2836367899999323,-2.083448620531013,-0.9582065939903259,0.27984896302223206,0.05937160179018974,0.09501829743385315,-0.0919753909111023,0.18643362820148468,0.4217837452888489,-0.18225368857383728,-0.07879602164030075
126,-1.6140812504847868,-0.2875496863607738,-2.0267359262465434,-0.9580434560775757,0.28360337018966675,0.04149475693702698,0.6258537173271179,-0.08047118782997131,-0.195179283618927,-0.06826263666152954,-0.000858008861541748,0.16782522201538086
127,-1.6226591375305786,-0.2636112748217615,-1.9980054880905787,-0.964157223701477,0.260568767786026,0.05004878342151642,0.2675354480743408,-0.8614485263824463,-0.2291451394557953,-0.18693530559539795,0.077443927526474,0.428070068359375
128,-1.6591028813360242,-0.21310555647279183,-2.023093426358245,-0.9735703468322754,0.21149621903896332,0.08619681745767593,-0.5537245869636536,0.9780567288398743,-0.3094186782836914,-0.01750314235687256,0.1241208016872406,-0.2972869873046875
129,-1.5827740432058608,-0.21077352119557638,-2.0155230052822497,-0.9777992367744446,0.20921637117862701,0.011712362058460712,0.14516708254814148,-0.18777254223823547,-0.10617806017398834,-0.01391524076461792,0.2869231700897217,-0.44104886054992676
130,-1.572075127200844,-0.2091483008622651,-2.0103950543068647,-0.9782073497772217,0.2076268345117569,0.0012509325752034783,-0.49594905972480774,0.43813642859458923,-0.049021944403648376,0.24210810661315918,-0.1562352180480957,0.1962282657623291
131,-1.5274112392281296,-0.21177370836834108,-2.0784538117066247,-0.9767396450042725,0.21019431948661804,-0.042402543127536774,-0.5065668225288391,0.665081262588501,0.22579385340213776,0.27218037843704224,-0.020603850483894348,0.06728959083557129
132,-1.5162813527047931,-0.23472864557525874,-2.1237083329036595,-0.9711326360702515,0.2325790822505951,-0.0529937781393528,-0.5376601219177246,-0.23299625515937805,-0.033337224274873734,-0.29885631799697876,-0.2558029890060425,0.2674560546875
133,-1.5887706382833342,-0.21977094061236674,-2.1716292602139564,-0.9757898449897766,0.21800607442855835,0.01754103973507881,-0.6853349208831787,-0.9490474462509155,-0.158508762717247,-0.5362951755523682,-0.08333197236061096,0.1606053113937378
134,-1.6513351006094894,-0.21344595576585373,-2.2681789883437773,-0.9741387963294983,0.21182890236377716,0.07862602174282074,-0.4726408123970032,0.05558150261640549,-0.01859441213309765,0.08883917331695557,0.42409640550613403,-0.6113256216049194
135,-1.639562879869792,-0.22215930336799028,-2.2169223914945007,-0.9731185436248779,0.22033637762069702,0.06702368706464767,0.5155644416809082,0.12735314667224884,0.0892355665564537,0.1583450436592102,-0.16882272064685822,0.10819303244352341
136,-1.6458655142786904,-0.2458139554798129,-2.190982080495467,-0.9672078490257263,0.24334588646888733,0.0727442055940628,0.5648435354232788,-0.20354972779750824,0.38321438431739807,0.4018697738647461,-0.11582820117473602,-0.09998119622468948
137,-1.6296401679459027,-0.2699109859559653,-2.0927555755248846,-0.9621264338493347,0.2666456401348114,0.05668065324425697,0.9216610789299011,-0.46074193716049194,-0.06461306661367416,-0.10350149869918823,-0.08605790138244629,0.26677513122558594
138,-1.642835643685546,-0.2758823128320607,-2.0372249740773425,-0.9596896767616272,0.2723959982395172,0.06925523281097412,0.4101797640323639,-0.8707088232040405,-0.126212477684021,-0.23354768753051758,-0.017223209142684937,0.4401136636734009
139,-1.6471686220819435,-0.2596418780645401,-2.0315110954164015,-0.9636647701263428,0.2567344605922699,0.07374071329832077,0.564180850982666,0.8655211329460144,-0.022235814481973648,0.04742026329040527,0.24210584163665771,-0.7533977031707764
140,-1.6090542868743285,-0.24891448022240392,-1.90809379304919,-0.968471348285675,0.24635204672813416,0.03706982359290123,1.3961046934127808,0.12487154453992844,-0.21139977872371674,-0.13901162147521973,-0.14211922883987427,-0.29646921157836914
141,-1.5613381941271078,-0.23170828213522993,-1.823899359648527,-0.973232090473175,0.22964048385620117,-0.009205233305692673,0.18047162890434265,0.26878929138183594,-0.2603694498538971,0.3356435298919678,-0.061198681592941284,0.15955007076263428
142,-1.5047321002515184,-0.22961142167188534,-1.8219354901698919,-0.9716306328773499,0.2275991588830948,-0.0642835721373558,0.3080396056175232,0.5788334012031555,0.21854254603385925,0.21148359775543213,0.01614469289779663,-0.01465015858411789
143,-1.5096557929346532,-0.23793925313254533,-1.7961221670508207,-0.9700098633766174,0.23570044338703156,-0.05938093364238739,-0.10285040736198425,-0.8433138132095337,0.0032599950209259987,-0.3034886121749878,-0.08659157156944275,0.5275357961654663
144,-1.622632559911263,-0.23175279306188767,-1.835498707685663,-0.9719580411911011,0.2296838015317917,0.050427816808223724,-1.0065726041793823,-0.42671141028404236,0.2283596396446228,-0.2629357576370239,-0.159508615732193,-0.24659478664398193
145,-1.641671246148952,-0.21922616920504945,-1.8571387066320428,-0.9736156463623047,0.21747437119483948,0.06912070512771606,0.9700122475624084,-0.3163014054298401,-0.14748886227607727,0.12391471862792969,0.2118011713027954,-0.3106825351715088
146,-1.63967556478961,-0.21589679016751415,-1.7592100618959183,-0.9744685292243958,0.2142234891653061,0.06722699850797653,0.4074465036392212,-0.13500382006168365,0.03559219092130661,0.3236658573150635,-0.2486320436000824,0.09788835793733597
147,-1.6273640991761678,-0.22310365777958768,-1.6748169342404489,-0.9736557602882385,0.22125741839408875,0.055136360228061676,1.1129573583602905,0.12770956754684448,-0.1882987767457962,0.2776106595993042,0.008234858512878418,-0.0744539350271225
148,-1.6008254110036964,-0.20766572176281464,-1.5841999583472106,-0.97807377576828,0.20617634057998657,0.02937949076294899,0.5761960744857788,0.14215363562107086,0.014003224670886993,-0.23619019985198975,0.013199269771575928,0.2558835744857788
149,-1.6133823827883602,-0.20534227146527445,-1.530710982120206,-0.9781036376953125,0.2039022594690323,0.0416787751019001,0.5335129499435425,-0.3647869825363159,-0.13140869140625,-0.444366455078125,0.010788887739181519,0.0757070779800415
150,-1.6378438745629578,-0.19979154531044027,-1.5095742445659022,-0.9779059290885925,0.198465034365654,0.0656646192073822,0.43436509370803833,-0.6029283404350281,-0.23679131269454956,-0.042174696922302246,-0.022958427667617798,-0.4264587163925171
151,-1.6236030716672176,-0.19270749446855787,-1.4385382870910903,-0.9801211357116699,0.1915169656276703,0.05180516839027405,-0.08570494502782822,0.29295849800109863,-0.17844191193580627,0.016238749027252197,-0.23308192193508148,0.01885830983519554
152,-1.592225918997803,-0.172021844399519,-1.4960665717134765,-0.9850144982337952,0.17117470502853394,0.021111691370606422,-0.3195652663707733,0.4311619997024536,-0.12236615270376205,0.39315658807754517,0.09492334723472595,0.009558439254760742
153,-1.5579207095995211,-0.17365793588280773,-1.553300730740961,-0.9848777055740356,0.1727864146232605,-0.012681609019637108,-0.495975136756897,0.3481028079986572,0.21605628728866577,0.0037070512771606445,0.00018721818923950195,0.05874788761138916
154,-1.5490629074145643,-0.19403740017129226,-1.630225704841923,-0.9810020923614502,0.19282208383083344,-0.02132388763129711,-0.811775267124176,-0.14623618125915527,0.07938394695520401,-0.1559607982635498,-0.09237349033355713,0.2895275950431824
155,-1.6127685038169082,-0.19793428708206434,-1.7167301108011241,-0.9796113967895508,0.1966443657875061,0.041140586137771606,-0.9986871480941772,-0.544281542301178,-0.051845621317625046,-0.4384489059448242,-0.1538282036781311,0.08002948760986328
156,-1.6521908573273758,-0.19642639398537926,-1.866990404968041,-0.977523148059845,0.1951656937599182,0.0797412097454071,-1.1572775840759277,0.19880050420761108,-7.623026613146067e-05,0.04086250066757202,0.2787570059299469,-0.660780668258667
157,-1.653214414402925,-0.20087057264480646,-1.8767127495963558,-0.9765670299530029,0.1995224803686142,0.08066952973604202,0.2896697223186493,-0.021544132381677628,0.1276736557483673,0.0745590329170227,-0.053602710366249084,-0.023647435009479523
158,-1.6416036187208,-0.22460765806306957,-1.8719778663926643,-0.9724386930465698,0.22272388637065887,0.06897105276584625,0.20233194530010223,0.19761443138122559,0.3714101016521454,0.2925681471824646,-0.18283744156360626,-0.07968271523714066
159,-1.604528629881369,-0.25303073120131586,-1.8131283959255122,-0.9676072001457214,0.2503393292427063,0.032652005553245544,0.7502580285072327,0.13202278316020966,0.025403834879398346,0.06570619344711304,-0.07512271404266357,0.08226191252470016
160,-1.57706102901318,-0.2535138885978326,-1.7556930182519872,-0.9680180549621582,0.2508070766925812,0.00606442429125309,0.7270855903625488,-0.1372627466917038,0.08617344498634338,-0.260619580745697,0.012590140104293823,0.20400333404541016
161,-1.6140997226757996,-0.23205144506215183,-1.700082400870635,-0.9722844362258911,0.22997446358203888,0.042129553854465485,0.2610124349594116,-0.8269890546798706,-0.3414664566516876,-0.3081568479537964,-0.21965953707695007,0.1962127685546875
162,-1.5791401153570372,-0.20543210175892881,-1.641684117934271,-0.97893887758255,0.20399019122123718,0.00816824845969677,1.1605348587036133,-0.24752309918403625,-0.2984822988510132,-0.07974642515182495,0.09644010663032532,-0.38147449493408203
163,-1.5610129505815429,-0.17646055411081732,-1.5448431085657675,-0.9844241142272949,0.17554619908332825,-0.00963129848241806,0.5777063965797424,0.14385390281677246,-0.1996927708387375,0.023181438446044922,-0.07035210728645325,0.06877440214157104
164,-1.5264896650686435,-0.16293927602265257,-1.530006191465972,-0.9857864379882812,0.16221924126148224,-0.04370550811290741,0.0039013130590319633,0.43787679076194763,-0.04257257655262947,0.37899017333984375,0.08845213055610657,0.0052228569984436035
165,-1.4921870850687668,-0.1703263589174967,-1.5277206037369828,-0.9824860692024231,0.16950400173664093,-0.07739195972681046,-0.047445110976696014,0.010545924305915833,0.1507454812526703,0.008319258689880371,-0.11213095486164093,0.25880372524261475
166,-1.5523126140366648,-0.17680998429044054,-1.5534046301591449,-0.9842415452003479,0.17589019238948822,-0.01819450967013836,-0.5753834843635559,-1.1747231483459473,0.14302374422550201,-0.41054898500442505,-0.05768035352230072,0.2715361714363098
167,-1.640729743613209,-0.20016122485756693,-1.6417989050292836,-0.9776390790939331,0.1988273411989212,0.06848131865262985,-0.8505345582962036,0.018251853063702583,0.2649354338645935,-0.1988288164138794,0.12031024694442749,-0.46034228801727295
168,-1.6239325217416936,-0.21292694872993037,-1.6391666671322367,-0.9760372042655945,0.2113216519355774,0.051911767572164536,0.7219604849815369,-0.047113727778196335,0.13936442136764526,0.10059463977813721,0.1948978304862976,-0.04965341091156006
169,-1.614837066444457,-0.22951810992507096,-1.615504271966979,-0.9728318452835083,0.2275082916021347,0.042871955782175064,-0.10354088991880417,0.16471636295318604,0.22035536170005798,0.32404351234436035,-0.1901395618915558,0.047795768827199936
170,-1.5789017603112834,-0.25317907303083004,-1.60690862401902,-0.9680892825126648,0.2504829466342926,0.007846955209970474,0.30572614073753357,0.36992788314819336,0.046681467443704605,0.23411095142364502,0.0776725709438324,-0.024417996406555176
171,-1.5676747555700825,-0.24164169573732883,-1.5856200969813588,-0.9709416627883911,0.23929694294929504,-0.003030873369425535,-0.14757181704044342,0.17614561319351196,-0.07539480924606323,-0.2434900403022766,-0.13106639683246613,0.4184514284133911
172,-1.6016556518782155,-0.22600557833168194,-1.6109724898096252,-0.9741054177284241,0.2240864783525467,0.030069781467318535,-0.300505667924881,-0.3678455650806427,-0.2828246057033539,-0.264221727848053,0.053882867097854614,0.15446996688842773
173,-1.6136201553208198,-0.20775393723034175,-1.6760804405958145,-0.9775995016098022,0.20626266300678253,0.041890162974596024,-0.5134584307670593,-0.48948463797569275,-0.2599867284297943,-0.0316166877746582,0.11749833822250366,-0.46574878692626953
174,-1.616481939904598,-0.19613166325088638,-1.6624386949831258,-0.9798043966293335,0.19487662613391876,0.04479413479566574,0.06701087951660156,0.33851537108421326,0.023936036974191666,0.033362746238708496,-0.20944878458976746,-0.13779640197753906
175,-1.574369261664945,-0.18797757840940227,-1.7140972244951442,-0.9823779463768005,0.1868724822998047,0.0035099873784929514,-0.6378642916679382,0.6610388159751892,-0.0327044352889061,0.43281739950180054,0.011674880981445312,0.0376582145690918
176,-1.5282973596063885,-0.1951069214875981,-1.7541673910452227,-0.9801412224769592,0.1938714236021042,-0.04168008640408516,-0.3738057613372803,0.41510945558547974,0.23176006972789764,0.06050920486450195,-0.07157224416732788,0.14041972160339355
177,-1.5155869197943281,-0.21253901371420778,-1.7987114377597329,-0.9760091304779053,0.21094246208667755,-0.05393970012664795,-0.3835877776145935,-0.09791330248117447,0.012620238587260246,-0.2741892337799072,-0.10168954730033875,0.28567492961883545
178,-1.5844890401295106,-0.21285602732664557,-1.8531547210112649,-0.9773398637771606,0.2112523317337036,0.013383271172642708,-0.8945516347885132,-0.7091927528381348,0.07595567405223846,-0.5780189633369446,-0.1845647245645523,0.011244415305554867
179,-1.606963772856949,-0.2242692643707341,-1.9501769510714948,-0.9743193984031677,0.22239398956298828,0.035254016518592834,0.17962078750133514,0.05755966156721115,0.05529952421784401,0.16127002239227295,0.422946035861969,-0.6212677955627441
180,-1.5988102341265584,-0.23384071499065034,-1.8760442681303138,-0.9724019765853882,0.23171541094779968,0.02724790759384632,0.4798322319984436,-0.12679295241832733,0.04864341765642166,0.17569482326507568,-0.19066926836967468,0.08881044387817383
181,-1.5905210981799334,-0.24667703162919627,-1.852974468144018,-0.969540536403656,0.24418292939662933,0.019126446917653084,0.6912026405334473,0.13756775856018066,0.2513802945613861,0.3163880705833435,-0.10638082027435303,-0.06685590744018555
182,-1.5614435407284084,-0.2524960634685752,-1.752123866660617,-0.9682495594024658,0.24982164800167084,-0.009056095033884048,1.0095795392990112,-0.33291590213775635,-0.1993662416934967,-0.05526423454284668,-0.10477161407470703,0.24230194091796875
183,-1.5635704139992366,-0.2472065431982017,-1.6862603056557561,-0.9695745706558228,0.24469637870788574,-0.007006182800978422,0.699309229850769,-0.6525698304176331,-0.05998482555150986,-0.0754237174987793,0.13280606269836426,0.4011101722717285
184,-1.5752697186309537,-0.2228053825345033,-1.6761479982798677,-0.9752716422080994,0.22096653282642365,0.004362801089882851,-0.24476996064186096,1.2654600143432617,-0.3628225326538086,0.09245914220809937,0.34135034680366516,-0.4404590129852295
185,-1.5762781402882151,-0.1863218919840301,-1.6390578081721323,-0.9826774597167969,0.18524570763111115,0.0053869085386395454,0.48003488779067993,-0.09070412814617157,-0.37706467509269714,-0.050556182861328125,-0.11369726061820984,-0.39399778842926025
186,-1.5478618976900749,-0.16857651571327267,-1.6257152561234867,-0.9855654239654541,0.16777920722961426,-0.022607343271374702,-0.06303631514310837,0.5374096632003784,-0.06729643046855927,0.3871157169342041,-0.013177156448364258,0.0015044212341308594
187,-1.4978664403662725,-0.16486106053312627,-1.633082328121036,-0.9838190674781799,0.1641152799129486,-0.07187729328870773,-0.2016528695821762,0.5638019442558289,0.10567308962345123,0.19059085845947266,-0.02487882971763611,0.14354783296585083
188,-1.4644358415892296,-0.18570126371030896,-1.6559806229673972,-0.9772531390190125,0.18463578820228577,-0.10433484613895416,-0.5084958672523499,-0.21153326332569122,-0.01656457968056202,-0.333568274974823,-0.14165176451206207,0.537959098815918
189,-1.5596239169375652,-0.1776149305442208,-1.725266969886015,-0.9842066168785095,0.17668253183364868,-0.01099641714245081,-0.9475094676017761,-1.3340373039245605,-0.18071651458740234,-0.6686255931854248,-0.22882182896137238,0.16446930170059204
190,-1.6288359384157118,-0.17391162770225607,-1.8766091054316452,-0.983256995677948,0.17303629219532013,0.057132020592689514,-0.5527894496917725,0.10552876442670822,0.09497252851724625,0.13676047325134277,0.5147078633308411,-1.0325348377227783
191,-1.6314059821727847,-0.19402805131586484,-1.7983235968064895,-0.9794338941574097,0.19281291961669922,0.059435948729515076,1.0071383714675903,-0.17960187792778015,0.16759589314460754,0.2658107280731201,-0.18973064422607422,0.14829719066619873
192,-1.6345290406381798,-0.20907247728441203,-1.760582082151925,-0.9762378334999084,0.20755267143249512,0.062302663922309875,0.3961465060710907,-0.03805369883775711,0.14348812401294708,0.32334476709365845,-0.2427699714899063,-0.07200729846954346
193,-1.6152447760353537,-0.21314186783062425,-1.6836039635256974,-0.9764057993888855,0.21153171360492706,0.04342832788825035,0.6937142610549927,-0.10994669049978256,-0.1548200249671936,-0.04005837440490723,-0.02647310495376587,0.19975101947784424
194,-1.6132531829368557,-0.2188632064989872,-1.6310383462163427,-0.9752650856971741,0.21712008118629456,0.04143158718943596,0.6849998831748962,-0.6659614443778992,0.042595673352479935,-0.2249300479888916,0.01800253987312317,0.3932759761810303
195,-1.6453804805969547,-0.19204820746205273,-1.6122849446169494,-0.9788864850997925,0.19086985290050507,0.07314509898424149,0.02091292291879654,1.1542428731918335,-0.2020813226699829,-0.03348851203918457,0.07396173477172852,-0.34382081031799316
196,-1.6233961771855514,-0.18349941489776184,-1.52424861541336,-0.9818512201309204,0.1824713498353958,0.0516929067671299,1.2557543516159058,0.06404517590999603,-0.05607004836201668,-0.09297776222229004,-0.08206851780414581,-0.5651512145996094
197,-1.5778848534364989,-0.18601977540541564,-1.440595102905006,-0.9827234148979187,0.18494881689548492,0.006966177839785814,0.3497476875782013,0.4779078960418701,-0.015068653039634228,0.346447229385376,-0.08663643896579742,0.07044172286987305
198,-1.5275586041377127,-0.18760796493347134,-1.3922264124093084,-0.9815348982810974,0.186509370803833,-0.04246579855680466,0.8504509329795837,-0.01003292016685009,0.12334217131137848,0.13177305459976196,0.024458661675453186,0.13388121128082275
199,-1.576704711835946,-0.20270798221591266,-1.346228895442405,-0.9795079827308655,0.20132260024547577,0.0057873777113854885,0.1531684696674347,-1.0195119380950928,0.17396053671836853,-0.1898798942565918,-0.09359553456306458,0.12804746627807617
200,-1.690897742695469,-0.1977099286255113,-1.3523836931515558,-0.9734557867050171,0.19642439484596252,0.11747881770133972,-0.2658468782901764,-1.0087579488754272,-0.1314699947834015,-0.38320308923721313,0.04136858880519867,-0.3287825584411621
201,-1.7226264972991654,-0.21817822541603485,-1.2703765277070989,-0.965062141418457,0.21645139157772064,0.147661954164505,2.857991933822632,-0.4552815854549408,0.12571720778942108,-0.14091026782989502,-0.08043450117111206,-0.7334620952606201
202,-1.7149669444962032,-0.2583268792470189,-1.0116180403824324,-0.9567884206771851,0.25546330213546753,0.13890449702739716,2.5434045791625977,-0.46390628814697266,-0.012335791252553463,0.33964669704437256,-0.22735661268234253,-0.24936294555664062
203,-1.6732706490732436,-0.28776454534029355,-0.7409145733314634,-0.9538506269454956,0.2838093936443329,0.09808877855539322,2.379692554473877,-0.2045566886663437,-0.053048815578222275,-0.013938188552856445,-0.042339026927948,-0.07396458089351654
204,-1.6570081496393427,-0.2893417036380675,-0.5165243435752817,-0.9548724889755249,0.28532135486602783,0.08252585679292679,2.011604070663452,-0.6233157515525818,-0.48686960339546204,0.16010314226150513,-0.14832791686058044,-0.1446748971939087
205,-1.612475224381922,-0.27347494747644985,-0.26248145077776275,-0.9620020389556885,0.2700788676738739,0.040118418633937836,2.473802328109741,-0.12022212892770767,-0.09592882543802261,-0.15455985069274902,-0.1290723979473114,-0.3686859607696533
206,-1.5496156202158198,-0.2478746749625887,-0.007712494620905639,-0.9692185521125793,0.2453441470861435,-0.020531803369522095,2.0813260078430176,-0.12305247783660889,-0.2860262095928192,0.03611314296722412,-0.09095573425292969,0.14232748746871948
207,-1.5114597277929687,-0.22344395017062443,0.19178299234396937,-0.9734238982200623,0.22158926725387573,-0.05782754719257355,1.9845479726791382,-0.18463367223739624,-0.03064468875527382,0.18184375762939453,-0.15904352068901062,-0.05076926201581955
208,-1.4980781056703378,-0.22080172275607415,0.36811492172096816,-0.973143458366394,0.21901194751262665,-0.07089025527238846,1.6052608489990234,-0.2793305516242981,0.14507688581943512,-0.11923319101333618,-0.09070080518722534,-0.03268640488386154
209,-1.5204627430116562,-0.225884913240813,0.4997060835331501,-0.9733620285987854,0.22396887838840485,-0.04903421550989151,0.8985622525215149,-0.7835914492607117,0.12324416637420654,-0.1118735671043396,-0.11383092403411865,0.1314774751663208
210,-1.5900370463775366,-0.2449696010413827,0.5648723193449093,-0.9699651002883911,0.2425268292427063,0.01866512931883335,0.5331735014915466,-0.7204932570457458,0.3223191797733307,-0.2499903440475464,-0.135333850979805,-0.08647513389587402
211,-1.6379599503747289,-0.2800463294585052,0.6318910355388663,-0.9588758945465088,0.2764001786708832,0.06449858844280243,0.7575754523277283,-0.5247194766998291,0.25975194573402405,0.1968519687652588,-0.05211120843887329,-0.1813657283782959
212,-1.6420633654454773,-0.30137917058496794,0.7720692251253051,-0.9525041580200195,0.2968375086784363,0.06799730658531189,1.1706916093826294,-0.30985385179519653,0.09871868789196014,-0.05898582935333252,-0.2510458528995514,0.02643931657075882
213,-1.6437889378485848,-0.32584129039781234,0.9017842569813538,-0.9448592662811279,0.3201059103012085,0.06909049302339554,1.4385441541671753,-0.3604062497615814,0.20875996351242065,0.16157972812652588,-0.07872709631919861,-0.018736474215984344
214,-1.6156886093569185,-0.3554251798628749,1.0271157982548327,-0.9365540742874146,0.3479889929294586,0.042072318494319916,1.143226146697998,-0.01878891885280609,0.31116417050361633,0.08073443174362183,0.029910176992416382,-0.009830478578805923
215,-1.585884051713664,-0.3839617216703216,1.1222334796364213,-0.927082359790802,0.37459665536880493,0.013988625258207321,0.6813045740127563,-0.13236187398433685,0.22782818973064423,-0.024867713451385498,-0.13593396544456482,0.22403323650360107
216,-1.6221833462633113,-0.3864795442621707,1.1740058682886374,-0.9250191450119019,0.37692996859550476,0.04757586121559143,0.07147835195064545,-0.8521744608879089,-0.35761430859565735,-0.28987038135528564,-0.3004376292228699,0.07902634143829346
217,-1.5863088746668856,-0.35044932287735503,1.203026981898734,-0.9391055107116699,0.3433198630809784,0.014569087885320187,1.1517513990402222,0.6665665507316589,-0.3834826350212097,0.0366702675819397,0.3903532326221466,-0.4329802989959717
218,-1.5195759000174227,-0.3017861218823812,1.3321452733370225,-0.9535550475120544,0.29722607135772705,-0.048884253948926926,0.957328736782074,-0.02740843966603279,-0.36511194705963135,-0.2150852084159851,-0.07403576374053955,-0.21828186511993408
219,-1.4822156170683798,-0.27468476589979307,1.4108653027626425,-0.9587371349334717,0.27124354243278503,-0.08514843881130219,0.6330655217170715,0.28975728154182434,-0.2283349484205246,0.16527998447418213,-0.16780415177345276,0.023029915988445282
220,-1.4347400810838018,-0.2528967688858745,1.4542128850353722,-0.9592442512512207,0.25020962953567505,-0.1313224881887436,0.3751087188720703,0.49160653352737427,-0.01010951679199934,0.20935112237930298,-0.0018575787544250488,-0.05034862458705902
221,-1.4064190120908966,-0.2520871506582609,1.5011197293068719,-0.9553403854370117,0.24942567944526672,-0.15846611559391022,0.37329089641571045,-0.3566209673881531,-0.0730038657784462,-0.255215585231781,-0.21793155372142792,0.4374120235443115
222,-1.5057082855111596,-0.24573986272358664,1.4777388935647873,-0.9679037928581238,0.2432740330696106,-0.0630880817770958,-0.9125992655754089,-1.3202077150344849,-0.11863920837640762,-0.3746560215950012,-0.1727021336555481,0.1367117166519165
223,-1.5564686959324108,-0.2594823793691861,1.3967539102792013,-0.9664238095283508,0.25658029317855835,-0.01384751033037901,0.2111014723777771,0.02632930874824524,0.19493339955806732,-0.045020341873168945,0.41064074635505676,-0.7303236126899719
224,-1.5646452985418873,-0.26459845063444754,1.4807088015114576,-0.9651795029640198,0.26152172684669495,-0.0059369211085140705,0.6394940614700317,-0.4297719895839691,0.05069230496883392,0.06599414348602295,-0.34217962622642517,0.27388131618499756
225,-1.5662949279641267,-0.27894108106324483,1.5178073266109466,-0.9613378643989563,0.275337815284729,-0.004327394533902407,0.6322409510612488,-0.1291063278913498,0.30306029319763184,0.4449804425239563,-0.0635000467300415,-0.17238467931747437
226,-1.5825361151521293,-0.27839142174360904,1.6143784931157625,-0.9614323973655701,0.2748093605041504,0.011287531815469265,0.5203540325164795,-0.28845685720443726,-0.09037069231271744,-0.20006656646728516,-0.14686444401741028,0.2726786136627197
227,-1.6604251457045236,-0.2564876642610519,1.6510871621699283,-0.9634042978286743,0.2536846995353699,0.08658075332641602,-0.05551965534687042,-0.8781366348266602,-0.7481352090835571,-0.3139394521713257,-0.11098450422286987,0.15055608749389648
228,-1.5589441273019489,-0.21579031854988076,1.713886000649343,-0.9767389893531799,0.21411947906017303,-0.011577047407627106,1.2050038576126099,-0.7703942656517029,-0.29151463508605957,-0.13230037689208984,0.2621378004550934,-0.3188062906265259
229,-1.5538914170069025,-0.1903793691359256,1.7926324524376624,-0.9817923307418823,0.18923142552375793,-0.016598692163825035,0.5589612126350403,0.10509469360113144,-0.12629488110542297,0.14484763145446777,-0.07466837763786316,0.004422185942530632
230,-1.5231540397079,-0.17462739109475792,1.811208063709428,-0.9836739301681519,0.1737412065267563,-0.04689996689558029,-0.2995647192001343,0.6044031381607056,-0.07242679595947266,0.43496787548065186,-0.02141273021697998,0.0024205446243286133
231,-1.487444427635117,-0.17821628523158076,1.8293008180204982,-0.9807447791099548,0.17727439105510712,-0.081936776638031,0.1972483992576599,-0.05600350350141525,0.09901345521211624,-0.13477951288223267,-0.1712624430656433,0.4336060881614685
232,-1.5570949936905683,-0.17251705991205468,1.7921283673337496,-0.9850634336471558,0.1716625839471817,-0.01349752675741911,-0.7045482397079468,-1.0148684978485107,-0.20631423592567444,-0.4086744785308838,-0.07025264203548431,-0.018561186268925667
233,-1.6288610008136895,-0.16223813368044435,1.68146602235084,-0.9852050542831421,0.1615273505449295,0.05726998671889305,-1.055988073348999,0.5073384046554565,0.06829142570495605,-0.07938534021377563,0.5220053195953369,-0.4392585754394531
234,-1.6105660462644988,-0.1719559166798856,1.7146313887121774,-0.9844728708267212,0.17110975086688995,0.03917286545038223,0.7448749542236328,0.07458831369876862,0.06597248464822769,0.11763638257980347,-0.05235062539577484,-0.017810586839914322
235,-1.6158672604709035,-0.17218255991401174,1.700314852437207,-0.9842126965522766,0.17133304476737976,0.04438944533467293,-0.18477429449558258,0.1442003697156906,0.16580359637737274,0.5027216076850891,-0.04666870832443237,-0.12013411521911621
236,-1.6256747780863339,-0.17213057080976818,1.7378505205824957,-0.983738899230957,0.1712818145751953,0.0540403313934803,0.06182235851883888,-0.5447019338607788,-0.3453415334224701,-0.12475109100341797,-0.2429218292236328,0.40083932876586914
237,-1.6796924324501314,-0.14656992516603148,1.7262364242397972,-0.9834179878234863,0.14604569971561432,0.10751570761203766,-0.14357741177082062,0.35990747809410095,0.05873768776655197,-0.5031237006187439,0.2759055495262146,-0.17943038046360016
238,-1.6152153011088064,-0.12538753406495995,1.7304372790604865,-0.9911707043647766,0.12505923211574554,0.0440557636320591,0.30170509219169617,0.1393587738275528,-0.24688175320625305,-0.09974116086959839,0.24868954718112946,-0.4498326778411865
239,-1.5810787058740223,-0.11488929471561408,1.7656238602273255,-0.9933550357818604,0.11463671177625656,0.010214412584900856,-0.22875119745731354,0.4600410461425781,-0.0497405081987381,0.23302483558654785,-0.0024845898151397705,0.07631814479827881
240,-1.5350019732273288,-0.10846212417681861,1.7027860818816871,-0.9934870004653931,0.10824958980083466,-0.03557641804218292,-0.8778971433639526,0.6059001684188843,0.010641729459166527,0.28056585788726807,0.07923513650894165,-0.024344801902770996
241,-1.5123751557630265,-0.12072004290204767,1.6280289066393914,-0.9910285472869873,0.12042704224586487,-0.05796300619840622,-0.8245329856872559,-0.04454047605395317,-0.0003885548794642091,-0.12458723783493042,-0.12193764001131058,0.4201151132583618
242,-1.5815718600918953,-0.1201000912048666,1.5001819717782798,-0.9927388429641724,0.11981157958507538,0.010697704739868641,-1.7812103033065796,-0.8385599851608276,-0.2501870393753052,-0.1444222331047058,-0.15986594557762146,0.05122244358062744
243,-1.6083240180961424,-0.11597364643304123,1.2626517656242466,-0.9925832748413086,0.11571384966373444,0.03726685419678688,-2.0456409454345703,0.8116034269332886,0.47617435455322266,0.008803367614746094,0.9773190021514893,-0.4243365526199341
244,-1.6037897609080272,-0.14988186057647787,1.168829757192343,-0.9882505536079407,0.1493213176727295,0.03261761739850044,-1.1025047302246094,-0.4598108232021332,0.22303226590156555,-0.05886852741241455,-0.4981067478656769,0.26160240173339844
245,-1.607061759360853,-0.16731435914268405,1.0326188587947929,-0.9853871464729309,0.16653481125831604,0.035751163959503174,-0.5937401056289673,0.48392876982688904,0.1631598025560379,0.4463857412338257,0.029952600598335266,-0.0694882869720459
246,-1.607410037321264,-0.15334678210967823,0.9855410696910051,-0.9876030683517456,0.15274648368358612,0.03617598116397858,-1.0971730947494507,0.2391703873872757,-0.5849806666374207,-0.2064124345779419,-0.18395072221755981,0.16836810111999512
247,-1.5688810921689935,-0.10414998367788574,0.8877301448810453,-0.9945794939994812,0.10396179556846619,-0.0019048553658649325,-0.6640500426292419,1.937777042388916,-0.1422254592180252,-0.1771276593208313,0.4841882288455963,-0.35176336765289307
248,-1.5512392591034054,-0.09657362642254691,0.8097819417498691,-0.9951501488685608,0.09642358124256134,-0.019464699551463127,-0.37678882479667664,-0.22103570401668549,-0.02480459213256836,-0.14956432580947876,0.16422705352306366,-0.0011957306414842606
249,-1.5425093139057688,-0.09984442161221521,0.664847470419103,-0.994621753692627,0.09967861324548721,-0.028142385184764862,-1.9158624410629272,0.3680114150047302,-0.08280027657747269,0.2803119421005249,-0.00568448007106781,0.018132563680410385
250,-1.5306411976793663,-0.11097407447774395,0.4810233509762102,-0.9930475354194641,0.11074643582105637,-0.03989739716053009,-1.954011082649231,0.027251869440078735,0.09391061961650848,0.2379205822944641,0.02485843002796173,0.25249814987182617
251,-1.5695149594925144,-0.11627179554006037,0.24507896713696534,-0.9932473301887512,0.11600998789072037,-0.0012727153953164816,-2.299273729324341,-0.2764572501182556,-0.42834359407424927,-0.6038749814033508,0.17445632815361023,-0.5400633215904236
252,-1.537495878161156,-0.13373053056159862,0.010846629664344557,-0.9905219078063965,0.1333322823047638,-0.032997019588947296,-1.6495946645736694,0.4812530279159546,0.37289851903915405,-0.17077869176864624,0.6272267699241638,0.0002821721136569977
253,-1.5492437204292309,-0.1843178083853321,-0.18296593524941193,-0.982833206653595,0.18327593803405762,-0.021185897290706635,-1.9755878448486328,0.5616869926452637,0.379192978143692,0.16908198595046997,-0.07045245170593262,-0.07581418752670288
254,-1.535340164407133,-0.21009135664148074,-0.33579644346262383,-0.9773972034454346,0.20854924619197845,-0.03466928377747536,-0.9921367764472961,0.42914271354675293,-0.09286335855722427,0.27141880989074707,0.03961971402168274,0.11146676540374756
255,-1.5494730005021091,-0.20311855034056742,-0.41642671646833873,-0.9792196154594421,0.20172475278377533,-0.020883385092020035,-0.995469331741333,-0.2341320514678955,-0.3405323326587677,-0.12507420778274536,-0.21680042147636414,0.43862324953079224
256,-1.557107389617089,-0.14628147910245476,-0.5158844656365144,-0.9892271757125854,0.14576034247875214,-0.013542314991354942,-0.7128363847732544,1.2769181728363037,-0.2984596788883209,-0.19053655862808228,0.22479933500289917,-0.19467908143997192
257,-1.5102228513291531,-0.13648319755873004,-0.5704173623890245,-0.9888837933540344,0.13605986535549164,-0.059973496943712234,-0.3553292751312256,0.20665492117404938,-0.12275473773479462,0.02226996421813965,0.42415133118629456,-0.21181601285934448
258,-1.4940737937126907,-0.13020022754297675,-0.6796754493122734,-0.9886191487312317,0.1298326849937439,-0.07599853724241257,-1.8671764135360718,0.4995199739933014,-0.2756436765193939,0.1877463459968567,0.025929033756256104,0.11765503883361816
259,-1.468144165259732,-0.12836941720272596,-0.8820201189083883,-0.9865512251853943,0.1280171424150467,-0.10162883996963501,-1.7838867902755737,0.4037124812602997,0.008832376450300217,0.009653031826019287,-0.028758734464645386,0.1637778878211975
260,-1.4423916363401548,-0.1571612437894092,-1.0557041392860007,-0.9795444011688232,0.15651507675647736,-0.12647394835948944,-1.3032796382904053,0.5370430946350098,0.09813094884157181,-0.04413717985153198,-0.13599200546741486,0.03759153187274933
261,-1.4461878814854356,-0.1719099808606141,-1.1836616159686395,-0.9776204824447632,0.17106448113918304,-0.1224542185664177,-1.6811531782150269,-0.46968406438827515,-0.23091432452201843,-0.38323456048965454,-0.14863409101963043,0.286501407623291
262,-1.5236564037098996,-0.1970727163249889,-1.3923728166883138,-0.9795544743537903,0.1957995444536209,-0.046210356056690216,-2.0685174465179443,0.6296855211257935,0.4202648997306824,0.041047513484954834,0.4643719494342804,-0.3025750517845154
263,-1.5363995451131887,-0.22870231901504984,-1.5302350616382883,-0.973385214805603,0.22671382129192352,-0.033494528383016586,-1.3623995780944824,0.04500419646501541,0.2778729796409607,0.16157197952270508,-0.03378172218799591,0.1139693334698677
264,-1.5554177067354236,-0.2568065183786101,-1.6686517673400856,-0.9670915603637695,0.25399309396743774,-0.014873706735670567,-1.0196373462677002,0.22340545058250427,0.2591952681541443,0.16292297840118408,-0.17797383666038513,-0.05298209190368652
265,-1.5466123389240196,-0.2838594838221649,-1.7325579752045068,-0.9597009420394897,0.2800627648830414,-0.02321392297744751,0.018221596255898476,-0.21616145968437195,0.04123391583561897,0.07411140203475952,-0.05176076292991638,0.211980402469635
266,-1.607459630594559,-0.25173580953755287,-1.788116960868758,-0.9678307175636292,0.2490854263305664,0.035499777644872665,-1.160102128982544,0.09749171882867813,-0.3433503806591034,-0.6063575148582458,-0.1895608901977539,0.26114630699157715
267,-1.5670322920549489,-0.2174352530100277,-1.7814847212830223,-0.9764470458030701,0.21572597324848175,-0.003675397951155901,0.8334311842918396,0.965864360332489,-0.3805685341358185,-0.20966440439224243,0.15808385610580444,-0.3467121720314026
268,-1.5107341317722986,-0.2056914487978533,-1.7231525969160044,-0.9771548509597778,0.20424407720565796,-0.05876074358820915,0.4526475667953491,0.22548070549964905,-0.01148541271686554,0.09640228748321533,0.15085846185684204,0.031050801277160645
269,-1.4678216618402895,-0.20542513076129287,-1.735974318404254,-0.9737884998321533,0.2039833664894104,-0.10063149034976959,-0.3864745795726776,0.3081127107143402,-0.05543398857116699,0.2647278308868408,-0.0619392991065979,0.1342313289642334
270,-1.4674288307178809,-0.20936135590554916,-1.7770706351169896,-0.9729426503181458,0.20783524215221405,-0.10093037784099579,-0.24428972601890564,-0.3785704970359802,-0.07982577383518219,-0.07353556156158447,-0.28444966673851013,0.511147677898407
271,-1.5717076035306152,-0.18505001879405086,-1.843260119543292,-0.9829264879226685,0.18399569392204285,0.0008957182872109115,-1.2428536415100098,-0.9948636889457703,-0.21133053302764893,-0.23071163892745972,0.03782132267951965,0.05386805534362793
272,-1.6024711113017094,-0.1959586464069718,-1.9469742710873439,-0.9803695678710938,0.19470691680908203,0.0310633834451437,-0.2748744785785675,-0.14247100055217743,0.24028761684894562,0.02123260498046875,0.634364128112793,-0.18386495113372803
273,-1.6112499144217534,-0.22803722452443315,-1.9671907781537523,-0.9733151197433472,0.226065993309021,0.03939558193087578,-0.39278459548950195,-0.07295459508895874,0.2948524057865143,0.16968035697937012,-0.2751534879207611,-0.007992979139089584
274,-1.61526353436027,-0.25860579761334734,-1.9775134012657243,-0.9657919406890869,0.2557329535484314,0.04297439754009247,0.4166633188724518,-0.027937227860093117,0.17997877299785614,0.32716572284698486,-0.15377366542816162,0.05195057764649391
275,-1.6380626286404578,-0.23207586854425544,-1.9752739794249285,-0.9709902405738831,0.22999823093414307,0.06541360914707184,-0.47025907039642334,-0.518509030342102,-0.7041708827018738,-0.14581584930419922,-0.053438782691955566,0.27354514598846436
276,-1.636294310907236,-0.1747480302065539,-2.0369373443995404,-0.9826589822769165,0.17386001348495483,0.06445437669754028,-0.39439794421195984,-0.09447138011455536,-0.21334263682365417,-0.25405073165893555,0.32220327854156494,-0.429093599319458
277,-1.6211367364223084,-0.1679860292447147,-2.024080547591357,-0.9846745729446411,0.1671970635652542,0.04961083456873894,-0.10771408677101135,0.22028236091136932,-0.045785900205373764,0.013544201850891113,0.10022848844528198,0.01198887825012207
278,-1.595574445785951,-0.1621618647116744,-2.082267945852119,-0.986577570438385,0.16145208477973938,0.02445054054260254,-1.2083815336227417,0.6480684876441956,-0.011330458335578442,0.3443809747695923,-0.027388349175453186,0.012338396161794662
279,-1.558048625443171,-0.17031700330942126,-2.168444555939384,-0.9854511022567749,0.16949477791786194,-0.012562916614115238,-0.7647542953491211,0.3261840343475342,0.14356379210948944,0.0959399938583374,-0.10444656014442444,0.20561712980270386
280,-1.5701097671997977,-0.17392238709493463,-2.2422539911724706,-0.9849134087562561,0.17304688692092896,-0.0006762018310837448,-0.7894958853721619,-0.3140697181224823,-0.06953011453151703,-0.17814207077026367,-0.25117185711860657,0.2260943055152893
281,-1.620337636167719,-0.15034002222291465,-2.337778868556444,-0.9875072240829468,0.14977432787418365,0.048962462693452835,-1.9505120515823364,0.297453910112381,0.24147139489650726,0.04823720455169678,0.40828537940979004,0.08180534839630127
282,-1.5930299452699261,-0.16555326709410453,-2.4751589483737924,-0.9860835075378418,0.1647980660200119,0.021927818655967712,-0.4130118787288666,-0.10950495302677155,0.16840364038944244,0.05966144800186157,0.3183562457561493,0.041411399841308594
283,-1.6067425333700907,-0.18974224291310543,-2.5486074032620882,-0.9814183712005615,0.18860577046871185,0.035293471068143845,-0.9320475459098816,0.3166194558143616,0.2761669456958771,0.12492740154266357,-0.21836042404174805,-0.11216723918914795
284,-1.5875544361171672,-0.2058937298594758,-2.5985801017480017,-0.9787412881851196,0.204442098736763,0.01640338823199272,-0.07865562289953232,0.19149276614189148,-0.021468613296747208,0.27763044834136963,-0.0874224454164505,0.1559903621673584
285,-1.5928085655673259,-0.1722971921730579,-2.6144491876875735,-0.9849548935890198,0.17144598066806793,0.021684564650058746,-0.3680858016014099,-0.4348422884941101,-0.5933676362037659,-0.1429290771484375,-0.05267155170440674,0.26365482807159424
286,-1.5937098288947673,-0.12101457854130344,-2.656893369389937,-0.9924261569976807,0.12071942538022995,0.022743940353393555,-0.7223731279373169,0.3928423821926117,-0.1682458370923996,-0.041097402572631836,0.22769975662231445,-0.21582865715026855
287,-1.5953031615330877,-0.11276247745386697,-2.677903951830861,-0.9933505654335022,0.11252366006374359,0.024348752573132515,-0.4918194115161896,-0.11897691339254379,-0.024208473041653633,-0.12278395891189575,0.12905347347259521,0.10185670852661133
288,-1.597591911686063,-0.11015329711325714,-2.8017683266095936,-0.9935824275016785,0.10993067175149918,0.026629997417330742,-1.5560529232025146,0.3662213087081909,0.027414707466959953,0.35640597343444824,0.030862174928188324,-0.06300687789916992
289,-1.5780161013577656,-0.11722585717547274,-2.9258826902143378,-0.9931109547615051,0.11695756018161774,0.007170161698013544,-1.1292232275009155,0.18746228516101837,0.12538005411624908,0.1555408239364624,-0.11953631043434143,0.2012038230895996
290,-1.599481995039199,-0.11710625372606649,-3.046302775982607,-0.9927424788475037,0.11683877557516098,0.028485294431447983,-1.3340270519256592,-0.33402007818222046,-0.07457948476076126,-0.07204651832580566,-0.1803000569343567,0.11509990692138672
291,-1.6499190119196425,-0.08757438684210958,3.086661585590396,-0.9930513501167297,0.08746249228715897,0.07873726636171341,-1.831155776977539,0.15975376963615417,0.2903333604335785,-0.24138480424880981,0.6787118315696716,-0.057237617671489716
292,-1.642530727814913,-0.11939470187395516,2.948245883562148,-0.9903273582458496,0.11911123991012573,0.071162648499012,-0.9624727368354797,0.057330839335918427,0.5300993919372559,0.019136011600494385,0.15751534700393677,-0.0009722709655761719
293,-1.6279226288699613,-0.1647950434337835,2.8485661857564675,-0.984842836856842,0.1640501618385315,0.05632171034812927,-0.9191694855690002,0.3227764070034027,0.4447493851184845,0.31449371576309204,-0.259524405002594,0.04797208309173584
294,-1.6014860998086353,-0.19614803537857514,2.7876958812615484,-0.9803626537322998,0.19489268958568573,0.03009655699133873,-0.17118263244628906,0.34276968240737915,0.07083064317703247,0.21597367525100708,-0.08402234315872192,0.10485219955444336
295,-1.6051546102685985,-0.1611483659476075,2.738541787294697,-0.9864611029624939,0.16045179963111877,0.03390645235776901,-0.7803126573562622,-0.543631911277771,-0.7043224573135376,-0.19867372512817383,-0.031087800860404968,0.3452286720275879
296,-1.5925682197182638,-0.12493943713431122,2.636187077534376,-0.9919701218605042,0.1246146410703659,0.021600481122732162,-1.1220663785934448,0.3477783203125,-0.05285947769880295,-0.2855873107910156,0.5087777376174927,-0.29541945457458496
297,-1.578156021916747,-0.1274191160935432,2.6005129292542053,-0.9918662309646606,0.12707461416721344,0.007299964781850576,-0.8261466026306152,0.4417122006416321,0.06778701394796371,-0.07479935884475708,-0.006850630044937134,0.2339872121810913
298,-1.539419040715581,-0.13665238726342843,2.4302050981928867,-0.9901899695396423,0.13622747361660004,-0.031079674139618874,-1.9126287698745728,0.8179420232772827,0.15692096948623657,0.48510879278182983,0.13385310769081116,-0.08252203464508057
299,-1.5258113334798242,-0.1825172718072502,2.2855815745898234,-0.9823952317237854,0.18150560557842255,-0.0442228764295578,-1.2197602987289429,-0.10271404683589935,0.9227085709571838,0.12881845235824585,-0.06267012655735016,0.244051992893219
300,-1.5768765237855418,-0.248329111250712,2.169942721910255,-0.9693066477775574,0.2457846701145172,0.005893648136407137,-1.6365725994110107,-0.2391653209924698,0.08838202059268951,-0.24779552221298218,-0.10862335562705994,0.22683334350585938
301,-1.6253713788997082,-0.2335190750578684,1.925705961683575,-0.9714094996452332,0.23140251636505127,0.05306742340326309,-2.770167589187622,2.064793586730957,0.40752917528152466,-0.09827721118927002,0.670452892780304,-0.08225752413272858
302,-1.6121074481864637,-0.25069863295006994,1.791807112558612,-0.9679129123687744,0.24808081984519958,0.04000833258032799,-0.22791628539562225,-0.021776344627141953,0.31207817792892456,0.11802881956100464,-0.025134623050689697,-0.0257871113717556
303,-1.6077377293703976,-0.28076704648972994,1.7369699338932927,-0.9601876735687256,0.27709275484085083,0.03548682481050491,-0.9390444159507751,0.23111358284950256,0.3527456521987915,0.21661162376403809,-0.32589036226272583,0.07114160060882568
304,-1.6161409804445404,-0.37637946805009737,1.6908590745108383,-0.9290454983711243,0.36755579710006714,0.04215614125132561,-0.04169948399066925,-0.48944535851478577,1.2916553020477295,0.10244637727737427,-0.06930750608444214,0.2547950744628906
305,-1.6822311474179628,-0.5470738456459495,1.574634584090846,-0.8487532734870911,0.5201903581619263,0.09497411549091339,-1.3087921142578125,0.9929216504096985,1.52627694606781,-0.1669175624847412,0.21174323558807373,0.04885530471801758
306,-1.5231241064886387,-0.7467863719318468,1.475219878056715,-0.7330417633056641,0.679283857345581,-0.03497222438454628,-0.16157828271389008,1.318364143371582,2.1138408184051514,0.17600446939468384,0.5241920351982117,-0.5679025650024414
307,-1.3968389768116245,-0.8383096855578237,1.4541041131252441,-0.6586279273033142,0.743513822555542,-0.11574304103851318,-0.5999211072921753,2.1000962257385254,0.21052293479442596,0.2636083960533142,-0.017622768878936768,0.11169946193695068
308,-1.1924939962965102,-0.9631435003820187,1.3952201073710588,-0.5305723547935486,0.8209903836250305,-0.21087361872196198,-0.7677981853485107,1.9895602464675903,1.3061619997024536,0.24898672103881836,-0.2783879041671753,0.011960044503211975
309,-1.0782520342734223,-1.1055112662490922,1.390393360925287,-0.395344614982605,0.8936936855316162,-0.2121659368276596,-0.8184172511100769,0.8493320941925049,1.5471757650375366,-0.11172020435333252,-0.06564497947692871,0.20024877786636353
310,-1.1223827743856936,-1.224345663784872,1.2044218263899422,-0.305990993976593,0.9405838251113892,-0.14721225202083588,-2.003607749938965,2.0197906494140625,-0.62563556432724,-0.028145939111709595,-0.16264504194259644,0.18711401522159576
311,-1.5313276085828877,-1.3187935391110817,0.5424262597139586,-0.24915000796318054,0.9684149622917175,-0.009838740341365337,-1.1902961730957031,1.3490244150161743,1.204355239868164,0.48302143812179565,0.09269654750823975,-0.27498185634613037
312,-1.7237601636623379,-1.3619081444433194,0.22305763133856665,-0.2049511969089508,0.9782620668411255,0.031596940010786057,-0.5344328284263611,1.1359598636627197,0.3710961937904358,-0.08609497547149658,0.09523952007293701,-0.0046498775482177734
313,-1.5715896668694007,-1.4007758274417454,0.284481739077867,-0.16920205950737,0.9855812788009644,0.0001342347968602553,0.15429672598838806,0.7525970339775085,0.33146172761917114,0.012570604681968689,-0.3890237808227539,0.19163823127746582
314,-1.5429252128108069,-1.3978235753036528,0.2469659562591056,-0.17204540967941284,0.9850775003433228,-0.004796339198946953,-0.25696319341659546,0.89875328540802,-0.5897802114486694,-0.25437676906585693,-0.1057133674621582,0.3294728398323059
315,-1.6288705090315794,-1.3394047167747867,0.031814564515936936,-0.22894547879695892,0.9733482003211975,0.013310789130628109,-0.35252031683921814,1.0014790296554565,0.27000606060028076,0.15075945854187012,0.4141181707382202,-0.11969506740570068
316,-1.6686917822515668,-1.352608435705327,-0.06196233261301698,-0.21542476117610931,0.976291298866272,0.021156733855605125,0.710224986076355,0.1351441890001297,-0.04365657642483711,0.358079195022583,0.3621333837509155,-0.22080278396606445
317,-1.4369751207523638,-1.323087735416605,0.09791816168031582,-0.242990642786026,0.9694767594337463,-0.03271280974149704,0.1542113721370697,0.473829984664917,-0.4383527338504791,-0.02570134401321411,-0.11753290891647339,0.23515117168426514
318,-0.9806104951577042,-1.2905322570923483,0.4555398769357271,-0.22981715202331543,0.9609824419021606,-0.1539372354745865,1.3198766708374023,2.6697089672088623,0.5331859588623047,0.10304716229438782,-0.3567039966583252,0.07579697668552399
319,-0.6495278430074991,-1.2953669166870752,0.7349000555979716,-0.16448429226875305,0.9623085260391235,-0.21658068895339966,0.2649973928928375,0.2758353650569916,0.18755951523780823,-0.19815608859062195,0.10377728939056396,0.30169421434402466
320,-0.7165116783149157,-1.299159262432682,0.6261983574915644,-0.17621412873268127,0.9633329510688782,-0.20233218371868134,-1.1680858135223389,1.2848588228225708,-0.41689929366111755,-0.15792280435562134,0.2548066973686218,0.39949095249176025
321,-1.2609211294643954,-1.4279018407494182,-0.11889414951162479,-0.13562580943107605,0.9898079633712769,-0.043426014482975006,-1.2489889860153198,1.4142251014709473,1.0644603967666626,0.5477657318115234,0.08517372608184814,-0.13900810480117798
322,-0.7012745789842322,-1.5098941552527556,0.37557317281882,-0.03927045315504074,0.9981460571289062,-0.04650310054421425,1.2008719444274902,0.24921026825904846,0.6326192617416382,0.35703474283218384,0.0874711275100708,-0.01917070522904396
323,-0.23748665584184342,-1.4523586292530877,0.8504740862332361,-0.027798648923635483,0.9929944276809692,-0.11484459787607193,0.14616535604000092,0.5551750063896179,-0.1363530457019806,-0.19003582000732422,-0.26571476459503174,-0.03197544813156128
324,0.1959036270407923,-1.4303360938437484,1.2226060843778623,0.027251221239566803,0.9901516437530518,-0.1373211294412613,0.12211290001869202,0.7151889801025391,0.8215224146842957,-0.037749260663986206,-0.05690890550613403,0.2254101186990738
325,0.3087069496459787,-1.5223236289205802,1.3385838437097437,0.014721699990332127,0.9988254308700562,-0.046163659542798996,-1.4643702507019043,0.24812167882919312,-0.20000354945659637,-0.18621522188186646,0.18830835819244385,0.3539334535598755
326,1.3824582378291557,-1.4892187494524007,2.28885369899796,0.08004631102085114,0.9966744184494019,-0.015256587415933609,0.581393837928772,1.0624032020568848,-0.5908241868019104,0.32333502173423767,0.21011275053024292,-0.3442404866218567
327,-0.2600312213826199,-1.4641847676536113,0.5878795989832083,-0.02735910937190056,0.9943223595619202,-0.10283254086971283,0.7850464582443237,0.40780574083328247,-0.8038046360015869,0.09770214557647705,0.024400174617767334,-0.4238550662994385
328,-0.39793868370406715,-1.4142630667569367,0.34678066269650726,-0.060412149876356125,0.9877736568450928,-0.14371336996555328,0.42542344331741333,1.2155487537384033,-0.3266531825065613,0.05258437991142273,-0.3230855464935303,0.1563018560409546
329,-0.3030873839441978,-1.3719809398831166,0.33852465223412176,-0.05894993245601654,0.9803012609481812,-0.18850567936897278,0.41043177247047424,0.7728191018104553,-0.19717149436473846,-0.07453393936157227,-0.24954259395599365,0.11685043573379517
330,-0.47208785360442884,-1.3209417707459603,0.12964094852111632,-0.11244229972362518,0.9689484238624573,-0.22021806240081787,-0.08586325496435165,-0.19781512022018433,-0.94829922914505,-0.3358303904533386,0.509079098701477,0.22345289587974548
331,-0.9889786031090477,-1.3513998888858085,-0.44465686064553145,-0.18183059990406036,0.9760289788246155,-0.11960262060165405,-1.2385411262512207,1.2774511575698853,-0.49561336636543274,-0.09952619671821594,0.5044243335723877,-0.14997437596321106
332,-0.9961345332313398,-1.4593992165937157,-0.5836084083410603,-0.09331078827381134,0.9938017725944519,-0.06042483448982239,-0.7767013907432556,-0.4200010597705841,0.9431243538856506,0.5492281317710876,-0.052838027477264404,-0.3070068359375
333,-1.0955552821350365,-1.4575741273726646,-0.6468200686358186,-0.10046005249023438,0.9935972094535828,-0.05169442668557167,0.9366382956504822,-1.4379802942276,-0.09262166917324066,0.06925582885742188,-0.21703171730041504,-0.33467334508895874
334,-1.0892769834677432,-1.407713961308103,-0.5484298369251701,-0.1438993364572525,0.9867315292358398,-0.07519366592168808,-0.054921865463256836,0.5708168745040894,-0.07509354501962662,-0.05126059055328369,-0.3935612440109253,0.09664749354124069
335,-0.7776713118084603,-1.4528698680226806,-0.17114306688759487,-0.08254844695329666,0.9930547475814819,-0.08383408933877945,-0.789772093296051,-0.21205800771713257,0.3649056851863861,-0.27592629194259644,0.5550714731216431,0.7498496770858765
336,-1.4870831080433637,-1.4962362998111656,-0.8552394305487481,-0.07422956824302673,0.9972217082977295,-0.006228552665561438,-0.2443247139453888,0.17825692892074585,-0.5613882541656494,0.00667891651391983,0.465012788772583,0.17204582691192627
337,-0.7895534598220483,-1.4381932509874513,-0.2246111683010234,-0.09387761354446411,0.9912210702896118,-0.0931006595492363,0.594170331954956,-0.31644564867019653,-0.4902592897415161,0.1294763684272766,-0.09765118360519409,-0.3105095624923706
338,-0.8563779145666433,-1.3866376204744721,-0.29995003869725717,-0.13834254443645477,0.9830906391143799,-0.11997628957033157,0.05816374719142914,0.5678133964538574,-0.20473335683345795,0.11284512281417847,-0.11720013618469238,-0.06135916709899902
339,-0.9735839368076178,-1.3676363313869773,-0.4967273424729499,-0.1668408215045929,0.9794338941574097,-0.1134604811668396,0.0447649247944355,0.9595876932144165,-0.1406005620956421,0.010117828845977783,-0.27937597036361694,0.0440024808049202
340,-0.7936088719801074,-1.3649317905581935,-0.4034927201870786,-0.14572378993034363,0.9788846373558044,-0.1433502435684204,0.160007506608963,0.36195752024650574,0.2589138448238373,-0.08562995493412018,-0.092989981174469,0.056512489914894104
341,-0.8030897747644995,-1.3710917793818629,-0.42113109320458103,-0.14273545145988464,0.9801252484321594,-0.1377723067998886,-0.4291558563709259,-0.11571747064590454,-0.19860339164733887,-0.30961135029792786,0.34775567054748535,0.3872535228729248
342,-1.100790710949741,-1.3932753138284426,-0.7947864709663786,-0.15744172036647797,0.9842844605445862,-0.0799761414527893,-0.8417754769325256,1.1815364360809326,0.18137334287166595,0.29431307315826416,0.10644429922103882,-0.2543439269065857
343,-1.091250171953045,-1.4258164264551545,-0.7988734923326394,-0.12817677855491638,0.9895088076591492,-0.06665629893541336,-0.2557600140571594,0.35090047121047974,0.011656824499368668,0.2501250207424164,-0.03038710355758667,-0.035135090351104736
344,-1.0485811622437855,-1.44235490979363,-0.7159078466754968,-0.111016646027565,0.9917627573013306,-0.06389085203409195,0.20173479616641998,-0.5353050827980042,0.2853853106498718,-0.100775346159935,-0.35438787937164307,-0.03292619436979294
345,-0.454008112315972,-1.451273555243378,-0.1049290329926136,-0.05229490250349045,0.9928656816482544,-0.10715992003679276,0.3892541527748108,-0.1271693855524063,0.9853147864341736,6.407499313354492e-05,-0.2965918183326721,-0.03932446241378784
346,-0.3865288221602662,-1.48742213910015,0.0481487920821118,-0.03139350190758705,0.9965263605117798,-0.07713334262371063,-0.7802944183349609,-0.5458478331565857,-0.08966971188783646,-0.44191884994506836,0.47220832109451294,0.4376680254936218
347,-0.6134765494199131,-1.524725936273206,-0.1664690350054899,-0.02651289291679859,0.9989389181137085,-0.03765467554330826,0.8857348561286926,1.2427992820739746,0.25342029333114624,0.24016645550727844,0.49045610427856445,-0.18532204627990723
348,-0.5027054394937143,-1.4609936867262703,-0.08456271348596528,-0.05279640480875969,0.9939777255058289,-0.09602478891611099,0.47111746668815613,-0.4212428629398346,-1.420001745223999,0.09356789290904999,0.17313647270202637,-0.4468677043914795
349,-0.7889192250485332,-1.3773446901794926,-0.34313649256382994,-0.13641764223575592,0.9813464879989624,-0.13546034693717957,0.23810525238513947,0.6514434814453125,-0.366547554731369,0.10463358461856842,-0.2953570485115051,-0.012733057141304016
350,-0.818308532833224,-1.3631325836323938,-0.4655964170039957,-0.15050528943538666,0.9785152673721313,-0.14091119170188904,-0.48173651099205017,1.1230406761169434,-0.13657186925411224,0.013603433966636658,-0.2540127635002136,0.2858544588088989
351,-0.7531371802150967,-1.3695289664673793,-0.4666487434763985,-0.13672569394111633,0.9798139929771423,-0.14584484696388245,-0.07497588545084,0.23129047453403473,-0.39540237188339233,-0.536583662033081,0.21310287714004517,0.20451486110687256
352,-1.0198381121810296,-1.37789514733976,-0.7726159052859694,-0.16333842277526855,0.9814521670341492,-0.10035911202430725,-1.1251031160354614,1.3034992218017578,-0.35852789878845215,-0.15190814435482025,0.5056540369987488,0.11517538130283356
353,-1.1176717737209672,-1.4346547352874863,-0.9374659761625597,-0.12202480435371399,0.9907470345497131,-0.05941564962267876,-0.18565072119235992,-0.31799831986427307,0.28571802377700806,0.5664370059967041,0.00673520565032959,-0.23340046405792236
354,-1.172183233599765,-1.448869925442861,-1.0076910000797348,-0.11208812147378922,0.9925761818885803,-0.04720696061849594,0.1320144683122635,-0.8144867420196533,0.1642206311225891,0.020687997341156006,-0.2930981516838074,-0.16647714376449585
355,-0.8113201971913188,-1.4187797082394202,-0.5674432630438431,-0.10981776565313339,0.9884676933288574,-0.10426700860261917,0.7685977816581726,0.1032731682062149,0.3017500042915344,-0.177657812833786,-0.3558536171913147,0.04645145684480667
356,-0.5335653764023077,-1.4230538644114183,-0.2634929637140987,-0.07486945390701294,0.9891059398651123,-0.12674348056316376,-0.5797432661056519,-0.8155297040939331,-0.3296630382537842,-0.16876763105392456,0.14018172025680542,0.40790194272994995
357,-0.7877115897945332,-1.4911518883132977,-0.5233559859788366,-0.05638796091079712,0.9968300461769104,-0.05612766370177269,0.22137729823589325,1.9988913536071777,0.7486737370491028,0.039282865822315216,0.8045157790184021,-0.10566127300262451
358,0.23139396417276503,-1.5086942664148464,0.3205355366107283,0.0142328180372715,0.9980722665786743,-0.06040729582309723,0.23465535044670105,-0.2535492181777954,-0.9148945808410645,0.3041570782661438,0.1305287480354309,-0.4180014729499817
359,-0.7843443512336731,-1.458669192041469,-0.7093580100284179,-0.07903650403022766,0.9937203526496887,-0.07920326292514801,-0.13403725624084473,0.8089118003845215,-0.7779078483581543,0.012401372194290161,-0.15753871202468872,-0.06636554002761841
360,-0.9989837175870414,-1.408955478995762,-1.0988010655250284,-0.13550250232219696,0.9869323372840881,-0.08719976991415024,0.22995613515377045,1.4437776803970337,-0.243196502327919,0.03065936267375946,-0.33323055505752563,-0.03760182857513428
361,-0.7311791162652065,-1.3946846802804043,-0.9578124336031846,-0.11699120700359344,0.984532356262207,-0.13041870296001434,0.27139949798583984,0.829218327999115,0.06703104823827744,-0.10638219118118286,-0.005757391452789307,0.08297909796237946
362,-0.8536471915179868,-1.3981501587075744,-1.1895782666312416,-0.12947522103786469,0.9851336479187012,-0.11290712654590607,-0.5575334429740906,0.794073224067688,-0.3195030987262726,-0.12209644913673401,0.26579713821411133,0.11298340559005737
363,-0.9673443239289755,-1.416838621701248,-1.423507177788584,-0.12626613676548004,0.9881718754768372,-0.08702471107244492,-0.22794762253761292,1.13237464427948,0.26431456208229065,0.40254175662994385,0.11082708835601807,-0.056911468505859375
364,-0.9468398254812683,-1.4588198579756475,-1.5272715812793474,-0.09068698436021805,0.9937371611595154,-0.06528546661138535,-0.1333950161933899,0.6800026297569275,0.09916474670171738,0.23268529772758484,-0.046319007873535156,-0.04439466446638107
365,-0.9948215629394807,-1.4724126382939022,-1.7032420037421925,-0.08237794041633606,0.9951642155647278,-0.05349874868988991,-0.1933714896440506,1.07777738571167,0.14016491174697876,-0.01878783106803894,-0.24473702907562256,-0.07195901870727539
366,-0.7237426797438024,-1.5008319523800013,-1.5458347247467052,-0.04629180580377579,0.9975534677505493,-0.05238339304924011,-0.1742064505815506,0.8936702013015747,0.08111134171485901,0.11321684718132019,-0.17840075492858887,0.09710687398910522
367,-0.9828127147393941,-1.4882143710666738,-1.8712738393795358,-0.06863623857498169,0.9965920448303223,-0.04575560986995697,-0.05254526436328888,0.7226105332374573,-0.5421580672264099,-0.2222420573234558,0.07272875308990479,0.39936280250549316
368,-1.135055778646794,-1.4895617701190322,-2.1502059536323164,-0.07356148958206177,0.9967023134231567,-0.034249305725097656,0.7723351120948792,2.278801679611206,0.31460025906562805,0.40386849641799927,0.1907517910003662,-0.33182430267333984
369,-1.0089720873594046,-1.4335284861055335,-2.1758541116597856,-0.11580277979373932,0.9905935525894165,-0.07289712131023407,0.4805557131767273,0.14367735385894775,-0.3277183473110199,0.22261430323123932,-0.012245893478393555,-0.439172625541687
370,-0.9938784809101159,-1.393056521690248,-2.2097510798608724,-0.14818868041038513,0.9842458367347717,-0.09643707424402237,-0.14062929153442383,1.5030235052108765,-0.4879349172115326,0.046473607420921326,-0.1877981424331665,0.24337923526763916
371,-0.9767848720283204,-1.3700413136088436,-2.3365570652700884,-0.16525094211101532,0.9799162745475769,-0.1116073727607727,-0.03141837939620018,1.129616379737854,-0.18373824656009674,0.004911571741104126,-0.15617060661315918,0.03882300853729248
372,-1.013946151648917,-1.3802316445938476,-2.471097415682471,-0.16079740226268768,0.9818974137306213,-0.10010767728090286,-0.1216321811079979,0.3013906180858612,-0.07258838415145874,-0.2883450388908386,-0.10068714618682861,0.23119592666625977
373,-1.1496040857915082,-1.3668770642758128,-2.609461140460611,-0.18480996787548065,0.979280412197113,-0.08279547840356827,-0.048443980515003204,-0.14772886037826538,-0.5562205910682678,-0.16495200991630554,0.5894145965576172,-0.14036428928375244
374,-1.1771771953112455,-1.404427000076044,-2.756150286002085,-0.1529388427734375,0.986192524433136,-0.06351426243782043,0.11918488144874573,-0.5431398153305054,0.7115060687065125,0.667633056640625,0.272901713848114,-0.24991649389266968
375,-1.3432487167954998,-1.3942623080292773,-2.9865504571941504,-0.17109094560146332,0.9844582676887512,-0.03961747884750366,-0.27429062128067017,0.18834155797958374,-0.33696791529655457,0.0956362634897232,-0.03903907537460327,-0.1278783082962036
376,-1.2740080254877673,-1.4074604693625492,-2.9121583112087532,-0.1555008441209793,0.9866903424263,-0.04755537584424019,0.19777092337608337,0.17632874846458435,0.3471287190914154,-0.0522780567407608,-0.2577017545700073,-0.016882535070180893
377,-1.1714009943022505,-1.4224640687369543,-2.834831517971288,-0.13615688681602478,0.9890189170837402,-0.05746918544173241,-0.15174835920333862,0.08723683655261993,-0.07537344843149185,0.011553660035133362,-0.13919603824615479,0.28883814811706543
378,-1.3962849787716969,-1.4211060365469552,-3.0574783555967864,-0.14686711132526398,0.9888173341751099,-0.02589336782693863,-1.0071121454238892,-0.6272635459899902,-0.08231329917907715,-0.14343130588531494,-0.014223158359527588,0.4168083071708679
379,-1.3376648428959248,-1.3930599893767346,-3.052400027855372,-0.1720196157693863,0.9842464327812195,-0.040845878422260284,0.4223242402076721,0.9634011387825012,0.38041505217552185,0.336677223443985,0.451468288898468,-0.2548236846923828
380,-1.2296452882770554,-1.371063633533418,-2.9894310524234653,-0.18697349727153778,0.9801196455955505,-0.06638166308403015,-0.07218095660209656,0.5487063527107239,-0.5490957498550415,0.039192140102386475,0.04411131143569946,-0.24695754051208496
381,-1.1721952556060005,-1.3359643930279956,-3.0246903534285994,-0.2144382745027542,0.9725534319877625,-0.09030964970588684,0.0036834152415394783,1.6769111156463623,-0.0793929398059845,0.2452305257320404,-0.3649638295173645,0.02556658536195755
382,-1.021301779964132,-1.3439909663341636,-2.9879172922114527,-0.19176317751407623,0.9743897318840027,-0.11743767559528351,-0.1682528257369995,0.9857547283172607,0.20158430933952332,0.010488748550415039,-0.18079543113708496,0.1791290044784546
383,-1.0390275935956916,-1.3469399164931257,-3.0512324372952473,-0.1913367360830307,0.9750486016273499,-0.11256252974271774,-0.25455760955810547,0.32017266750335693,-0.21665707230567932,-0.3707817792892456,0.048663437366485596,0.28301846981048584
384,-1.1980973787064157,-1.3352202466779524,3.0632736544136976,-0.21737952530384064,0.9723800420761108,-0.08498917520046234,-0.7129297852516174,0.9038810133934021,-0.4796602129936218,-0.09423547983169556,0.49493563175201416,0.025983452796936035
385,-1.261192438906418,-1.3937833483117157,2.952259715391842,-0.16771775484085083,0.9843740463256836,-0.053651366382837296,-0.1900080144405365,-0.26601824164390564,0.15083609521389008,0.556725263595581,0.2134103775024414,-0.056120336055755615
386,-1.3407052139198163,-1.379541224457711,2.8669580226920566,-0.1850818395614624,0.981766402721405,-0.04335347190499306,-0.02733803354203701,-0.3724643886089325,-0.0704476609826088,-0.0014569014310836792,-0.17210447788238525,-0.11079084873199463
387,-1.2233941256966485,-1.4157418019299335,3.0133507184276165,-0.14520832896232605,0.988003134727478,-0.052578095346689224,0.10014908015727997,0.1506778597831726,0.703967809677124,0.03143876791000366,-0.369869589805603,-0.07472598552703857
388,-0.9812370264982399,-1.4495554973377356,-3.012860830534172,-0.1005275696516037,0.992659330368042,-0.06724465638399124,0.11873757839202881,-0.4363332688808441,-0.13175645470619202,0.024126797914505005,-0.06027102470397949,0.14166176319122314
389,-1.1217245976268513,-1.4243780476512202,-3.12002272453895,-0.13142940402030945,0.9892999529838562,-0.06333723664283752,-0.29740121960639954,-0.3005913496017456,0.07388852536678314,0.03648923337459564,0.19110453128814697,0.31828105449676514
390,-1.4241278976034852,-1.4136395219140372,2.8916873385090702,-0.1548309177160263,0.9876762628555298,-0.022873055189847946,0.026404529809951782,0.878018856048584,0.07286267727613449,0.11204524338245392,0.28962182998657227,-0.05438220500946045
391,-1.2307011162944739,-1.4023955784457205,3.029384636288292,-0.15800558030605316,0.9858540892601013,-0.055909328162670135,0.1278696209192276,0.4519181549549103,-0.2150762528181076,0.13470540940761566,0.1081399917602539,-0.529082179069519
392,-1.1797945924800843,-1.37297329836674,3.0424451083916852,-0.18170250952243805,0.9804967641830444,-0.07490257173776627,0.1864207535982132,0.7717908620834351,-0.19886544346809387,0.14619532227516174,-0.22054803371429443,-0.03970623016357422
393,-1.2054486395535264,-1.3577487745324213,2.89278730501541,-0.19748446345329285,0.9773910641670227,-0.07554186880588531,-0.5762776732444763,1.3557652235031128,-0.059975963085889816,0.08395904302597046,-0.15839087963104248,0.17240464687347412
394,-1.145517110826692,-1.370967148224867,2.883681248152397,-0.18081960082054138,0.9801005125045776,-0.08189674466848373,0.007603336591273546,0.35562634468078613,0.054687418043613434,-0.21696175634860992,-0.022459030151367188,0.17892742156982422
395,-1.2220897795612267,-1.3729723845551562,2.7696174132263462,-0.18470755219459534,0.9804965853691101,-0.06715290248394012,-0.23249094188213348,0.5161287784576416,-0.28818872570991516,-0.23983772099018097,0.10092425346374512,0.11149490624666214
396,-1.4197297262010686,-1.3675003005645103,2.472354975929426,-0.19959890842437744,0.9794064164161682,-0.030384214594960213,-0.47945067286491394,0.8451759219169617,0.2981824576854706,0.47090017795562744,-0.01697361469268799,-0.2958639860153198
397,-1.4443526743670758,-1.3872055175045739,2.4438332100511873,-0.18110337853431702,0.9831944704055786,-0.02302219718694687,-0.05395657196640968,-0.3183501064777374,0.09658939391374588,0.02755419909954071,0.07990050315856934,-0.17686796188354492
398,-1.350105292719251,-1.4142183001113973,2.578927262148874,-0.15215718746185303,0.987766683101654,-0.03413572162389755,0.11556193232536316,0.3313210606575012,0.5994328856468201,0.017116889357566833,-0.22006642818450928,0.01614564284682274
399,-1.0813388044364587,-1.457767409624918,2.837663022670281,-0.09954596310853958,0.9936190247535706,-0.05302729085087776,0.3900279402732849,0.003527380060404539,0.1537826955318451,0.11984014511108398,-0.19851404428482056,-0.04559028148651123
400,-0.9702098354665839,-1.439311537725411,2.9923023132964865,-0.10816370695829391,0.991368293762207,-0.07409193366765976,0.295072466135025,0.23371125757694244,-0.04897001385688782,-0.179601788520813,0.11081981658935547,0.25533586740493774
401,-1.245522033090662,-1.4465592622417522,2.7554284222544485,-0.11741914600133896,0.9922925233840942,-0.039599984884262085,-0.07913563400506973,-0.3450510501861572,-0.4622825086116791,-0.07311736047267914,0.214769184589386,0.18129312992095947
402,-1.0555284169447017,-1.4347961716916249,2.8617993618839774,-0.11797799915075302,0.9907662272453308,-0.06681039184331894,0.01830783113837242,0.42178860306739807,0.11996173113584518,0.3735779821872711,0.00035315752029418945,-0.3304063677787781
403,-0.9939014734634205,-1.388606074257579,2.9033820807102133,-0.1518610417842865,0.9834492206573486,-0.0988219678401947,0.18446989357471466,0.48418062925338745,-0.4032742381095886,0.010839328169822693,-0.10416156053543091,-0.2090851068496704
404,-0.9953344196929083,-1.3533216841293263,2.789146532449596,-0.1810138076543808,0.9764454364776611,-0.11742394417524338,-0.44151806831359863,1.7910544872283936,-0.5778871178627014,0.1445910781621933,-0.18907666206359863,0.18495935201644897
405,-0.996946307980835,-1.3493750780008247,2.6419182198396034,-0.1844378262758255,0.9755862951278687,-0.11922315508127213,0.07939267158508301,0.8797330856323242,0.11733020842075348,-0.0932873785495758,-0.11033666133880615,0.06633621454238892
406,-0.9878858537030857,-1.3555701867345855,2.597475497725887,-0.17830081284046173,0.9769281148910522,-0.11756017059087753,-0.382318913936615,0.5645729303359985,-0.1167525053024292,-0.29246336221694946,0.052216172218322754,0.32717013359069824
407,-1.227177932231618,-1.3581204278907004,2.3200222778978414,-0.19873763620853424,0.9774696230888367,-0.07111096382141113,-0.7354445457458496,0.9481704235076904,-0.3030380606651306,-0.15679213404655457,0.6366356611251831,-0.03167223930358887
408,-1.3324879127051887,-1.386771854159333,2.1133153169036736,-0.17781713604927063,0.9831152558326721,-0.04319614917039871,0.03895121067762375,0.2240934669971466,0.6055324673652649,0.6580874919891357,0.07911032438278198,-0.3759016990661621
409,-1.3891367262203043,-1.401882701696915,2.028466712942805,-0.16534556448459625,0.9857679605484009,-0.03037143498659134,-0.35382673144340515,-0.35276129841804504,0.0708208754658699,0.011231794953346252,-0.10828083753585815,0.011404752731323242
410,-1.2677936265730312,-1.421573917925305,2.203762913758691,-0.1418967843055725,0.9888869524002075,-0.04436109587550163,0.1886865347623825,0.7886198163032532,0.5232476592063904,-0.05581134557723999,-0.265483021736145,0.01805490255355835
411,-1.0701560793567346,-1.460915241646178,2.3546380117804246,-0.09620283544063568,0.9939691424369812,-0.05263585224747658,0.11787032335996628,-0.08610064536333084,-0.19824828207492828,0.07537458837032318,-0.0703851580619812,0.18979710340499878
412,-1.2354459225411147,-1.4346979995297262,2.208011946016957,-0.1281210482120514,0.9907529354095459,-0.04465198144316673,-0.52273029088974,-0.4033735990524292,0.0348271019756794,-0.003928527235984802,0.19700658321380615,0.27171802520751953
413,-1.5017372767301096,-1.4481589354915398,1.9494125579034367,-0.12203957140445709,0.9924894571304321,-0.008441360667347908,-0.04562653228640556,1.7345519065856934,-0.03656589612364769,0.1414182186126709,-0.003109455108642578,-0.027645647525787354
414,-1.1549195689214413,-1.4063271118350968,2.233044434120074,-0.14977264404296875,0.986505389213562,-0.06614500284194946,0.6026093363761902,-0.7447222471237183,0.030054058879613876,0.17360688745975494,-0.08574861288070679,-0.584260880947113
415,-1.0215269049068216,-1.3781587754378486,2.3432011032823996,-0.16328731179237366,0.9815027117729187,-0.09994823485612869,-0.04071959853172302,0.9055712819099426,-0.3524525761604309,0.17615048587322235,-0.10184884071350098,0.09250195324420929
416,-1.1551988378320077,-1.3558736413697174,2.0800386850552504,-0.1951175034046173,0.9769929051399231,-0.0861058235168457,-0.05678491294384003,1.1915024518966675,-0.10997563600540161,0.023669719696044922,-0.16090697050094604,-0.005523212254047394
417,-0.979026474657474,-1.3627972547802834,2.179787012671781,-0.17138715088367462,0.9784460663795471,-0.11519306898117065,0.17220115661621094,0.501685619354248,0.27717357873916626,-0.10177566111087799,-0.08393025398254395,0.06943198293447495
418,-0.9637658234721944,-1.3783371405080755,2.1569267242307584,-0.15710139274597168,0.9815368056297302,-0.10910816490650177,-0.34496909379959106,0.1285124570131302,0.021860357373952866,-0.15391848981380463,0.0858917236328125,0.09897632151842117
419,-1.07888224533647,-1.376950740238415,2.0238113392030592,-0.1697932332754135,0.9812707304954529,-0.09098358452320099,-0.838353157043457,1.1189714670181274,-0.13628460466861725,0.10379895567893982,0.20616823434829712,0.2098037600517273
420,-1.0887576512690134,-1.401023540924241,1.9789331771280898,-0.1497064083814621,0.9856231808662415,-0.07832711935043335,0.01599050499498844,0.25002041459083557,0.23290137946605682,0.4184747040271759,0.058459579944610596,-0.21664053201675415
421,-1.1042813317821345,-1.4033195941928205,2.0266435127559745,-0.14888212084770203,0.9860085248947144,-0.07497545331716537,0.2898588180541992,-0.6293056011199951,-0.10818049311637878,-0.18569734692573547,-0.058991312980651855,0.022012174129486084
422,-0.6248419934360419,-1.4312710530978123,2.4628575568139963,-0.08135385066270828,0.9902821183204651,-0.11279653757810593,0.41435518860816956,0.35634472966194153,1.1442294120788574,0.10405892878770828,-0.2268543839454651,-0.0019190311431884766
423,-0.28409897614390056,-1.4212488632546831,2.870533306363343,-0.0417611189186573,0.9888386130332947,-0.14301875233650208,-0.32411277294158936,-1.6526122093200684,-0.33060431480407715,-0.1208212822675705,0.1119915246963501,0.4100933074951172
424,-0.581893854335298,-1.450751036882493,2.6553536961010202,-0.06581924855709076,0.9928032159805298,-0.10004771500825882,0.1943851262331009,-0.1868145763874054,0.09112672507762909,0.23352861404418945,0.12261420488357544,-0.17561757564544678
425,-0.7017007637436892,-1.4490692341000815,2.541912256246633,-0.0783834382891655,0.9926003813743591,-0.0927395224571228,-0.22819483280181885,0.19658152759075165,-0.49555081129074097,-0.0252084881067276,-0.062455058097839355,-6.444007158279419e-05
426,-0.9110589867289209,-1.4027864196910529,2.3281503367260554,-0.13212978839874268,0.9859194755554199,-0.10249097645282745,0.2822556495666504,-0.3856654167175293,-0.22347792983055115,-0.04064546525478363,-0.0744815468788147,-0.42030566930770874
427,-0.8973816505297592,-1.3721023963285872,2.3057688479579928,-0.15429843962192535,0.9803252220153809,-0.12310349941253662,-0.06366182118654251,0.3869437575340271,-0.35015109181404114,-0.07920680940151215,-0.10476064682006836,0.20296800136566162
428,-0.8849050251682334,-1.3536360891076888,2.2759446895134565,-0.166732519865036,0.9765132069587708,-0.13646255433559418,0.15280163288116455,0.40433162450790405,0.05530466139316559,-0.030090585350990295,-0.1148189902305603,-0.029812440276145935
429,-0.7789913229963553,-1.3562507825134775,2.3453081868980226,-0.14957819879055023,0.9770732522010803,-0.15150722861289978,0.0316314697265625,0.3292580246925354,0.18324506282806396,-0.09117497503757477,-0.06200355291366577,0.13266263902187347
430,-0.8426519943670575,-1.380047785683146,2.229871606888826,-0.14151500165462494,0.9818626046180725,-0.12617212533950806,-0.6153405904769897,0.3176093101501465,-0.3481617271900177,-0.30596423149108887,0.11236041784286499,0.11655908823013306
431,-1.113523680770663,-1.3912173439301088,1.9424643559987216,-0.16026486456394196,0.9839189648628235,-0.0788593739271164,-0.5695074200630188,0.570400595664978,-0.15212811529636383,-0.07911503314971924,0.14056235551834106,-0.04199022799730301
432,-1.112971472532969,-1.4242844350634496,1.926600702450188,-0.13095392286777496,0.9892863035202026,-0.06452657282352448,-0.02572290226817131,-0.2419319748878479,0.6307211518287659,0.42547905445098877,0.004305005073547363,-0.15263652801513672
433,-1.0854225091121237,-1.4449689337926528,2.0345811973728156,-0.11100117117166519,0.9920941591262817,-0.05854872241616249,0.34401586651802063,-0.781705379486084,0.39720863103866577,-0.12045940011739731,-0.10406321287155151,-0.06545943021774292
434,-0.3994656104576355,-1.4613090893802156,2.7278801341528998,-0.04249708354473114,0.9940122365951538,-0.10066499561071396,0.43610864877700806,0.07724545150995255,1.0721527338027954,0.12860243022441864,-0.19434499740600586,-0.004269644618034363
435,-0.01990444333593328,-1.4404055631693764,3.1401986244229882,-0.002587834605947137,0.9915111660957336,-0.12999574840068817,0.04235871508717537,-0.9418683052062988,-0.35006439685821533,0.004128972999751568,0.017186284065246582,0.28208011388778687
436,-0.4429918889993088,-1.4378347277242383,2.775712774486253,-0.056825410574674606,0.9911736249923706,-0.11977347731590271,-0.18397113680839539,-0.5105866193771362,-0.20432022213935852,0.021547090262174606,0.1262122392654419,0.10620839148759842
437,-0.6523143601032181,-1.4452126631246658,2.568209363783235,-0.07603270560503006,0.9921247363090515,-0.09953714162111282,-0.0526745431125164,1.0374033451080322,0.05342304706573486,0.25582700967788696,0.1434648633003235,-0.19942831993103027
438,-0.9874052019448762,-1.411017272111129,2.181377827850847,-0.1327851116657257,0.987262487411499,-0.0876416340470314,0.0631500706076622,0.13571424782276154,-0.6797011494636536,0.1517060250043869,-0.03451895713806152,-0.4994555711746216
439,-0.9343450703082284,-1.3781866378421495,2.173626029343044,-0.15394268929958344,0.9815080165863037,-0.11377017199993134,0.02156233601272106,0.9025254845619202,-0.25690895318984985,0.18093548715114594,-0.08525252342224121,0.09613102674484253
440,-0.9621966993986517,-1.359578409979203,1.9872762246090758,-0.17200827598571777,0.977776288986206,-0.11986164003610611,-0.18599921464920044,1.835368037223816,-0.2595144808292389,0.10087180137634277,-0.15692973136901855,-0.049694061279296875
441,-0.86114554861781,-1.3563010454293307,1.9333099770424749,-0.1614692658185959,0.9770839214324951,-0.13868944346904755,-0.08963817358016968,1.2137807607650757,-0.03951185569167137,-0.11663742363452911,-0.06514245271682739,0.07931751012802124
442,-0.8722150146809693,-1.3682907235644115,1.811189673234941,-0.15401217341423035,0.9795657396316528,-0.12934960424900055,-0.3999764323234558,0.7184880971908569,-0.1202412024140358,-0.20734646916389465,0.07322967052459717,0.14323508739471436
443,-1.0585299318424288,-1.3657537805018167,1.560297002247679,-0.17747318744659424,0.9790523052215576,-0.09979991614818573,-0.6826469898223877,1.0247968435287476,-0.4268215000629425,-0.06526364386081696,0.4996464252471924,0.14550000429153442
444,-1.1743658099023608,-1.391293355752834,1.3274104678462633,-0.1646934449672699,0.9839325547218323,-0.06893935799598694,-0.20040105283260345,0.8689087629318237,0.20450307428836823,0.5147453546524048,0.049728214740753174,-0.21818530559539795
445,-1.2398126114081964,-1.4152397211858654,1.2529340863975367,-0.1465212106704712,0.9879254698753357,-0.05034825578331947,0.18226848542690277,-0.7031833529472351,0.3732236623764038,-0.0672696977853775,-0.1438702940940857,-0.20372581481933594
446,-1.0109108676152532,-1.4480378215336396,1.4790836369198415,-0.10375524312257767,0.9924746155738831,-0.06503275036811829,0.12881018221378326,0.44208359718322754,0.6954936981201172,-0.039845243096351624,-0.2497681975364685,-0.0178835466504097
447,-0.4479937301146654,-1.4775624870380781,2.026002633424626,-0.040326401591300964,0.9956568479537964,-0.08391141146421432,0.17512081563472748,-0.13437983393669128,0.0893804207444191,0.03811389580368996,-0.07898521423339844,0.14822721481323242
448,-0.6063051636495954,-1.4823625058755585,1.905872645640131,-0.050326887518167496,0.9960922598838806,-0.07257639616727829,-0.09603864699602127,-0.11268346011638641,0.17488594353199005,-0.1942257285118103,0.2055830955505371,0.1714686155319214
449,-1.0852914937278695,-1.5347345494786184,1.4835429405167333,-0.031887639313936234,0.99934983253479,-0.016824807971715927,-0.2498769909143448,0.4784666895866394,1.0423474311828613,-0.08362138271331787,0.6342102885246277,-0.04907786846160889
450,0.9631559342902712,-1.522259934287506,-2.8511633020295717,0.039831798523664474,0.9988223314285278,-0.027699526399374008,0.5143023133277893,-0.33227846026420593,-0.5041612386703491,0.2782681882381439,-0.05979651212692261,-0.2309674620628357
451,-0.5035406087398743,-1.470962883604246,1.970620053343041,-0.04809248074889183,0.9950208067893982,-0.08729664236307144,0.3919585347175598,0.305489182472229,-1.20988130569458,0.08433210849761963,-0.0761517882347107,-0.04887276142835617
452,-0.8469994562081669,-1.4090784248296486,1.5434841932450358,-0.12064747512340546,0.9869521260261536,-0.10662920027971268,-0.3829596936702728,1.3150912523269653,-0.48214513063430786,0.0032310783863067627,-0.23147422075271606,0.15751725435256958
453,-0.8618724222878662,-1.4040798937575445,1.4453406324388285,-0.12596270442008972,0.986134946346283,-0.10803309082984924,0.12071365118026733,0.4614562392234802,0.16646192967891693,-0.0495438426733017,-0.17207860946655273,0.07772917300462723
454,-0.7285299907178654,-1.4096428369589977,1.5495127267311875,-0.10682762414216995,0.9870428442955017,-0.11972517520189285,-0.19389225542545319,0.5412530303001404,-0.0036018937826156616,-0.29461586475372314,0.09779596328735352,0.28871625661849976
455,-0.9358641878132629,-1.4222786121369373,1.3196007744674139,-0.11913388222455978,0.9889914989471436,-0.08776547014713287,-0.43111416697502136,-0.27603796124458313,-0.36338838934898376,-0.3421087861061096,0.4551917314529419,0.04707027226686478
456,-1.305859764234316,-1.4378390964433518,0.8847799561166799,-0.127939373254776,0.9911742210388184,-0.0347118005156517,0.1786457747220993,-0.7108607888221741,0.3133968710899353,0.4972478747367859,0.02327573299407959,-0.6556262969970703
457,-1.2131542260657278,-1.4510023112244428,1.0666044887039032,-0.11194556951522827,0.9928332567214966,-0.04183554649353027,0.2187921553850174,-1.0118184089660645,0.26214373111724854,0.06108802556991577,-0.13327521085739136,-0.09888100624084473
458,-1.2232006340726471,-1.4404634352895649,1.1373939652739091,-0.12219195067882538,0.9915186762809753,-0.04427090287208557,-0.12460903823375702,-0.40332064032554626,-0.2364848256111145,-0.21235698461532593,-0.30449169874191284,0.041371703147888184
459,-0.7503513497434086,-1.4831183890944484,1.6896075713345902,-0.05971037596464157,0.99615877866745,-0.06404954195022583,0.3923001289367676,-1.1449058055877686,0.5449163913726807,0.11529812216758728,-0.01916903257369995,0.021370716392993927
460,-1.0494104729223865,-1.4716041930471833,1.492869833246566,-0.0858723372220993,0.9950844645500183,-0.0493253655731678,-0.1827135533094406,-0.802888035774231,-0.016848182305693626,-0.2522624433040619,0.11514508724212646,0.2747129797935486
461,-1.404758256352641,-1.4540165352772394,1.1982349698834982,-0.1149124875664711,0.9931889772415161,-0.019257137551903725,-0.3841455578804016,0.3406659662723541,-0.3031695783138275,-0.2695326805114746,0.5100153684616089,0.10313469171524048
462,-1.335182026838322,-1.4585402459550414,1.2587029516615582,-0.10892452299594879,0.9937059283256531,-0.026149870827794075,0.6271058917045593,-0.4636930525302887,-0.6100834012031555,0.11785092949867249,-0.04494500160217285,-0.4870184659957886
463,-1.1225427109220307,-1.4119411441336556,1.5091212312317384,-0.14256030321121216,0.9874090552330017,-0.06855767220258713,0.27502480149269104,0.280802458524704,-0.10024546086788177,0.07412463426589966,-0.11071527004241943,-0.12683111429214478
464,-1.0927353358153307,-1.3993800394845994,1.4974478821612558,-0.1514543890953064,0.9853441715240479,-0.07847590744495392,-0.021463686600327492,0.18200936913490295,-0.0830777958035469,0.1387133151292801,-0.26201653480529785,0.017288148403167725
465,-0.908671283132177,-1.4064851582621587,1.6484244605841973,-0.12900812923908234,0.9865312576293945,-0.10056384652853012,0.06927916407585144,0.3200613558292389,0.40756410360336304,-0.06802861392498016,-0.01849842071533203,0.22588425874710083
466,-0.8130170432943236,-1.4307548089208186,1.7249116130294149,-0.10138944536447525,0.9902101755142212,-0.09593809396028519,-0.05956057831645012,0.18335703015327454,0.08741077035665512,-0.37134307622909546,0.03740823268890381,0.2262176275253296
467,-1.060916472850072,-1.4661872098435786,1.4698228054372857,-0.09113670885562897,0.9945334792137146,-0.050963740795850754,-0.9416099786758423,0.1464185118675232,0.035999808460474014,-0.33536168932914734,0.3189430832862854,0.18582093715667725
468,-1.803941933486406,-1.4935547312802255,0.7255673168392179,-0.0750785693526268,0.9970183372497559,0.017828449606895447,0.10012596100568771,-0.7564253211021423,0.051061052829027176,0.4690757691860199,-0.010918974876403809,-0.6269745826721191
469,-1.8749017655340026,-1.4923716409463703,0.7146344959296294,-0.07475123554468155,0.9969263672828674,0.02345995046198368,0.3087354004383087,-1.1831170320510864,0.11049079149961472,0.07322535663843155,-0.2025688886642456,-0.11862897872924805
470,-1.6803889942216688,-1.5069499196638099,0.973545935569335,-0.06341957300901413,0.9979625344276428,0.006978280376642942,-0.06130991503596306,-0.6350572109222412,0.06097405403852463,-0.05863547325134277,-0.22524219751358032,0.028071165084838867
471,-1.1609894773111298,-1.5172243422945904,1.5408785550025543,-0.049111247062683105,0.9985653758049011,-0.021334003657102585,0.30303898453712463,-0.41422387957572937,-0.029584141448140144,-0.024695511907339096,-0.0839688777923584,0.08197242021560669
472,-1.0142041496941272,-1.5116730796247826,1.7446979719237474,-0.05016937106847763,0.9982527494430542,-0.031216001138091087,0.2605600357055664,-0.37075501680374146,0.16495919227600098,-0.09341584146022797,0.17835241556167603,0.14048421382904053
473,-1.459762084600991,-1.5342302776924697,1.3450325921333737,-0.0363292396068573,0.999331533908844,-0.004050448536872864,-0.5772185921669006,0.3143285810947418,0.25384074449539185,-0.1465168297290802,0.6159179210662842,0.20583271980285645
474,-1.8725840232092665,-1.5492454634117563,0.8347330536585956,-0.020572291687130928,0.9997677803039551,0.006404074374586344,0.06556221097707748,-0.7574788928031921,-1.014580249786377,0.09466896951198578,-0.02447187900543213,-0.22883141040802002
475,-1.217133959486002,-1.4556665718147372,1.5239579474188865,-0.1077672690153122,0.9933798909187317,-0.039785999804735184,0.27505356073379517,0.1495080590248108,-0.20684468746185303,-0.027669757604599,-0.11810511350631714,-0.16535311937332153
476,-1.1243375532509952,-1.431284938947447,1.553759616584106,-0.125429168343544,0.9902840852737427,-0.06004231423139572,-0.03990044817328453,0.6384543776512146,-0.18041019141674042,0.0656299740076065,-0.2436562180519104,0.17167562246322632
477,-1.0352163657177416,-1.4296555710697114,1.579596845065314,-0.12097513675689697,0.9900561571121216,-0.0717911496758461,0.074674092233181,0.5582367181777954,0.18562103807926178,-0.062145575881004333,-0.12514221668243408,0.03571939468383789
478,-0.9484999705261604,-1.4399069867967123,1.6212907377958152,-0.10604922473430634,0.9914461970329285,-0.07607774436473846,-0.10424908250570297,0.4665635824203491,-0.030260903760790825,-0.30657893419265747,0.09603232145309448,0.24253582954406738
479,-1.2082131504900666,-1.4333561368299725,1.3426320475945255,-0.12810036540031433,0.9905699491500854,-0.048595499247312546,-0.5565115213394165,0.618727445602417,-0.4862244725227356,-0.2853364944458008,0.33319103717803955,0.23968136310577393
480,-1.5495945555749813,-1.436126272592709,0.9094718556118284,-0.134233757853508,0.9909456968307495,-0.002846420044079423,0.07884670794010162,0.14667664468288422,0.46265214681625366,0.7500022053718567,0.11060154438018799,-0.4565041661262512
481,-1.4586600996085328,-1.4567970133345776,0.9957661376585997,-0.11303762346506119,0.9935091137886047,-0.012729011476039886,0.019299540668725967,-0.308902382850647,0.06418266147375107,-0.05255076289176941,-0.140069842338562,0.0658295750617981
482,-1.6998016807423741,-1.4423947459165658,0.8015875007070914,-0.126985564827919,0.9917678236961365,0.016473304480314255,0.0006906019407324493,0.20458632707595825,0.4551626443862915,-0.127500519156456,-0.495841920375824,-0.19649648666381836
483,-1.3072195995000064,-1.5076908052226643,1.2540739318484229,-0.060886282473802567,0.9980095028877258,-0.01643047109246254,0.20380203425884247,-0.7984371781349182,-0.28192922472953796,0.007556825876235962,-0.08939439058303833,0.23000770807266235
484,-1.5050343242350734,-1.4918160184193783,1.0984136191826592,-0.07872724533081055,0.9968826770782471,-0.005184737499803305,-0.8988593816757202,-1.0621273517608643,0.06874071806669235,-0.14540907740592957,0.20131367444992065,0.36814558506011963
485,-1.9723824277714834,-1.465244517674141,0.6590940681971618,-0.09697462618350983,0.9944345951080322,0.041181642562150955,-0.055768825113773346,1.3674283027648926,0.3374180793762207,0.23024488985538483,0.22596347332000732,-0.09203922748565674
486,-1.4916899837283317,-1.469068343097352,1.0707686873781836,-0.10123413056135178,0.9948301911354065,-0.008025008253753185,0.9443197250366211,0.45463743805885315,-0.4938480854034424,0.2659527659416199,0.14188843965530396,-0.43141287565231323
487,-1.2219973231216859,-1.4116514712326085,1.3051667338349942,-0.1489318311214447,0.9873631596565247,-0.05416175350546837,0.13156366348266602,0.9560422301292419,-0.3321685492992401,0.026739448308944702,-0.18403369188308716,0.034233808517456055
488,-1.1080415532425871,-1.383751898053874,1.3016988870728363,-0.16639810800552368,0.9825581312179565,-0.08301343023777008,0.19120968878269196,0.9686586856842041,0.008098232559859753,0.12362773716449738,-0.26574599742889404,0.015355944633483887
489,-0.8554423947981546,-1.3899886098661065,1.4850194647149093,-0.13574278354644775,0.9836987853050232,-0.11794434487819672,0.18704819679260254,0.4444279968738556,0.23072512447834015,-0.23590028285980225,-0.015101313591003418,0.1297088861465454
