,attitude.roll,attitude.pitch,attitude.yaw,gravity.x,gravity.y,gravity.z,rotationRate.x,rotationRate.y,rotationRate.z,userAcceleration.x,userAcceleration.y,userAcceleration.z
0,-1.040730315658121,-1.4317943236525508,0.15734686624499344,-0.11954156309366226,0.9903547763824463,-0.07005203515291214,0.06445924937725067,0.48203393816947937,-0.21034716069698334,0.08948174118995667,-0.2731001377105713,0.20764052867889404
1,-0.06336681339220666,0.7127875818746795,1.7512247137870491,-0.047907572239637375,-0.6539452075958252,-0.7550234794616699,-0.15509037673473358,0.24325314164161682,0.10061566531658173,0.04931137338280678,-0.04126042127609253,-0.1773495078086853
2,-0.06896870080755026,0.6745086618375589,1.7903040137062383,-0.053822822868824005,-0.6245136260986328,-0.7791571021080017,-0.2611842155456543,0.40169599652290344,0.11423297226428986,-0.06695050001144409,0.12301826477050781,-0.041399478912353516
3,-0.07514117938506182,0.6615843373360482,1.805880751929102,-0.05923210456967354,-0.6143677234649658,-0.7867934107780457,-0.37396398186683655,-0.3533194959163666,0.06847260892391205,-0.11650338768959045,0.05269169807434082,0.16141194105148315
4,-0.08700084363679453,0.6142727464037981,1.7811448861503627,-0.07100680470466614,-0.5763643980026245,-0.814102053642273,-0.17057214677333832,-0.44069385528564453,-0.5865045785903931,-0.07234948873519897,0.004876971244812012,0.03469836711883545
5,-0.051222221466231274,0.5766686851234369,1.7041873253649398,-0.04291997849941254,-0.5452343821525574,-0.8371841907501221,-0.5633371472358704,0.18861648440361023,-0.18137148022651672,0.09663093090057373,-0.07981139421463013,-0.03281092643737793
6,-0.06196789877682493,0.5658490652677088,1.6772825870331878,-0.05227572098374367,-0.5361327528953552,-0.8425135016441345,0.5256675481796265,-0.2021491527557373,-0.3526172339916229,-0.010193761438131332,0.09622186422348022,0.10931342840194702
7,-0.13796063905940426,0.5101806744994739,1.5588681398524145,-0.12001068145036697,-0.48833492398262024,-0.8643648028373718,-1.997246265411377,-0.3790016174316406,-0.4350951015949249,0.5581362843513489,-0.6058728694915771,0.33642590045928955
8,-0.14637220154649574,0.4097362041148475,1.6294618467697253,-0.13377749919891357,-0.39836737513542175,-0.9074177742004395,0.5263602137565613,-1.142922043800354,-0.2431759238243103,-0.031871914863586426,-0.31322622299194336,0.05991411209106445
9,-0.18690055176187192,0.3772542520314564,1.6310407724534397,-0.17274779081344604,-0.3683691918849945,-0.9134891033172607,-1.0408927202224731,0.2042103260755539,1.0160404443740845,0.15866392850875854,-0.142052561044693,0.13104891777038574
10,-0.24610055744166479,0.278038121807959,1.7294454957163712,-0.2342676818370819,-0.27446964383125305,-0.9326226711273193,-0.3326835632324219,-0.22410614788532257,0.17072242498397827,-0.1262212097644806,-0.19000789523124695,-0.16440796852111816
11,-0.22016859675651174,0.29497995486611667,1.7704755620648902,-0.20896126329898834,-0.290720671415329,-0.9337112307548523,1.1181392669677734,-0.9867031574249268,0.383767306804657,0.16539745032787323,-0.34767651557922363,-0.20256495475769043
12,-0.3256327712499726,0.35685304647822447,1.8376985883483328,-0.29975438117980957,-0.3493272662162781,-0.8877599835395813,1.446646809577942,-1.5495682954788208,0.05872584506869316,-0.11620017886161804,-0.5480878949165344,-0.6847192645072937
13,-0.5458057851808624,0.5627668691619234,1.9262834021597517,-0.43905141949653625,-0.5335283875465393,-0.7228978872299194,1.9923993349075317,-1.018843412399292,0.2275838404893875,0.09067803621292114,0.4149828553199768,0.29559075832366943
14,-0.654796669504535,0.6455471665618634,2.0284992276461247,-0.4864496886730194,-0.6016355752944946,-0.6335623264312744,0.6623361706733704,0.23673951625823975,0.08064296096563339,0.1143794059753418,0.8901183009147644,0.5664389729499817
15,-0.740702328273297,0.5796997120875538,2.04200411993472,-0.5645613670349121,-0.5477727055549622,-0.6174265146255493,-2.8171744346618652,-3.81284499168396,1.2361477613449097,-0.07728433609008789,0.5636571049690247,0.4170938730239868
16,-0.9196423438889737,0.1955977910732648,1.8422820606660333,-0.7802183032035828,-0.19435295462608337,-0.5945473313331604,-3.4362878799438477,-2.2213294506073,1.7101898193359375,-0.5159091353416443,-0.3811017572879791,-0.9673728942871094
17,-1.004340131142995,-0.05381484823637915,1.586794650759584,-0.8425864577293396,0.05378887802362442,-0.535868227481842,-2.93800687789917,2.0926740169525146,-0.22912465035915375,0.6204184889793396,-1.4709489345550537,-1.1258139610290527
18,-0.9046909873779047,0.12640430142590678,1.6951755772873607,-0.779961347579956,-0.12606795132160187,-0.6129984855651855,3.9627392292022705,2.1991240978240967,-1.1433992385864258,0.6922996044158936,-0.38668838143348694,-0.47592973709106445
19,-0.93795222171305,0.45140428971318125,2.033814298530076,-0.7255810499191284,-0.4362295866012573,-0.5321990847587585,4.242172718048096,0.6699414849281311,0.4371456205844879,-0.8504382371902466,0.29299530386924744,-1.2570312023162842
20,-1.0060036825969967,0.5681205849082038,2.3944397005174336,-0.7120088934898376,-0.5380488038063049,-0.4511617422103882,1.8437927961349487,1.639386534690857,0.27767422795295715,-0.009106218814849854,1.2077264785766602,0.2533925771713257
21,-0.9726594755080058,0.571445276701504,2.5522537057409695,-0.6950901746749878,-0.5408482551574707,-0.47363799810409546,0.8657663464546204,0.04684118553996086,0.9431078433990479,0.3175572156906128,1.1033329963684082,0.617024838924408
22,-1.0029744701558228,0.4725052556785071,2.603239491198077,-0.7506994605064392,-0.45511847734451294,-0.47887104749679565,-1.852892518043518,-0.9603338837623596,1.178891897201538,-0.4596276879310608,0.34975653886795044,0.5701186060905457
23,-1.0819723383500999,0.20099351385043418,2.3267523899316394,-0.8651120662689209,-0.19964294135570526,-0.46013450622558594,-4.5101094245910645,-1.8749674558639526,0.33705323934555054,-1.0756380558013916,-0.04580993950366974,-0.8657016158103943
24,-1.1647643470655142,0.018106942236285867,2.004880826662184,-0.9185446500778198,-0.018105952069163322,-0.3949022889137268,-2.321402072906494,-0.8414983153343201,-0.03306997939944267,0.5912436842918396,-1.0362915992736816,-0.9157360792160034
25,-1.146097256957372,0.06294526700356544,1.986073915343713,-0.9093583226203918,-0.06290370970964432,-0.41123059391975403,2.5963611602783203,0.712458610534668,-0.9888312816619873,1.081996202468872,-0.9690634608268738,-1.0004820823669434
26,-1.1220361694390637,0.32072813615461965,2.275957627582025,-0.8550410270690918,-0.31525763869285583,-0.4117251932621002,3.724006414413452,1.1620372533798218,-0.8511819243431091,-1.4022526741027832,-0.20579949021339417,-2.1401243209838867
27,-1.0351850091318069,0.5985735893556966,2.6713815712876148,-0.7104448676109314,-0.5634646415710449,-0.4216345548629761,3.3401806354522705,2.7354345321655273,-0.244573712348938,-0.36049318313598633,1.5450778007507324,0.03752508759498596
28,-1.0229492702284664,0.680702409168433,2.945591709817033,-0.6633960604667664,-0.6293390393257141,-0.40476903319358826,0.8124842047691345,0.24062740802764893,0.9820442199707031,0.5529376864433289,1.3233392238616943,1.1864310503005981
29,-1.0959271747451202,0.5311496315597736,2.9099213389852774,-0.7668222784996033,-0.506524920463562,-0.394228458404541,-3.2897579669952393,-3.3666443824768066,2.2800655364990234,0.24817609786987305,1.0440006256103516,0.791658878326416
30,-1.2722713090122353,0.1668948751062422,2.641907937506688,-0.9424912333488464,-0.16612116992473602,-0.2900242209434509,-3.6257455348968506,1.3652914762496948,1.8954367637634277,-1.2451307773590088,-0.2590802311897278,-0.8670954704284668
31,-1.2771906054350728,-0.09163022529287447,2.4131428351078044,-0.9531909823417664,0.09150205552577972,-0.28819143772125244,-0.899596095085144,-0.4993201494216919,2.0802950859069824,0.40494275093078613,-1.249979853630066,-1.0140241384506226
32,-1.1278603303767312,-0.19259540417578572,2.703843327671197,-0.8867921829223633,0.1914069503545761,-0.4206695854663849,4.722984313964844,1.0969351530075073,1.3637869358062744,0.19775110483169556,-1.2725684642791748,0.3309021294116974
33,-1.2089303419171957,-0.004560715424405379,3.075812862770823,-0.9352281093597412,0.004560699686408043,-0.3540163040161133,3.3139491081237793,-3.5024566650390625,-1.3682458400726318,-1.2076857089996338,-1.4168226718902588,-2.298037528991699
34,-1.2817598614762475,0.4676633171315354,-3.029693217990279,-0.8555971384048462,-0.4508017301559448,-0.254423588514328,1.3892385959625244,1.7712125778198242,-5.16379976272583,-1.0918821096420288,1.2579916715621948,-0.8856062889099121
35,-1.150269386466259,0.9279003338339682,-3.088421419664132,-0.5472825765609741,-0.8003629446029663,-0.2447473555803299,0.989811360836029,-1.0951656103134155,-3.260550022125244,0.36971598863601685,2.2127010822296143,0.6840784549713135
36,-0.8735019266175716,0.9060655951856361,3.018841682625138,-0.47286415100097656,-0.7870829105377197,-0.39610591530799866,-2.11491322517395,-0.5007354021072388,3.1627724170684814,0.29628947377204895,1.3105356693267822,0.8086882829666138
37,-1.0575835467734565,0.36269620861596946,2.8604718774718956,-0.8144963979721069,-0.35479632019996643,-0.4590373933315277,-4.407629013061523,-0.8731513023376465,2.926391839981079,-1.725695252418518,-0.31330975890159607,-1.2625813484191895
38,-1.103518094424968,0.04455750070535334,2.6738929139719585,-0.8919115662574768,-0.04454275965690613,-0.45001092553138733,-1.7489066123962402,-0.7643179893493652,0.7028651833534241,0.6385087966918945,-1.771207332611084,-0.6768506765365601
39,-1.0118940590400016,0.09010480911124776,2.692003271752348,-0.8443982601165771,-0.08998293429613113,-0.5281047224998474,3.5823585987091064,1.9468278884887695,-0.9582199454307556,0.7971265912055969,-1.2144451141357422,-1.0579242706298828
40,-0.9077076444077188,0.4716147163353822,2.928011903066651,-0.7020630240440369,-0.4543253183364868,-0.5483574867248535,5.07496976852417,2.295163869857788,-1.6825001239776611,-1.3962187767028809,0.040751129388809204,-2.1730170249938965
41,-0.8780881578789411,0.7908495271922635,-3.060150427334957,-0.5411580801010132,-0.7109509706497192,-0.44910669326782227,2.0304293632507324,2.171344041824341,-0.7240637540817261,-0.3436533808708191,1.6652355194091797,0.02555316686630249
42,-0.8945221045122748,0.9289356603701779,-2.8762446163848043,-0.46692195534706116,-0.800983190536499,-0.37471312284469604,0.8454007506370544,-0.08409710973501205,-0.14641335606575012,0.19475096464157104,1.759998083114624,1.0824921131134033
43,-0.9587711250658567,0.7508279087397829,-2.9002361321307766,-0.5984150767326355,-0.6822443008422852,-0.4200500547885895,-2.3775246143341064,-3.560290813446045,3.392115354537964,0.10416769981384277,0.7491999268531799,0.5725463628768921
44,-1.0898056282774533,0.3630905835086447,3.0751815669047455,-0.8287380337715149,-0.3551650047302246,-0.4324941039085388,-4.499899387359619,0.25712382793426514,1.5646780729293823,-1.2959263324737549,0.06694173812866211,-1.488175392150879
45,-1.0454626837177632,0.08659025966154363,2.758783841021907,-0.8619153499603271,-0.08648209273815155,-0.49962279200553894,-4.16458797454834,0.17885169386863708,0.5219566822052002,0.3168103098869324,-1.266972541809082,-0.38697391748428345
46,-1.04392774756714,0.08337557238742256,2.6850530991203203,-0.8613831996917725,-0.08327900618314743,-0.5010823607444763,3.182692050933838,0.554052472114563,-0.7004480957984924,0.9923647046089172,-1.171939492225647,-1.266373634338379
47,-1.013037037464038,0.43323777551422327,3.005964180829606,-0.7700566053390503,-0.4198116362094879,-0.48038628697395325,5.334175109863281,1.9319592714309692,-1.0903329849243164,-1.1845331192016602,0.10993620753288269,-1.8888611793518066
48,-0.9611891055329377,0.745514947494294,-2.9391768873858686,-0.602392315864563,-0.6783502697944641,-0.4206712543964386,2.16576886177063,2.939497232437134,-1.1917076110839844,-0.34444600343704224,1.5523126125335693,0.1517351269721985
49,-0.7841739359867822,0.8438597845292922,-3.02519212478645,-0.469355970621109,-0.7472138404846191,-0.47050657868385315,-1.3220616579055786,-0.2421424239873886,0.3865628242492676,0.2940325140953064,1.7018036842346191,1.0985735654830933
50,-0.9015167364390747,0.5894738066190599,3.1169229014198128,-0.6519104242324829,-0.5559237003326416,-0.5157147645950317,-4.357814788818359,-4.887307643890381,2.144688129425049,-0.7210144400596619,0.9668276309967041,0.05949223041534424
51,-1.0687777952145754,0.2887842238391992,2.764494919787165,-0.8403133153915405,-0.28478699922561646,-0.4612700939178467,-3.3246870040893555,-1.1205922365188599,1.1659480333328247,-0.6330296397209167,-0.8027679324150085,-1.3821136951446533
52,-1.1580627567598276,0.11331329722247692,2.517324817937202,-0.9101532101631165,-0.11307096481323242,-0.39854246377944946,-1.2898021936416626,-1.1925678253173828,-0.13899974524974823,1.0990874767303467,-1.3725857734680176,-1.3696308135986328
53,-1.0705822280571757,0.25877877071964117,2.670012620958675,-0.8482626080513,-0.25590017437934875,-0.4636438190937042,5.409399032592773,4.1560750007629395,-1.605663537979126,-0.3399392366409302,-0.38065072894096375,-1.6465399265289307
54,-0.8940953764522344,0.7012399437199386,3.068142422178939,-0.5956805348396301,-0.6451655626296997,-0.47846218943595886,5.408665657043457,3.675539255142212,-0.14027176797389984,-1.4335095882415771,0.4801265597343445,-1.4674911499023438
55,-0.8719346730753196,0.9713484552419367,-2.855736102865036,-0.4319271743297577,-0.825647234916687,-0.36296752095222473,1.729750633239746,2.972702741622925,-0.03403769060969353,-0.20102259516716003,1.8782596588134766,0.3261784017086029
56,-0.6576539134728666,0.9261522168560371,-2.8179134937773447,-0.36731570959091187,-0.7993136644363403,-0.4755803644657135,-1.5138999223709106,0.49238303303718567,0.93397456407547,0.060095250606536865,1.5040256977081299,0.9338171482086182
57,-0.714768989461349,0.646167462208995,-2.941097008679681,-0.5233039259910583,-0.6021309494972229,-0.6029853820800781,-5.823578834533691,-3.9505724906921387,1.1510995626449585,-0.7793999314308167,0.2495308518409729,0.3166389465332031
58,-0.9617435389582378,0.2542727575422185,3.073841915847956,-0.7938182353973389,-0.2515416145324707,-0.5536960959434509,-2.655627727508545,-0.6349881887435913,1.7894721031188965,-0.3268176317214966,-0.6784968376159668,-0.8942866921424866
59,-0.9807860778734963,0.06198873184161877,2.9399223448274903,-0.8293390870094299,-0.06194904074072838,-0.5553009510040283,-0.17033925652503967,0.5875042080879211,0.08426065742969513,0.9678887724876404,-1.1158769130706787,-0.5490081906318665
60,-0.9332891572964732,0.223601887462422,3.0816414277662605,-0.7835769057273865,-0.22174327075481415,-0.5803768038749695,4.656989097595215,1.1499767303466797,-0.7865394353866577,0.416526734828949,-0.7636082768440247,-1.1278293132781982
61,-1.0049836771824718,0.5856798789165213,-2.802536741990432,-0.7034636735916138,-0.5527660846710205,-0.4467533230781555,6.046302795410156,2.704163074493408,-0.9458905458450317,-1.9306000471115112,0.503281831741333,-1.6176998615264893
62,-0.8659498098150072,0.8308740247368668,-2.4436553503867895,-0.5135688781738281,-0.7385209202766418,-0.43684545159339905,2.392573595046997,3.4554948806762695,0.5949544310569763,0.10419076681137085,1.994197130203247,0.40419161319732666
63,-0.8515641662286789,0.7701141963811947,-2.324846164708648,-0.5400328040122986,-0.6962172389030457,-0.4729122817516327,-1.7306519746780396,-0.6063618659973145,0.8721292614936829,0.22945547103881836,1.557896375656128,1.332775592803955
64,-0.9703611914648581,0.39910170752799295,-2.5982546240067323,-0.7602463960647583,-0.38859081268310547,-0.5205983519554138,-4.999648094177246,-6.735471248626709,0.8307545781135559,-1.8608320951461792,0.30128002166748047,-1.6295785903930664
65,-0.9636994520245642,0.1282744752832232,-3.0058775462781653,-0.8145599365234375,-0.12792298197746277,-0.5657984614372253,-3.255476951599121,0.011799941770732403,-0.7908859848976135,-0.49951171875,-0.9744024276733398,-0.8670170307159424
66,-0.9261421558605006,0.03947206335360328,3.071386313831062,-0.7986850738525391,-0.03946181386709213,-0.6004539728164673,0.9015125632286072,-0.4427174925804138,-0.2808127999305725,1.0381717681884766,-1.4257633686065674,-0.5669959783554077
67,-0.8727110702079023,0.2775756079145315,-2.9609855340144393,-0.7367509603500366,-0.2740248739719391,-0.6181491613388062,4.9494218826293945,0.48321306705474854,-1.611194372177124,0.3401139974594116,-0.5464555025100708,-0.27877771854400635
68,-1.041613719988829,0.6247576232059725,-2.5814186134408197,-0.7001619338989258,-0.5849006772041321,-0.4094683825969696,4.397120475769043,0.9118099212646484,-1.3921910524368286,-1.7867612838745117,0.025437235832214355,-1.824235200881958
69,-0.9392874902357548,0.8372205815909857,-2.31403424794202,-0.5404027104377747,-0.7427850961685181,-0.3952658176422119,0.7072299718856812,2.834543228149414,-0.3901435136795044,-0.1780725121498108,1.7077968120574951,0.2183096706867218
70,-0.7481963543356135,0.8191134427572458,-2.2638975369751853,-0.4645681381225586,-0.7305406928062439,-0.5004864931106567,-1.8923215866088867,-0.9410237073898315,0.324739545583725,0.031920433044433594,1.3260149955749512,1.4182263612747192
71,-0.8301013518031019,0.5586011430432322,-2.5447120764073676,-0.6258218288421631,-0.5300005078315735,-0.5722294449806213,-6.043506622314453,-3.931946277618408,0.5947788953781128,-0.9644339084625244,0.346238911151886,-0.39958757162094116
72,-0.9231760538290478,0.20978720690081945,-2.972344114608576,-0.7800362706184387,-0.20825177431106567,-0.590063214302063,-4.544012069702148,-0.7994065880775452,0.26500770449638367,-0.4815451502799988,-0.5781556963920593,-1.014001727104187
73,-0.9247722477495708,0.02990195462223782,3.067509644274234,-0.798126757144928,-0.029897497966885567,-0.6017473340034485,-1.2680754661560059,0.5237748026847839,-0.5577604174613953,0.972351610660553,-1.2379095554351807,-0.161787211894989
74,-0.9218137331429981,0.20453018456905608,-3.118713276641867,-0.7800931334495544,-0.20310716331005096,-0.5917788147926331,4.5550127029418945,1.0653798580169678,-1.1876972913742065,0.44609349966049194,-0.6661249995231628,-0.7895534634590149
75,-0.9970130348672274,0.49858204433045,-2.7299515374565257,-0.7376108765602112,-0.4781806766986847,-0.4767320454120636,4.517349720001221,2.338836908340454,-0.29606208205223083,-1.337294578552246,0.5133521556854248,-1.4522840976715088
76,-0.9234379932720072,0.6308436469508106,-2.4019696838153117,-0.6441503763198853,-0.589826226234436,-0.4870063066482544,0.9215063452720642,2.7396459579467773,0.1564330905675888,0.03007572889328003,1.3155343532562256,0.5279151797294617
77,-0.7959494830186453,0.6043178084238716,-2.337460616207882,-0.5879780054092407,-0.5682008266448975,-0.5756992101669312,-1.5499773025512695,-0.18667346239089966,-0.34740135073661804,0.078349769115448,1.0947206020355225,1.3344120979309082
78,-0.828300929125161,0.4462595107828859,-2.599221611340286,-0.664628803730011,-0.4315943717956543,-0.6099138259887695,-5.4413957595825195,-2.293543815612793,-0.6041392087936401,-0.8937970995903015,0.3487544357776642,-0.19533824920654297
79,-0.8469341805739594,0.19616013666506293,-3.0156574195103265,-0.73488450050354,-0.19490455090999603,-0.6495822072029114,-2.873760461807251,0.6578376293182373,-0.5105959177017212,-0.32868361473083496,-0.7707631587982178,-0.9150082468986511
80,-0.8203942022115286,0.12136600859109524,3.1071373138254477,-0.7260345816612244,-0.12106828391551971,-0.676916778087616,0.3658263683319092,-0.43520623445510864,-0.31250715255737305,1.0268616676330566,-0.8161570429801941,0.004065215587615967
81,-0.8461517240460833,0.2831697044404631,-3.021116808449865,-0.7189164161682129,-0.2794005274772644,-0.636470377445221,3.8373055458068848,0.1410578489303589,-0.5444447994232178,0.5536942481994629,-0.5756104588508606,-0.37550777196884155
82,-1.0132153347124562,0.529580826231613,-2.665662627996126,-0.7323039174079895,-0.5051716566085815,-0.4566535949707031,4.924588680267334,2.0330026149749756,-0.34038153290748596,-1.7345081567764282,0.22097671031951904,-1.8536491394042969
83,-0.9170193436040822,0.690314998397305,-2.3869781868359774,-0.61204993724823,-0.6367800831794739,-0.46894121170043945,1.5184561014175415,2.9226179122924805,0.2313140481710434,0.046894967555999756,1.6568301916122437,0.47612813115119934
84,-0.8457677861578939,0.6556096933679947,-2.346400544775645,-0.5933027863502502,-0.6096426248550415,-0.525668740272522,-2.0527942180633545,-1.7500349283218384,-0.031716905534267426,0.01998436450958252,1.3835378885269165,1.116489052772522
85,-0.9227095108405263,0.4169339927648819,-2.7053620257999187,-0.7289444208145142,-0.4049589931964874,-0.5519493818283081,-5.207599639892578,-5.343252182006836,-0.4196839928627014,-1.3886702060699463,0.4844726026058197,-1.6163244247436523
86,-0.9178985717431121,0.15770821346926628,-3.0454441707479467,-0.7844690680503845,-0.15705527365207672,-0.5999516844749451,-2.8354427814483643,0.03963178023695946,0.42772620916366577,-0.03775078058242798,-0.8527714014053345,-0.7808161377906799
87,-0.85985209201132,0.044448422136380485,-3.1337405071985414,-0.7569976449012756,-0.04443378746509552,-0.6519050598144531,0.17872178554534912,0.8346013426780701,-0.1055784523487091,0.9701781868934631,-1.299712896347046,0.07013320922851562
88,-0.8624321646059694,0.2163561424710778,-2.9886508177143942,-0.7417219877243042,-0.21467214822769165,-0.6354245543479919,3.5499465465545654,0.4560200572013855,-1.1662547588348389,0.4426345229148865,-0.6490973830223083,-0.30350977182388306
89,-0.9967482632481948,0.5187864607627268,-2.723192945512558,-0.7292219400405884,-0.4958266317844391,-0.47158390283584595,4.611889839172363,1.3859022855758667,-0.6391524076461792,-2.0203051567077637,0.09668725728988647,-2.0913891792297363
90,-0.9062863570118214,0.7223476885886918,-2.441110746748899,-0.5906155705451965,-0.6611478328704834,-0.4626627564430237,2.1504626274108887,2.6069865226745605,0.6829068064689636,0.023537933826446533,1.5342862606048584,0.24321085214614868
91,-0.8829548481370004,0.7519616118245228,-2.274599315069204,-0.5642820000648499,-0.6830727458000183,-0.463678240776062,0.1604442000389099,0.10042207688093185,0.4612964391708374,0.10247474908828735,1.371457815170288,1.049402117729187
92,-0.8683866014546692,0.6449971536125861,-2.5054028179790997,-0.6099441647529602,-0.6011961698532104,-0.5162665843963623,-5.05732536315918,-2.883432149887085,-0.6242542266845703,-0.717143177986145,0.44778430461883545,-0.1397850513458252
93,-0.9179277181181577,0.3585550537401957,-2.959735382265082,-0.7438280582427979,-0.35092154145240784,-0.5688356161117554,-3.9393298625946045,-0.868087887763977,0.2800569534301758,-0.39150214195251465,-0.27212533354759216,-0.8945585489273071
94,-0.9649362680910483,0.1483988527702982,3.0740484267050743,-0.8129780292510986,-0.1478547751903534,-0.5632103085517883,-1.9706828594207764,-0.8151471018791199,-0.2208905965089798,0.9075366854667664,-0.8966856002807617,-0.17661207914352417
95,-1.0017890704898595,0.2232118619284531,3.1138245236088014,-0.821536660194397,-0.22136293351650238,-0.5254292488098145,2.8839433193206787,0.7364593148231506,-0.8511053919792175,0.9234196543693542,-0.7244225740432739,-0.5026163458824158
96,-1.138651875565089,0.382320151140101,-2.831259533270562,-0.8425084352493286,-0.37307411432266235,-0.38858097791671753,3.6407759189605713,0.43865519762039185,0.0025956006720662117,-1.7082421779632568,-0.024539411067962646,-0.7766106724739075
97,-1.205027654072279,0.46318499377886446,-2.6465249519201777,-0.8354530334472656,-0.44679978489875793,-0.3199812173843384,0.5268265008926392,0.8196495771408081,-0.441252201795578,0.022235989570617676,1.255927562713623,0.13594499230384827
98,-1.1138976366255833,0.45699685896469605,-2.7027460675764163,-0.8053327202796936,-0.441255122423172,-0.39589521288871765,-1.4954911470413208,0.0008929753676056862,-0.3907489776611328,0.5909162759780884,1.2034316062927246,0.83913254737854
99,-1.084540367312362,0.3117484311623386,-2.9501959330189065,-0.8414745926856995,-0.3067232668399811,-0.4447937607765198,-5.50103235244751,-3.298015594482422,1.1427481174468994,-0.07321351766586304,0.6370149850845337,0.16569525003433228
100,-1.114962301378692,0.027882159824939984,3.023574208964087,-0.8975451588630676,-0.027878547087311745,-0.4400402009487152,-2.1352832317352295,1.1874827146530151,0.8230760097503662,-0.8090740442276001,-0.7790367603302002,-1.1215900182724
101,-0.9988459290887785,-0.06657226328016339,2.9103026634936326,-0.8389842510223389,0.06652309745550156,-0.5400740504264832,0.23476693034172058,0.8472974300384521,-0.3120948076248169,0.7622936964035034,-1.3944191932678223,-0.20917844772338867
102,-0.9361422381153424,0.13751567879841314,3.0195911878727646,-0.7976747155189514,-0.13708266615867615,-0.5873017907142639,4.001843452453613,0.8713903427124023,-1.8794156312942505,0.06664139032363892,-0.6523460149765015,-0.4524778723716736
103,-1.0570844723171422,0.47290973311628504,-2.9759497850988996,-0.7753394246101379,-0.45547857880592346,-0.4374791383743286,4.319919586181641,0.6037651896476746,-1.7085293531417847,-2.243917226791382,0.46365734934806824,-1.6374567747116089
104,-0.9650802864206067,0.7168129798869364,-2.72666170909246,-0.6197798252105713,-0.6569852828979492,-0.4292354881763458,1.852218508720398,1.6954537630081177,-0.14014600217342377,0.16793662309646606,1.6658201217651367,0.4158383011817932
105,-1.013725964521945,0.7278604296464035,-2.522756481412768,-0.6337193250656128,-0.6652737855911255,-0.3947284519672394,0.4000864624977112,0.6703832745552063,2.0061776638031006,0.7934636473655701,1.667669415473938,1.0100390911102295
106,-0.9975764372574859,0.4396576102265867,-2.6873756997651617,-0.7602577805519104,-0.4256296753883362,-0.4907621443271637,-5.993019104003906,-2.238144636154175,0.889672040939331,-1.1239585876464844,0.1790018379688263,-0.4634462594985962
107,-0.9545051466365116,0.1924287703641117,-3.107522386164469,-0.8009660840034485,-0.19124339520931244,-0.567344069480896,-4.337530612945557,0.16723349690437317,-1.1451585292816162,-0.6004925966262817,-0.46547961235046387,-0.276741623878479
108,-0.9176527057077852,0.05967501176591429,2.8164007051619677,-0.7927637100219727,-0.05963959917426109,-0.606604278087616,-2.0628013610839844,-0.5191707015037537,-1.2820048332214355,0.8525782227516174,-0.635581374168396,-0.40395474433898926
109,-0.9342132453514215,0.18279868784228523,2.831458987269818,-0.790733814239502,-0.1817823350429535,-0.5845469832420349,3.649688482284546,0.5478377938270569,-0.3983834385871887,0.9113240838050842,-0.7290147542953491,-0.7322254180908203
110,-1.2096055604553992,0.2933635171726048,-2.95728767333842,-0.8955100178718567,-0.2891736626625061,-0.3382904827594757,4.344882011413574,-1.7403439283370972,0.14290042221546173,-2.4695565700531006,0.392185777425766,-1.3545958995819092
111,-1.1193574603104617,0.5210860358459651,-2.658038605716201,-0.7803953886032104,-0.4978223145008087,-0.3783598244190216,1.6780368089675903,2.489457845687866,-0.6357489228248596,0.4242703914642334,1.3195843696594238,0.5565213561058044
112,-0.9668866703886768,0.6279629005033259,-2.6942962850193624,-0.6660915017127991,-0.5874975323677063,-0.4595310688018799,-1.5926169157028198,1.0012707710266113,-0.8620678186416626,0.8333430886268616,1.5520665645599365,1.3824741840362549
113,-0.9759138220130948,0.4131266888399294,-3.0467673964327364,-0.758536696434021,-0.4014749228954315,-0.5132640600204468,-6.687801361083984,-3.5496885776519775,1.3693729639053345,-0.6357351541519165,0.9787759780883789,-0.18690073490142822
114,-1.0090811301145617,0.04236998170947777,2.8088001677260377,-0.8455832600593567,-0.04235730692744255,-0.5321606397628784,-3.443690538406372,-0.16078528761863708,0.9986064434051514,-0.9033792614936829,-0.43980517983436584,-1.2156727313995361
115,-1.0651790323004715,-0.12902090292952637,2.555802892136849,-0.8676039576530457,0.12866324186325073,-0.48032182455062866,-1.7262146472930908,-0.03633500635623932,-0.2795995771884918,0.7768599987030029,-1.3222057819366455,-0.5806369781494141
116,-1.0557917817408835,-0.006401293475583917,2.5589366176488157,-0.870272696018219,0.006401249673217535,-0.4925287365913391,2.826695442199707,-0.1157810166478157,-1.7625929117202759,0.619418203830719,-0.9853593707084656,-0.7999669909477234
117,-1.0538235729057606,0.3171779319319101,2.836675831845261,-0.825957179069519,-0.3118865191936493,-0.4695972204208374,5.222486972808838,1.087319016456604,-0.5034262537956238,-2.0981760025024414,0.3263213038444519,-1.9820019006729126
118,-0.9844564864708878,0.6208341610391865,3.134678911727201,-0.6775335669517517,-0.581713855266571,-0.4500635862350464,2.684593915939331,1.5855857133865356,-0.1691129207611084,0.2175421118736267,1.6953003406524658,0.4078425168991089
119,-1.0471231620632333,0.5988004012749588,3.135083186630215,-0.7153170108795166,-0.563651978969574,-0.41305941343307495,-2.2160441875457764,-1.1138675212860107,1.2601768970489502,1.024017572402954,1.9823684692382812,0.99750155210495
120,-1.119182930401965,0.2366806614892434,2.9041186161452157,-0.8746607303619385,-0.23447711765766144,-0.42425110936164856,-7.046503067016602,-5.105230331420898,2.713257312774658,-1.0450780391693115,1.2708388566970825,-0.5104718208312988
121,-1.1862020504603803,-0.09174503453188751,2.5953947502883734,-0.9230523705482483,0.09161638468503952,-0.37360522150993347,-3.504256248474121,0.6992706656455994,0.652070939540863,-1.047360897064209,-0.7660853862762451,-1.0305542945861816
122,-1.1462234096192594,-0.22710670511126047,2.397179850884508,-0.8878164887428284,0.22515946626663208,-0.40135401487350464,-0.40974828600883484,0.8218340873718262,-0.2690344750881195,0.5279379487037659,-1.5883187055587769,-0.5173470973968506
123,-1.0825835130713508,-0.051012900366211776,2.4984186978228657,-0.8820235729217529,0.05099077895283699,-0.468438059091568,3.8810322284698486,0.4314562678337097,-2.218842029571533,0.6104477047920227,-0.9551045894622803,-0.7936927080154419
124,-1.1083508795259402,0.34052641344864665,2.826232610029435,-0.8435744643211365,-0.33398333191871643,-0.4205203652381897,5.69450569152832,2.2894058227539062,-2.690279483795166,-2.8140487670898438,0.31953322887420654,-2.4295315742492676
125,-1.0220445248280345,0.7945147328658733,3.1089090842855756,-0.597761869430542,-0.7135236859321594,-0.36546510457992554,2.982429027557373,2.630190849304199,-1.915008306503296,-0.10910153388977051,2.3457257747650146,0.07098573446273804
126,-0.9939605987143482,0.9322470638041983,-2.983213231702139,-0.49958881735801697,-0.8029612898826599,-0.325060099363327,-1.0848960876464844,0.6913326382637024,-0.21669496595859528,0.46748432517051697,2.0069713592529297,1.6024649143218994
127,-0.8736038960151847,0.5949266446434769,3.034732025983254,-0.6349298357963562,-0.5604479908943176,-0.5317539572715759,-7.086029529571533,-4.279061794281006,3.300410747528076,-0.41125863790512085,1.0909655094146729,0.6312719583511353
128,-1.0746334666743125,0.06916909274274573,2.788847636569453,-0.8773127794265747,-0.06911394745111465,-0.4749162197113037,-3.674187660217285,0.12404312938451767,1.2961304187774658,-1.7358920574188232,-1.0123069286346436,-0.984571635723114
129,-1.0668814897685432,-0.05431101697328227,2.4938198255065225,-0.8744077086448669,0.054284319281578064,-0.4821454584598541,-1.689002275466919,0.8296785354614258,-1.7336125373840332,0.9516478180885315,-1.4173519611358643,-0.5436113476753235
130,-1.024354783583597,0.1033986319726214,2.519320094789692,-0.8498159646987915,-0.10321448743343353,-0.5168748497962952,3.510834217071533,0.7741215229034424,-1.755359172821045,0.6677786111831665,-0.8787190914154053,-1.2081159353256226
131,-0.9764925077786266,0.4833314824684645,2.8406264860989685,-0.7336307168006897,-0.4647316038608551,-0.4957927465438843,5.53605842590332,3.5558059215545654,-2.290184736251831,-2.79667329788208,0.03891986608505249,-2.4077258110046387
132,-0.7798332137483963,0.8868735614840705,3.119333999102412,-0.44428402185440063,-0.7751001119613647,-0.44925656914711,2.692220449447632,2.7188284397125244,-0.6748509407043457,-0.35974735021591187,2.2839198112487793,0.2257305383682251
133,-0.9074803847448032,0.9389922203439712,-2.8821365069713774,-0.4653673768043518,-0.806963324546814,-0.36365291476249695,-1.558130145072937,-0.07673198729753494,0.9639284014701843,0.2086992859840393,1.998339056968689,1.6027123928070068
134,-0.9453319062253479,0.5309901025322671,3.134843608198712,-0.6990640163421631,-0.5063873529434204,-0.5048576593399048,-6.855641841888428,-6.458261013031006,2.2606730461120605,-1.210054636001587,1.50113844871521,-0.7362158894538879
135,-1.0506265835007536,0.024837175730159557,2.754372414340918,-0.8674671649932861,-0.02483462169766426,-0.4968741238117218,-4.164813041687012,-0.8971207737922668,1.2384521961212158,-1.0924327373504639,-0.8571996688842773,-1.8686959743499756
136,-1.077670780364176,-0.08267258533804618,2.513671682051834,-0.8778490424156189,0.08257844299077988,-0.47176453471183777,0.20004107058048248,0.893968403339386,-1.1940926313400269,1.3274645805358887,-1.938565969467163,-0.8965978622436523
137,-0.9766838432290831,0.17109464637113223,2.649290343337302,-0.816546618938446,-0.17026111483573914,-0.5516002774238586,4.343554973602295,1.3886207342147827,-1.1299493312835693,0.6731749176979065,-0.7331050038337708,-1.2421619892120361
138,-1.0086256863985201,0.5901061629180083,3.0291455353756893,-0.7030090093612671,-0.5564492344856262,-0.442879855632782,5.848258972167969,2.80922532081604,-2.0504653453826904,-2.568917751312256,0.7983010411262512,-2.0077884197235107
139,-0.8479738928200754,0.9087941370829026,-3.0090078807332485,-0.4609871506690979,-0.7887630462646484,-0.4066247344017029,0.8865509629249573,3.43636417388916,-0.5021194219589233,0.2753792405128479,2.484426498413086,1.0865869522094727
140,-0.7123120902174066,0.7414965608376822,-3.1137590519858236,-0.481992244720459,-0.6753923296928406,-0.5581476092338562,-2.783341646194458,-3.040609121322632,2.3498475551605225,0.0432257354259491,1.8752672672271729,1.168438196182251
141,-1.074634696040226,0.22837800829566968,2.959641898620045,-0.8565821647644043,-0.22639794647693634,-0.46369272470474243,-4.6321845054626465,-3.3508756160736084,2.5295708179473877,-2.3843235969543457,0.15420860052108765,-2.04367733001709
142,-1.1668553078239143,-0.043442576903527555,2.6573576024048555,-0.9186515212059021,0.04342891275882721,-0.39267435669898987,-3.3211517333984375,-0.112014539539814,-0.13497115671634674,0.16576772928237915,-1.006838321685791,-1.0551252365112305
143,-1.147624053061698,-0.055644126786126874,2.515612526548186,-0.9103797078132629,0.055615417659282684,-0.4100193977355957,1.1499475240707397,1.3815510272979736,-0.5953768491744995,1.5530340671539307,-1.4746217727661133,-0.8455653786659241
144,-1.0372604169819326,0.19003001914539708,2.8018215213157296,-0.8455146551132202,-0.18888837099075317,-0.4994257688522339,5.464219093322754,1.3682087659835815,-0.9539505839347839,-0.5865378975868225,-0.7557680010795593,-1.9937993288040161
145,-0.938316147889099,0.6394447529446711,-3.10291188527426,-0.6472087502479553,-0.5967499613761902,-0.4743524491786957,4.4152750968933105,3.0572407245635986,-2.1065802574157715,-1.7128223180770874,1.1715943813323975,-0.8152440786361694
146,-0.7815019501700401,0.926922376858359,-2.941312078792753,-0.4228179156780243,-0.7997762560844421,-0.42612558603286743,2.0063588619232178,2.8683173656463623,-0.15367421507835388,0.3349883258342743,2.2224905490875244,0.8325129747390747
147,-0.7957781161009843,0.8677882685413786,-2.887752771525483,-0.4618759751319885,-0.7629008889198303,-0.45238566398620605,-2.146327257156372,-2.3447985649108887,1.5368987321853638,-0.0017012953758239746,1.7147746086120605,0.9815452098846436
148,-1.1038897643015255,0.4182495848000667,3.0449689218695544,-0.8159924745559692,-0.4061615467071533,-0.4113257825374603,-5.04626989364624,-5.1242499351501465,3.1378204822540283,-2.106065273284912,0.7964509725570679,-2.283895254135132
149,-1.1467365838249184,0.10692540191630283,2.8290236973282417,-0.9062208533287048,-0.10672177374362946,-0.40911412239074707,-3.397122859954834,-0.3596267104148865,0.6782717108726501,0.3216260075569153,-1.0587292909622192,-0.6337326169013977
150,-1.134711763669705,0.07617009543564046,2.6384325099818335,-0.9037842750549316,-0.07609646022319794,-0.4211689531803131,0.04270339012145996,1.212857723236084,-1.7640031576156616,1.6535706520080566,-1.4686881303787231,-0.6834757924079895
151,-1.0356300563401766,0.31171167769083813,2.7359135801908008,-0.8187316060066223,-0.3066882789134979,-0.4854079484939575,3.8552870750427246,2.31065034866333,-1.9023758172988892,-0.6059662103652954,-0.9005718231201172,-2.001774787902832
152,-0.9105306818008699,0.7077071280018836,-3.1297488046762987,-0.6001554131507874,-0.6500932574272156,-0.4660390615463257,6.053820610046387,4.218044281005859,-0.959014356136322,-2.0591158866882324,1.0932084321975708,-0.7706705927848816
153,-0.8282128959804047,0.974851018825504,-2.8072696984576817,-0.4135168194770813,-0.8276183009147644,-0.3795414865016937,2.4487273693084717,1.5531729459762573,-0.5522478818893433,-0.3782007098197937,1.8034484386444092,0.7078496217727661
154,-0.6674993110613202,1.0638261610325903,-2.9688944677209337,-0.3005552589893341,-0.8742195963859558,-0.3813224136829376,-2.6651461124420166,-1.8062918186187744,-0.824470579624176,-0.02287006378173828,1.849302053451538,0.9352011680603027
155,-0.9030435159938872,0.6031820315140854,2.988905766760092,-0.6466519832611084,-0.5672658681869507,-0.5099517107009888,-5.968070030212402,-8.404914855957031,4.1560516357421875,-1.159179925918579,0.7399190068244934,-1.3047151565551758
156,-1.0835087340287928,0.13296691238592512,2.781244838358371,-0.875806450843811,-0.13257545232772827,-0.464097797870636,-3.1665756702423096,-1.0146913528442383,1.5250788927078247,-0.5455496907234192,-1.2104573249816895,-1.0485974550247192
157,-1.0194022424022728,0.04691749925654404,2.6606380835984433,-0.850857675075531,-0.04690028727054596,-0.5232987403869629,0.6743602156639099,0.5533596277236938,-0.7499130964279175,1.5640230178833008,-1.5076193809509277,-0.6047530174255371
158,-0.9958679863247909,0.32184677915659526,2.8703211175693935,-0.7961391806602478,-0.3163190484046936,-0.5158534049987793,4.3985748291015625,1.3128738403320312,-1.1791460514068604,-0.4233279824256897,-0.6723741888999939,-1.6053929328918457
159,-1.0545905967375717,0.6140209871352466,-2.9980591168463984,-0.7108373045921326,-0.5761586427688599,-0.40342476963996887,4.103815078735352,1.9625829458236694,-0.8557998538017273,-1.1801996231079102,1.0777913331985474,-0.483400821685791
160,-1.0037902839421444,0.7875259005419577,-2.7574375212550226,-0.5951831936836243,-0.7086097002029419,-0.3789844512939453,1.6257798671722412,1.6493598222732544,-0.3037241995334625,0.16122329235076904,1.5968239307403564,0.4897632896900177
161,-0.8341112803565864,0.8211710010143538,-2.786211460417397,-0.5046865344047546,-0.73194420337677,-0.4577654004096985,-2.555023193359375,0.7542855739593506,0.934592068195343,0.5820943713188171,1.3810378313064575,1.1695878505706787
162,-1.0572240013027572,0.3556379636356058,-3.0633439190933878,-0.8164920210838318,-0.34818848967552185,-0.460548996925354,-5.3819122314453125,-2.4727489948272705,2.4901516437530518,-2.2617244720458984,0.43871891498565674,-0.821219801902771
163,-1.0441007120765462,0.060674869708837474,2.914666106911423,-0.862882137298584,-0.06063764914870262,-0.5017545819282532,-5.020899772644043,-0.06764594465494156,-0.2524608373641968,-0.4487481117248535,-0.7695625424385071,0.2529752254486084
164,-1.1752322229678744,0.024563684527850526,2.738435647851619,-0.9225009679794312,-0.024561215192079544,-0.3852125406265259,0.4658064842224121,-0.7987611889839172,-1.1840441226959229,1.5112460851669312,-1.5851800441741943,-1.3237107992172241
165,-1.2523869337256917,0.21508151138671563,3.0017418765008053,-0.927851676940918,-0.21342706680297852,-0.30584317445755005,3.9963436126708984,0.175409197807312,-1.4560823440551758,-1.885594367980957,-0.7377142906188965,-2.7661020755767822
166,-1.1243943697147392,0.5775560067488738,-2.7616294460684583,-0.7557005882263184,-0.5459780097007751,-0.3616972863674164,3.8009700775146484,3.4419362545013428,-2.4766957759857178,-1.3157413005828857,1.5538972616195679,0.12100514769554138
167,-1.091693416067809,0.8794623763032675,-2.5188192246780816,-0.5657811164855957,-0.7703962326049805,-0.2939069867134094,2.154088258743286,0.027887115254998207,-1.4768140316009521,0.13427793979644775,2.1118574142456055,1.2288435697555542
168,-1.1324298065119889,0.8557491524522777,-2.5599890279489945,-0.5936585068702698,-0.7550623416900635,-0.27829912304878235,-1.4324744939804077,-2.416584014892578,2.0741071701049805,0.09376531839370728,1.8664820194244385,1.425058126449585
169,-1.3673136828553019,0.3905885940454479,-3.032945472511185,-0.9056076407432556,-0.3807327449321747,-0.18686160445213318,-4.095603942871094,-1.94771146774292,3.9773595333099365,-2.5953078269958496,0.47259068489074707,-2.7254767417907715
170,-1.4084499993413935,0.06251047119491858,2.9446934207212974,-0.984923243522644,-0.06246976926922798,-0.16131842136383057,-3.3462634086608887,-1.1409435272216797,1.6382142305374146,0.18138021230697632,-1.435149908065796,-1.4607824087142944
171,-1.4099899936878164,0.03883659523786816,2.8962210558001127,-0.9863542914390564,-0.038826834410429,-0.1599934697151184,2.189819574356079,-0.4090780019760132,-1.0565108060836792,1.065516710281372,-1.9258185625076294,-1.1363017559051514
172,-1.4753713921030382,0.26915567952434505,-3.054787696438517,-0.959610104560852,-0.2659175992012024,-0.09184969216585159,4.550644874572754,2.0283286571502686,-3.371100425720215,-3.4614410400390625,-0.030835330486297607,-3.246941089630127
173,-1.3197418391858073,0.67640017116509,-2.545959519984868,-0.7553843259811401,-0.6259898543357849,-0.19372998178005219,4.549200534820557,3.994595766067505,-2.8456084728240967,-1.4263020753860474,1.8478831052780151,-0.3912919759750366
174,-1.3328573399648105,1.013969316472424,-2.1096735261504556,-0.5136052370071411,-0.8489363193511963,-0.12456640601158142,3.046434164047241,1.409920334815979,-1.7616958618164062,-0.09911143779754639,2.4591352939605713,0.5747464895248413
175,-1.398892822448352,1.1098158406888166,-1.9650957223599295,-0.4382701516151428,-0.8956167697906494,-0.07609117776155472,-1.9217445850372314,0.5409967303276062,1.2826647758483887,0.6444621682167053,2.1339590549468994,1.2700608968734741
176,-1.369195802472789,0.5409721959702711,-2.4763323636294783,-0.8398475646972656,-0.5149695873260498,-0.1716454178094864,-4.636784553527832,-3.974255084991455,6.263126373291016,-2.4305992126464844,1.1078652143478394,-0.9707648754119873
177,-1.497056637444298,-0.012317414671799752,-2.8031872078423445,-0.9972068667411804,0.012317103333771229,-0.07366729527711868,-2.3958468437194824,-0.03857249766588211,2.624558925628662,-1.4914711713790894,-1.1973451375961304,-1.431978464126587
178,-1.4056736214364267,-0.06943852434770365,-2.8652611620417865,-0.9840211272239685,0.06938273459672928,-0.16397725045681,2.4524455070495605,-0.19620411098003387,-1.069760799407959,1.1592378616333008,-2.3934335708618164,-1.5251706838607788
179,-1.4104636513217428,0.2427849046577383,-2.507018939402464,-0.9582226872444153,-0.24040678143501282,-0.15496455132961273,5.4686408042907715,-0.26792076230049133,-3.5429577827453613,-1.948195219039917,-0.7853195667266846,-3.154956817626953
180,-1.3080898934206475,0.8133527155908935,-2.1231744907412584,-0.6634935140609741,-0.7265948057174683,-0.17842772603034973,2.37357497215271,4.446518421173096,-5.39736795425415,-2.493534564971924,1.7844103574752808,-1.4171228408813477
181,-1.4682016058573615,1.1828848532984952,-1.4830017460632687,-0.37626707553863525,-0.9257010817527771,-0.038739029318094254,3.459249258041382,3.3673136234283447,-0.7905927300453186,-0.09583985805511475,2.702007293701172,0.830487072467804
182,-1.4273262055178573,1.1504572972120068,-1.3671362107794067,-0.40387773513793945,-0.9129506349563599,-0.058345258235931396,-2.1533377170562744,-0.2936750650405884,2.6188478469848633,0.5614857077598572,2.165498733520508,1.1106981039047241
183,-1.3360597324137944,0.5357892656902771,-1.8871537706162413,-0.8362846970558167,-0.5105198621749878,-0.19999347627162933,-5.2331862449646,-2.8304595947265625,6.546255588531494,-2.410907745361328,1.1631841659545898,-1.2692753076553345
184,-1.4049115967106718,-0.037467685397758445,-2.232269443758058,-0.9855804443359375,0.03745891898870468,-0.16500909626483917,-2.706523895263672,0.5904271602630615,2.5607659816741943,-1.4582366943359375,-1.565901279449463,-1.4889672994613647
185,-1.305683317108179,-0.09198527222434784,-2.2316614689549605,-0.9609829783439636,0.09185560792684555,-0.26091060042381287,3.6775622367858887,0.07009658217430115,-0.9332550168037415,0.9966122508049011,-2.2685980796813965,-1.3451379537582397
186,-1.327647324675219,0.269550262170982,-1.8599099352196382,-0.9355376362800598,-0.26629796624183655,-0.2320665419101715,5.294175148010254,-0.7158065438270569,-3.7053115367889404,-2.399118185043335,-0.46046292781829834,-3.2411694526672363
187,-1.244419143772665,0.8032666123358749,-1.3682470265655418,-0.6577045321464539,-0.7196281552314758,-0.2226211428642273,4.450857639312744,4.139986038208008,-2.7666521072387695,-0.8563030362129211,2.207787275314331,-0.4818466305732727
188,-1.3603810065347801,1.0114024318398134,-0.8741486382014351,-0.5189681649208069,-0.847576916217804,-0.11083949357271194,0.9698933959007263,1.940680980682373,0.35107100009918213,0.5231338143348694,2.1737639904022217,1.2690883874893188
189,-1.2091551252407735,0.8511792622529105,-1.0576068712355093,-0.6164647340774536,-0.7520581483840942,-0.23319488763809204,-4.141843318939209,-2.517040491104126,3.365755796432495,0.7066746950149536,2.200269937515259,1.0370583534240723
190,-1.4069462910064112,0.16878767275867704,-1.425210589427301,-0.9725860357284546,-0.1679873764514923,-0.16079983115196228,-5.056850910186768,-0.6688652634620667,6.068284511566162,-2.934792995452881,1.2309908866882324,-1.5510226488113403
191,-1.5197268294919002,-0.3056851900476384,-1.763129069820524,-0.9523977637290955,0.3009466826915741,-0.048680804669857025,-2.798203229904175,-0.3188048005104065,2.544372797012329,-0.8064676523208618,-1.239316463470459,-1.2738289833068848
192,-1.552468452563081,-0.3567744365237095,-1.8439536181221103,-0.9368708729743958,0.3492536246776581,-0.01717277429997921,2.4583349227905273,0.6382753252983093,-2.022345542907715,0.10841017961502075,-2.450587272644043,-1.5855798721313477
193,-1.4232487292862859,0.06393726509494264,-1.5236793502012718,-0.9871134757995605,-0.06389371305704117,-0.14671243727207184,5.032712459564209,1.4534096717834473,-4.486715316772461,-2.3127217292785645,-0.18342071771621704,-2.4488685131073
194,-1.358672628031934,0.5510282553501956,-1.1203024540510182,-0.8328903317451477,-0.5235635638237,-0.17937427759170532,5.118684768676758,3.0351884365081787,-3.8910510540008545,-1.9094194173812866,1.8704720735549927,-1.3327717781066895
195,-1.208024055359722,0.9806108211625318,-0.6903569945259064,-0.5202952027320862,-0.8308374285697937,-0.19748908281326294,1.6674634218215942,3.719923496246338,-1.649099349975586,0.48338425159454346,2.282451868057251,0.5385688543319702
196,-1.2063612639369095,0.986868450381019,-0.5315566970182534,-0.5150983333587646,-0.834303617477417,-0.19649700820446014,-0.9640358686447144,0.6501873731613159,2.086087465286255,0.5576398968696594,2.0879809856414795,1.4717044830322266
197,-1.3096058536981106,0.38721163896150107,-0.8436849305959202,-0.894559919834137,-0.37760797142982483,-0.23911288380622864,-4.983538627624512,-4.3156561851501465,4.85655403137207,-2.9333362579345703,0.8371873497962952,-0.8934555053710938
198,-1.4238087768797558,-0.09135899874923387,-1.1985200914539287,-0.9850913286209106,0.09123196452856064,-0.14584803581237793,-3.791898488998413,0.30505895614624023,1.3929424285888672,-1.4963233470916748,-0.8634793162345886,-0.9029190540313721
199,-1.3969382465274975,-0.1790037325356329,-1.3362454509450081,-0.9691870808601379,0.17804931104183197,-0.1702195256948471,1.0205777883529663,-0.4869612455368042,-0.8406537175178528,0.9695075750350952,-2.342600107192993,-1.1820753812789917
200,-1.3670563255590225,0.1758978585254651,-1.0751310145394821,-0.9642056226730347,-0.17499221861362457,-0.19921132922172546,4.304388999938965,1.8628066778182983,-4.854195594787598,-1.8278628587722778,-0.8417009115219116,-2.789161443710327
201,-1.2000105597101998,0.7431816577553376,-0.6632812473051651,-0.6862814426422119,-0.6766340732574463,-0.2668038606643677,4.756333827972412,3.3469014167785645,-3.2337019443511963,-2.076169729232788,1.6217024326324463,-0.8735159635543823
202,-1.248485488308371,1.0659100943085755,-0.22478480928593544,-0.4588000178337097,-0.87522953748703,-0.15321901440620422,2.116377830505371,1.323042631149292,-0.9631108641624451,0.09783804416656494,2.346344470977783,0.8249567151069641
203,-1.170352904256624,1.0127384306803509,-0.25566998698609933,-0.48764708638191223,-0.8482851386070251,-0.20642881095409393,-2.740680694580078,-0.6723787784576416,2.316073179244995,0.45319268107414246,2.2387726306915283,1.3133318424224854
204,-1.381945736184276,0.33284733372256886,-0.6073331088418571,-0.9283123016357422,-0.32673540711402893,-0.17742663621902466,-4.871677398681641,-2.232686996459961,6.153225898742676,-3.439424514770508,1.013228416442871,-0.9263483881950378
205,-1.468274440814972,-0.16548748735559102,-0.9444522192611805,-0.9811591506004333,0.1647331714630127,-0.10094419866800308,-2.909590721130371,0.28542089462280273,1.9758628606796265,-1.0216636657714844,-1.2727806568145752,-1.2204210758209229
206,-1.3989049562430027,-0.17376991364341846,-1.0104803628022578,-0.970425009727478,0.17289671301841736,-0.16847020387649536,1.504539132118225,1.3717515468597412,-0.938448429107666,1.422619104385376,-2.2836601734161377,-0.8675709962844849
207,-1.3829380474634707,0.0619017719274544,-0.7159072440777919,-0.9805248379707336,-0.061862245202064514,-0.18639759719371796,4.453557968139648,-0.6988264322280884,-2.123589038848877,-1.8036547899246216,-0.9557158946990967,-2.701740264892578
208,-1.2633921951364595,0.5821448936151712,-0.2379132773254702,-0.7961289882659912,-0.5498167872428894,-0.2527451813220978,5.11465311050415,3.6185736656188965,-3.9763264656066895,-1.6026442050933838,2.1775481700897217,-0.8527388572692871
209,-1.3448679905355463,0.9858453912690083,0.23932777638846026,-0.5381261706352234,-0.833739161491394,-0.123689666390419,3.03606915473938,2.625014066696167,-2.340895652770996,0.3411809802055359,3.0543813705444336,1.0569934844970703
210,-1.224743862348833,0.8627575892952806,0.16705203659988582,-0.6117921471595764,-0.7596388459205627,-0.22058862447738647,-3.052873134613037,-2.358003616333008,3.330355167388916,0.09554153680801392,2.562190055847168,0.835411012172699
211,-1.3174619882467768,0.22322025891217634,-0.25380533169237385,-0.9440637230873108,-0.221371129155159,-0.24441497027873993,-5.273788928985596,-1.6392117738723755,5.627126216888428,-2.4326910972595215,1.075390338897705,-2.0489046573638916
212,-1.4238661564791573,-0.2270902871057665,-0.6356206535059222,-0.9638275504112244,0.22514347732067108,-0.14264331758022308,-3.1613340377807617,-0.46545663475990295,1.8970603942871094,-0.9021393656730652,-1.3623809814453125,-1.5535236597061157
213,-1.40672068948897,-0.2695302573686353,-0.7243702377253989,-0.9509508013725281,0.2662786841392517,-0.15744322538375854,2.362496852874756,-0.04864784702658653,-0.6790618896484375,0.9420243501663208,-2.458920955657959,-0.8649414777755737
214,-1.4406922136817664,-0.00037470565106929215,-0.41986254002554074,-0.9915483593940735,0.0003747056471183896,-0.12973737716674805,5.168903827667236,-0.9069286584854126,-2.5672309398651123,-1.3239881992340088,-0.5831231474876404,-2.711815357208252
215,-1.3936226801115466,0.4994817998796793,0.08889714777904044,-0.8640890717506409,-0.4789707064628601,-0.15471608936786652,4.35093879699707,3.2497549057006836,-4.460079669952393,-1.8872231245040894,1.8583652973175049,-1.3848804235458374
216,-1.3793726112952325,0.864711080592549,0.5397079716116753,-0.6370082497596741,-0.7609078288078308,-0.12345004826784134,3.12833571434021,3.5086095333099365,-1.085557222366333,0.4995570182800293,2.603238582611084,0.5533359050750732
217,-1.290988846151961,0.8402441569010233,0.6523310043228645,-0.6413294672966003,-0.7448060512542725,-0.18428339064121246,-0.9826082587242126,0.4766359329223633,2.4517781734466553,0.7195308208465576,2.50156569480896,0.9090300798416138
218,-1.2304724760914647,0.2956153124805992,0.4455269576090538,-0.901757538318634,-0.2913285195827484,-0.31931349635124207,-7.333410739898682,-4.280932903289795,5.9904351234436035,-0.7730013728141785,2.0322799682617188,-0.43405866622924805
219,-1.397256983171455,-0.3320053518338553,0.013533800494833374,-0.9311906099319458,0.3259395360946655,-0.1632402241230011,-4.833012104034424,0.716235876083374,1.7218037843704224,-2.552589178085327,-0.760189414024353,-1.7872602939605713
220,-1.3863528309085098,-0.39654259026737837,-0.27286391001358484,-0.906756579875946,0.38623154163360596,-0.16916805505752563,-0.12957297265529633,0.983954906463623,-1.3262174129486084,0.44894713163375854,-2.606369972229004,-0.7426209449768066
221,-1.3976370365345976,-0.15149811194593982,-0.07073547069256557,-0.9737628102302551,0.15091925859451294,-0.17032180726528168,3.8664190769195557,-0.9526585936546326,-3.079160213470459,-0.23171204328536987,-1.1992895603179932,-1.4379545450210571
222,-1.4259626459051833,0.32612285429305776,0.320207386466754,-0.9373733997344971,-0.32037267088890076,-0.13672056794166565,4.202838897705078,1.205445408821106,-5.049994945526123,-3.514256238937378,1.1121206283569336,-2.6015148162841797
223,-1.3741563373962,0.8353856315512792,0.7636532694360185,-0.6579628586769104,-0.7415552735328674,-0.1310756355524063,4.355428218841553,3.2492377758026123,-2.814535617828369,0.0167427659034729,3.032097816467285,0.3225886821746826
224,-1.3984943448691065,0.8917677711155284,0.9635122864773701,-0.6187378168106079,-0.7781831622123718,-0.10767743736505508,-0.6816457509994507,-1.2253636121749878,2.934204578399658,1.1254364252090454,2.5959627628326416,1.2384147644042969
225,-1.4301585337354872,0.3736484733979945,0.7393737234943911,-0.9218097925186157,-0.36501458287239075,-0.1305028349161148,-4.748297691345215,-4.097908020019531,7.127960681915283,-1.1643869876861572,2.1777281761169434,-0.6994227170944214
226,-1.4834402481489801,-0.22478212638664719,0.4584015442462265,-0.971125602722168,0.22289396822452545,-0.08505018055438995,-2.6522364616394043,0.4298970699310303,3.3868610858917236,-2.553715705871582,-0.6826260089874268,-1.1288018226623535
227,-1.4571371702836855,-0.39171253710606774,0.23759309235293508,-0.9182931184768677,0.3817718029022217,-0.10482420027256012,-0.7356253862380981,0.028152739629149437,0.2668397128582001,0.5384560823440552,-2.342083692550659,-0.6644629240036011
228,-1.455370317559074,-0.30267758505077386,0.4501572190192523,-0.9481902122497559,0.29807713627815247,-0.10993447154760361,3.74957537651062,-1.0705690383911133,-2.143798828125,-0.03032553195953369,-1.623058795928955,-1.0437673330307007
229,-1.6549485500035799,-0.02115559885275672,0.8599628283455043,-0.9962381720542908,0.021154019981622696,0.08403411507606506,3.0643842220306396,-1.4659547805786133,-4.591278553009033,-3.2891316413879395,1.0582832098007202,-1.5437815189361572
230,-1.6974674299764811,0.42057968317672884,1.1909074550727696,-0.9055386185646057,-0.40828970074653625,0.11532304435968399,0.7417227625846863,1.7830429077148438,-4.901853084564209,-0.5733432173728943,2.050074338912964,-0.4586763381958008
231,-1.6413162829595267,0.7819054267361871,1.313702777943583,-0.7078084945678711,-0.7046327590942383,0.04999753087759018,-0.1871555894613266,0.4057949483394623,-1.2489067316055298,1.500349998474121,2.302578926086426,0.7561700344085693
232,-1.5358603017161931,0.5716794622943875,1.1209248069464888,-0.840480387210846,-0.5410452485084534,-0.029374996200203896,-3.0187265872955322,-0.42850157618522644,4.915579319000244,1.3782153129577637,2.271498680114746,1.1727466583251953
233,-1.620427106973661,-0.1609984632593125,0.7618807104917292,-0.9858523011207581,0.16030383110046387,0.048968832939863205,-1.3904838562011719,0.7973585724830627,7.594296455383301,-3.1647214889526367,1.1598103046417236,-1.1589083671569824
234,-1.5625151733138785,-0.5666938809387776,0.5781232035250451,-0.8436515927314758,0.5368456840515137,-0.006986568216234446,-1.3231488466262817,2.203457832336426,1.6948908567428589,-1.095710039138794,-1.4356951713562012,-0.6330128312110901
235,-1.4643753621356161,-0.5936563860212194,0.6125588601336316,-0.8242114782333374,0.5593955516815186,-0.08804601430892944,2.425520420074463,-1.3953852653503418,-0.8778602480888367,0.1574329137802124,-2.5120933055877686,-0.6889315247535706
236,-1.5303708257602462,-0.26841176754042917,0.8833283100748531,-0.9634057283401489,0.2652004063129425,-0.03896738961338997,2.73439359664917,-2.099111557006836,-3.9692442417144775,-2.374805450439453,-0.4049251079559326,-1.659076452255249
237,-1.4217369078446782,0.3219002148852859,1.1332914011276525,-0.9381167888641357,-0.3163697421550751,-0.14088007807731628,3.1385486125946045,3.211890697479248,-5.52614164352417,-1.5490353107452393,2.273629903793335,-0.7541089057922363
238,-1.2663419880746563,0.7582458272280231,1.3392226317300076,-0.6926531195640564,-0.6876488924026489,-0.21764793992042542,1.8363245725631714,2.068796157836914,-1.1059399843215942,1.5825457572937012,2.6153528690338135,1.214901328086853
239,-1.187550356293691,0.561040321819037,1.3040394371577244,-0.7852787375450134,-0.5320672988891602,-0.31660979986190796,-2.4017677307128906,-2.121957302093506,3.301093101501465,0.8599094152450562,2.2020349502563477,0.9392446279525757
240,-1.30297434160333,0.037605817323976054,0.9660977462938384,-0.9636678695678711,-0.03759695589542389,-0.26444461941719055,-5.94720983505249,-1.1211156845092773,3.8482038974761963,-2.484757423400879,1.4751121997833252,-1.8304498195648193
241,-1.3339256130305808,-0.33888807879303334,0.6594763204426906,-0.9167900085449219,0.3324386179447174,-0.2213154435157776,-3.309441566467285,1.053304672241211,0.6962652206420898,-1.2445411682128906,-1.039332628250122,-1.2048319578170776
242,-1.2821331695793305,-0.2015814825159905,0.37401633633385095,-0.9392142295837402,0.2002190351486206,-0.2789066731929779,-1.6999964714050293,1.5940760374069214,-2.6989715099334717,1.6964163780212402,-1.4775322675704956,-0.4263392388820648
243,-1.2650684977054256,0.03530631501411964,0.4087512050566449,-0.9530338048934937,-0.03529898077249527,-0.30079975724220276,2.091125726699829,2.1623635292053223,-2.231229305267334,0.21598851680755615,-0.7472937703132629,-0.9039426445960999
244,-1.1090107637329374,0.4224875268418354,0.6119480707109725,-0.816540002822876,-0.4100305140018463,-0.40637120604515076,5.888083457946777,5.515963077545166,-3.8547701835632324,-4.064594268798828,1.1620293855667114,-1.7497414350509644
245,-0.9349724396571961,0.8309513083190052,1.0137833866482935,-0.5424282550811768,-0.7385730743408203,-0.40035152435302734,3.0352702140808105,1.7044721841812134,-0.44073593616485596,-0.05728787183761597,2.220949172973633,1.4863805770874023
246,-1.0186965035712139,0.8068252699481951,1.1166098852186714,-0.5890110731124878,-0.7220945358276367,-0.36282971501350403,-2.3273203372955322,-1.9002656936645508,1.8700006008148193,0.6964482665061951,2.1165952682495117,1.6524872779846191
247,-1.2238691123027194,0.3638136170564349,0.9026425430732791,-0.8788681030273438,-0.355840802192688,-0.3177548944950104,-5.963472366333008,-5.480870246887207,4.624804496765137,-1.8898239135742188,0.770940899848938,-0.44693928956985474
248,-1.2525824573731887,-0.022158222737403897,0.5636975811296225,-0.9495625495910645,0.022156409919261932,-0.3127937614917755,-2.6534154415130615,0.6353167295455933,0.8740534782409668,-0.7421030402183533,-1.0314794778823853,-0.7062643766403198
249,-1.2583671887096404,-0.1359281278867495,0.30368778871713736,-0.9428122043609619,0.1355099380016327,-0.3045358657836914,-1.8606178760528564,-0.11088158935308456,-0.6706889271736145,0.7156241536140442,-1.4604153633117676,-0.4229726493358612
250,-1.1951255070045055,0.005049714717654974,0.3128666894249476,-0.9302499294281006,-0.005049693398177624,-0.366892009973526,3.27453351020813,0.7776151895523071,-1.347934603691101,0.529462456703186,-0.8428049087524414,-0.9733942747116089
251,-1.2866634560782821,0.2873957944820207,0.7462964319091352,-0.9205349683761597,-0.2834557890892029,-0.26882776618003845,5.824429035186768,2.244061231613159,-4.360407829284668,-3.7768070697784424,1.0234612226486206,-1.0619522333145142
252,-1.2206952214406437,0.7666332362358387,1.0745151299505842,-0.6765585541725159,-0.6937142610549927,-0.24704067409038544,2.985318422317505,1.4047569036483765,-2.2118608951568604,0.6333914995193481,2.3880653381347656,0.7245034575462341
253,-1.1309554387276808,0.821592790815013,1.1414599162878212,-0.6162325739860535,-0.7322315573692322,-0.28999054431915283,-2.042833089828491,-0.648089587688446,1.7659000158309937,1.1975467205047607,2.181663990020752,1.5380984544754028
254,-1.1955221946531518,0.3514294314288892,0.8376886608608791,-0.873542070388794,-0.3442402184009552,-0.34412598609924316,-6.672244071960449,-6.135934352874756,5.604348182678223,-1.5046926736831665,1.9910602569580078,-0.45314571261405945
255,-1.3060276140851153,-0.15433123655272526,0.47733946328914423,-0.9536818861961365,0.15371932089328766,-0.25857582688331604,-4.428598403930664,-0.0009006182663142681,2.0489745140075684,-1.6051865816116333,-0.620897650718689,-1.0729671716690063
256,-1.3711288748360697,-0.3034286891163623,0.11773114636064443,-0.9353576898574829,0.2987940013408661,-0.1892825812101364,-2.4053609371185303,0.06130535900592804,-0.671069860458374,0.8684632778167725,-1.702770471572876,-0.9112576246261597
257,-1.3358000887644654,-0.15188187489993749,0.11127100551381232,-0.9613197445869446,0.1512986123561859,-0.23015891015529633,2.372518539428711,0.6924661993980408,-2.4501242637634277,-0.11530989408493042,-1.1814500093460083,-1.4799546003341675
258,-1.1853620144829589,0.24967171935066684,0.4259437965692979,-0.897903561592102,-0.24708586931228638,-0.36430439352989197,5.762305736541748,4.866255760192871,-4.121899127960205,-3.497955083847046,1.6011966466903687,-1.6486502885818481
259,-1.0925345579196142,0.7168945868697305,0.7496723232926239,-0.6692649722099304,-0.6570468544960022,-0.3469492793083191,3.360027551651001,1.4307441711425781,-1.5100455284118652,0.19781416654586792,2.378528118133545,0.5708110332489014
260,-1.0646874521167142,0.8563902316803612,0.8800088586438218,-0.5730352997779846,-0.7554824948310852,-0.3176112473011017,-1.564180850982666,-0.20924413204193115,0.18311110138893127,1.2184972763061523,2.166233777999878,2.409423351287842
261,-1.1171737171055152,0.5187692602307505,0.5054515750759698,-0.7806018590927124,-0.49581170082092285,-0.3805674612522125,-6.967909812927246,-5.406365871429443,3.454681873321533,-0.8422161340713501,1.5183641910552979,0.4272593855857849
262,-1.3124255584047175,0.007090591730153845,0.10287902101160669,-0.9667832255363464,-0.007090532220900059,-0.25549930334091187,-3.9167866706848145,-1.2718178033828735,2.639906883239746,-1.6211378574371338,-0.6833849549293518,-1.3182158470153809
263,-1.412968368785429,-0.21057440032701344,-0.15240608961472052,-0.9657565951347351,0.2090216428041458,-0.15370173752307892,-1.568501591682434,0.006282737944275141,0.3150123357772827,0.6169101595878601,-1.593131184577942,-0.8791504502296448
264,-1.371594726281324,-0.11290527337424715,-0.021798048772524663,-0.9739837646484375,0.11266554892063141,-0.19662684202194214,5.549152374267578,-0.09632885456085205,-1.1008636951446533,-0.8586730360984802,-1.2483314275741577,-1.6034982204437256
265,-1.443134743232377,0.28935708397390214,0.45800351702428427,-0.9506281614303589,-0.28533610701560974,-0.12202230095863342,4.081151008605957,-0.8219380974769592,-4.217636585235596,-2.2066900730133057,1.0680357217788696,-1.0269949436187744
266,-1.4878665781745117,0.6704866934331835,0.6935427240481541,-0.7808266282081604,-0.6213673949241638,-0.06490261107683182,1.3286149501800537,0.8629453182220459,-2.4795494079589844,0.4411812424659729,1.927351951599121,-0.1704641580581665
267,-1.5187747204983024,0.8098028313488712,0.7820546123444186,-0.6887083649635315,-0.7241511940956116,-0.03586006909608841,-0.9508101940155029,1.8977073431015015,-1.139864206314087,0.979952871799469,1.9349818229675293,0.8045520782470703
268,-1.2769974900005607,0.5836542499327906,0.4622749282477156,-0.7986986637115479,-0.5510768890380859,-0.24164997041225433,-6.150115013122559,-2.8615715503692627,5.26459264755249,0.26001763343811035,1.3160152435302734,0.609737753868103
269,-1.281430013052155,0.0795369984123602,0.11490782938843877,-0.955394983291626,-0.07945316284894943,-0.28444287180900574,-3.191601037979126,0.15876616537570953,2.0227410793304443,-1.685535192489624,-0.8711541295051575,-0.8668632507324219
270,-1.2605846959617477,-0.0717745670181463,-0.11994740196535529,-0.9498171806335449,0.07171295583248138,-0.30447423458099365,-1.454037070274353,-0.5196732878684998,-0.3469386696815491,0.8196597695350647,-1.563122272491455,-0.37904322147369385
271,-1.257112097543489,0.08238768314792366,-0.13287722350357903,-0.9479768872261047,-0.0822945088148117,-0.3075185716152191,2.3491263389587402,0.4593926668167114,-2.4188051223754883,0.010690391063690186,-0.8573264479637146,-1.0580514669418335
272,-1.283438291854782,0.4528412664785119,0.1762470406526758,-0.8623365759849548,-0.43752217292785645,-0.2548530697822571,5.629354953765869,2.348345994949341,-4.057687759399414,-2.9690842628479004,0.6498329639434814,-1.2359459400177002
273,-1.2949947246928872,0.87872053923181,0.5874322728396383,-0.6140198111534119,-0.7699230313301086,-0.17377634346485138,2.064199447631836,1.5493584871292114,-1.8589009046554565,0.017874181270599365,1.8093364238739014,0.5321137309074402
274,-1.2656342531161198,1.0047156678340032,0.7034223113358467,-0.5115489959716797,-0.844009518623352,-0.1611386388540268,-0.560413122177124,-0.8027191162109375,1.105989933013916,1.0626811981201172,1.990249752998352,1.2383023500442505
275,-1.2719169094612206,0.7020314817500845,0.46729090353569336,-0.7296823263168335,-0.6457701325416565,-0.22482159733772278,-5.17007303237915,-3.7726807594299316,4.664175510406494,0.015403151512145996,1.3251676559448242,0.6989121437072754
276,-1.433244223224515,0.13423506015607514,0.026644150868912402,-0.9816434979438782,-0.13383229076862335,-0.13588522374629974,-3.5380494594573975,-0.4127539396286011,3.213524341583252,-2.6133270263671875,-0.5042749643325806,-0.9866123199462891
277,-1.4380190934573536,-0.07549801887968398,-0.3026153039557118,-0.9883745312690735,0.07542631775140762,-0.1320103257894516,-2.8705666065216064,0.12103006988763809,0.3608495593070984,0.551042377948761,-1.691469430923462,-1.0391170978546143
278,-1.4103588710905348,0.059965020932878484,-0.35189444012002974,-0.9853832125663757,-0.05992909148335457,-0.15946292877197266,2.520721197128296,1.3489094972610474,-2.372285842895508,0.435837984085083,-0.8986585140228271,-1.3485326766967773
279,-1.3114637739668742,0.39696639528637656,-0.018438738607749708,-0.8913997411727905,-0.38662242889404297,-0.23649458587169647,4.862490177154541,2.8222272396087646,-2.8040268421173096,-2.961902141571045,0.31525707244873047,-1.597001552581787
280,-1.2325379421069935,0.8252221105186586,0.4683570305715467,-0.6399520635604858,-0.734698474407196,-0.225121408700943,3.669194459915161,3.676905393600464,-2.4452078342437744,-0.42062538862228394,2.0303525924682617,0.4183128774166107
281,-0.9625871859950396,0.9888280277418278,0.578733343021727,-0.45109862089157104,-0.835382342338562,-0.3140803575515747,-1.2477725744247437,-0.3850124776363373,1.4133386611938477,1.0517914295196533,2.246286392211914,1.3645259141921997
282,-1.1493305258154742,0.6568636561416579,0.395898060193024,-0.7226114273071289,-0.6106361746788025,-0.3239697217941284,-4.715586185455322,-3.936535358428955,2.710756540298462,-0.7983083724975586,1.3026374578475952,0.13602718710899353
283,-1.262456597049659,0.23497578566753932,-0.014940488681323241,-0.9266547560691833,-0.23281943798065186,-0.29513755440711975,-4.8727192878723145,-1.4101500511169434,2.89644455909729,-2.107036590576172,-0.15321266651153564,-1.4725626707077026
284,-1.3633283562911451,-0.043026089347222685,-0.3163768833712199,-0.9776500463485718,0.043012816458940506,-0.20579220354557037,-2.433990478515625,-1.1739333868026733,1.1668473482131958,0.278797447681427,-1.1269361972808838,-0.8371002078056335
285,-1.3788020612985106,-0.04198699288746135,-0.38850666765810604,-0.9807604551315308,0.04197465628385544,-0.19064870476722717,1.3193285465240479,0.32520195841789246,-1.3122190237045288,1.1970996856689453,-1.3370033502578735,-0.9235633611679077
286,-1.4047991417981285,0.19353152077620198,-0.20093429330157817,-0.9678418040275574,-0.1923256814479828,-0.16215111315250397,1.759540319442749,-2.600327968597412,-0.9046192169189453,-1.2659838199615479,-0.7305716276168823,-1.3749123811721802
287,-1.2339010193219324,0.5643311400549393,0.14872653637054883,-0.7974483370780945,-0.5348507761955261,-0.27930429577827454,3.3948731422424316,4.400979995727539,-2.998326301574707,-0.7289798855781555,1.6242520809173584,0.33228281140327454
288,-1.0289975672990403,0.8334389615630374,0.3438943778361842,-0.5760441422462463,-0.7402478456497192,-0.34670791029930115,0.6180068850517273,1.6146994829177856,-1.590828776359558,0.5475559830665588,2.131345748901367,1.6388527154922485
289,-0.9719385363658708,0.716654891329608,0.20249430478773134,-0.6227948665618896,-0.6568661332130432,-0.42503342032432556,-3.189669132232666,-2.8567087650299072,1.877934217453003,0.2790296673774719,1.7019100189208984,1.337493658065796
290,-1.2720935547950578,0.2209694419892336,-0.17089099842459393,-0.9324811697006226,-0.21917559206485748,-0.2871253788471222,-3.919135570526123,-2.077836275100708,3.130467176437378,-1.771315336227417,0.1473829746246338,-1.1521599292755127
291,-1.445359404806215,-0.05445152046611404,-0.4380411838347645,-0.9906726479530334,0.05442461743950844,-0.12492281198501587,-2.5694470405578613,-0.26578181982040405,0.791813850402832,-0.11674922704696655,-0.7831538915634155,-0.8802499175071716
292,-1.499344184282169,-0.05903893176157079,-0.5941278541551254,-0.9957106113433838,0.059004638344049454,-0.07126697897911072,-0.03492005914449692,-0.03034815564751625,-1.3077573776245117,1.4326916933059692,-1.505339503288269,-1.393561601638794
293,-1.4077433954798284,0.21329682688051183,-0.3884954727120676,-0.9643752574920654,-0.21168315410614014,-0.15865270793437958,2.5843403339385986,1.5729635953903198,-3.914036512374878,-1.128504991531372,-0.7861195802688599,-1.4876638650894165
294,-1.2062501081318713,0.6397510562535546,-0.018945400063802423,-0.7495254874229431,-0.5969957709312439,-0.28602051734924316,5.105581760406494,4.05798864364624,-2.5885655879974365,-2.7947096824645996,1.3058122396469116,-0.47064757347106934
295,-1.0256861060031497,0.9555326597660002,0.28966264131959973,-0.49352404475212097,-0.8166213035583496,-0.29927170276641846,2.0888524055480957,2.802969217300415,-1.1672955751419067,0.15630486607551575,2.1260695457458496,0.979889988899231
296,-1.0671770649958976,0.9576414353591084,0.3953511552479656,-0.5040034055709839,-0.817836582660675,-0.27771154046058655,-1.2059956789016724,-1.5701017379760742,1.5642656087875366,0.30714982748031616,1.9658622741699219,1.2072159051895142
297,-1.176687890645802,0.5311622981695033,0.06676325910500276,-0.7961207032203674,-0.5065358281135559,-0.33107930421829224,-4.661197185516357,-4.450738430023193,3.3282716274261475,-2.61606502532959,0.7397663593292236,-1.7365171909332275
298,-1.3306349899524479,0.1229761991270846,-0.1862642316068885,-0.9639643430709839,-0.12266647070646286,-0.23606301844120026,-3.4908089637756348,-1.2161946296691895,2.1837680339813232,-0.6016178727149963,-0.7381428480148315,-0.8631496429443359
299,-1.4156636591433196,-0.05948799566379058,-0.3961025044185603,-0.9862433671951294,0.05945291742682457,-0.15423786640167236,-1.0799152851104736,-0.41230258345603943,-0.09578346461057663,0.8731452226638794,-1.7125290632247925,-1.2065867185592651
300,-1.3740247923709161,0.11262007501033902,-0.22639399429638174,-0.9744901061058044,-0.11238215863704681,-0.19426566362380981,3.559879779815674,1.4288032054901123,-2.913241147994995,-0.7129640579223633,-0.884566068649292,-1.330896019935608
301,-1.2583439562748697,0.5670546681269784,0.11198275254468033,-0.8026472330093384,-0.5371500253677368,-0.25928205251693726,4.294580936431885,2.6368355751037598,-3.6784582138061523,-2.613124370574951,0.9500681161880493,-0.6166486740112305
302,-1.0075885915760967,0.9256841516161304,0.2984107048906003,-0.5084171295166016,-0.7990323305130005,-0.32102835178375244,2.711615800857544,3.243734359741211,-0.9515763521194458,0.35753822326660156,2.374197244644165,0.8973985910415649
303,-1.0066702420260747,0.8620499391273605,0.41058974758214467,-0.5500323176383972,-0.7591784000396729,-0.348012238740921,-1.5553309917449951,-1.3860180377960205,2.728588581085205,0.4261004328727722,1.9789966344833374,1.1953938007354736
304,-1.1860976584886593,0.45632702091349675,0.21748646613660239,-0.8320673108100891,-0.4406539499759674,-0.3368801474571228,-5.9979400634765625,-5.462737083435059,4.176755905151367,-1.6181280612945557,1.04139244556427,-0.3829074501991272
305,-1.360003734309746,-0.06378748874624089,-0.13627221913452167,-0.9758766889572144,0.06374423950910568,-0.208809494972229,-2.5705037117004395,-2.172997236251831,4.376407623291016,-1.2591086626052856,-0.5276724696159363,-1.373496413230896
306,-1.434347448201935,-0.295386674051984,-0.3495051597108362,-0.947797417640686,0.2911098003387451,-0.13013452291488647,-0.9072864651679993,-0.023652400821447372,0.05173371732234955,0.4504982829093933,-2.04553484916687,-1.1839065551757812
307,-1.3985471149610533,-0.07701817921321868,-0.25245989950472997,-0.9822811484336853,0.07694205641746521,-0.17089059948921204,3.299421787261963,1.0197992324829102,-3.1464650630950928,-0.6860995292663574,-0.7916027307510376,-1.5133745670318604
308,-1.348209644782657,0.33139497187232375,0.13395138904930076,-0.9222614169120789,-0.3253624141216278,-0.2087419033050537,5.82923698425293,1.7230981588363647,-2.4601566791534424,-2.3457133769989014,1.3054344654083252,-1.4282057285308838
309,-1.3805774891027194,0.6937048432773475,0.562834541027254,-0.7550141215324402,-0.6393901705741882,-0.14537553489208221,2.1547529697418213,2.255297899246216,-2.4716527462005615,0.3115326762199402,1.9781657457351685,0.41997265815734863
310,-1.2627496065499497,0.8175764843301555,0.5659383385084048,-0.651793897151947,-0.729490339756012,-0.2073846161365509,-1.5717403888702393,-0.6231926083564758,0.7189687490463257,0.8825984597206116,1.8950482606887817,0.911898136138916
311,-1.2714696538177421,0.4877705377658809,0.2638516747474084,-0.8441006541252136,-0.46865758299827576,-0.2604883313179016,-5.6358184814453125,-4.004113674163818,4.887758731842041,-0.9633334279060364,1.3458548784255981,-0.1660100817680359
312,-1.3225205983034962,0.03943705634558794,-0.13398764015471154,-0.9685838222503662,-0.039426833391189575,-0.24554185569286346,-4.624210357666016,0.006410958245396614,1.4822754859924316,-0.991590678691864,-0.760042130947113,-0.7621027827262878
313,-1.4170488316036483,-0.13022113612723893,-0.39660063252515476,-0.9798373579978943,0.12985341250896454,-0.15184588730335236,-0.33781418204307556,-0.20893509685993195,-0.08226644992828369,0.5365541577339172,-1.8087931871414185,-1.0322819948196411
314,-1.401333876148706,0.05112686199060458,-0.28501065079072,-0.9843875765800476,-0.0511045902967453,-0.16843214631080627,3.545179843902588,0.7502455711364746,-2.198343276977539,0.2345706820487976,-0.899319589138031,-1.255014419555664
315,-1.3768261781133675,0.43028140068927145,0.07391526344602924,-0.8918046355247498,-0.4171265661716461,-0.17518609762191772,5.007266998291016,1.7906084060668945,-3.4598162174224854,-2.730891466140747,0.42817386984825134,-1.4886475801467896
316,-1.2719137648456196,0.8332864099463836,0.38554200667208177,-0.6426348090171814,-0.7401453256607056,-0.19800367951393127,4.012707710266113,3.081507444381714,-1.316728115081787,-0.015095293521881104,2.3142879009246826,-0.3648473024368286
317,-1.2992815352406448,0.8889034870020927,0.7011359221890998,-0.607174277305603,-0.7763811349868774,-0.1690310388803482,0.4014614522457123,1.6330013275146484,1.8533788919448853,0.4954647421836853,2.261336088180542,1.043115496635437
318,-1.2499985029928413,0.575268513854102,0.41467584946504915,-0.7962416410446167,-0.5440601110458374,-0.26457124948501587,-6.304992198944092,-3.416707992553711,4.089298725128174,-0.6835557222366333,1.282936453819275,-0.30630579590797424
319,-1.3580686788704899,0.13613430703814533,-0.03772357574609482,-0.9684153199195862,-0.13571420311927795,-0.2091735154390335,-4.415261268615723,0.07517735660076141,1.6537978649139404,-1.6037282943725586,-0.8064092397689819,-1.3681122064590454
320,-1.296471942395437,-0.002755673404312446,-0.28058503879890684,-0.9626047611236572,0.002755669876933098,-0.2708956003189087,-1.0579630136489868,0.20717445015907288,-0.017015131190419197,0.833484947681427,-1.3741393089294434,-0.3637937009334564
321,-1.3075139882686795,0.09874130949819242,-0.20455558556659675,-0.9608378410339355,-0.09858093410730362,-0.2589835226535797,3.3958194255828857,-0.7103116512298584,-0.7759605050086975,0.7489390969276428,-0.8019927740097046,-0.6124306321144104
322,-1.5210844737298002,0.2665212446544042,0.17462815161717038,-0.9635010361671448,-0.2633771002292633,-0.04793691635131836,4.548029899597168,-0.8780827522277832,-2.1830220222473145,-2.503753423690796,-0.4595079720020294,-1.3620667457580566
323,-1.5745155124877066,0.5368113244288828,0.6294350891277639,-0.8593378067016602,-0.511398434638977,0.003196051577106118,3.104691982269287,2.0426242351531982,-1.177490234375,-0.04328054189682007,1.512069821357727,-0.44054341316223145
324,-1.471894382804375,0.5939937676785239,0.7956506525497332,-0.8246621489524841,-0.5596751570701599,-0.08182766288518906,0.12100096791982651,0.564089298248291,0.9774872064590454,1.296555519104004,1.7261028289794922,0.5908455848693848
325,-1.395308419223119,0.42740866989875453,0.5322544531671994,-0.8960661292076111,-0.4145139753818512,-0.15888312458992004,-5.297865867614746,-0.4140714108943939,2.382920503616333,0.09102755784988403,2.043923854827881,0.17759035527706146
326,-1.3789752304730993,-0.016171219336098323,-0.029658857880616358,-0.9815303683280945,0.01617051474750042,-0.1906219869852066,-5.4411702156066895,1.4291757345199585,3.713536024093628,-2.2277438640594482,0.5855140686035156,-1.996313452720642
327,-1.4321462721180545,-0.3371835962387374,-0.335042066276398,-0.9346340894699097,0.3308306038379669,-0.1304238885641098,-2.2881717681884766,1.0255961418151855,0.6926577687263489,-0.7352879047393799,-1.765904426574707,-1.0279165506362915
328,-1.338824452064324,-0.2719700004701732,-0.337814486117545,-0.9374431371688843,0.2686295509338379,-0.22144685685634613,2.2152557373046875,-0.2962425649166107,-1.6099555492401123,0.7161448001861572,-1.865492343902588,-0.6102486848831177
329,-1.4051264505583654,0.07008676761191283,-0.04180007083659218,-0.9838866591453552,-0.07002940028905869,-0.16450819373130798,3.4518778324127197,-1.9109447002410889,-3.498716354370117,-1.8324737548828125,-0.6969689130783081,-1.5052764415740967
330,-1.3924516001172336,0.5651583632703715,0.20164374380218758,-0.8311087489128113,-0.5355495810508728,-0.149815633893013,2.205914258956909,2.602478265762329,-3.723951816558838,-0.7499458193778992,2.2735562324523926,-0.6026868224143982
331,-1.3945665816718664,0.7205726283001826,0.4564939636659058,-0.739789605140686,-0.6598150730133057,-0.1317395716905594,1.4469395875930786,1.0809640884399414,1.3672764301300049,1.3768441677093506,1.9900305271148682,0.9356030821800232
332,-1.388576261987398,0.5118175558336253,0.37085727147430914,-0.8574211001396179,-0.48976269364356995,-0.15799187123775482,-2.066666841506958,-0.5811442136764526,2.7043375968933105,0.6350548267364502,1.8261122703552246,0.08571101725101471
333,-1.4711801277457985,0.025595643905870186,0.046177457819897974,-0.994716465473175,-0.025592848658561707,-0.09941894561052322,-1.5902893543243408,1.488093376159668,3.55120587348938,-3.1465187072753906,-0.1290397197008133,-1.9582897424697876
334,-1.325569199626722,-0.13820624330034015,-0.136239969010529,-0.9608321189880371,0.13776668906211853,-0.24046169221401215,-1.9665836095809937,0.8425255417823792,0.34442150592803955,0.23280489444732666,-1.348368525505066,-0.20115813612937927
335,-1.3131220013493994,-0.09477468380262913,-0.2104314492975841,-0.9626457691192627,0.09463286399841309,-0.2536887526512146,1.422483205795288,-0.2589207887649536,-1.195448637008667,1.0814505815505981,-1.356748342514038,-0.3497353494167328
336,-1.3817747740918298,0.19319708783211545,0.07653900169264799,-0.9639154076576233,-0.1919974833726883,-0.1844022125005722,4.396048545837402,-0.9594346284866333,-2.2041313648223877,-1.016538143157959,-1.0146369934082031,-1.7428743839263916
337,-1.4169544493521056,0.6206576131299482,0.4756877422587594,-0.8038884997367859,-0.5815702676773071,-0.12465669959783554,4.369709014892578,3.0838141441345215,-3.8358583450317383,-1.5817925930023193,2.1053433418273926,-0.7076950073242188
338,-1.4041500511640628,0.819265819105695,0.7971204997029064,-0.673299252986908,-0.7306447625160217,-0.1132531389594078,1.4574193954467773,0.9200357794761658,0.2833896577358246,1.1226706504821777,2.116325855255127,1.0150322914123535
339,-1.3794534420300952,0.6204388451206141,0.6901734520812309,-0.7987747192382812,-0.5813922882080078,-0.1547328531742096,-2.7694265842437744,-1.3244894742965698,2.683662176132202,0.3212965130805969,1.6519031524658203,0.5796138048171997
340,-1.4078533878168409,0.23128342130809895,0.2732675378232934,-0.9604799151420593,-0.2292269617319107,-0.15790337324142456,-3.5726230144500732,0.42288443446159363,1.9524118900299072,-3.1085968017578125,-0.08664527535438538,-1.9516547918319702
341,-1.2838509049471105,0.09033404544178729,-0.03133835799234355,-0.9552022814750671,-0.09021123498678207,-0.28186988830566406,-3.104566812515259,0.08850152045488358,0.1647283136844635,0.24701136350631714,-0.8951097726821899,-0.29665184020996094
342,-1.2961511530994505,0.050354497299135596,-0.21655463385407211,-0.9613015055656433,-0.05033322051167488,-0.2708616852760315,0.27957671880722046,0.3554469048976898,-0.9794608354568481,1.3263986110687256,-1.4953973293304443,-0.6362733840942383
343,-1.2887386598946882,0.2883892911333151,0.024079931402495584,-0.920819878578186,-0.2844083905220032,-0.2668383717536926,5.097446918487549,-0.8684138655662537,-1.6020246744155884,-0.9258140325546265,-0.9330903887748718,-1.5095441341400146
344,-1.383922262746114,0.6512656581124268,0.5380663594735889,-0.7814704775810242,-0.606193482875824,-0.14776059985160828,4.431787490844727,2.785841941833496,-2.737074375152588,-1.102104902267456,1.1677017211914062,-0.22929929196834564
345,-1.3168099964859674,0.842025156777474,0.8047772033277367,-0.6445885300636292,-0.7459933161735535,-0.16733033955097198,1.004090428352356,2.0632681846618652,-0.3740277886390686,0.7082634568214417,1.6779544353485107,0.35365545749664307
346,-1.207209097083663,0.8163104975846809,0.7608862384515515,-0.6401392817497253,-0.7286238074302673,-0.24357546865940094,-2.145090341567993,0.5559279918670654,1.2140824794769287,0.7432734370231628,1.8052687644958496,0.9405969381332397
347,-1.2525879485627918,0.38109328327550857,0.3897221802021764,-0.8816575407981873,-0.37193554639816284,-0.29041993618011475,-4.2814621925354,-5.792328834533691,4.404719352722168,-3.601405143737793,1.0937221050262451,-2.7091221809387207
348,-1.1869298301744058,0.15405271166691933,0.09407633464279946,-0.9162427186965942,-0.1534440964460373,-0.3700731694698334,-2.8786509037017822,-0.7149142026901245,0.12917748093605042,0.08936893939971924,-0.8646833300590515,-0.32000550627708435
349,-1.2972610764080212,0.050756181885591285,-0.13569144522370627,-0.9615820050239563,-0.050734393298625946,-0.26978904008865356,-1.747907280921936,-1.2146599292755127,-0.6935411095619202,1.212970495223999,-1.1482402086257935,-0.27282872796058655
350,-1.2803053279944365,0.2007549830511203,-0.09611144609273929,-0.9388611316680908,-0.19940920174121857,-0.28067028522491455,3.776463747024536,0.7678507566452026,-0.9350348114967346,1.0237152576446533,-0.5193865299224854,-1.435562014579773
351,-1.4012360484947144,0.3422532604326568,0.44455647032512857,-0.9284918308258057,-0.3356105089187622,-0.158961683511734,7.093944549560547,2.4991776943206787,-1.8641514778137207,-3.816884994506836,0.7542811632156372,-2.0323681831359863
352,-1.4509703222932964,0.6363057478774173,0.9374689401729724,-0.798529326915741,-0.594228208065033,-0.09614517539739609,1.3876953125,1.0159435272216797,-1.9639116525650024,0.34566372632980347,1.6787619590759277,0.6235041618347168
353,-1.4706687337724382,0.7089536970631941,0.9848489767501752,-0.7552416324615479,-0.6510399580001831,-0.07587425410747528,-0.7661072015762329,-1.3289841413497925,1.2026525735855103,1.1051409244537354,1.7463617324829102,1.0964430570602417
354,-1.5615525276928899,0.3675542263099661,0.6782666058890208,-0.9331690073013306,-0.3593340814113617,-0.008626272901892662,-4.674959659576416,-4.009897708892822,4.6817216873168945,-2.09814190864563,0.9657336473464966,-0.9362894892692566
355,-1.4710033407777658,0.08832602850304963,0.3803172714105736,-0.9911460280418396,-0.08821123093366623,-0.09923906624317169,-2.629826068878174,1.2099202871322632,1.6585785150527954,-0.3160286545753479,-0.8182371258735657,-0.5623210072517395
356,-1.5172377794846454,-0.07630900516181809,0.3485833062886694,-0.995660126209259,0.07623496651649475,-0.05337715893983841,2.632120132446289,-0.48834896087646484,-0.2258213609457016,-0.05141317844390869,-1.9671651124954224,-1.0081157684326172
357,-1.62231617659792,0.09117291999500493,0.8452017269167853,-0.9945254921913147,-0.09104666113853455,0.05128318443894386,5.495981216430664,-2.2595174312591553,-2.5332388877868652,-0.2571989893913269,-0.7754389643669128,-1.3168318271636963
358,-1.7857591287020744,0.3403303156896926,1.2893842720339044,-0.9209489822387695,-0.33379846811294556,0.20107653737068176,3.205416202545166,3.0682361125946045,-3.7819650173187256,-1.81769859790802,1.0928163528442383,-2.127239227294922
359,-1.6739899899815935,0.516745272320153,1.6763361608676155,-0.8648066520690918,-0.4940530061721802,0.08956069499254227,2.661956310272217,2.9582362174987793,-0.9865264296531677,0.5082545280456543,1.5506936311721802,-0.23248982429504395
360,-1.5975873354691763,0.48975412118761497,1.8694442644723057,-0.8821318745613098,-0.47040891647338867,0.023638857528567314,0.4051387310028076,1.26970636844635,0.9939136505126953,0.8288481831550598,1.2698016166687012,0.7241638898849487
361,-1.537901119710195,0.29718084523902183,1.7772953111505976,-0.95564866065979,-0.2928257882595062,-0.031447604298591614,-3.7926201820373535,-0.8435087203979492,3.47963547706604,-0.07927882671356201,0.9821873307228088,0.3234398365020752
362,-1.5419409481743265,-0.04518150329218151,1.4867625852822954,-0.9985636472702026,0.04516613110899925,-0.028821932151913643,-3.52960467338562,0.7594747543334961,2.0089797973632812,-2.202791213989258,-0.05175796151161194,-0.7007007598876953
363,-1.4801664046260703,-0.23634730827055841,1.2381184884100227,-0.9682098031044006,0.23415304720401764,-0.08798982203006744,-1.5597939491271973,0.018660062924027443,1.5407050848007202,-0.036673009395599365,-1.279608964920044,-0.22489166259765625
364,-1.4600302482836858,-0.23958377607503675,1.2563644946200772,-0.9654834866523743,0.23729830980300903,-0.10738234221935272,1.0793936252593994,-0.43693897128105164,-1.9108295440673828,0.3651112914085388,-2.0033047199249268,-0.06524037569761276
365,-1.5040458736498103,0.06888675284432885,1.4636205540022407,-0.995406448841095,-0.06883228570222855,-0.06654269248247147,2.822376251220703,-1.621773362159729,-3.255258560180664,-0.9123082756996155,-0.9056091904640198,-1.1929024457931519
366,-1.5993609950724945,0.45634306826037435,1.7877831091218774,-0.8973037600517273,-0.44066834449768066,0.02563815750181675,2.5470714569091797,1.1756541728973389,-4.363305568695068,-1.902531385421753,0.8017829060554504,-0.9659152030944824
367,-1.5444257774659618,0.8090498964258839,2.0529877010901,-0.689946174621582,-0.723631739616394,-0.01819847896695137,2.2860143184661865,3.95005464553833,-2.636975049972534,0.0918322205543518,2.355116844177246,-0.013173578307032585
368,-1.3296304712667155,0.8708610980415117,2.027634209669852,-0.6255260109901428,-0.7648839354515076,-0.15384984016418457,-1.470350980758667,1.2944978475570679,1.7881951332092285,1.2242504358291626,2.4528722763061523,0.8818466663360596
369,-1.3248294776716818,0.4077506185167734,1.6974288629319074,-0.8903849720954895,-0.3965453803539276,-0.2235313355922699,-4.799642086029053,-3.379119396209717,5.041402339935303,-2.5046496391296387,1.0220794677734375,-1.6565650701522827
370,-1.3053032096378916,0.05990935133133735,1.224927458735922,-0.9632320404052734,-0.05987352132797241,-0.2619144022464752,-4.026457786560059,0.06590162217617035,1.2882943153381348,-1.389627456665039,-0.8529072403907776,-1.8867062330245972
371,-1.3641688944690804,-0.10592319163579036,0.9116875267294224,-0.9732430577278137,0.1057252287864685,-0.20401041209697723,-1.549385666847229,0.1292831003665924,-0.11251988261938095,0.8945229053497314,-1.9709901809692383,-1.3343501091003418
372,-1.24451887962571,0.05665076573088837,1.041203061553359,-0.9457224011421204,-0.05662046745419502,-0.3200049102306366,4.161652565002441,0.49913719296455383,-3.0143444538116455,-0.46998798847198486,-1.2840625047683716,-1.669497013092041
373,-1.1338773984939439,0.6005762298928091,1.425492497979992,-0.7475084066390991,-0.5651179552078247,-0.3491028845310211,4.961209297180176,2.7786271572113037,-3.4181020259857178,-2.5682263374328613,0.993722140789032,-1.0225706100463867
374,-0.9962255011327023,0.9546205933244278,1.6923692996167974,-0.48511967062950134,-0.8160945177078247,-0.3140840530395508,1.5447911024093628,3.319495677947998,-0.25818997621536255,0.5650299191474915,2.5781335830688477,1.3779420852661133
375,-0.9683607686067781,0.7400645315613548,1.6333772707168752,-0.6084312200546265,-0.6743355393409729,-0.41842925548553467,-3.2138681411743164,-2.897242784500122,2.3288350105285645,0.17769086360931396,1.9571266174316406,0.6895016431808472
376,-1.1575666052050304,0.3072034688831063,1.4048699810620222,-0.8729522824287415,-0.30239421129226685,-0.38276901841163635,-4.207141399383545,-2.541813850402832,2.8245744705200195,-2.073504686355591,0.6081346273422241,-1.6655707359313965
377,-1.2122141183252038,0.02308913206180551,1.1306365214836043,-0.9361457824707031,-0.02308708056807518,-0.35085344314575195,-3.699439287185669,-0.5326015949249268,0.49820029735565186,-0.5358543395996094,-0.8689722418785095,-0.49350690841674805
378,-1.296713238803467,-0.08402811979139013,0.9021203570143714,-0.9592771530151367,0.08392927050590515,-0.26970937848091125,-1.13709557056427,0.01626313105225563,-0.7428867816925049,0.8985167145729065,-1.6073362827301025,-0.42406198382377625
379,-1.3065560286089855,0.10556739172793068,0.9578652861655172,-0.9599173069000244,-0.10537141561508179,-0.2597220242023468,2.5888237953186035,-0.04774528369307518,-3.2520134449005127,-0.3035866618156433,-0.8664608001708984,-0.8045938014984131
380,-1.2343614643834344,0.5201683162622479,1.2057496988148184,-0.8190882802009583,-0.4970262050628662,-0.286460280418396,4.301357746124268,2.1542720794677734,-3.1863198280334473,-2.4458959102630615,0.3627031147480011,-1.017922043800354
381,-1.149681027642772,0.865068211157594,1.4950127719187496,-0.5919234156608582,-0.7611395120620728,-0.2651289701461792,2.3117733001708984,1.8798617124557495,-1.309875249862671,0.45880573987960815,2.284882068634033,1.0099867582321167
382,-1.182984898085121,0.7591181948929188,1.476498899918222,-0.6715710759162903,-0.6882820129394531,-0.2743360102176666,-2.58935546875,-2.891317844390869,2.898881673812866,0.4225475788116455,2.227802276611328,1.0572645664215088
383,-1.3577103845770961,0.29269338533675376,1.1641124107709515,-0.9358150362968445,-0.2885321080684662,-0.20248296856880188,-3.8558456897735596,-0.4331941306591034,2.324631690979004,-3.2242496013641357,-0.3233300447463989,-1.2556164264678955
384,-1.289611688962134,0.09010575456960104,0.8880492219971926,-0.9568299055099487,-0.08998387306928635,-0.27636823058128357,-2.3769190311431885,-0.6173728704452515,0.6204270124435425,0.2494325041770935,-1.1319856643676758,-0.23049822449684143
385,-1.3356465136503517,0.08525854736398036,0.7241636147819138,-0.9689470529556274,-0.08515529334545135,-0.232142373919487,-0.3239431083202362,0.5206839442253113,-1.6154544353485107,1.3597400188446045,-1.1863901615142822,-0.5246630907058716
386,-1.401424812909927,0.18718329201735565,0.9286786647923274,-0.9684732556343079,-0.18609212338924408,-0.16561849415302277,4.072242736816406,-2.563885450363159,-0.2204626500606537,-1.4529592990875244,-0.8321878910064697,-1.0543370246887207
387,-1.4647927818399964,0.508886142059813,1.319265651858199,-0.8683857321739197,-0.48720481991767883,-0.09239830821752548,4.040019989013672,2.00380539894104,-3.5429301261901855,-1.2226481437683105,1.3343117237091064,-0.2270902395248413
388,-1.4628961962419826,0.7268182101489664,1.5661189443466563,-0.7429463863372803,-0.6644952893257141,-0.08047656714916229,0.8605225682258606,0.7212611436843872,0.2592671811580658,1.6653250455856323,1.9415491819381714,0.614518940448761
389,-1.4981889281753173,0.4221264852969764,1.5291930998449894,-0.9098165035247803,-0.4097011983394623,-0.06617573648691177,-1.7867873907089233,-1.3142553567886353,3.671250581741333,0.9143787622451782,1.7567317485809326,0.30918723344802856
390,-1.5565060215834485,-0.050165259843717995,1.2558177972618254,-0.9986400008201599,0.050144221633672714,-0.014271841384470463,-3.0630056858062744,0.3632354438304901,4.171913146972656,-2.988222122192383,0.9407310485839844,-0.8367413282394409
391,-1.4203469872389307,-0.30016325642723557,0.9919386844252002,-0.9444971680641174,0.29567617177963257,-0.14318090677261353,-3.2739429473876953,2.167097568511963,0.6581115126609802,-0.9168614149093628,-0.8577184081077576,-0.042884767055511475
392,-1.4601896562798853,-0.3526229193011403,0.7053373464185003,-0.9327353239059448,0.34536051750183105,-0.10358952730894089,-1.4475911855697632,-1.007989764213562,-0.7522022128105164,0.5308951735496521,-2.0552146434783936,-0.6749749779701233
393,-1.5350612904622314,-0.1506076176111649,0.7242997629152722,-0.9880490303039551,0.15003889799118042,-0.03532300516963005,1.8756422996520996,-0.8338508605957031,-2.926708698272705,-0.19977152347564697,-0.8826591372489929,-1.3976908922195435
394,-1.598705662964776,0.007334003693404216,1.3086167165345985,-0.9995838403701782,-0.007333938032388687,0.027904966846108437,7.8772664070129395,0.655316174030304,-3.9009997844696045,-2.5083813667297363,2.1986334323883057,-0.5228238105773926
395,-1.5444982895291275,0.3186200908687167,1.6858242961006709,-0.949340283870697,-0.3132564127445221,-0.02497154287993908,-0.11485093086957932,1.704700231552124,-2.9532885551452637,0.9618372321128845,1.5362635850906372,0.8413167595863342
396,-1.442517921621736,0.3319340621672328,1.532085537149734,-0.9376460313796997,-0.32587212324142456,-0.12094385921955109,-2.760754108428955,-2.362274646759033,2.9782068729400635,2.620049476623535,2.196462392807007,1.2361476421356201
397,-1.7923151439526697,-0.2859333432121405,1.1129950738138752,-0.935955822467804,0.28205302357673645,0.21079105138778687,-3.2913873195648193,-4.439123630523682,8.221779823303223,-3.7953367233276367,2.6430110931396484,-1.786993384361267
398,-1.7839443379356712,-0.5028556932857041,0.7716183171772026,-0.8563810586929321,0.4819296896457672,0.1853514164686203,-2.118345022201538,3.1135616302490234,-0.13245703279972076,-1.1858246326446533,-0.7647819519042969,-0.49760735034942627
399,-1.7103297786916623,-0.44363077128428713,0.6343403063336742,-0.8944209814071655,0.42922160029411316,0.12561795115470886,0.048737019300460815,0.1625349223613739,-0.6439110636711121,0.2311062216758728,-1.990424633026123,-0.41353607177734375
400,-1.7427576008259138,-0.25493756787701305,0.8015550168273541,-0.9534069895744324,0.25218498706817627,0.16558445990085602,2.2838246822357178,-0.9619870185852051,-3.4174022674560547,-0.19516795873641968,-1.0669127702713013,-1.1305960416793823
401,-1.864433805154882,0.00886050092910229,1.2067133032147785,-0.9571599960327148,-0.008860385045409203,0.2894245982170105,3.9909939765930176,1.5984512567520142,-5.683538436889648,-4.04732608795166,1.4543864727020264,-1.5616109371185303
402,-1.7884679686637848,0.4242034013951854,1.6747494000676015,-0.8898614048957825,-0.4115949273109436,0.19681590795516968,2.3595643043518066,1.1820018291473389,-4.148233413696289,-0.0995032787322998,2.2208752632141113,-0.2712481915950775
403,-1.721164663578079,0.6939059289204138,1.8141060628151,-0.7600792646408081,-0.6395447254180908,0.11516112089157104,0.016376974061131477,1.0994007587432861,-1.144869089126587,1.678078532218933,2.4215118885040283,0.8321502208709717
404,-1.7661666459216911,0.3611917740139902,1.5734990808311595,-0.9176797270774841,-0.35338935256004333,0.18160386383533478,-2.3611228466033936,-4.24562931060791,7.64546537399292,-1.440169334411621,2.5828967094421387,-0.40268850326538086
405,-1.8304013597623248,-0.157718354327782,1.2371833345895764,-0.9544956088066101,0.157065287232399,0.25351276993751526,-2.432135581970215,0.2710835039615631,4.583204746246338,-2.3496580123901367,-0.7665471434593201,-0.9308047294616699
406,-1.8334756593006944,-0.3161066673448612,1.0351882795178615,-0.9178504347801208,0.310868501663208,0.24680311977863312,0.08573932200670242,0.6164959073066711,-0.041031382977962494,0.20560044050216675,-2.393632173538208,-0.9304578900337219
407,-1.761667222629615,-0.15803600416915056,1.2651956082067901,-0.969603955745697,0.15737898647785187,0.18734988570213318,3.43631911277771,0.07271939516067505,-3.3430073261260986,0.2548518180847168,-1.124893069267273,-1.0456109046936035
408,-1.8116054934107575,0.15365976167723983,1.679440777857808,-0.9597029089927673,-0.15305578708648682,0.2356785535812378,4.5218329429626465,1.186311960220337,-5.3267998695373535,-4.23208475112915,0.6384683847427368,-2.5270910263061523
409,-1.7556886421918685,0.6064134323927917,2.1899631435305977,-0.8076925873756409,-0.5699240565299988,0.15106144547462463,2.0515756607055664,3.3209972381591797,-4.056310176849365,-0.7409372925758362,2.432732105255127,-0.5055230855941772
410,-1.7645383890192694,0.8311852898836695,2.5531718086760944,-0.6613907217979431,-0.738730788230896,0.12976691126823425,0.736687183380127,1.9490644931793213,-0.348145067691803,1.5827316045761108,2.056311845779419,0.6833130121231079
411,-1.6899440103253012,0.6519835771946897,2.600352202509069,-0.7892464399337769,-0.6067643165588379,0.09448441863059998,0.702549397945404,0.3318975269794464,2.9412128925323486,0.7068031430244446,1.5979905128479004,0.5509471893310547
412,-1.6962414854241183,0.17886137918370132,2.4284146715773094,-0.9763144850730896,-0.1779092401266098,0.12312042713165283,-2.135305404663086,-2.5365164279937744,5.618129253387451,-3.2778208255767822,0.904013991355896,-0.6381045579910278
413,-1.6429523583548413,-0.1710645518785301,2.245080509866498,-0.9828398823738098,0.17023146152496338,0.07104115933179855,-1.4055405855178833,1.133786916732788,2.0744497776031494,-1.2842040061950684,-0.9428297281265259,-0.23705674707889557
414,-1.630885007169994,-0.2819389923857462,2.1120201568923123,-0.9587841033935547,0.2782185971736908,0.05768151208758354,0.4782828092575073,-0.5920419096946716,-0.09993965178728104,0.469312846660614,-1.9885610342025757,-0.9428591728210449
415,-1.589035615850251,-0.1459565271647141,2.4011914253832947,-0.9892027974128723,0.14543884992599487,0.018044356256723404,4.284231185913086,-0.6625131964683533,-2.7181382179260254,-0.43837904930114746,-1.0097577571868896,-1.095436930656433
416,-1.6655498812211675,0.226744816599535,2.888715070498123,-0.9700323939323425,-0.22480686008930206,0.09219007939100266,2.8642141819000244,-0.023211896419525146,-5.2092742919921875,-2.546340227127075,0.7583609223365784,-1.018291711807251
417,-1.7188458974879994,0.632120260167523,-3.106686581903326,-0.797950804233551,-0.590856671333313,0.11900703608989716,2.42840313911438,2.4982752799987793,-2.521148204803467,0.4555436968803406,2.4140379428863525,-0.9184303283691406
418,-1.5095902330296944,0.6102949101469762,-2.974132247915819,-0.8179445862770081,-0.5731091499328613,-0.05012580007314682,0.4353625774383545,1.584639072418213,2.5706796646118164,1.2000703811645508,1.7370343208312988,0.80381840467453
419,-1.5299140357448644,0.20568487324893014,-3.0567300859969966,-0.9781033396720886,-0.20423763990402222,-0.04000939801335335,-2.4536492824554443,-2.7702219486236572,5.4897613525390625,-1.150055170059204,0.904249906539917,0.45527732372283936
420,-1.616546797661982,-0.11166724442355751,2.91152046731881,-0.9927318692207336,0.11143531650304794,0.04544966295361519,-1.9762589931488037,0.5723569989204407,1.6043263673782349,-1.6157886981964111,-0.7516331076622009,-0.8543791770935059
421,-1.6147643222415413,-0.17621765752625718,2.713757928618404,-0.9835623502731323,0.17530706524848938,0.04327315464615822,-0.9824233055114746,-0.7009523510932922,0.30968162417411804,0.5773886442184448,-1.4319751262664795,-1.3307945728302002
422,-1.5376064562750689,-0.03134587176369199,2.839657845594045,-0.9989582896232605,0.031340740621089935,-0.03316747397184372,2.5944879055023193,1.845031499862671,-2.5827221870422363,0.22011923789978027,-0.7619010210037231,-0.9680379629135132
423,-1.393473775807373,0.3527382637593602,3.0877647316369536,-0.9237152338027954,-0.34546875953674316,-0.16553416848182678,3.651756525039673,2.7219245433807373,-3.8558363914489746,-2.6229920387268066,-0.13365718722343445,-1.198281168937683
424,-1.2372642939808451,0.7883708606868973,-2.9731537232087355,-0.6661503911018372,-0.709205687046051,-0.2308051735162735,1.9256912469863892,2.713576078414917,-2.8828673362731934,-0.6714655756950378,1.8115922212600708,0.1391608864068985
425,-1.177060828913337,0.9603139407333643,-2.8396164733310534,-0.5293982625007629,-0.8193715810775757,-0.21992702782154083,0.1926630735397339,0.13112328946590424,0.6987758874893188,1.0946447849273682,1.9461872577667236,1.1073782444000244
426,-1.3278035149110912,0.6929209802056123,-2.7879687219698805,-0.7467806935310364,-0.6387872695922852,-0.18512026965618134,-2.0046164989471436,-2.0913069248199463,4.857629299163818,0.5937350988388062,1.5427026748657227,1.0919805765151978
427,-1.4521273433248965,0.1416254097624686,-3.0675021128274076,-0.9830253720283508,-0.14115244150161743,-0.11720530688762665,-2.733306884765625,-0.5014271140098572,4.1691789627075195,-2.1505346298217773,-0.08940784633159637,-1.0622684955596924
428,-1.4828595311167538,-0.19024693972367102,3.065838878749119,-0.9781633615493774,0.18910138309001923,-0.08623895794153214,-2.2523908615112305,0.5005477666854858,1.3712172508239746,0.03567379713058472,-1.4940482378005981,-0.2718847990036011
429,-1.4166417039989987,-0.16826423287263914,2.9908391345627052,-0.97418612241745,0.16747134923934937,-0.15137629210948944,1.6595062017440796,0.3691259026527405,-2.034900188446045,0.6433297395706177,-1.636572241783142,-0.9786438941955566
430,-1.3715992091029239,0.19345376906251466,-3.06414047945847,-0.9619406461715698,-0.1922493726015091,-0.1941910982131958,3.1783947944641113,0.29755035042762756,-3.42626953125,-1.9036445617675781,-0.6439474821090698,-1.2009657621383667
431,-1.3936714121208742,0.6253369012511063,-2.718488973899906,-0.7980810403823853,-0.5853704810142517,-0.1428571343421936,2.642951011657715,2.300330877304077,-3.3338935375213623,-1.0552057027816772,1.4357579946517944,0.025654375553131104
432,-1.3396570038740512,0.866111131500648,-2.5007229893112055,-0.6305667757987976,-0.7618154883384705,-0.14840102195739746,1.2629989385604858,0.3641693592071533,-0.5887541174888611,1.0114260911941528,1.8314414024353027,0.748178243637085
433,-1.270723644990032,0.7629728186576611,-2.6247215588881776,-0.6904872059822083,-0.6910731792449951,-0.21364770829677582,-2.824263095855713,-0.1898764967918396,1.905019998550415,0.49418288469314575,1.8558375835418701,0.642877459526062
434,-1.326581566179514,0.3642942599523101,-2.9390274343495886,-0.9066502451896667,-0.35628995299339294,-0.22592681646347046,-2.0903408527374268,-0.060752563178539276,2.350106954574585,-3.133892297744751,-0.5177792310714722,-1.4712014198303223
435,-1.2001351996074388,0.1686017275031169,3.0890346708538705,-0.9188714027404785,-0.1678040623664856,-0.3570954203605652,-3.378788709640503,-0.2855099141597748,0.24719937145709991,0.5969109535217285,-1.1092193126678467,-0.12317490577697754
436,-1.1962649351598578,0.13741924442087672,2.881142173631423,-0.921905517578125,-0.13698714971542358,-0.36238765716552734,0.16098347306251526,0.15649819374084473,-1.150783658027649,1.3851318359375,-0.9050202965736389,-0.5261621475219727
437,-1.1725113894675643,0.3787769796067962,3.0503881902325514,-0.8563931584358215,-0.369784414768219,-0.360347181558609,4.100213527679443,1.2747794389724731,-2.6774823665618896,-0.6836305260658264,-1.0095185041427612,-1.4093977212905884
438,-1.1008651736430524,0.8336779453935682,-2.9144204961888507,-0.599294900894165,-0.7404085397720337,-0.3043694496154785,3.3331944942474365,3.3271472454071045,-2.757591724395752,-1.4689881801605225,0.6152865290641785,-0.2391028106212616
439,-1.0242640227970916,1.0540066754297155,-2.7226113704477126,-0.42211833596229553,-0.8694098591804504,-0.25679320096969604,0.9031952619552612,0.8576479554176331,-0.115352563560009,0.38618382811546326,1.9414312839508057,0.8927642107009888
440,-1.0559533875689693,0.9183599647236595,-2.711717375126135,-0.5284227132797241,-0.7946069836616516,-0.2989468276500702,-1.7617356777191162,-1.3134843111038208,2.288917064666748,0.02584397792816162,1.6219689846038818,0.7757992744445801
441,-1.1676106204797956,0.5142990490301077,-2.9821884695398486,-0.800826370716095,-0.4919247031211853,-0.34159526228904724,-3.495029926300049,-0.9005745649337769,1.8280116319656372,-1.9774329662322998,-0.587009072303772,-1.08223295211792
442,-1.175913446249512,0.2578111322498192,3.0679216903069495,-0.8925355076789856,-0.2549646496772766,-0.37198591232299805,-2.358350992202759,-1.0110396146774292,1.4127401113510132,0.38031309843063354,-0.8512365818023682,-0.37863966822624207
443,-1.2041610887093757,0.18686599591476055,2.886808440126544,-0.9172871112823486,-0.1857803612947464,-0.35223570466041565,-0.6419012546539307,1.089297890663147,-1.4626264572143555,1.4487965106964111,-1.1035720109939575,-0.7013074159622192
444,-1.1928382992986886,0.37749365268193885,3.095003197271088,-0.8639808893203735,-0.3685917556285858,-0.34304094314575195,4.5429863929748535,0.0019790998194366693,-0.9333834648132324,-0.861193060874939,-1.0746760368347168,-1.4083170890808105
445,-1.2554891453321644,0.7704648640761612,-2.7076120465370344,-0.6822106838226318,-0.6964688897132874,-0.2225298136472702,5.493841171264648,2.2719173431396484,-2.439939022064209,-1.8980658054351807,0.8334318399429321,-0.6059767007827759
446,-1.2873046583071175,1.0302889921456209,-2.322736868947794,-0.49403202533721924,-0.8574477434158325,-0.1439305543899536,1.4042513370513916,1.7349449396133423,-1.0943459272384644,0.21865665912628174,1.7809858322143555,0.3664036989212036
447,-1.1750800877965482,1.065517987479947,-2.3990622322576374,-0.446644127368927,-0.8750397562980652,-0.18658684194087982,-2.058603525161743,-0.7863860726356506,0.5037944316864014,0.4422495365142822,1.8391205072402954,0.7660088539123535
448,-1.1488696743786946,0.6745498088082229,-2.828584362962455,-0.7124966979026794,-0.6245458126068115,-0.31982940435409546,-4.824472904205322,-6.158449172973633,3.3469948768615723,-2.358212471008301,0.3929327130317688,-1.4556528329849243
449,-1.1069099457479985,0.34292930268741556,-3.113566460855992,-0.842247486114502,-0.3362472653388977,-0.4213751554489136,-2.8284637928009033,0.6625568270683289,0.7317426800727844,-0.47394514083862305,-0.6946365237236023,-0.5429803133010864
450,-1.0701051059415694,0.20212781584712824,2.949087884737567,-0.8593916296958923,-0.2007542848587036,-0.4702593982219696,-1.8977769613265991,-1.2896302938461304,-1.056171178817749,1.2034618854522705,-0.8947962522506714,-0.08580142259597778
451,-1.0982081399741568,0.3186776055890962,2.9625849647105755,-0.8455623388290405,-0.31331101059913635,-0.43227362632751465,4.0264692306518555,0.6964944005012512,-0.4311677813529968,0.4739193320274353,-0.9681525826454163,-1.4063036441802979
452,-1.0975266380700324,0.6825874564234401,-2.861169407630083,-0.6906536221504211,-0.6308028697967529,-0.35367414355278015,6.579982280731201,3.0556795597076416,-2.1639440059661865,-2.2192277908325195,0.23180079460144043,-1.4948060512542725
453,-1.24608370864297,1.0460535386293612,-2.4078353698951718,-0.4748096466064453,-0.8654528260231018,-0.1598341166973114,1.2314866781234741,0.4361896514892578,-2.103379249572754,-0.049909502267837524,1.7395985126495361,0.3874189257621765
454,-1.1138615112019028,1.1204278076635692,-2.5742619138193237,-0.39063990116119385,-0.9002867341041565,-0.19205300509929657,-2.027272939682007,-0.9624620079994202,0.8451496958732605,0.7451168298721313,1.8742856979370117,0.6682950258255005
455,-1.2071947489944896,0.7087289652445595,-2.7496428136479367,-0.7095553874969482,-0.6508693695068359,-0.27000024914741516,-3.574328899383545,-5.713589668273926,4.7030134201049805,-1.9627163410186768,0.6640377044677734,-0.9254190921783447
456,-1.190467746233967,0.3195723727193898,-3.0057381910382706,-0.8815305829048157,-0.31416061520576477,-0.35243043303489685,-3.6638875007629395,-0.5764752626419067,2.0231566429138184,-1.4094393253326416,-0.7293727397918701,-0.7147845029830933
457,-1.1887431507435748,0.07163534785619022,2.9754318740560715,-0.9255213737487793,-0.07157409936189651,-0.371870219707489,-2.573354482650757,-1.327062964439392,0.38731545209884644,0.6276698112487793,-1.078786015510559,-0.375291645526886
458,-1.2176715194223697,0.1247613423178223,2.90653327393053,-0.9310036897659302,-0.12443793565034866,-0.343143492937088,2.868136405944824,0.32839393615722656,-1.3068594932556152,0.7364083528518677,-0.9749425649642944,-1.3403587341308594
459,-1.293153226792582,0.41196106571229363,-3.0111315216905474,-0.881245493888855,-0.4004071056842804,-0.2511587142944336,4.367309093475342,0.6819896101951599,-1.7883057594299316,-2.087092399597168,-0.487776517868042,-1.407731056213379
460,-1.3689564379482428,0.747183775443834,-2.5951444321944352,-0.7187128663063049,-0.6795754432678223,-0.14706751704216003,1.4519128799438477,2.383206367492676,-2.1410586833953857,-0.2372196912765503,1.5715126991271973,0.3133578300476074
461,-1.3405986928480145,0.9161318189459706,-2.5138354304348707,-0.5928313136100769,-0.7932522296905518,-0.13893111050128937,-0.03684971109032631,0.09370759129524231,-0.7430577874183655,0.7288939952850342,1.8516628742218018,0.7263486385345459
462,-1.1889793207402313,0.8310916207938667,-2.7074683045200167,-0.6255293488502502,-0.7386676669120789,-0.2511632442474365,-3.0735087394714355,-0.8630102872848511,2.300548553466797,0.389201283454895,1.1989338397979736,0.730457067489624
463,-1.2305203482883025,0.3510556013309119,-3.082301480580425,-0.8851698040962219,-0.3438892066478729,-0.3133920729160309,-4.0290093421936035,0.1211007609963417,2.3749842643737793,-1.9635545015335083,-0.5532817840576172,-1.057503342628479
464,-1.1937749764251184,0.11079956985671136,2.9090419907035576,-0.924064040184021,-0.11057300120592117,-0.36589515209198,-2.853400945663452,-0.33032193779945374,0.39041367173194885,0.517997145652771,-1.0969464778900146,-0.4660292863845825
465,-1.202296523882986,0.11411914710405059,2.794038390323967,-0.9268009066581726,-0.11387161165475845,-0.3578732907772064,1.0514622926712036,-0.2947017550468445,-0.8828519582748413,1.1603214740753174,-1.0413103103637695,-0.7236543893814087
466,-1.2790481569643295,0.3676199018725202,3.055447935128309,-0.893751323223114,-0.3593953847885132,-0.26840928196907043,3.069011926651001,0.8199263215065002,-2.0387160778045654,-1.7884385585784912,-0.9795633554458618,-1.042259693145752
467,-1.2841341403451183,0.7090112054235119,-2.8809541211310585,-0.728033185005188,-0.6510835886001587,-0.21461060643196106,3.63266658782959,2.0748493671417236,-1.7769381999969482,-0.44944173097610474,1.2266147136688232,-0.039844974875450134
468,-1.2444288429659964,0.9071189640603842,-2.7062466899641193,-0.5835002660751343,-0.7877322435379028,-0.19749803841114044,0.49049052596092224,1.1181737184524536,-1.0805250406265259,0.6473888158798218,1.8396884202957153,0.5963169932365417
469,-1.2484732067807485,0.8378119391900871,-2.841427362627353,-0.6346338391304016,-0.7431808710098267,-0.211948424577713,-2.9264206886291504,-2.5831708908081055,1.781165599822998,0.1275537610054016,1.4512497186660767,0.6234779357910156
470,-1.27654556055236,0.4046571484643261,2.9942665242976325,-0.8797283172607422,-0.3937036097049713,-0.2665998935699463,-4.71848726272583,-1.366814136505127,3.3209798336029053,-2.0575428009033203,-0.1237371563911438,-1.5238511562347412
471,-1.343631864857552,0.12237797344370765,2.8299982691765675,-0.9670222401618958,-0.1220727413892746,-0.22353139519691467,-2.6593689918518066,-0.17452308535575867,1.1254589557647705,-0.028842628002166748,-1.1760687828063965,-0.24715650081634521
472,-1.2950313171825152,0.12287169087357759,2.661306267432873,-0.9549628496170044,-0.12256275117397308,-0.27023032307624817,0.6952275633811951,0.8127844333648682,-1.586670994758606,1.371939778327942,-0.9685932397842407,-0.8169431686401367
473,-1.2586716963122622,0.35267721121171003,2.8825551674703185,-0.8931084275245667,-0.345411479473114,-0.2881808578968048,3.767873764038086,-0.19122369587421417,-0.45656946301460266,-0.5782965421676636,-0.9191301465034485,-1.2699856758117676
474,-1.3424373274088766,0.5489458315555601,-3.0472248180401347,-0.8309285044670105,-0.5217882394790649,-0.1931186318397522,3.9973087310791016,2.002068281173706,-1.7686116695404053,-1.5197184085845947,0.9815508723258972,-0.1465725153684616
475,-1.2610221988658497,0.7367805404028899,-2.8598094718842475,-0.7053831815719604,-0.6719069480895996,-0.22577796876430511,0.12327266484498978,1.6039215326309204,-0.7521361708641052,0.7268065214157104,1.478105068206787,0.7109311819076538
476,-1.296677040035212,0.7232643502860581,-2.8494186545383617,-0.721660315990448,-0.6618353128433228,-0.20292946696281433,-1.2311159372329712,-1.3754165172576904,1.5212113857269287,0.2828633785247803,1.7858892679214478,0.9866056442260742
477,-1.4017055671363008,0.34050018815240063,-3.098333833074597,-0.9291446805000305,-0.33395859599113464,-0.15862444043159485,-3.5469672679901123,-2.5386624336242676,3.560077428817749,-2.8720178604125977,0.15361499786376953,-0.9822751879692078
478,-1.4129144325098777,0.049683339528868366,2.9140229329273257,-0.9863439202308655,-0.04966290295124054,-0.1570327877998352,-2.689295768737793,-0.5392221212387085,1.0095734596252441,0.15261900424957275,-1.3440901041030884,-0.6391555666923523
479,-1.415781469558783,0.0640588373092212,2.760324956604007,-0.9859827756881714,-0.06401503831148148,-0.15407811105251312,0.21449299156665802,0.8452442288398743,-1.6296228170394897,1.1948145627975464,-1.2245134115219116,-1.0830434560775757
480,-1.38647563145097,0.32008924356701135,3.031801693430146,-0.9331285953521729,-0.3146512806415558,-0.1739695519208908,5.431459426879883,1.1451908349990845,-1.6738477945327759,-0.5368725061416626,-0.4322816729545593,-1.2875629663467407
481,-1.4947088552043553,0.6322356325625895,-2.726838024979065,-0.8043745160102844,-0.5909497141838074,-0.0613212063908577,2.9699954986572266,3.7606444358825684,-3.7335546016693115,-2.0778582096099854,0.9907452464103699,-0.3122291564941406
482,-1.361998409287542,0.8684268147076497,-2.536643825460515,-0.6319968104362488,-0.7633135318756104,-0.13391132652759552,0.591850996017456,1.501848816871643,-0.7471497058868408,0.8039024472236633,1.70172917842865,0.6429293155670166
483,-1.4006370440078901,0.7922288978454196,-2.466969350909176,-0.6921181082725525,-0.7119203209877014,-0.11892028152942657,-0.9133440852165222,-1.5060555934906006,2.009021043777466,0.76198810338974,1.6971802711486816,1.0756158828735352
484,-1.4133291696785437,0.43787675293645506,-2.844057427206498,-0.8944490551948547,-0.4240174889564514,-0.14202214777469635,-5.925763130187988,-4.150716304779053,3.2317700386047363,-2.350515604019165,0.2568727135658264,-0.8983221054077148
485,-1.358283106628608,0.1818405022164107,-3.1166138222281137,-0.9613873362541199,-0.18084003031253815,-0.20743975043296814,-1.0720806121826172,1.3569471836090088,0.5584811568260193,-0.7575914859771729,-1.1082682609558105,-0.059695884585380554
486,-1.2124199284378407,0.1409747874935107,3.021019452592454,-0.9271772503852844,-0.14050829410552979,-0.3472745716571808,-0.5866818428039551,0.2656394839286804,-0.5251045227050781,1.0864485502243042,-1.0324958562850952,0.15060409903526306
487,-1.1311471304050706,0.30377568134993554,3.062624050106973,-0.8634691834449768,-0.29912513494491577,-0.4061345160007477,2.9299848079681396,-0.43728044629096985,0.24560154974460602,1.4837236404418945,-0.6323018670082092,-0.8593074083328247
488,-1.2611317944312888,0.5652972322093439,-2.897676115356887,-0.8042649626731873,-0.535666823387146,-0.2573307156562805,3.951368808746338,3.763775587081909,-3.3735742568969727,-2.5590620040893555,0.227164626121521,-1.7669460773468018
489,-1.2391433388205968,0.9011424275856698,-2.5286599659366717,-0.5868892073631287,-0.7840365171432495,-0.2021087110042572,2.1109719276428223,2.203267812728882,-1.2316473722457886,0.05510514974594116,1.6724793910980225,0.4428924024105072
490,-1.2532209846033497,0.9967417890735102,-2.350292054828057,-0.5158864259719849,-0.8397061228752136,-0.16957220435142517,-0.3292989134788513,0.2868279218673706,0.40137505531311035,0.7854329943656921,1.779327154159546,1.170777678489685
491,-1.2017733704477058,0.7081372456225016,-2.650105169558582,-0.7084403038024902,-0.6504200100898743,-0.27398189902305603,-3.77018141746521,-3.4589624404907227,2.8464598655700684,-1.8538613319396973,0.40176278352737427,-0.9698230028152466
492,-1.1466482496408978,0.4059220323586246,-2.921430343921176,-0.8373290300369263,-0.39486604928970337,-0.3781018853187561,-3.456378221511841,-0.5753086805343628,1.2940622568130493,-0.406704843044281,-0.5492410659790039,-0.1926073431968689
493,-1.176826003914473,0.1860513778157933,3.0933779236449745,-0.907456636428833,-0.1849798709154129,-0.37723308801651,-2.469388246536255,-0.9307472705841064,0.41765502095222473,1.0238964557647705,-0.8588128089904785,-0.13083875179290771
494,-1.1948154969397353,0.19906951014663105,3.1140204183894746,-0.911778450012207,-0.1977573037147522,-0.3599334955215454,4.491345405578613,-0.46955907344818115,0.8590505123138428,0.9499101638793945,-0.5427212119102478,-1.3293975591659546
495,-1.3449203226455457,0.4415159695366173,-2.7095746637718254,-0.8811390995979309,-0.4273105561733246,-0.20248350501060486,4.598306179046631,2.788217782974243,-2.95847487449646,-2.4535164833068848,0.05009809136390686,-1.2358099222183228
496,-1.2552466963218591,0.7573558552144958,-2.441988752738299,-0.6907771825790405,-0.6870024800300598,-0.2255094200372696,1.682810664176941,1.7400726079940796,-1.3826581239700317,0.3963741064071655,1.5581724643707275,0.0856168270111084
497,-1.3069063150313338,0.8473900941258862,-2.2633886342399894,-0.639026939868927,-0.7495553493499756,-0.17265944182872772,-0.3185880482196808,0.28051677346229553,0.5461456775665283,0.8951457738876343,1.8284127712249756,1.2709566354751587
498,-1.2776855477709226,0.5786335673825364,-2.620598052489952,-0.8015034198760986,-0.5468804836273193,-0.24189673364162445,-4.873111724853516,-5.153461933135986,2.7412407398223877,-2.1323649883270264,0.7403161525726318,-1.3953255414962769
499,-1.163958734883599,0.32615460793118883,-2.997040608469053,-0.8699612021446228,-0.32040274143218994,-0.3748458921909332,-3.9788827896118164,0.3839126229286194,0.5410301685333252,-0.41177695989608765,-0.6985028982162476,-0.09933623671531677
500,-1.1593230862763908,0.16132132056397797,2.965352201333614,-0.9046323299407959,-0.1606225073337555,-0.3947669565677643,-3.24869441986084,-1.4066107273101807,-0.5623409152030945,1.0161434412002563,-1.2640143632888794,-0.2680291533470154
