,attitude.roll,attitude.pitch,attitude.yaw,gravity.x,gravity.y,gravity.z,rotationRate.x,rotationRate.y,rotationRate.z,userAcceleration.x,userAcceleration.y,userAcceleration.z
0,-1.3817605371358115,0.566746947812225,0.2978094440526923,-0.8286230564117432,-0.53689044713974,-0.1585322916507721,2.776799440383911,2.1871063709259033,-2.1820294857025146,-0.7226158976554871,1.0637917518615723,-0.285208523273468
1,-0.27784083736880544,0.9199921858421444,-0.4359564871050636,-0.1661660075187683,-0.7955968976020813,-0.5825928449630737,-0.48007896542549133,1.0454624891281128,0.6935402750968933,0.2530953288078308,-0.3939935564994812,-0.212130606174469
2,-0.2321886990827229,0.8268532185223876,-0.3449888942896184,-0.15582789480686188,-0.73580402135849,-0.6590220332145691,0.22320973873138428,1.463484764099121,0.8399409651756287,-0.3185526132583618,-0.09538793563842773,-0.7422078251838684
3,-0.2854365179488547,0.8614285333385517,-0.18240170627741722,-0.18340595066547394,-0.7587738037109375,-0.6249997019767761,0.05410633608698845,0.08276146650314331,0.5923705697059631,-0.35100263357162476,0.4474944472312927,0.6139981150627136
4,-0.2791609720054227,0.8772770510009854,-0.20867644214010622,-0.17614412307739258,-0.7690010666847229,-0.6145002245903015,0.26452285051345825,-0.6966428756713867,-0.27126607298851013,-0.24432706832885742,0.5811958909034729,0.263715922832489
5,-0.5488448330569355,0.781425500462437,-0.14609579534351688,-0.3703616261482239,-0.7042921185493469,-0.6056441068649292,-3.3569984436035156,-2.5040745735168457,2.428945302963257,-0.42747464776039124,0.4533613324165344,0.09937280416488647
6,-0.6896736001561233,0.3338337131677201,-0.24372222987689787,-0.601158082485199,-0.3276675045490265,-0.7288641929626465,-4.144005298614502,-1.8929868936538696,1.796856164932251,0.06851953268051147,-0.1480405330657959,-0.287966251373291
7,-0.8013465688504958,0.021983939698884722,-0.33838180465915746,-0.7181200385093689,-0.021982168778777122,-0.695572018623352,0.0688031017780304,-0.14804580807685852,1.0602751970291138,0.6303667426109314,-1.417043685913086,-1.096053957939148
8,-0.7609009710010703,0.20176872132683574,-0.16729259668479624,-0.6755852699279785,-0.20040248334407806,-0.7095233201980591,4.478090286254883,-0.270516574382782,-0.69272780418396,-0.15903997421264648,-0.5825412273406982,-1.1610057353973389
9,-0.8704978509777027,0.4705976934611316,0.04599025157120619,-0.6815304160118103,-0.4534190893173218,-0.5743929743766785,3.3953206539154053,0.31942734122276306,-0.5877695083618164,-1.0501437187194824,0.6525920629501343,-0.8815852999687195
10,-0.8668933118232438,0.6643677868986545,0.18669463234428604,-0.6001812815666199,-0.6165615320205688,-0.5095433592796326,1.3606550693511963,0.7021968364715576,-0.6527791023254395,0.5236126780509949,1.4521327018737793,1.0344305038452148
11,-1.0081571249668873,0.627293735989571,0.30507925148480175,-0.6848163604736328,-0.5869558453559875,-0.4318672716617584,-0.6827346682548523,-2.9492545127868652,1.8678473234176636,-0.007444322109222412,1.6115378141403198,0.8498207330703735
12,-1.2523654921101075,0.2286690556706333,0.2966232930530797,-0.9250054955482483,-0.2266814261674881,-0.30492696166038513,-3.4100053310394287,-3.692962646484375,5.273867130279541,-1.3061957359313965,0.5612761378288269,-1.01012122631073
13,-1.3830061495046106,-0.3151309355403539,0.36543615040162086,-0.9340407252311707,0.30994096398353577,-0.1774950623512268,-0.3250879645347595,0.1041015088558197,5.095414638519287,-1.4786789417266846,-0.5123946070671082,-0.3056897521018982
14,-1.1551842441460087,-0.5510645567958387,0.5758168595718556,-0.7794389724731445,0.5235944986343384,-0.34398189187049866,2.8225479125976562,1.3083921670913696,0.36828112602233887,-0.3605145215988159,-1.550511121749878,0.5333739519119263
15,-1.039570127376441,-0.4590780620084909,0.9300680055067777,-0.7729169130325317,0.4431218206882477,-0.45413917303085327,3.421424627304077,-2.6940860748291016,1.5040818452835083,0.717481791973114,-0.28758901357650757,0.41904401779174805
16,-1.0761835850315271,-0.4867376712345332,1.3613721671195267,-0.7779347896575928,0.467744916677475,-0.4195619523525238,2.175743341445923,-1.0595014095306396,2.015270948410034,-1.3644449710845947,0.5663737058639526,-0.4446043372154236
17,-1.0420631081222749,-0.4642966733865967,1.4165791675666368,-0.772039532661438,0.4477940499782562,-0.45103833079338074,-1.4287487268447876,0.13691937923431396,-1.5605412721633911,0.4823209047317505,-0.5233250260353088,0.36433786153793335
18,-1.1574507987498703,-0.37799367892201324,1.1961138561140803,-0.8511343598365784,0.3690565228462219,-0.3733198940753937,-1.4533947706222534,-0.4828331470489502,-1.6034531593322754,1.111891746520996,0.024070918560028076,0.3529798686504364
19,-1.4039671237824654,-0.429975387035252,1.0057840893026462,-0.896355926990509,0.41684842109680176,-0.15094128251075745,-2.8352837562561035,0.21316514909267426,-0.6966802477836609,-1.8041292428970337,-0.3942349851131439,-0.6400896310806274
20,-1.3067477857515053,-0.3721598722843368,0.7252099144084457,-0.899258017539978,0.3636282980442047,-0.24312454462051392,-2.8781113624572754,2.001185417175293,-1.4092854261398315,-0.930423378944397,-0.4766043722629547,0.5764985680580139
21,-1.2350806273270707,-0.34335026302724336,0.47815089373686537,-0.8890652656555176,0.33664369583129883,-0.3102159798145294,1.3799716234207153,1.220401406288147,0.40871667861938477,1.2598843574523926,0.23035764694213867,0.5187883377075195
22,-1.0136079652682586,-0.38165442116185433,0.9161034577097105,-0.7876778244972229,0.3724563717842102,-0.49075448513031006,4.4055867195129395,0.22211089730262756,6.43638277053833,0.8780861496925354,1.0415146350860596,0.5046247243881226
23,-0.8066519014648504,-0.7588313302104934,1.5335298764188894,-0.5238941311836243,0.6880738735198975,-0.5020849108695984,-1.1810276508331299,-0.43909409642219543,2.4143288135528564,-2.710496187210083,-0.33188802003860474,-0.31392449140548706
24,-1.166100948637687,-0.6900109449440488,1.0927045477922177,-0.7089402079582214,0.6365455985069275,-0.30366671085357666,-3.2941110134124756,-1.0507162809371948,-5.637087821960449,-0.7972700595855713,-0.14071130752563477,-0.7144912481307983
25,-1.356579978336054,-0.1136917853544278,0.6829438265397136,-0.9708347916603088,0.11344701796770096,-0.21120931208133698,-1.1966646909713745,-0.3871614933013916,-6.53204870223999,0.4866430163383484,1.2119313478469849,-0.24028293788433075
26,-1.4241480607197143,0.3876926641037599,0.540589519302177,-0.9158469438552856,-0.37805333733558655,-0.13527850806713104,-1.180763602256775,0.700202226638794,-3.574263572692871,-0.0823678970336914,0.7494369149208069,0.14730243384838104
27,-1.106565374794412,0.5997587179156666,0.15891117301231264,-0.7381089925765991,-0.5644432902336121,-0.3695928752422333,-2.944152593612671,-0.07868041098117828,-2.087103843688965,0.3680070638656616,-0.07416749000549316,0.030344247817993164
28,-0.8960160210387043,0.6007637303683587,-0.09492705662036036,-0.6441215872764587,-0.5652726292610168,-0.5153388381004333,-0.4374712407588959,0.7596355676651001,-0.8685306906700134,0.7873711585998535,-0.2600141763687134,0.06892776489257812
29,-0.8685265271734243,0.7293028369143127,-0.020462423986543334,-0.5692044496536255,-0.6663499474525452,-0.4816471040248871,2.413126230239868,1.1620458364486694,-0.3251592218875885,0.48471659421920776,-0.07214486598968506,-0.35432085394859314
30,-0.9050784142062981,0.7644637715499589,0.10021452011144358,-0.5676400661468506,-0.6921500563621521,-0.4457722008228302,-1.739358901977539,1.992872714996338,-0.19389164447784424,-0.9409810900688171,0.02824026346206665,-0.4815044105052948
31,-0.5848095649132922,0.6506308484247297,0.057809536723370185,-0.43925976753234863,-0.6056885123252869,-0.6634699702262878,0.4650360345840454,1.1553187370300293,2.651782989501953,-0.05333971977233887,0.5162414908409119,0.38781994581222534
32,-0.6983904178970407,0.6270150966974487,0.3157027239712792,-0.5206786394119263,-0.5867302417755127,-0.620194673538208,0.3543281853199005,-0.07621930539608002,-0.03835032135248184,-0.6021698713302612,-0.017380475997924805,0.556199312210083
33,-0.6751284452067106,0.6998426479378536,0.17262326574419942,-0.478087842464447,-0.6440973281860352,-0.5971353054046631,-1.0991456508636475,-0.6503715515136719,-2.273906946182251,-0.796417772769928,-0.18361568450927734,-0.5527975559234619
34,-0.42538299303585503,0.6396021645609117,-0.03841452627634027,-0.33109861612319946,-0.5968762636184692,-0.7308299541473389,-1.210149884223938,2.281639575958252,-0.8271592855453491,0.30683714151382446,-0.41028010845184326,-0.11856579780578613
35,-0.22037047399760654,0.5828123546300185,0.0238345902024534,-0.18250571191310883,-0.5503742098808289,-0.8147268891334534,1.5413962602615356,2.89104962348938,1.553222894668579,0.34864342212677,0.10335272550582886,0.16552644968032837
36,-0.3735498498786397,0.6100195872546467,0.30183611117627546,-0.29910412430763245,-0.5728834867477417,-0.7631128430366516,0.21919043362140656,-2.581820011138916,4.437040328979492,0.5974439382553101,0.045356690883636475,0.3006342053413391
37,-0.5504384719752722,0.47129377116107324,0.6329258457821587,-0.46603772044181824,-0.45403939485549927,-0.7593793869018555,-2.596369743347168,-1.060695767402649,1.9719942808151245,-0.15891650319099426,-0.24516409635543823,-0.33392810821533203
38,-0.6072704004569416,0.31599029046628435,0.6775324157409364,-0.5423757433891296,-0.3107578754425049,-0.7805498838424683,-1.3196994066238403,1.1796878576278687,3.006138324737549,-0.06725865602493286,-0.08983108401298523,0.6866167783737183
39,-0.7797459704386598,0.2107176259755165,0.9243896669805013,-0.687546968460083,-0.20916171371936798,-0.6953635215759277,3.118523359298706,-2.0415453910827637,3.613866090774536,0.3708966374397278,0.8436831831932068,-0.226740300655365
40,-1.0269140338950757,0.007078785763805694,1.1830344196635385,-0.855684757232666,-0.007078726775944233,-0.5174490213394165,0.1473233848810196,-0.49897101521492004,3.153510570526123,-0.314298152923584,0.08730942010879517,-0.4442209005355835
41,-0.9963682494275334,-0.17454212249570236,1.2404222818567148,-0.8267478942871094,0.17365723848342896,-0.5350990891456604,-0.32741448283195496,0.8597962260246277,1.2351771593093872,-0.4476814270019531,-0.30857545137405396,0.1328926682472229
42,-0.9494555436140656,-0.19506460258447628,1.2110200399625148,-0.7976784110069275,0.19382990896701813,-0.5710859298706055,0.7814679145812988,-1.208324670791626,0.23613673448562622,0.6361793875694275,-0.31828057765960693,0.16346263885498047
43,-1.0404702344032697,-0.20082146351950536,1.3582857623968658,-0.8453056812286377,0.19947434961795807,-0.4956493079662323,1.3713284730911255,-0.9767024517059326,1.639742136001587,-0.1942145824432373,-0.09458541870117188,-0.4662342071533203
44,-1.0146535248466713,-0.22074790607031775,1.5755094096284983,-0.8286886215209961,0.21895943582057953,-0.515103816986084,0.6270241141319275,-0.07952768355607986,0.9915218353271484,-0.5504007339477539,0.051624685525894165,-0.19740527868270874
45,-0.9983332007552745,-0.2960036276496517,1.650728162468843,-0.8040128350257874,0.29169997572898865,-0.5181453824043274,0.19785693287849426,-0.9259628057479858,1.9074883460998535,1.53733491897583,-0.23748546838760376,-0.2867862582206726
46,-1.0619823365708683,-0.5028844183902051,1.7062064398285577,-0.7652021050453186,0.4819548428058624,-0.42683175206184387,-1.394142508506775,-0.5365777611732483,1.8360706567764282,0.9457287788391113,-0.3505156636238098,0.274411678314209
47,-1.0474346698854593,-0.6869853139109746,1.5973355280651957,-0.6696691513061523,0.6342092156410217,-0.38642197847366333,-1.1214978694915771,0.341591477394104,1.5779484510421753,-0.30544376373291016,0.524527907371521,-0.45938795804977417
48,-1.0383964630950313,-0.8316627607430513,1.5464940790325397,-0.5804092288017273,0.7390525341033936,-0.3419453799724579,-0.49697282910346985,0.129798024892807,0.6797451376914978,-0.2259719967842102,-0.19718235731124878,0.4764668941497803
49,-1.0685265349327009,-0.9273847822214225,1.539074463333357,-0.5258325338363647,0.8000537157058716,-0.28881528973579407,-0.6247304081916809,-1.3151174783706665,0.5921450853347778,0.49197328090667725,-0.8579913377761841,0.35830384492874146
50,-1.1299654562742634,-1.0601220584098334,1.6718798994612398,-0.4420383870601654,0.8724151253700256,-0.20855191349983215,0.5630841851234436,0.6834946274757385,3.5207133293151855,-0.4212123155593872,-0.38297420740127563,-0.15451568365097046
51,0.20770364383449666,-1.4009001231314413,-3.0779248620050073,0.034866612404584885,0.9856023192405701,-0.1654461771249771,-1.8536040782928467,-2.432612419128418,4.309762477874756,0.14910860359668732,-0.7921513915061951,0.7699994444847107
52,0.059238517116177794,-1.4733522529418017,3.079185141428322,0.005759887862950563,0.9952560663223267,-0.09711837768554688,-1.3955944776535034,3.547224521636963,-0.03304290398955345,0.22382384538650513,-0.4914262294769287,-0.04520034044981003
53,1.8400349886425558,-1.4874277129750937,-1.6883027694133015,0.0802711695432663,0.996526837348938,0.022149918600916862,-0.17257356643676758,-0.2244754284620285,0.5018243193626404,0.1546531319618225,-0.9507200717926025,-0.1882418394088745
54,2.9500906598543075,-1.4281067302143873,-0.5043466719280155,0.027066662907600403,0.989837110042572,0.1396067887544632,-0.39796721935272217,3.5276591777801514,0.9406321048736572,0.2191949337720871,0.9289862513542175,0.047313347458839417
55,2.322324947077701,-1.4605035601019563,-1.515465289082878,0.08042145520448685,0.9939239025115967,0.07515029609203339,0.8216869831085205,1.408653736114502,0.13271312415599823,-0.8521041870117188,-0.39907538890838623,0.4447929859161377
56,1.7063566039341953,-1.484172883208887,-2.1288168469202295,0.08572213351726532,0.9962505102157593,0.011692225001752377,0.7338393926620483,0.48561951518058777,0.08837725967168808,-0.06410044431686401,-1.0806621313095093,-0.12222695350646973
57,2.0461469882937497,-1.5042484530282292,-1.6965345824610483,0.05912565812468529,0.9977865219116211,0.030432898551225662,1.425316333770752,-8.739876747131348,-1.2294203042984009,0.07629609107971191,0.9925240874290466,-1.215445637702942
58,0.03365792090145983,-1.5181505350795677,3.0904583956979503,0.0017707898514345288,0.9986145496368408,-0.052591513842344284,1.0016158819198608,-4.24377965927124,0.13648369908332825,-0.05323868617415428,0.3265349864959717,-0.6533868908882141
59,0.23565495533462535,-1.4555600760702536,-3.0265239604381304,0.026845958083868027,0.9933676719665527,-0.11180397123098373,-0.9285009503364563,0.44668102264404297,0.3038279116153717,0.22991368174552917,-1.0033469200134277,0.10646337270736694
60,0.7963954867822826,-1.52032551371594,-2.5511495632751955,0.03606298938393593,0.9987266063690186,-0.03527839109301567,-0.26446956396102905,1.1625045537948608,-0.061806805431842804,0.17925378680229187,-0.26860886812210083,-0.12437433004379272
61,1.9558328010232464,-1.536152990992047,-1.6259899287513657,0.03210441395640373,0.9993999600410461,0.013010778464376926,-0.36945804953575134,4.895165920257568,0.34736084938049316,0.20002755522727966,1.1364948749542236,0.23882031440734863
62,1.1689804163028776,-1.5518424860767228,-2.725400497831724,0.01743803732097149,0.999820351600647,-0.007410038728266954,0.5018855333328247,2.094792366027832,-0.255678653717041,-0.12531769275665283,-0.4682347774505615,0.16770362854003906
63,-0.6880667845271421,-1.5308341979172084,1.6457836109103539,-0.025372538715600967,0.9992015957832336,-0.030863411724567413,-0.24936233460903168,-0.23732803761959076,-0.32191941142082214,0.07680991291999817,-1.1144969463348389,-0.2507985830307007
64,-0.5694452926318819,-1.518437954574899,1.9566418957806233,-0.02821890078485012,0.998629629611969,-0.04407920688390732,1.1836585998535156,-6.21413516998291,0.5593979954719543,-0.057169295847415924,4.025692939758301,-0.8000522255897522
65,-1.4482881638868437,-1.5075065399722976,1.4456133091820864,-0.06277316808700562,0.9979978799819946,-0.007728930562734604,0.28991690278053284,0.011532207950949669,-0.6177290081977844,-0.2659469246864319,0.2604249119758606,0.5922321081161499
66,-0.5221645380170341,-1.4509499961448382,2.3903629205947117,-0.05963151156902313,0.9928269982337952,-0.1036277636885643,0.24227818846702576,-0.2316906750202179,0.43483611941337585,0.16346755623817444,-0.9533525109291077,-0.049005866050720215
67,1.7948603921635031,-1.54950152246019,-1.628607393112991,0.020766504108905792,0.9997732639312744,0.004732491448521614,-0.9158941507339478,1.0948656797409058,0.9619848728179932,0.3152625560760498,-0.7898885011672974,-0.25606000423431396
68,0.5049285358508696,-1.5431460618307093,-2.8859472914391318,0.013374840840697289,0.9996177554130554,-0.024198252707719803,0.09473519772291183,2.7211129665374756,-0.15349726378917694,0.19621989130973816,0.8439186215400696,-0.04467993974685669
69,-0.7759103899569608,-1.4947308507205084,1.706457042669252,-0.05322252959012985,0.9971083998680115,-0.05424216017127037,0.009910894557833672,2.3462154865264893,-1.408681869506836,-0.18580639362335205,-0.5630569458007812,0.05746179819107056
70,-1.4674673157267684,-1.368153048976178,1.0790448281194458,-0.2001858800649643,0.9795380234718323,-0.020758941769599915,0.5114527344703674,-1.9057080745697021,-1.2554521560668945,0.1620694100856781,-1.066864013671875,-0.130592942237854
71,-1.4759436845583553,-1.3369282598747652,1.265232011375113,-0.23070041835308075,0.9727773070335388,-0.021948406472802162,2.1668145656585693,-5.447888374328613,0.6984803676605225,-1.9597902297973633,5.293168067932129,-1.6329587697982788
72,-1.407120588308754,-1.3231975731946088,1.6859357904501893,-0.2418007105588913,0.9695037007331848,-0.03993415832519531,0.14403995871543884,0.1782824844121933,-0.24642843008041382,-0.08002236485481262,0.03391408920288086,0.6736927032470703
73,-1.2417273852333468,-1.3681892606453174,1.7805019842651533,-0.19042663276195526,0.9795452952384949,-0.06502781808376312,-0.49254438281059265,0.00261737871915102,0.9483771324157715,0.36034852266311646,-0.9408643841743469,-0.28119415044784546
74,-2.009580467114358,-1.554262722964014,1.0234904020448348,-0.01496141217648983,0.99986332654953,0.0070213316939771175,-0.109013631939888,2.3057312965393066,1.481709599494934,0.20726792514324188,-0.7127235531806946,-0.06988751888275146
75,-1.3818086755006715,-1.499854295052992,1.6499400265074462,-0.0696210116147995,0.9974846839904785,-0.013316428288817406,-0.3161499798297882,1.8591359853744507,-0.23921428620815277,-0.153203085064888,0.8795447945594788,0.00475621223449707
76,-1.3710790600494018,-1.4475725787491018,1.2204826188368205,-0.12046868354082108,0.992417573928833,-0.02438475377857685,-0.6789992451667786,1.3992151021957397,-1.0042600631713867,-0.07525579631328583,-0.474625825881958,0.027558565139770508
77,-1.4562883852417836,-1.3502017984642518,1.1742743024279703,-0.21737679839134216,0.9757675528526306,-0.025000734254717827,0.7458321452140808,-1.1329425573349,-0.9444637894630432,0.14804084599018097,-1.049086093902588,-0.11820298433303833
78,-1.5062482843210325,-1.3111701041719837,1.2721969986775747,-0.25618475675582886,0.9664859771728516,-0.01655922830104828,1.0844225883483887,-3.827338218688965,0.5694252252578735,-0.9286144375801086,3.717824935913086,-0.9892085790634155
79,-1.3250517566601236,-1.3273342768956848,1.7967978614808222,-0.23382119834423065,0.9705092310905457,-0.05864561349153519,0.7039715051651001,-2.679847240447998,-0.22707146406173706,-0.41734760999679565,0.4778854250907898,0.6357024908065796
80,-1.2914932562152575,-1.357204670920867,1.8587360334728449,-0.20375686883926392,0.9772759079933167,-0.05843745544552803,-0.1506209820508957,-0.28654757142066956,0.5026417970657349,0.2735200524330139,-0.9019891023635864,-0.09045779705047607
81,-1.81748645136115,-1.4354631102225932,1.3048415488596794,-0.1308346688747406,0.990856409072876,0.03294668346643448,-0.9786191582679749,0.835971474647522,1.4669651985168457,0.426214337348938,-0.9832271933555603,-0.28987419605255127
82,-1.2793269683203112,-1.5030468192057926,1.7764867981742443,-0.06484223157167435,0.99770587682724,-0.019453557208180428,-0.9282425045967102,3.4402124881744385,-0.45744970440864563,0.28368377685546875,0.8196616172790527,0.06407022476196289
83,-1.418952528449222,-1.3969285095036879,1.2541051863795853,-0.1710033118724823,0.9849230051040649,-0.026167210191488266,-0.6195859909057617,2.4925050735473633,-2.1669516563415527,-0.09860426187515259,-0.35027939081192017,0.09327536821365356
84,-1.6433052432489261,-1.2363686683346764,1.023648750179329,-0.3273659646511078,0.9445983171463013,0.023778637871146202,0.4812897741794586,-0.12823203206062317,-0.5434752106666565,0.2472725808620453,-1.0804932117462158,-0.10172057151794434
85,-1.5611684468086626,-1.2424161508831668,1.1311042040665864,-0.322495698928833,0.9465659856796265,-0.003105045761913061,0.7551634311676025,-1.236860752105713,0.10926271229982376,-0.4394672214984894,0.9067666530609131,-0.7318955659866333
86,-1.5372217591991686,-1.2478493146187075,1.3922758631235133,-0.3171834349632263,0.948304295539856,-0.01065330021083355,0.2842978835105896,-1.557550072669983,-1.1325538158416748,-0.6406259536743164,0.5653369426727295,0.5902889370918274
87,-1.5612368768690421,-1.2674885974949088,1.3780549832835973,-0.29866471886634827,0.9543537497520447,-0.002855157246813178,-0.49428901076316833,-0.4156981110572815,0.8236210346221924,0.27913346886634827,-0.6970906257629395,-0.17645084857940674
88,-2.0965993966690655,-1.406700259530246,0.9265511525273014,-0.14129391312599182,0.986566424369812,0.08199187368154526,-0.6619247794151306,-1.664677619934082,2.171752691268921,0.25686395168304443,-1.0939425230026245,-0.35077548027038574
89,-2.099590028791198,-1.511707615789242,0.7812374936727914,-0.050989869982004166,0.9982547760009766,0.02979326620697975,0.4105672836303711,0.7232171297073364,-0.11034556478261948,0.8753764629364014,3.581838607788086,-0.06436967849731445
90,-1.831750800648452,-1.4736562426575441,0.8492026075133786,-0.09370564669370651,0.9952856302261353,0.025023512542247772,-0.7640738487243652,2.915949583053589,-1.7086890935897827,-0.2916398346424103,0.13005030155181885,0.3038492202758789
91,-1.773554722226919,-1.2483872264273232,0.762232377261021,-0.3103618025779724,0.9484748244285583,0.0638052299618721,0.154008150100708,-0.7362375259399414,-1.0510135889053345,0.1901225447654724,-1.1543159484863281,-0.258675217628479
92,-1.7573585645880387,-1.2473614365570356,0.8582922421369589,-0.312310129404068,0.9481493234634399,0.05895080417394638,0.2634880542755127,-0.8780865669250488,0.2304992377758026,0.232109934091568,-1.021376371383667,-0.19661569595336914
93,-1.6259614004628173,-1.32137007096483,1.1828097382702862,-0.2464725524187088,0.9690542221069336,0.013610485009849072,1.0909736156463623,-3.202267646789551,-0.2035406529903412,-0.6718929409980774,1.4001169204711914,-0.017684578895568848
94,-1.642453734017793,-1.315233422259785,1.284363753190872,-0.2521415650844574,0.9675211310386658,0.018098799511790276,0.08117756247520447,-1.3386534452438354,0.8159581422805786,0.1970420777797699,-0.25459998846054077,0.03149223327636719
95,-2.0725615568858755,-1.4523328041219135,0.9246054811562557,-0.1036175787448883,0.9929913878440857,0.05684426799416542,-1.2219215631484985,0.036145973950624466,1.7580087184906006,0.1848096251487732,-1.061121940612793,-0.27341222763061523
96,-3.100933145296185,-1.4323719847037284,-0.2125667117401353,-0.005608767736703157,0.9904346466064453,0.13786877691745758,0.5818842649459839,1.404470682144165,0.2960974872112274,0.44628259539604187,-0.4149036407470703,-0.3690546751022339
97,-1.8963658668863528,-1.4461491604437988,0.8671687158082124,-0.1177944540977478,0.992241621017456,0.03976529836654663,0.22406131029129028,4.018005847930908,-0.3623729348182678,-0.3436008095741272,0.709647536277771,0.1812582015991211
98,-1.6567426239336556,-1.2965092593794776,0.7721427701603116,-0.2698606848716736,0.9626185297966003,0.023250803351402283,-0.4667941629886627,-0.058154162019491196,-0.9401944279670715,0.19173571467399597,-0.8276546597480774,0.001971958205103874
99,-1.6498433647473403,-1.2513303941035308,0.8519788809095034,-0.3130788505077362,0.9494032859802246,0.024799631908535957,0.02889804169535637,-1.4646995067596436,-0.08307160437107086,0.2696371078491211,-1.150254726409912,-0.2730143070220947
100,-1.6776883267744334,-1.3114395566517887,1.0550351069662494,-0.2549947500228882,0.966555118560791,0.02736118622124195,2.0813300609588623,-3.9518277645111084,1.2330979108810425,-0.03327426314353943,1.627148985862732,0.2698647975921631
101,-1.3004583452934642,-1.3193802634593013,1.6905638735488262,-0.239740788936615,0.9685611128807068,-0.06643746048212051,0.3533221483230591,0.646207869052887,0.9838483929634094,0.0661415159702301,0.07152384519577026,0.4892585277557373
102,-0.9805486628611579,-1.4368939799169778,2.016972951242562,-0.11091442406177521,0.9910484552383423,-0.07430317252874374,-0.47941574454307556,-0.4048871397972107,1.627097487449646,0.2014448344707489,-0.9452111124992371,-0.032569341361522675
103,2.2168020963127826,-1.5225893537421031,-1.0915694837647507,0.03847968578338623,0.9988382458686829,0.02901064045727253,-0.43145111203193665,1.49686598777771,0.45399901270866394,0.24066460132598877,0.03210669755935669,-0.2519263029098511
104,-2.129571841570314,-1.528002459007445,0.7723612553468314,-0.03627583384513855,0.99908447265625,0.022681286558508873,0.6558314561843872,5.093198299407959,-0.6588167548179626,-0.03617289662361145,0.63909912109375,-0.4770270586013794
105,-1.2713192240665394,-1.4709108356996423,1.3125775981137942,-0.09528077393770218,0.995015561580658,-0.029419217258691788,-0.555742084980011,0.20390717685222626,-1.0802226066589355,-0.11500058323144913,-0.5534110069274902,0.3441011905670166
106,-1.5155742794696614,-1.3805024295194306,1.0725604691687474,-0.18885959684848785,0.9819486737251282,-0.010439827106893063,-0.27963441610336304,-0.8288847804069519,-0.6700531244277954,0.06800997257232666,-1.1490933895111084,-0.12231165170669556
107,-1.7686104911023115,-1.3384357179128983,0.9981946862258699,-0.22578516602516174,0.9731255173683167,0.04525533691048622,-0.07281313836574554,-4.462405204772949,0.5094058513641357,-1.0446921586990356,4.437152862548828,-0.6987892389297485
108,-1.4848166880505527,-1.4176865737318285,1.5659264985466603,-0.1519484668970108,0.9883015751838684,-0.0130967628210783,1.2675185203552246,-0.16483241319656372,0.569475531578064,-0.166532963514328,0.17342627048492432,0.7313737273216248
109,-0.41851255148891003,-1.4488592380020198,2.6305276931444412,-0.04943280294537544,0.9925748705863953,-0.11113748699426651,0.18375737965106964,0.29733848571777344,1.330589771270752,0.22825056314468384,-0.9806272387504578,-0.0871199369430542
110,1.4941970513176972,-1.4529807777929964,-1.8686318141775802,0.11719873547554016,0.9930678009986877,-0.008994937874376774,-0.8749198317527771,2.498922348022461,0.396470844745636,0.23387548327445984,-0.6833143830299377,0.008750797249376774
111,-1.4892271982785754,-1.470961474691245,1.4071499077253715,-0.09933752566576004,0.9950206279754639,-0.008120894432067871,0.8301438093185425,3.3441975116729736,-1.6827560663223267,-0.5290346741676331,1.2272999286651611,0.02980363368988037
112,-1.5188907080038219,-1.4479471942464464,1.0138832529937678,-0.12237446010112762,0.9924635291099548,-0.006357632577419281,-0.05231163650751114,0.1754281222820282,0.010692554526031017,-0.004883810877799988,-0.6751571297645569,0.130793035030365
113,-1.2280298768953692,-1.4067751829057669,1.3453168909308695,-0.15378797054290771,0.986578643321991,-0.054879628121852875,-0.13766109943389893,-0.6143511533737183,-0.6764612793922424,0.05556716024875641,-1.0434024333953857,-0.027868743985891342
114,-1.6463553260188504,-1.3777458453345615,1.0694419876077939,-0.1913066953420639,0.981423556804657,0.014482514001429081,-0.35367482900619507,-5.027951240539551,1.1088144779205322,-0.9464496374130249,4.458624839782715,-0.9872303009033203
115,-1.5961860379036146,-1.450403887773054,1.4466849405741609,-0.12006352096796036,0.9927615523338318,0.0030490332283079624,0.54032301902771,0.5508641004562378,-0.12686099112033844,-0.30960872769355774,0.2219448685646057,0.7430142164230347
116,-0.6028063355839334,-1.4769541832425312,2.4284930672451845,-0.0531262643635273,0.9956000447273254,-0.07718872278928757,0.6616856455802917,-0.051565609872341156,1.2615656852722168,0.1901654601097107,-0.9729713201522827,-0.07484984397888184
117,2.106344397002965,-1.495403178655025,-1.1877263535372184,0.06477604806423187,0.9971593022346497,0.038437727838754654,-1.7068291902542114,0.20878125727176666,0.3283330798149109,0.36662042140960693,-0.9710515141487122,-0.39248740673065186
118,-2.22772106510712,-1.5077018916770675,0.7945163932999312,-0.04992993548512459,0.9980102181434631,0.03850541636347771,0.18169742822647095,2.277069568634033,-0.3070645332336426,-0.12386766821146011,1.0150666236877441,0.16526055335998535
119,-1.4983586249479617,-1.4451327699860297,1.0674938275103134,-0.12500452995300293,0.9921147227287292,-0.00907091237604618,0.5583615899085999,3.7502737045288086,-1.2003651857376099,-0.20943760871887207,-0.33705490827560425,-0.009682178497314453
120,-1.4438969655976979,-1.3313110451832029,1.1137947530245424,-0.2352954000234604,0.971460223197937,-0.030020153149962425,-0.11902135610580444,-1.07321298122406,-1.1027836799621582,0.1559039205312729,-1.0169771909713745,-0.016122400760650635
121,-1.5538672274093321,-1.2670279305689476,1.1154111067611447,-0.2990756332874298,0.9542160630226135,-0.005063564982265234,0.6840683221817017,0.0640030950307846,0.35616469383239746,0.1858249008655548,-0.661857545375824,-0.290224552154541
122,-1.5797541027218982,-1.316111324076536,1.408352548779736,-0.2519303560256958,0.9677426815032959,0.0022567962296307087,1.4331969022750854,-3.7339305877685547,0.6348445415496826,-0.2257154881954193,0.7363893389701843,0.30166780948638916
123,-1.2928462895732529,-1.3458105053464864,1.8452895602025117,-0.21453045308589935,0.974797248840332,-0.06121329590678215,0.7111820578575134,-0.11458747833967209,0.342893123626709,0.08202312886714935,-0.7715807557106018,-0.04362982511520386
124,-1.5146656242690588,-1.3965987288320854,1.5751734777775006,-0.1730453372001648,0.9848659038543701,-0.009723369963467121,-1.9085463285446167,0.6487162113189697,0.6439364552497864,0.3332778811454773,-1.0972621440887451,-0.19347786903381348
125,-1.908526412636336,-1.4423755212578968,1.074036498653501,-0.12083366513252258,0.9917653799057007,0.042434968054294586,1.3897802829742432,-0.05291438847780228,-2.0175609588623047,0.3304436504840851,4.879618167877197,-0.7832796573638916
126,-1.7237030092809305,-1.3849255293680205,0.9018281070989194,-0.18264563381671906,0.9827756881713867,0.028147445991635323,-1.0170762538909912,4.453929424285889,-0.7322366833686829,0.007749423384666443,0.045758068561553955,0.005803341045975685
127,-1.638393682213752,-1.2704043555854372,0.8577098653248988,-0.295218825340271,0.9552205801010132,0.019986463710665703,0.40840548276901245,0.1208590492606163,-1.3577847480773926,0.14491978287696838,-0.9719899892807007,-0.041928648948669434
128,-1.5941441135912369,-1.2433286326724877,0.9665561879839992,-0.32155874371528625,0.9468598961830139,0.007509049493819475,3.267487045377493e-05,-1.4721322059631348,0.37471428513526917,0.23964956402778625,-1.0820832252502441,-0.2198503017425537
129,-1.5394569236295692,-1.2993464252381972,1.3081307775021556,-0.26799654960632324,0.963383138179779,-0.008401602506637573,1.6358518600463867,-2.6645851135253906,0.7250810861587524,-0.44622156023979187,1.4509234428405762,-0.00755911972373724
130,-1.4206422510490468,-1.304318653614704,1.541742086367644,-0.26037201285362244,0.9647044539451599,-0.039392415434122086,0.4468397796154022,0.39239999651908875,0.6984781622886658,-0.030246853828430176,-0.2786845564842224,-0.02766990289092064
131,-1.3735677061018359,-1.403660527474839,1.6129029512668116,-0.16313350200653076,0.9860652685165405,-0.032598379999399185,-1.1542909145355225,-0.23225420713424683,1.2814253568649292,0.27292048931121826,-1.03056001663208,-0.06415760517120361
132,-3.04943276812647,-1.5210332685154988,-0.11243632787109661,-0.0045775179751217365,0.9987620711326599,0.049528609961271286,-0.10828826576471329,1.5840009450912476,0.5507667660713196,0.18688952922821045,-0.6980419754981995,-0.20651113986968994
133,-1.72796005249752,-1.4156924082547584,1.0660868110288335,-0.1525796800851822,0.9879955053329468,0.024179400876164436,-0.5090376734733582,5.585033893585205,-0.5237734913825989,-0.1534048467874527,0.6454122066497803,-0.27944374084472656
134,-1.5646942431720707,-1.3206254934270998,0.8822212797745154,-0.2475646734237671,0.9688701629638672,-0.0015106791397556663,-0.0716341882944107,0.3678755462169647,-1.497400164604187,-0.04715880751609802,-0.777311384677887,0.09411627054214478
135,-1.5901292231353128,-1.2791563419527423,0.9006586769483416,-0.2874698340892792,0.9577736258506775,0.005558316595852375,0.08616407960653305,-1.0713917016983032,0.6468217372894287,0.1625003218650818,-1.1953530311584473,-0.14647328853607178
136,-1.7040476984359243,-1.3180764837854901,0.9617932366857204,-0.247821643948555,0.9682359099388123,0.03321941941976547,0.5026073455810547,-3.872194290161133,1.5351473093032837,-0.4946710169315338,4.1134138107299805,-0.661103367805481
137,-1.6304111089878865,-1.3679390314040596,1.3213244459601279,-0.20111137628555298,0.9794949293136597,0.012003433890640736,0.06532234698534012,0.7970045208930969,-0.0554831363260746,-0.2145838588476181,0.17057538032531738,0.6792807579040527
138,-1.2169097023334716,-1.4341053482707367,1.7309662058113704,-0.12782108783721924,0.9906723499298096,-0.04722213372588158,0.08279333263635635,-0.6772322058677673,0.9362303018569946,0.21922124922275543,-0.9739030003547668,-0.0558205209672451
139,-3.0237726458799252,-1.5253278106558075,-0.04875670768123193,-0.005342885386198759,0.9989664554595947,0.045137837529182434,-0.6921509504318237,1.303269863128662,1.1771961450576782,0.29971545934677124,-1.0068247318267822,-0.055025577545166016
140,-1.7962216229696248,-1.4435764264624453,1.0972236295188196,-0.12366810441017151,0.9919184446334839,0.02835993841290474,0.5709978342056274,3.3936450481414795,-0.9102578163146973,-0.042454347014427185,1.0607397556304932,-0.08461916446685791
141,-1.6485196234293586,-1.3460308791127933,0.884368838020124,-0.22220490872859955,0.9748464226722717,0.01730535924434662,-0.9939230680465698,2.399113178253174,-1.409935712814331,-0.12728241086006165,-0.31916099786758423,0.3728466033935547
142,-1.6255874019811263,-1.2449842655472874,0.8906039734421547,-0.31959792971611023,0.9473910927772522,0.017528658732771873,0.674953043460846,-0.11317311227321625,-0.13046354055404663,0.11436724662780762,-1.2292362451553345,-0.11210262775421143
143,-1.515654535713095,-1.2752358350831399,1.0959523937356233,-0.2908332645893097,0.9566390514373779,-0.016053341329097748,0.6973074078559875,-2.168962240219116,-0.014382348395884037,-0.3741142451763153,1.094142198562622,-0.45602309703826904
144,-1.4632885837300826,-1.280259522056525,1.562299736272774,-0.2848128080368042,0.9580902457237244,-0.030738096684217453,1.8837517499923706,-3.642025947570801,-0.529222846031189,-0.6381760835647583,0.5282531976699829,0.525824785232544
145,-1.1188277880296382,-1.345236614412445,1.9065700256261482,-0.20119507610797882,0.9746690988540649,-0.09767724573612213,0.14667361974716187,0.3209418058395386,1.3306894302368164,0.2739031910896301,-0.7992235422134399,-0.29957008361816406
146,-1.331164039192134,-1.516392152842284,1.7811430767362046,-0.052825991064310074,0.9985204339027405,-0.012906815856695175,-1.1063214540481567,-0.0825943723320961,1.9061620235443115,0.17507940530776978,-1.0652012825012207,-0.08220124244689941
147,-1.8575408544763357,-1.480846287995847,1.1158434734507316,-0.08616043627262115,0.9959571957588196,0.02540620043873787,0.2558680474758148,-0.9496259093284607,-4.006591796875,0.015176557004451752,4.902159690856934,-0.10629308223724365
148,-1.6110246041917657,-1.3461344765764502,1.0710064314817795,-0.222597137093544,0.9748694896697998,0.008959533646702766,-1.0825932025909424,3.906656265258789,-1.1516497135162354,-0.22599604725837708,0.03587275743484497,-0.0009181490167975426
149,-1.6540328134721256,-1.2241225992392528,0.8645059688536613,-0.33859482407569885,0.9405080676078796,0.028248712420463562,0.28735247254371643,-0.38005658984184265,-0.22102433443069458,0.08239978551864624,-1.112673044204712,0.01209544762969017
150,-1.59022708616078,-1.2310883164499065,0.961365950846565,-0.33314892649650574,0.9428520202636719,0.006474151276051998,0.1979280263185501,-0.8881479501724243,0.39948853850364685,0.21133801341056824,-0.9465904235839844,-0.2827345132827759
151,-1.5028642603270872,-1.2959710602506842,1.310510058113804,-0.27075326442718506,0.9624726176261902,-0.018421173095703125,1.4200154542922974,-3.1223063468933105,0.407471239566803,-0.41201654076576233,1.2480683326721191,-0.13274765014648438
152,-1.3984254413555188,-1.3367086651381845,1.550947748225761,-0.2285183072090149,0.9727263450622559,-0.039784710854291916,0.1664062738418579,-0.78907710313797,0.56341952085495,-0.03272742033004761,-0.43776845932006836,0.03708392381668091
153,-1.5809293144359478,-1.370044787377266,1.4590692908412202,-0.19939550757408142,0.9799169898033142,0.0020205413457006216,-1.320340871810913,-0.3145277202129364,0.31154510378837585,0.2513822019100189,-1.0335516929626465,-0.08737826347351074
154,-2.2399069121608077,-1.4164992842254012,0.7660388231257065,-0.12054760009050369,0.9881197810173035,0.09532995522022247,0.11429976671934128,0.8302084803581238,0.8052061796188354,0.2482636570930481,-0.5047212839126587,-0.04303799569606781
155,-1.794059311291362,-1.3803542218404126,1.0193738819470544,-0.18459481000900269,0.9819206595420837,0.04191190004348755,0.12366802990436554,3.6719565391540527,-0.5350404381752014,-0.21575003862380981,0.38403087854385376,0.038852810859680176
156,-1.7051024897058478,-1.244759538708853,0.8861197301611297,-0.3174070715904236,0.9473191499710083,0.04288790747523308,0.11224889755249023,-0.5896487832069397,-1.2325289249420166,0.2034086287021637,-0.8592148423194885,0.09042811393737793
157,-1.5834545191855025,-1.2130740165809617,1.0358811682158824,-0.35011401772499084,0.9366967678070068,0.004432047251611948,0.32326722145080566,-0.40867069363594055,0.37669265270233154,0.28019824624061584,-1.1529899835586548,-0.155326247215271
158,-1.51447430364673,-1.2556470742273338,1.2632442491469877,-0.30946728587150574,0.9507501125335693,-0.01744827814400196,1.5515942573547363,-1.1570430994033813,1.4402704238891602,0.21675485372543335,1.1961920261383057,0.4284895658493042
159,-1.4020865175991175,-1.2769151055241732,1.6029722567271731,-0.28555622696876526,0.957126796245575,-0.0486384779214859,0.5873422622680664,-0.058384332805871964,0.3201730251312256,-0.37356239557266235,-0.0884440541267395,1.0180293321609497
160,-1.393644789167768,-1.3240265874014208,1.6706848708178061,-0.2404499500989914,0.9697065353393555,-0.043047334998846054,-0.7496862411499023,-0.4619283676147461,0.8281910419464111,0.3694477677345276,-0.9570265412330627,-0.14410173892974854
161,-2.60312677380462,-1.5320093777800035,0.45808471150466284,-0.01988643780350685,0.9992479085922241,0.03329131379723549,-0.21621574461460114,2.473095178604126,2.248114585876465,0.25008052587509155,-0.8384813070297241,-0.09904146194458008
162,-1.5268002904442808,-1.3960527079888383,1.3503020292486483,-0.17368681728839874,0.9847711324691772,-0.007646465674042702,-0.1418803632259369,4.110705852508545,-1.0370302200317383,-0.39076629281044006,1.3202824592590332,0.01709163188934326
163,-1.5935808517399417,-1.2929229512382163,0.9062077552069242,-0.2742399275302887,0.9616409540176392,0.006249507889151573,-0.43455952405929565,0.8037812113761902,-1.5601383447647095,-0.14513260126113892,-0.5833756327629089,0.1997135877609253
164,-1.6364835122615102,-1.2101421473307068,0.9334060159853126,-0.3521251082420349,0.9356661438941956,0.023163432255387306,0.20788119733333588,-1.3145718574523926,0.26990583539009094,0.2076854407787323,-1.2667820453643799,-0.22525084018707275
165,-1.5997424850765796,-1.2509719513036348,1.1569244764663507,-0.31426841020584106,0.9492906332015991,0.009099404327571392,1.4626342058181763,-6.175088405609131,-0.47754716873168945,-1.7380235195159912,5.407109260559082,-1.2127890586853027
166,-1.2994029127336262,-1.3059538186415283,1.7812700003944568,-0.2521771788597107,0.9651337265968323,-0.07017053663730621,1.030143141746521,-1.6319164037704468,-0.045383062213659286,-0.4581042230129242,0.3949127793312073,0.8259231448173523
167,-1.157631431423979,-1.3270025640555811,1.9372110867717394,-0.22107426822185516,0.9704291820526123,-0.09691876918077469,-0.06790319085121155,-0.3442574441432953,0.1400284618139267,0.25797000527381897,-0.9654853940010071,-0.07646685838699341
168,-1.7546577348865027,-1.377837523537757,1.3131548427677506,-0.18853217363357544,0.9814411401748657,0.03505975008010864,-1.9512935876846313,0.1546114683151245,1.3569092750549316,0.5413305759429932,-1.0694994926452637,-0.21630370616912842
169,-1.85384991881159,-1.33403192805039,1.1617953543245878,-0.22522573173046112,0.9721019864082336,0.06550990790128708,-0.17176896333694458,0.732232391834259,0.01840154640376568,-0.15790724754333496,0.9056752920150757,-0.6605567932128906
170,-1.6576144579933323,-1.2623593231128423,0.8716113022338609,-0.30242663621902466,0.95280921459198,0.02632228285074234,-0.9905264973640442,3.4999911785125732,-2.366098165512085,-0.22561901807785034,-0.3220871686935425,0.35005104541778564
171,-1.6468097798762646,-1.137829808431831,0.8950875252839254,-0.41835373640060425,0.9077250957489014,0.03186190128326416,0.7356495261192322,-0.5678200721740723,0.3372802138328552,0.18872427940368652,-1.2716777324676514,-0.16111910343170166
172,-1.6000695090955168,-1.1816904444107632,1.033791527461264,-0.3791983723640442,0.9252486228942871,0.011103514581918716,0.7221757769584656,-2.049060344696045,0.35148975253105164,-0.38137590885162354,0.7915175557136536,-0.4816693067550659
173,-1.462537453957182,-1.232295101853281,1.5147598849610444,-0.3301297128200531,0.9432534575462341,-0.035879749804735184,1.11707603931427,-3.185072183609009,-1.025992512702942,-0.6352328062057495,0.8257284760475159,0.7873140573501587
174,-1.3261554826859763,-1.260867374822096,1.646159086016509,-0.29590967297554016,0.9523552656173706,-0.07387121021747589,0.21330676972866058,-0.13075490295886993,1.0423189401626587,0.3439900875091553,-0.8418968915939331,-0.1999477744102478
175,-1.5622585552770163,-1.4371695705758682,1.4625147965412564,-0.13322466611862183,0.9910852313041687,-0.0011374694295227528,-1.1435868740081787,-0.3133045434951782,2.678471326828003,0.3831788897514343,-1.0976221561431885,-0.15697413682937622
176,-1.6848612883895795,-1.4345922313784865,1.217184566467637,-0.1348998099565506,0.990738570690155,0.015454424545168877,-0.06169280409812927,0.20162850618362427,-1.4131571054458618,0.7412230968475342,0.9211722612380981,0.15324664115905762
177,-1.5859953235456865,-1.374557639325322,0.9943437964194834,-0.19495899975299835,0.9808068871498108,0.002963409526273608,-0.36338621377944946,3.59425950050354,-1.3527734279632568,-0.24370063841342926,-0.09701788425445557,0.13335859775543213
178,-1.5542992417050405,-1.2147275114457028,0.9563903009668195,-0.34854504466056824,0.9372744560241699,-0.005750499200075865,0.26867204904556274,-0.8896458745002747,-0.9092029333114624,0.16463086009025574,-1.188342571258545,-0.03344935178756714
179,-1.5745645027137842,-1.218324026446297,1.0558643094336404,-0.3452163636684418,0.9385221004486084,0.0013008421519771218,0.42554858326911926,-1.625461459159851,0.7552703619003296,0.26954805850982666,-0.8345183730125427,-0.3192176818847656
180,-1.3278917676798987,-1.3029406899624671,1.7079617943868266,-0.2568943500518799,0.9643406271934509,-0.06365775316953659,1.9160107374191284,-3.433713912963867,-0.07150917500257492,-0.49763748049736023,0.9016566276550293,0.3465251922607422
181,-1.312564273069681,-1.3283568320248211,1.808886484580294,-0.23211173713207245,0.9707552194595337,-0.061307527124881744,0.20963558554649353,-0.4418376386165619,0.5334722399711609,0.15847280621528625,-0.8033815026283264,-0.17088544368743896
182,-1.7187434807046607,-1.39318782696559,1.4634995782932705,-0.17474594712257385,0.9842690229415894,0.02604345977306366,-1.7048537731170654,-0.19517429172992706,0.8794849514961243,0.31386032700538635,-1.077530860900879,-0.14374983310699463
183,-2.0944239328892285,-1.386970258703837,1.0697863286489189,-0.1583002507686615,0.9831514954566956,0.09140077978372574,0.5327951312065125,-0.17423705756664276,-2.8461711406707764,0.3336695432662964,4.196032524108887,0.16052186489105225
184,-1.7365515548244412,-1.3304151235983608,1.1101662505368592,-0.23481012880802155,0.9712473154067993,0.039281416684389114,-1.2476342916488647,5.042450428009033,-0.7937666773796082,-0.12952397763729095,0.009389340877532959,0.16169202327728271
185,-1.5786034356704912,-1.2156553906109735,1.1164236981631488,-0.3477120101451874,0.9375975131988525,0.0027146805077791214,0.4754028916358948,-0.37147057056427,-0.805428147315979,0.175104558467865,-0.97133469581604,0.03009164333343506
186,-1.5841262513252319,-1.1861517684606007,1.1675739959313065,-0.37519657611846924,0.9269318580627441,0.00500163808465004,-0.15160676836967468,-0.7349492311477661,0.5470333099365234,0.31249821186065674,-0.8738007545471191,-0.20579195022583008
187,-1.4930865702912797,-1.2439598485789125,1.5776391939792513,-0.3200797438621521,0.9470627307891846,-0.024923507124185562,2.8526687622070312,-5.584506988525391,-0.18342721462249756,-0.6518746018409729,1.2843520641326904,-0.09920674562454224
188,-1.3677606075901148,-1.2662195432510681,1.785576494253075,-0.29372894763946533,0.9539739489555359,-0.06047069653868675,-0.2592948079109192,1.1522033214569092,1.0565736293792725,0.17118564248085022,-0.5005592107772827,-0.16397082805633545
189,-1.4243035059592035,-1.3880312491167395,1.7315503382743485,-0.17980249226093292,0.9833449125289917,-0.0265298243612051,-1.0976917743682861,-0.24081695079803467,1.7464934587478638,0.3819356858730316,-1.0693129301071167,-0.02812713198363781
190,-2.2572254367522278,-1.473833739267978,0.8542326745344648,-0.0748845636844635,0.9953027963638306,0.06135669723153114,0.5534822940826416,-1.9916812181472778,-3.988619804382324,-0.3460138738155365,5.4695868492126465,-1.137269139289856
191,-1.8110390834838193,-1.3423380832179903,0.9333157164821437,-0.21997220814228058,0.9740167260169983,0.05388747155666351,-1.3616539239883423,5.029679298400879,-0.9782268404960632,-0.01646275818347931,0.05880504846572876,0.11608017235994339
192,-1.66183277273174,-1.0914312129722945,0.7811161471327168,-0.45930618047714233,0.8872879147529602,0.04192949831485748,0.21605299413204193,-0.21918095648288727,-0.7824209332466125,0.33583205938339233,-1.311222791671753,-0.2194807529449463
193,-1.7280052028471418,-1.1241802034038597,0.7946904273567894,-0.42659011483192444,0.9019138216972351,0.06762176007032394,-0.019160369411110878,-0.7997445464134216,0.28875207901000977,0.35760506987571716,-0.852597177028656,-0.27099084854125977
194,-1.849475950448168,-1.2097550487113176,0.8497472152574856,-0.3396201729774475,0.9355295300483704,0.09717392176389694,1.6635791063308716,-4.7394514083862305,-0.27409178018569946,-0.5732827186584473,1.3852713108062744,-0.6652281284332275
195,-1.6966703680749449,-1.2602501169217417,1.111570901734041,-0.30316096544265747,0.9521667957305908,0.03836292028427124,-1.0990509986877441,0.6482266783714294,0.14050722122192383,0.01063472032546997,-0.2705109715461731,0.14507830142974854
196,-1.9153287638734955,-1.2545986319782265,0.8279030166811179,-0.2926812469959259,0.9504246115684509,0.10502711683511734,-1.1030337810516357,1.0095516443252563,0.2987607717514038,0.3534722626209259,-0.9960026741027832,-0.16789329051971436
197,-2.1447635621519066,-1.3137716763228646,0.5330552947482715,-0.21346880495548248,0.9671506285667419,0.13802465796470642,1.2364128828048706,2.323289394378662,-2.292346954345703,-0.09776473045349121,4.746808052062988,-0.41959500312805176
198,-1.8236393638392354,-1.1476507868739754,0.37905048216828274,-0.3975750207901001,0.911801815032959,0.10272245854139328,-1.523211121559143,4.861109733581543,-2.5810537338256836,-0.25734755396842957,0.39518988132476807,0.09042336046695709
199,-1.7103987922558221,-0.9236069767546724,0.1299867850681832,-0.5970807671546936,0.7977816462516785,0.08389969170093536,-0.5190392136573792,1.1191877126693726,0.13589809834957123,0.4418836236000061,-1.1110140085220337,0.09465861320495605
200,-1.7314062969994342,-0.9879225325945362,0.08093795436388083,-0.5433417558670044,0.8348842859268188,0.08802428841590881,-0.1331413835287094,0.33577486872673035,0.25361162424087524,0.4320898652076721,-0.8829646110534668,-0.03835689276456833
201,-1.6999015413195877,-1.0295223042574257,0.04194825572401685,-0.5109402537345886,0.8570529818534851,0.06633401662111282,-0.43588927388191223,0.871805727481842,2.4612443447113037,0.6402738094329834,0.9237086772918701,0.7169301509857178
202,-1.6028175988389282,-1.1085999762933385,0.2737930335254052,-0.44568660855293274,0.895075261592865,0.014276332221925259,0.44820064306259155,1.5317740440368652,-1.5834572315216064,-0.4966809153556824,0.1606650948524475,0.5663357973098755
203,-1.2206980994695797,-1.1891494741771065,0.392054910124386,-0.349855899810791,0.928052544593811,-0.1277463138103485,-0.0048048896715044975,3.101494073867798,2.1052229404449463,0.3830285370349884,-0.7650430202484131,0.11561556160449982
204,-0.7992354980671915,-1.3482887629367613,0.5442354606359612,-0.15818601846694946,0.9753471612930298,-0.15386775135993958,-0.2932511568069458,4.1692423820495605,0.47127845883369446,0.24632079899311066,-1.0520071983337402,0.3852977752685547
205,-0.6498171311480601,-1.2191234744222672,0.3317404581763413,-0.20841778814792633,0.9387977719306946,-0.27426427602767944,0.07213708758354187,0.7845363020896912,-2.5113184452056885,1.6333903074264526,2.5780022144317627,0.8212918639183044
206,-0.7988550904425543,-1.214774485990824,-0.05664761221015331,-0.24975530803203583,0.9372907876968384,-0.24312227964401245,-0.5957543253898621,3.6053013801574707,-0.33329102396965027,0.23554937541484833,0.5485643148422241,0.30076998472213745
207,-0.6652462156467815,-1.2407881500228122,-0.218400356012916,-0.20002144575119019,0.9460396766662598,-0.25495198369026184,-0.28812161087989807,2.3029258251190186,-0.27702945470809937,0.22454231977462769,-0.5905556678771973,0.11414384841918945
208,-0.7264440156514752,-1.2627351818692087,-0.40881051962313214,-0.20139768719673157,0.9529232382774353,-0.22666290402412415,-0.6132108569145203,0.3682253956794739,-0.5795843005180359,0.10496215522289276,-0.9743619561195374,0.0019772350788116455
209,-0.9187410189322113,-1.2172684610722726,-0.5773403652398104,-0.2751806974411011,0.9381572008132935,-0.21008741855621338,0.16621935367584229,-1.800479769706726,-0.32176855206489563,-0.19625481963157654,2.1647329330444336,-0.23261581361293793
210,-1.1507324869284783,-1.1574421027334167,-0.7393248153448039,-0.3667619228363037,0.915778636932373,-0.16381388902664185,-0.6054344177246094,1.362851619720459,-1.782012701034546,-0.6233503818511963,0.6216357946395874,0.6617081761360168
211,-1.0121263493823272,-1.1635716979000348,-0.6958429999762608,-0.3358452022075653,0.9182235598564148,-0.2099362462759018,0.5181031227111816,0.998826265335083,1.7669823169708252,0.4067375659942627,-0.47643595933914185,0.15479101240634918
212,-0.6618204218957859,-1.356368397051517,-0.43788880930636753,-0.13077011704444885,0.977098286151886,-0.1678636074066162,-1.8857285976409912,1.5737427473068237,2.1760754585266113,0.31975021958351135,-0.806505024433136,0.2520005702972412
213,-0.6752820894455625,-1.5269334321873924,-0.6357847096405732,-0.02741069905459881,0.9990381598472595,-0.03422538936138153,0.19861184060573578,-1.3872168064117432,-1.8110206127166748,0.28258341550827026,1.6638035774230957,-0.5681000351905823
214,-0.818483539067077,-1.4524855494194462,-1.014478513583266,-0.08617875725030899,0.9930094480514526,-0.08065692335367203,-0.2804470956325531,4.4175615310668945,-0.685491144657135,-0.03824140876531601,0.48680317401885986,0.17236226797103882
215,-0.7399331290088493,-1.4333988082993567,-1.2216686157381367,-0.09234709292650223,0.9905757904052734,-0.10115053504705429,-0.06666732579469681,0.6038913130760193,0.09361322224140167,-0.11216645687818527,-0.403905987739563,0.4505463242530823
216,-0.7828807316369233,-1.4424043465588132,-1.3099821245819565,-0.09031032770872116,0.9917690753936768,-0.09076617658138275,-0.17629767954349518,0.30042049288749695,-0.314060777425766,0.02916835993528366,-1.0123835802078247,-0.011498220264911652
217,-1.2497392327491623,-1.4300016978861627,-1.7447052688918316,-0.1331595629453659,0.9901047945022583,-0.04428394138813019,0.6036159992218018,-1.811394453048706,-0.8544487953186035,-0.4391671121120453,1.7855452299118042,-0.7953766584396362
218,-1.0659531515908485,-1.4088397091186016,-1.3883542065797134,-0.14113445580005646,0.9869136810302734,-0.07799199968576431,0.3122027814388275,-1.8600800037384033,0.4287150204181671,-0.27199727296829224,0.7638493776321411,0.4140515923500061
219,-0.9257137910382801,-1.4133344032761883,-1.1734338963230755,-0.12530046701431274,0.9876284599304199,-0.09428533166646957,0.3799140155315399,-0.3335701823234558,0.5671094059944153,0.14886005222797394,-0.7272830605506897,0.08848703652620316
220,-0.039374435658081366,-1.4934809895414038,-0.2797373824579821,-0.003040403127670288,0.9970126748085022,-0.07717778533697128,-1.0557422637939453,0.41833242774009705,1.6338441371917725,0.1591378152370453,-1.026950478553772,-0.02981685847043991
221,1.2121629048030822,-1.5380061422985425,0.8936638620306594,0.030699346214532852,0.9994624257087708,-0.011507449671626091,0.14780715107917786,3.1815147399902344,-0.2544081211090088,0.06054820120334625,1.019519567489624,-0.27148205041885376
222,-0.856510502861512,-1.4366018404299452,-1.4404339051544186,-0.10108805447816849,0.9910094141960144,-0.08764418959617615,0.0290775578469038,2.3461453914642334,-2.1707682609558105,-0.10289143770933151,0.12012028694152832,0.32027965784072876
223,-1.340180129866759,-1.338158088003197,-2.007391145432347,-0.2244425117969513,0.9730615615844727,-0.05269762501120567,0.06697004288434982,-0.8456071615219116,-0.9799761772155762,0.06996248662471771,-0.9257286787033081,0.07813405245542526
224,-1.555097008186098,-1.2668401727924266,-2.1141347255298424,-0.2992604672908783,0.9541599154472351,-0.004698571749031544,-0.4290112853050232,-2.286355972290039,0.005303028039634228,0.1877797544002533,-1.1231968402862549,-0.33711355924606323
225,-1.5061219723624548,-1.348695701388733,-1.7240937344753176,-0.219818577170372,0.9754368662834167,-0.014236479997634888,2.0402679443359375,-3.111713171005249,0.6976220607757568,-0.3066706657409668,1.3954737186431885,-0.033935546875
226,-1.1353062936782303,-1.3797702605163442,-1.3065199459147525,-0.17214512825012207,0.9818099141120911,-0.08009613305330276,0.02001570723950863,0.2933523654937744,0.829346776008606,0.11025547981262207,-0.6135237812995911,0.14433562755584717
227,-1.0559796306037954,-1.5057326716053596,-1.3068582068133192,-0.0565924309194088,0.9978840947151184,-0.03201431408524513,-1.6041680574417114,0.0845746248960495,1.4263523817062378,0.2386145293712616,-1.0447590351104736,-0.07221847772598267
228,3.1376105023405545,-1.4468220358534551,2.890102411009844,0.000492422201205045,0.9923250079154968,0.12365668267011642,-0.5635475516319275,-1.109231948852539,-1.0029120445251465,1.0933185815811157,2.9384307861328125,-0.16125427186489105
229,-2.997791638244257,-1.53248098522117,2.783705153506873,-0.0054895044304430485,0.9992660284042358,0.037910811603069305,0.8345719575881958,3.9196677207946777,-0.14686045050621033,-0.027774646878242493,0.4602218270301819,0.3044048547744751
230,-1.660611342051939,-1.437360888989692,-2.395904810628796,-0.13250312209129333,0.9911106824874878,0.011932873167097569,-0.24452804028987885,0.10237843543291092,-1.6323877573013306,0.010478600859642029,-0.8394383788108826,-0.0774388313293457
231,-1.6851381669284065,-1.3229194078096091,-2.3805088879284133,-0.2437443882226944,0.9694355130195618,0.027992278337478638,-0.2153414487838745,-1.2842926979064941,-0.2691587805747986,0.1648717075586319,-1.1749866008758545,-0.26967620849609375
232,-1.7731539473940798,-1.4166598493603402,-2.2649358865866156,-0.15039384365081787,0.9881444573402405,0.030855659395456314,1.091673731803894,-4.2705817222595215,1.947743535041809,-0.44067060947418213,3.796157121658325,-0.11691522598266602
233,-1.84459426309068,-1.43543646125496,-2.1472034480292495,-0.12992070615291595,0.9908528327941895,0.03648839890956879,0.019644033163785934,0.5527633428573608,-0.08593086153268814,-0.17040278017520905,-0.06488847732543945,0.31621861457824707
234,-1.0765706498477718,-1.4903118730915708,-1.364493271567944,-0.07077779620885849,0.9967628717422485,-0.038137082010507584,-0.03248203173279762,-1.0588617324829102,1.1649986505508423,0.2250441610813141,-1.0212074518203735,-0.09104382991790771
235,2.98415210094613,-1.5024501295299026,2.695917687214638,0.010707547888159752,0.997665286064148,0.0674472376704216,-1.255836844444275,1.7109988927841187,-0.5957026481628418,0.4133952260017395,-0.993682861328125,-0.22140836715698242
236,-1.8696466042890005,-1.3834603559708005,-2.356992330454033,-0.17798712849617004,0.9825038909912109,0.054833732545375824,-0.6566373705863953,3.3706326484680176,-1.0889272689819336,-0.31131643056869507,1.331369400024414,-0.9637235403060913
237,-1.7134151217750413,-1.1857898544609866,-2.545902724529342,-0.37175217270851135,0.926796019077301,0.053381264209747314,-1.516421914100647,1.9091589450836182,-2.6487104892730713,-0.24760207533836365,-0.2680893540382385,0.48967909812927246
238,-1.7004261703819328,-1.1333209907067645,-2.5676126960856407,-0.42009925842285156,0.9058241248130798,0.05476449802517891,0.15638673305511475,0.026402482762932777,0.023517271503806114,0.32439616322517395,-1.1102004051208496,-0.1690375804901123
239,-1.799350093852158,-1.1737070823344506,-2.5081175120042496,-0.3766782581806183,0.9221906065940857,0.0876222774386406,1.5281747579574585,-3.0896193981170654,0.48022186756134033,-0.46604934334754944,1.2436875104904175,-0.4203249514102936
240,-1.7662358854215148,-1.2391011041943785,-2.0282184218234613,-0.3194466531276703,0.9454916715621948,0.06323975324630737,1.343943476676941,-2.130479097366333,-0.1908714771270752,-0.8241690397262573,0.4113960862159729,0.7277606725692749
241,-1.7544414610558208,-1.3117696567980224,-2.0437742781770205,-0.25183236598968506,0.9666397571563721,0.04677480831742287,-0.1301829069852829,0.6631153225898743,1.1076263189315796,0.23843517899513245,-0.8122056722640991,-0.1456059217453003
242,-2.342644433630069,-1.4235237069329765,-2.6116347844750187,-0.10515829175710678,0.9891749620437622,0.10234641283750534,-1.2013541460037231,-0.9093530178070068,2.014726161956787,0.3400978744029999,-1.1021968126296997,-0.23207664489746094
243,-2.6369362829871954,-1.3651553667679295,-2.8724453519750304,-0.09872975945472717,0.9789302945137024,0.17874039709568024,1.1708451509475708,0.6603041887283325,-1.9882736206054688,1.1471611261367798,1.4654514789581299,0.12521471083164215
244,-2.0553328545327836,-1.315522609258646,-2.5339445782018397,-0.22344428300857544,0.9675942063331604,0.11761897802352905,-1.2695661783218384,2.7723214626312256,-1.2180238962173462,-0.26906365156173706,0.2226981520652771,0.39078855514526367
245,-1.8248101928355491,-1.1590202832902017,-2.5101032934942435,-0.38739466667175293,0.9164113998413086,0.10057613998651505,0.3831309974193573,-0.4169534742832184,-0.12624098360538483,0.18286582827568054,-1.047835350036621,-0.16402220726013184
246,-1.7664325577585893,-1.1928322465580885,-2.4136694090017268,-0.3619896173477173,0.9294178485870361,0.07173582166433334,0.47915348410606384,-0.6058574914932251,0.48551246523857117,0.2829796075820923,-0.9135335087776184,-0.3565257787704468
247,-1.7005201057514603,-1.2480693725512522,-2.0371303873535735,-0.31448912620544434,0.9483740925788879,0.04102711379528046,1.7822651863098145,-4.577736854553223,0.029249928891658783,-0.7438299655914307,1.2570703029632568,-0.023906707763671875
248,-1.665761871088916,-1.247499503091024,-1.8489596358882483,-0.3162623345851898,0.9481931924819946,0.030124638229608536,0.07738697528839111,2.1238529682159424,0.9301297068595886,0.1275874674320221,-0.46110230684280396,-0.3699531555175781
249,-1.7645042849339299,-1.4378138379377339,-1.9449501501501365,-0.13011156022548676,0.9911708235740662,0.025523684918880463,-0.5534370541572571,-1.3060197830200195,2.9128849506378174,0.38703906536102295,-1.047109603881836,-0.04224729537963867
250,2.9289736564085254,-1.4424873680916601,2.6607850858929543,0.027001656591892242,0.9917796850204468,0.125076025724411,-0.44628608226776123,-0.9374372363090515,-2.387723445892334,0.27907440066337585,0.5574451684951782,-0.4154508113861084
251,-1.8744735587294683,-1.332970431787026,-2.308058365043214,-0.2248101532459259,0.9718524813652039,0.07044874876737595,-1.2323280572891235,3.7660720348358154,-2.0094916820526123,-0.3795294165611267,0.43072009086608887,0.14828598499298096
252,-1.7936309826766923,-1.1672035606252344,-2.4406054888299042,-0.3830149173736572,0.919655978679657,0.0867903083562851,0.5590070486068726,-0.592332124710083,-0.14865611493587494,-0.025981664657592773,-1.0390713214874268,0.06498897075653076
253,-1.728008267518215,-1.165630394177733,-2.3373100762396724,-0.3893100917339325,0.9190369844436646,0.061713460832834244,0.512686550617218,-0.3833441436290741,0.2100275456905365,0.3475010395050049,-1.0570223331451416,-0.22315144538879395
254,-1.7837192540643352,-1.242003985849714,-2.1669690682766043,-0.3156081736087799,0.9464330077171326,0.06823451071977615,1.6946145296096802,-2.9860126972198486,1.4151930809020996,-0.18111112713813782,1.2605371475219727,0.17740142345428467
255,-1.506792185550313,-1.2520014325345172,-1.5908053899179286,-0.31278109550476074,0.9496138095855713,-0.020046666264533997,0.16827383637428284,0.3462980389595032,0.817004919052124,0.014227598905563354,-0.12046635150909424,0.3736385703086853
256,-1.3280752415938486,-1.3526739218619712,-1.4137019322144901,-0.21005411446094513,0.9763054847717285,-0.052009958773851395,0.09496598690748215,-0.25427818298339844,1.4319418668746948,0.35659950971603394,-0.954409122467041,-0.1092144250869751
257,-2.4688284218628866,-1.5169199601560757,-2.541997545107217,-0.03355792909860611,0.9985490441322327,0.04211781546473503,-1.1141482591629028,0.34176141023635864,0.767913818359375,0.215702086687088,-0.1627182960510254,-0.24797415733337402
258,-1.6163368754301888,-1.4311158079953068,-1.9285068691299587,-0.13908277451992035,0.9902605414390564,0.006338288076221943,0.28739362955093384,4.182820796966553,-0.3302680253982544,0.17922864854335785,0.9586377739906311,-0.49663376808166504
259,-1.401046516753076,-1.3418818407952455,-1.9927584595936076,-0.22365932166576385,0.973913311958313,-0.03833504393696785,-0.10571576654911041,1.2286187410354614,-1.884710431098938,-0.17477819323539734,-0.3078671097755432,0.17094916105270386
260,-1.4866477134119134,-1.1672653829062776,-2.1084915723830577,-0.39127862453460693,0.9196802377700806,-0.033003486692905426,-0.2344794124364853,-0.7696715593338013,-0.6831114292144775,0.26025140285491943,-1.2009150981903076,-0.031693752855062485
261,-1.6929326195976904,-1.232790896692596,-2.1429692707176,-0.3291361331939697,0.9434179663658142,0.04040055349469185,0.8947532773017883,-3.800507068634033,0.8682506680488586,-1.0277516841888428,3.6196467876434326,-0.698481559753418
262,-1.3771971207276592,-1.2472351504532397,-1.5086804245887848,-0.3120052218437195,0.9481091499328613,-0.06117010861635208,0.7143713235855103,0.4317823350429535,0.2161480039358139,-0.457846462726593,0.1332201361656189,0.999814510345459
263,-1.2779633703622804,-1.3293520302845099,-1.4462509562299917,-0.22892650961875916,0.9709936380386353,-0.06902148574590683,0.24425974488258362,-0.4698287844657898,1.2602063417434692,0.36674392223358154,-0.8893744349479675,-0.21547859907150269
264,-1.8069139141854562,-1.4846915222531758,-1.9399550747262508,-0.08361189067363739,0.9962952733039856,0.020117495208978653,-1.4296927452087402,0.6307362914085388,1.8162529468536377,0.2721037268638611,-0.9561647176742554,-0.06848788261413574
265,-2.1094903385928987,-1.456358525477132,-2.2694861187723516,-0.0980164185166359,0.993459165096283,0.058580078184604645,-0.45002204179763794,2.948803186416626,-0.3352755308151245,0.10233466327190399,1.1278176307678223,0.11659085750579834
266,-1.6388554908336028,-1.2906922823627511,-2.2345203737454247,-0.2758154273033142,0.961026668548584,0.018800804391503334,-0.6829813718795776,3.7682065963745117,-2.367567300796509,-0.2132745087146759,-0.02569347620010376,0.09109294414520264
267,-1.6845068709680475,-1.1026998986566159,-2.391486812189634,-0.4482742249965668,0.8924287557601929,0.05119434744119644,0.09297851473093033,-1.391097068786621,0.14408251643180847,0.18602147698402405,-1.27821683883667,-0.015320904552936554
268,-1.7292190897184507,-1.1582921682593381,-2.3589541907839737,-0.39588433504104614,0.9161197543144226,0.06324709951877594,0.2652873396873474,-1.7535004615783691,0.525550365447998,0.27672845125198364,-0.5784885287284851,-0.12547242641448975
269,-1.6555489209474246,-1.2805574337107262,-1.7305323830860981,-0.2851540744304657,0.958175539970398,0.02422557957470417,4.293968200683594,-5.40571928024292,1.0981155633926392,-0.9413015842437744,0.726333737373352,0.5970512628555298
270,-1.5380882211113878,-1.3598777082791103,-1.6115239472823224,-0.20924650132656097,0.9778389930725098,-0.006846498232334852,-0.46907830238342285,-0.2056945413351059,0.657518744468689,0.23823818564414978,-0.6680855751037598,-0.23155683279037476
271,-1.7240082251715458,-1.5108392114648455,-1.7530913020676322,-0.05921896919608116,0.9982030987739563,0.009144716896116734,-1.0884367227554321,0.1510329693555832,2.141037702560425,0.19717368483543396,-1.035373568534851,0.05343163013458252
272,-2.709262936000535,-1.4490304236907667,-2.8350044707321116,-0.050891757011413574,0.9925956726074219,0.1102880984544754,0.23322716355323792,1.6084020137786865,-2.5602855682373047,0.8745306730270386,3.309467077255249,-0.09429696202278137
273,-1.8469528781388347,-1.3969867408081869,-2.3307224849162633,-0.16638247668743134,0.984933078289032,0.047152403742074966,-0.7396944761276245,2.622051954269409,-1.470138430595398,-0.28440791368484497,0.2510744333267212,0.38720428943634033
274,-1.6861971462080674,-1.1794736042350071,-2.294476053280872,-0.37887445092201233,0.9244053959846497,0.04391755163669586,0.4061378836631775,-0.6282885670661926,-1.1273322105407715,0.2347705364227295,-1.1163915395736694,-0.07336699962615967
275,-1.6898772069484482,-1.2044574676837014,-2.2074294011683966,-0.3556629717350006,0.9336450099945068,0.042553991079330444,-0.02529187873005867,-1.367810845375061,0.7428163290023804,0.2793995141983032,-0.8827722072601318,-0.25025665760040283
276,-1.6367127312242389,-1.302188640160178,-1.9123896224117007,-0.2648129165172577,0.964141309261322,0.017480839043855667,1.831168293952942,-4.586085319519043,0.18688265979290009,-0.5212130546569824,1.1130681037902832,-0.33670997619628906
277,-1.424992449254905,-1.3123316398662679,-1.5422049328337242,-0.2528839111328125,0.9667835235595703,-0.03713497892022133,0.0027430658228695393,0.40811887383461,0.8524588942527771,0.059707701206207275,-0.33914393186569214,0.22870904207229614
278,-1.4270230019184125,-1.4247144499319366,-1.5283582490280747,-0.14406172931194305,0.9893490076065063,-0.020856134593486786,-0.7424108982086182,-0.7621152997016907,1.4284950494766235,0.26713910698890686,-1.0224452018737793,-0.17134356498718262
279,-2.927156379166684,-1.4923723243769502,-3.003682721851759,-0.01667085289955139,0.9969264268875122,0.07654740661382675,-0.3469054698944092,0.180903822183609,-0.5718457102775574,0.3851858675479889,0.31323879957199097,-0.287011981010437
280,-1.7307015935081236,-1.4035512342905079,-2.0192012325513953,-0.16434340178966522,0.986047089099884,0.02650567516684532,-0.4748757779598236,4.171899318695068,-0.7587566375732422,0.06619887053966522,0.613745391368866,-0.189194917678833
281,-1.6166125843535726,-1.2128385368892174,-2.280971179630873,-0.3499942719936371,0.9366142749786377,0.016046658158302307,-0.37369006872177124,1.8332659006118774,-2.937865972518921,0.07699930667877197,-0.6902154684066772,0.06790721416473389
282,-1.6699893052565178,-1.1615985056525777,-2.2837004311347475,-0.39591744542121887,0.9174402952194214,0.03940154239535332,0.03641875833272934,-0.4727137088775635,0.8018556237220764,0.31149065494537354,-1.0775203704833984,-0.05351591855287552
283,-1.8307606801190495,-1.2432427963079675,-2.2163704003865723,-0.3109177052974701,0.9468322992324829,0.08269894123077393,1.7130444049835205,-2.9496147632598877,0.7329009771347046,-0.2662917971611023,0.8805298805236816,-0.20119869709014893
284,-1.4490798425765938,-1.2933888372251023,-1.5782550750758197,-0.2718373239040375,0.9617686867713928,-0.033251453191041946,-0.4524870812892914,1.2354437112808228,1.5636640787124634,0.16589555144309998,-0.10387372970581055,0.6059290766716003
285,-1.7494959310750375,-1.486451739313823,-1.8756123339707118,-0.08290348947048187,0.9964451193809509,0.014974558725953102,-0.054619867354631424,-0.3240740895271301,2.4417335987091064,0.23747502267360687,-1.0216830968856812,-0.24725914001464844
286,2.6761707147619207,-1.4561691303459021,2.5169697889882263,0.051331646740436554,0.9934374690055847,0.10220950841903687,-0.7617709040641785,-1.2758349180221558,-1.0898340940475464,0.25311172008514404,-0.19190865755081177,-0.27165842056274414
287,-2.067675978578255,-1.5125565591246364,-2.448500269145232,-0.05116695910692215,0.998304545879364,0.027745680883526802,0.6302918791770935,7.053308963775635,-0.8604534268379211,0.07553523778915405,0.5141313076019287,-0.23402929306030273
288,-1.5783976704913842,-1.3487726763856913,-2.273918286561853,-0.22019794583320618,0.9754538536071777,0.0016738325357437134,-0.1750650554895401,0.3485736548900604,-2.6061158180236816,-0.05188150703907013,-0.8112540245056152,0.04562842845916748
289,-1.58254811841812,-1.213006678633887,-2.274699265030222,-0.35018041729927063,0.9366731643676758,0.004115436691790819,0.28153929114341736,-1.7499967813491821,0.6756542921066284,0.16628149151802063,-1.3108187913894653,-0.11318528652191162
290,-1.6142642248294023,-1.3165287755742996,-2.0458289325184107,-0.25129932165145874,0.9678477644920349,0.010930337943136692,1.4353363513946533,-3.2711281776428223,0.5541261434555054,-0.25562819838523865,0.9129505753517151,-0.4664663076400757
291,-1.2462823246183297,-1.3332464710728698,-1.4329553827416581,-0.223039448261261,0.971917450428009,-0.07503195852041245,-0.10872072726488113,0.2932440936565399,1.1752281188964844,0.06291373074054718,-0.1517118215560913,0.5838515162467957
292,-1.2304154190697534,-1.5016268910666817,-1.349120483577491,-0.06515052169561386,0.9976087212562561,-0.023074066266417503,-0.9146740436553955,-1.2531131505966187,1.9549248218536377,0.19199684262275696,-1.0265851020812988,-0.14495575428009033
293,2.704196867889955,-1.451743392460337,2.5471747995221423,0.050309304147958755,0.9929215908050537,0.10758977383375168,-1.1052088737487793,1.424976110458374,-0.7824075222015381,0.35801589488983154,-0.594438374042511,-0.31805419921875
294,-2.09568993355595,-1.4081429491948452,-2.304599182036756,-0.14013662934303284,0.9868010878562927,0.08115004003047943,-0.030108241364359856,2.748552083969116,-0.5531409382820129,-0.24823005497455597,0.9022675156593323,-0.19606399536132812
295,-1.862912105461624,-1.2870913515313143,-2.464444005937881,-0.26805660128593445,0.9600249528884888,0.08060956001281738,0.06842009723186493,2.4631173610687256,-2.0774972438812256,-0.10376957058906555,-0.6165648698806763,-0.09844708442687988
296,-1.7625611615174428,-1.2002257231667972,-2.3697934692981533,-0.3555092513561249,0.9321208596229553,0.06902232766151428,-0.24191515147686005,-0.08111659437417984,0.002680680016055703,0.2735085189342499,-1.1088786125183105,-0.1818305253982544
297,-1.8527088767061557,-1.256275496473147,-2.3502970543444106,-0.2971488833427429,0.950944721698761,0.08606208860874176,1.2688325643539429,-5.536874294281006,0.6239565014839172,-1.5778815746307373,5.283750534057617,-1.348650574684143
298,-1.6315689468047088,-1.344339025466649,-1.7879938237277138,-0.2241126149892807,0.974467933177948,0.013636702671647072,1.4650148153305054,-1.9588980674743652,-0.035976819694042206,-0.4589318335056305,0.5607951283454895,0.6508530378341675
299,-1.4067933957748406,-1.4039032226056836,-1.505893546278554,-0.1638905256986618,0.9861056208610535,-0.02712213061749935,0.1026231199502945,-0.4958011209964752,0.7030216455459595,0.1684681624174118,-0.8703372478485107,-0.1248248815536499
300,-2.3539255698917683,-1.4476921556542242,-2.431262631566077,-0.08702507615089417,0.9924322366714478,0.08663106709718704,-1.8350322246551514,0.22795769572257996,0.9202936291694641,0.20235100388526917,-1.0457922220230103,-0.28656697273254395
301,-2.236014459332228,-1.4024301502546033,-2.4084900308079114,-0.13184292614459991,0.9858598709106445,0.10343080013990402,0.8434680700302124,3.407764434814453,-0.2062712162733078,0.6960518956184387,0.40316295623779297,0.2345360517501831
302,-1.914787610224428,-1.3566504941229514,-2.483936975329177,-0.20006334781646729,0.97715824842453,0.07166948914527893,-0.8389152884483337,2.6774563789367676,-1.9998971223831177,-0.4702858030796051,0.06652772426605225,0.21775925159454346
303,-1.752358386050706,-1.1319232121578378,-2.455374947332494,-0.4179353713989258,0.9052310585975647,0.07672615349292755,0.6201140284538269,-0.5203728675842285,0.35974881052970886,0.231381356716156,-1.37086820602417,-0.43250012397766113
304,-1.7622344023282546,-1.2165903045329733,-2.440929678563951,-0.3405097424983978,0.9379221796989441,0.06599470973014832,0.0031168917194008827,-0.7383022904396057,1.1644881963729858,0.2932532727718353,-0.900858461856842,-0.1633000373840332
305,-1.6510842048424665,-1.3038208406662473,-1.9880208206294034,-0.262965589761734,0.9645732045173645,0.021158432587981224,1.9080569744110107,-5.0267720222473145,0.1193641945719719,-0.5835767388343811,1.0606189966201782,0.11357665061950684
306,-1.3372053803003079,-1.3411963163557796,-1.5393402591261096,-0.22140748798847198,0.9737575054168701,-0.05268045514822006,0.14204171299934387,0.18848161399364471,1.0007532835006714,0.1459222286939621,-0.5656610727310181,-0.10166216641664505
307,-1.8933628644835765,-1.4546953971370136,-2.0412765389441185,-0.10986686497926712,0.993267834186554,0.03672192618250847,-1.348906397819519,-0.3659610152244568,1.3425853252410889,0.19032645225524902,-1.0367705821990967,-0.18290114402770996
308,-2.424638229441024,-1.4467314679890824,-2.676534089218922,-0.08131283521652222,0.992313802242279,0.09328141063451767,0.9024513959884644,1.3543919324874878,-2.6783225536346436,0.24738949537277222,3.5127367973327637,-0.3106123208999634
309,-1.7482389886255298,-1.320491775572385,-2.268942327048575,-0.2438095510005951,0.9688370227813721,0.043722059577703476,-0.37960755825042725,4.410841941833496,-1.7196710109710693,-0.3952437937259674,0.33488911390304565,0.45949745178222656
310,-1.6157209785452444,-1.1793703812977125,-2.35979502004495,-0.3811216652393341,0.9243659973144531,0.017133286222815514,0.38734063506126404,-0.44034668803215027,-0.04720764607191086,0.13856804370880127,-0.9258614778518677,-0.06933355331420898
311,-1.6451504820952345,-1.1803229680254907,-2.3444789190527398,-0.3795747458934784,0.9247289896011353,0.028275083750486374,-0.13036733865737915,-0.5268810987472534,0.34892210364341736,0.3192720413208008,-1.1003271341323853,-0.2590184211730957
312,-1.682673956550308,-1.2855522612909112,-2.1094925845722354,-0.2796330749988556,0.9595929980278015,0.03141586855053902,2.002739191055298,-4.235995292663574,0.5981447100639343,-0.6164698600769043,1.6211414337158203,-0.17533671855926514
313,-1.4494088304309993,-1.2691425452201353,-1.6615559138734048,-0.29491356015205383,0.9548464417457581,-0.03597569093108177,-0.27442049980163574,0.5599668025970459,-0.05388984456658363,0.03479698300361633,-0.36202722787857056,0.6201431751251221
314,-1.6409402945581035,-1.3727287904761423,-1.8151617664178077,-0.1962912231683731,0.9804486632347107,0.013791270554065704,-0.5101521611213684,-0.5580673813819885,1.7965928316116333,0.3291342258453369,-1.021571159362793,-0.18961822986602783
315,3.1086038949107797,-1.4715606917497024,2.860578136192068,0.0032676856499165297,0.9950801730155945,0.09901858866214752,-0.8243204951286316,2.144169807434082,0.8263923525810242,0.6158118844032288,-0.33634305000305176,-0.29373598098754883
316,-1.6790482510037061,-1.3384659230320612,-2.2247096712220853,-0.22889767587184906,0.9731324911117554,0.024875858798623085,-0.8169161081314087,2.4482510089874268,-3.5979950428009033,-0.5303643941879272,0.8043484687805176,0.021678682416677475
317,-1.5991083013545935,-1.1338498786512747,-2.3677567348385944,-0.42300519347190857,0.906048059463501,0.011979312635958195,0.16074922680854797,0.7721577286720276,0.36119773983955383,0.08992108702659607,-0.876568078994751,0.349989652633667
318,-1.6005233361867452,-1.1651095406378,-2.3101659750678953,-0.39447566866874695,0.9188315868377686,0.01173003762960434,0.3660142719745636,-1.669284701347351,0.3979332447052002,0.38432857394218445,-1.038017988204956,-0.16762900352478027
319,-1.641181422455247,-1.1999807490652308,-2.0624978935901837,-0.3614787757396698,0.9320321083068848,0.02548481710255146,1.9302868843078613,-1.420687198638916,1.1587448120117188,-0.1829548478126526,1.5815025568008423,0.08073163032531738
320,-1.3631301584127484,-1.2340901477440285,-1.4439874720334245,-0.3232821524143219,0.9438480138778687,-0.06811677664518356,1.2069605588912964,-0.2625941038131714,0.8488630652427673,-0.10942661762237549,-0.0073854923248291016,1.0443588495254517
321,-1.2791023710009073,-1.4261841183484814,-1.3794640913945542,-0.1380220353603363,0.9895618557929993,-0.04144228994846344,-0.8740882873535156,-0.557732343673706,2.2336413860321045,0.2991548180580139,-0.9936968684196472,-0.24798637628555298
322,2.6441293843097395,-1.4931725675771839,2.513475825770995,0.03700502589344978,0.9969887733459473,0.06814756244421005,-1.2282984256744385,1.3241630792617798,-0.10638140141963959,0.12644711136817932,-0.7998909950256348,-0.26197993755340576
323,-1.7603887080272282,-1.4222836517598996,-2.081492909055673,-0.14531607925891876,0.9889922738075256,0.027885746210813522,-0.23583418130874634,3.54683518409729,-0.0815676674246788,-0.03276924788951874,0.9705719351768494,-0.4189075231552124
324,-1.7359869762832085,-1.321575047479938,-2.4338331502519215,-0.2432917058467865,0.9691047668457031,0.04055911302566528,0.18989510834217072,1.2514567375183105,-1.692432165145874,-0.015436306595802307,-0.8698616623878479,0.04965078458189964
325,-1.6783514781972513,-1.236155441278571,-2.3891021186781995,-0.3265319764614105,0.944528341293335,0.03525625169277191,-0.282450407743454,-0.5418850779533386,0.25396865606307983,0.1962524652481079,-1.220773458480835,-0.0840386152267456
326,-1.8563468413024937,-1.3382645136457791,-2.323932415337792,-0.22111056745052338,0.9730860590934753,0.06491219252347946,2.337278366088867,-3.0809521675109863,1.160895824432373,0.049876436591148376,3.1745121479034424,0.20971548557281494
327,-1.3531596827029564,-1.4111882601995813,-1.4896388330047259,-0.15518200397491455,0.9872896671295166,-0.03431682288646698,0.035584378987550735,0.5021247267723083,0.5552000403404236,-0.16093432903289795,0.2359311580657959,0.9881590008735657
328,-1.341946656784583,-1.4820591075539977,-1.4890727499648346,-0.08630998432636261,0.9960654377937317,-0.020104210823774338,-0.7528324127197266,-1.1761186122894287,0.7150769829750061,0.1883455216884613,-1.0413535833358765,-0.19280171394348145
329,-2.8142110722389577,-1.4754598562659356,-2.97957977382534,-0.030610792338848114,0.9954589009284973,0.0901372954249382,-0.9688467383384705,2.108983039855957,-0.370132178068161,0.09393475949764252,-0.9191953539848328,0.12925362586975098
330,-1.9685282338492918,-1.3694737368154644,-2.276159855299901,-0.1843567192554474,0.9798029661178589,0.07745236158370972,0.03716083616018295,3.654374361038208,-0.7804377675056458,-0.3692321479320526,1.0073643922805786,-0.8208301067352295
331,-1.6232784137985594,-1.243016156066724,-2.3010610645959737,-0.3214988708496094,0.9467593431472778,0.016888441517949104,-0.3785848319530487,1.1752281188964844,-2.1593894958496094,-0.19298169016838074,-0.45898163318634033,0.28355705738067627
332,-1.5759028565449267,-1.1335260977703294,-2.2910369222557665,-0.42346251010894775,0.9059110283851624,0.0021624425426125526,-0.0026345716323703527,-0.27398887276649475,0.09519632160663605,0.29261842370033264,-1.1773039102554321,-0.06054258346557617
333,-1.7009426811355117,-1.2223202959817354,-2.2748492496947397,-0.33857816457748413,0.9398941993713379,0.04431520029902458,0.50457364320755,-4.099489688873291,1.107939600944519,-0.6915121674537659,2.5055251121520996,-0.7702978849411011
334,-1.4866854857853862,-1.3040196763956946,-1.7097259931880602,-0.26269176602363586,0.9646256566047668,-0.02214747853577137,2.365668535232544,-1.5763989686965942,0.7857658863067627,-0.40404099225997925,0.5218245387077332,0.4959328770637512
335,-1.4547565578056811,-1.4028580144814737,-1.6317359108951037,-0.16602608561515808,0.9859314560890198,-0.019352568313479424,-0.9701389670372009,-0.7734176516532898,1.4713356494903564,0.2736768424510956,-0.9367981553077698,-0.14277201890945435
336,3.138201171697183,-1.4527467762484412,2.969328172816981,0.00039943630690686405,0.9930402636528015,0.11777587980031967,-1.0592142343521118,1.2142884731292725,1.3246729373931885,0.14707675576210022,-1.0735759735107422,-0.31469058990478516
337,-2.7664853003305927,-1.4473817710419095,-2.9560294214259772,-0.045101556926965714,0.9923940896987915,0.11454346776008606,0.7443183660507202,0.8842728734016418,-0.0379004031419754,0.6639522910118103,0.8991923332214355,0.15251590311527252
338,-1.9228137645231071,-1.432776558720244,-2.479561975516826,-0.12914423644542694,0.9904903769493103,0.047436799854040146,-0.024141356348991394,4.744283199310303,-1.3842233419418335,-0.21462099254131317,-0.16972029209136963,0.45315825939178467
339,-1.7312599320406212,-1.303731441033746,-2.3940741825084837,-0.2605111300945282,0.9645496606826782,0.04216507449746132,-0.04761863872408867,-0.45960530638694763,-0.9440305233001709,0.13470244407653809,-1.0227771997451782,-0.13594555854797363
340,-1.8375420126069846,-1.289075566096411,-2.4776146972208237,-0.2681766450405121,0.9605785012245178,0.07328133285045624,-0.4197674095630646,-0.5781468749046326,0.9819439053535461,0.19157752394676208,-1.11479914188385,-0.14341068267822266
341,-2.0094554622652123,-1.395625781821557,-2.301738088424964,-0.15777626633644104,0.9846968054771423,0.07401970773935318,2.3632161617279053,-5.595062255859375,1.1895205974578857,-0.6110988855361938,1.430586338043213,0.5882728099822998
342,-1.5064600398982801,-1.4785359090278778,-1.6079016792745873,-0.09194013476371765,0.9957470297813416,-0.005923261865973473,0.2554289400577545,0.5919107794761658,1.0751208066940308,0.11916181445121765,-0.273212730884552,-0.05352497100830078
343,2.2777874345331393,-1.5544247877224664,2.130595617800859,0.01245243102312088,0.9998660087585449,0.010638239793479443,-0.9229715466499329,1.3999828100204468,1.181010365486145,0.06196468323469162,-1.0520662069320679,-0.06782817840576172
344,2.8657102070386986,-1.434909960607158,2.6817837980240573,0.03690072521567345,0.9907816648483276,0.1303444802761078,-0.6310923099517822,-1.6377711296081543,-1.6688200235366821,0.49405935406684875,-0.35540586709976196,-0.6778146028518677
345,-1.8928531092008647,-1.4663600670504213,-2.246813554873409,-0.0988866537809372,0.9945514798164368,0.03299586847424507,0.024044733494520187,3.0781493186950684,-0.3882240653038025,-0.07904607802629471,0.5536662340164185,0.3252652883529663
346,-1.5244344819356181,-1.3604780874307487,-2.1849200884480293,-0.20854689180850983,0.9779645204544067,-0.009675552137196064,0.04107261449098587,0.9492380023002625,-1.5753281116485596,-0.01809188723564148,-0.7412549257278442,-0.06486362218856812
347,-1.6022047207110353,-1.2291933356805833,-2.233668085086599,-0.33483272790908813,0.9422188997268677,0.010520017705857754,-0.4166159927845001,-1.2614998817443848,-0.28844207525253296,0.27658993005752563,-1.1821175813674927,-0.12110042572021484
348,-1.829027437569566,-1.3125108916183805,-2.2182981069760666,-0.246954083442688,0.9668293595314026,0.06522757560014725,1.695806622505188,-4.309821605682373,0.6901339888572693,-0.319757342338562,1.4839305877685547,0.3448370695114136
349,-1.3553137689653678,-1.3444430577330126,-1.4372457435198729,-0.21923485398292542,0.9744912981987,-0.047986309975385666,0.710892379283905,0.4509023427963257,1.5585354566574097,0.1835750788450241,-0.12218117713928223,0.34441882371902466
350,-0.8413226244556178,-1.5063855443286287,-0.9423492371333417,-0.047986891120672226,0.9979263544082642,-0.04289884865283966,-1.1448278427124023,0.0646192878484726,1.8904426097869873,0.19515791535377502,-1.0412460565567017,-0.15715914964675903
351,2.5397357577001904,-1.474431145009247,2.3784175631855144,0.05447434261441231,0.9953604936599731,0.07930850982666016,-0.606005847454071,0.36737942695617676,-0.7971410155296326,0.2440943717956543,-0.4034721851348877,-0.35250186920166016
352,-2.1824290101581703,-1.5125399720700472,-2.4464850153703783,-0.047668710350990295,0.9983035922050476,0.03343253955245018,0.2281598150730133,3.7208409309387207,-0.032440345734357834,0.1513979583978653,0.6349208950996399,0.06500184535980225
353,-1.4542179757818403,-1.3821936035089892,-2.121500129993647,-0.186214417219162,0.9822671413421631,-0.02180745080113411,-0.05885133892297745,2.3611016273498535,-2.7384095191955566,-0.0931130051612854,-0.7163216471672058,-0.05132788419723511
354,-1.6094065781271727,-1.213941301526944,-2.279515165287301,-0.3490689992904663,0.9370000958442688,0.013484342955052853,0.05658913403749466,-1.8374274969100952,0.3980203866958618,0.1744931936264038,-1.3911168575286865,-0.14882981777191162
355,-1.7828474172881095,-1.3357217923867737,-2.260530101738644,-0.2276991605758667,0.9724969863891602,0.04902081936597824,1.0329358577728271,-3.0093770027160645,1.2986643314361572,-0.3103562891483307,1.5604926347732544,0.25197410583496094
356,-1.3204452837931304,-1.377638722776506,-1.4560818041622796,-0.18597520887851715,0.9814029932022095,-0.04755681753158569,0.5684119462966919,0.2866312563419342,0.6397203803062439,-0.14770400524139404,0.04735994338989258,0.8635358214378357
357,-1.2747626498255709,-1.4750243545809558,-1.4084468648653223,-0.09146573394536972,0.9954173564910889,-0.02789665386080742,-0.9245297908782959,-0.25296711921691895,1.0081408023834229,0.16568449139595032,-1.0394542217254639,-0.10696053504943848
358,3.140873482495226,-1.4925184613296405,2.8882951279997813,5.623819743050262e-05,0.9969378709793091,0.0781986191868782,-0.7289228439331055,1.1897292137145996,0.27693989872932434,0.3243608772754669,-0.7809649109840393,-0.3691837787628174
359,-2.2033627811664442,-1.5120913676094925,-2.5991671441229145,-0.04731994867324829,0.9982773661613464,0.03468802571296692,0.411059707403183,2.504929542541504,-0.3664209842681885,0.05194336175918579,0.7832015156745911,-0.019444584846496582
360,-1.5289435184806275,-1.3488488693634553,-2.1980021483308807,-0.21993646025657654,0.9754706025123596,-0.009210336953401566,-0.12370849400758743,1.3093258142471313,-2.6457407474517822,-0.11383427679538727,-0.5962898135185242,0.07523512840270996
361,-1.5719299796161192,-1.206024657487174,-2.2804237744629656,-0.3567356765270233,0.9342052340507507,0.00040441457531414926,-0.2801067531108856,-0.9445350766181946,0.12560638785362244,0.2124791145324707,-1.2751476764678955,-0.1228104829788208
362,-1.8150789122721853,-1.3020667321974735,-2.3020007816342787,-0.25762420892715454,0.9641090035438538,0.06421554833650589,1.4983118772506714,-6.0523600578308105,1.5951340198516846,-1.4416097402572632,5.8197503089904785,-1.3393772840499878
363,-1.012917195008368,-1.3806520010552141,-1.154753022055549,-0.16034364700317383,0.9819769859313965,-0.10005426406860352,0.40877631306648254,0.11363202333450317,0.7264197468757629,-0.09345577657222748,0.13881146907806396,1.0024285316467285
364,-0.6796735993110381,-1.4679713668277539,-0.8453922730959323,-0.06451606005430222,0.9947181940078735,-0.07983458787202835,-0.4200185239315033,-0.6783353686332703,1.1189936399459839,0.1559314727783203,-0.9927955865859985,-0.06352174282073975
365,2.265436387004948,-1.5159200275905993,2.0557919996058502,0.04213990643620491,0.9984946846961975,0.03510957583785057,-1.3214715719223022,2.475403070449829,0.25458741188049316,0.08484373241662979,-0.9566550254821777,-0.060774803161621094
366,-2.390507436088825,-1.4775387623674057,-2.5909862192920525,-0.06354948878288269,0.9956546425819397,0.06806743144989014,0.5272356271743774,3.1846230030059814,-0.5434682965278625,-0.1548343002796173,1.0131343603134155,-0.0007609203457832336
367,-1.7665027288698547,-1.3951843694350985,-2.4003512588580573,-0.17137499153614044,0.9846197962760925,0.03397404029965401,-0.02847360074520111,3.967630624771118,-2.292947769165039,-0.30750682950019836,-0.3775489926338196,0.1646801233291626
368,-1.614991634135986,-1.1747780321053893,-2.37530097015229,-0.38537126779556274,0.9226042628288269,0.017042700201272964,0.1305929720401764,-1.779131531715393,0.0017664392944425344,0.23430925607681274,-1.4515502452850342,-0.2084641456604004
369,-1.8014965187721297,-1.2608775226512563,-2.4207792456523904,-0.2969015836715698,0.9523583650588989,0.06973685324192047,0.04743333160877228,-2.2819278240203857,0.9343702793121338,-0.5142556428909302,0.7476081252098083,-0.2637065649032593
370,-1.5117346663603657,-1.3813897599053742,-1.727942487882139,-0.18794745206832886,0.982116162776947,-0.011113414540886879,2.3287930488586426,-3.5807948112487793,0.1357162892818451,-0.43557244539260864,0.6310276985168457,0.34381604194641113
371,-1.2808269134076657,-1.41563086570943,-1.4576363527482343,-0.14809274673461914,0.9879859685897827,-0.04418783262372017,-0.32100459933280945,-0.4683505892753601,0.706473708152771,0.20018623769283295,-0.8978979587554932,-0.11387795209884644
372,-2.370842128915881,-1.4946896087818005,-2.5104174452249373,-0.052970267832279205,0.9971053004264832,0.05454523116350174,-1.5196788311004639,0.4304269552230835,1.051357388496399,0.1370309442281723,-1.0304152965545654,-0.15206420421600342
373,-2.443769275858164,-1.4610549293351935,-2.7140046076305664,-0.07037339359521866,0.9939844608306885,0.08392027765512466,-0.46462443470954895,4.897080898284912,0.16518105566501617,0.22927841544151306,1.356067419052124,-0.15569758415222168
374,-1.7783157562826042,-1.4090558465723877,-2.3562259780184562,-0.15758171677589417,0.9869484901428223,0.033178918063640594,-1.001633882522583,0.16388516128063202,-2.4119668006896973,-0.5330158472061157,-0.16109693050384521,0.7502378225326538
375,-1.6664423474995425,-1.2836724544404663,-2.3287414037296372,-0.28190094232559204,0.9590623378753662,0.027045223861932755,0.14625348150730133,-0.8865564465522766,-0.11051004379987717,0.27746060490608215,-1.2677018642425537,-0.29573726654052734
376,-1.7398313395409999,-1.2945335971941645,-2.218690255361709,-0.2688746452331543,0.9620815515518188,0.04588710516691208,1.3390439748764038,-2.6449573040008545,-0.2167166769504547,-0.4168705940246582,1.1577152013778687,-0.3436471223831177
377,-1.5343199927841296,-1.3029136267706758,-1.783828896683027,-0.2645145654678345,0.9643334746360779,-0.009652803651988506,0.9137005805969238,-0.5421623587608337,0.1920444518327713,-0.20821800827980042,0.6838294863700867,0.3949829936027527
378,-1.3622578956625995,-1.328393672592356,-1.5862149792137783,-0.23483504354953766,0.9707640409469604,-0.04969460517168045,-0.29143083095550537,-0.02866186760365963,0.10081682354211807,0.33966290950775146,-0.8310393691062927,-0.21016258001327515
379,-1.507116525151476,-1.338200008982153,-1.8243887196537334,-0.23003767430782318,0.9730712175369263,-0.014668586663901806,-0.31177717447280884,1.6965299844741821,0.2605297863483429,0.3529167175292969,-0.33581840991973877,-0.16915404796600342
380,-1.3594327290832204,-1.3419969289682654,-1.8505392259273123,-0.22176136076450348,0.9739394187927246,-0.04758298397064209,0.1086016297340393,1.5225348472595215,-0.15192368626594543,-0.14852368831634521,1.02712881565094,0.5416015386581421
381,-1.421866530925353,-1.3045499901706767,-2.1210894232808863,-0.26019954681396484,0.9647653102874756,-0.03904053568840027,-0.4784930646419525,1.3476645946502686,-0.3981688320636749,-0.020669013261795044,-0.5513436198234558,0.005257543176412582
382,-1.4187128943684237,-1.2822774996706587,-2.183152322705792,-0.2812482416629791,0.9586663842201233,-0.04310604929924011,0.08415552973747253,-0.4230407178401947,-0.07047418504953384,0.2759229838848114,-1.245318055152893,-0.283538818359375
383,-1.4455849354448354,-1.2941267226896085,-2.0742893807124156,-0.2710146903991699,0.9619705080986023,-0.034112583845853806,0.8762810230255127,-2.5969669818878174,0.06587594002485275,-0.5501065254211426,0.9763991832733154,-0.4547790288925171
384,-1.2761205289616162,-1.3118215884828797,-1.705395309034808,-0.24505145847797394,0.966653048992157,-0.07437608391046524,0.5919135808944702,-0.3422757685184479,0.3216126561164856,-0.16492170095443726,0.5716618895530701,0.515233039855957
385,-1.3066379047259915,-1.3266898911904712,-1.625804792502209,-0.2333056628704071,0.9703536629676819,-0.06310433149337769,-0.2769031226634979,0.10546386241912842,-0.05709608271718025,0.3796679973602295,-0.8514876961708069,-0.10460501909255981
386,-1.4378198230897807,-1.3277713701039349,-1.8416580373055933,-0.2385147660970688,0.970614492893219,-0.03190513700246811,-1.031826376914978,1.688162922859192,0.08162374049425125,0.6262406706809998,-0.6671326160430908,-0.043412260711193085
387,-1.4421170106779646,-1.3423813193258038,-1.9888450941765332,-0.22456131875514984,0.9740265011787415,-0.02905695140361786,-0.13859273493289948,1.4104028940200806,-0.07150665670633316,-0.11186444759368896,1.2141447067260742,0.7426037192344666
388,-1.4959218475060425,-1.3136202180140832,-2.235911448877503,-0.253637433052063,0.9671120643615723,-0.019026540219783783,-0.5216065049171448,1.4590227603912354,-0.47928252816200256,-0.20935994386672974,-0.3007609248161316,0.1302783489227295
389,-1.5549500114526729,-1.275971411542685,-2.3715158714262605,-0.29053589701652527,0.9568530321121216,-0.004604308865964413,-0.0475199818611145,-0.4238368570804596,-0.08309166133403778,0.38265323638916016,-1.357228398323059,-0.3785743713378906
390,-1.4660943071067238,-1.3141584544873026,-2.112647023299633,-0.25244027376174927,0.9672488570213318,-0.02652801387012005,0.8608481287956238,-2.2577836513519287,0.5248029232025146,-0.6138927340507507,1.7027034759521484,0.127419114112854
391,-1.302662759925893,-1.3280913126634015,-1.7785788216759093,-0.23174113035202026,0.970691442489624,-0.0636708214879036,0.6417490243911743,-1.8393274545669556,0.29631608724594116,-0.05785539746284485,0.6089440584182739,0.3177449107170105
392,-1.4027274159056438,-1.355509940531254,-1.7071933801502892,-0.2106170356273651,0.9769152402877808,-0.03573528304696083,-0.26568540930747986,-0.5208669900894165,0.062035806477069855,0.4040985107421875,-0.9899768233299255,-0.11932450532913208
393,-1.652876512867857,-1.3674350901099699,-1.9723639945184686,-0.2012818604707718,0.9793932437896729,0.016558455303311348,-0.6261059641838074,0.6200914978981018,0.15443889796733856,0.30862748622894287,-0.3901447653770447,-0.37542998790740967
394,-1.500208532157588,-1.3803968036587444,-1.909473801124634,-0.1887797862291336,0.9819287061691284,-0.013347725383937359,0.06660527735948563,1.8136188983917236,0.04163213446736336,0.2302531898021698,1.0285234451293945,0.5815545320510864
395,-1.4879420375356287,-1.354401408431092,-2.087743415727013,-0.21397313475608826,0.9766778349876404,-0.01776927150785923,-0.30169355869293213,1.6544232368469238,-0.5061824321746826,-0.17730796337127686,-0.47947025299072266,0.07456248998641968
396,-1.594679769314171,-1.3124555923399857,-2.2638980522904086,-0.2554035186767578,0.9668152332305908,0.00610107509419322,0.04364045336842537,-0.6329147219657898,-0.24201200902462006,0.1969471275806427,-1.3047058582305908,-0.5453008413314819
397,-1.6212291659714915,-1.3212245027618852,-2.161130988065224,-0.24667449295520782,0.969018280506134,0.01245105266571045,1.4441410303115845,-2.289614200592041,0.32880496978759766,-0.4145193099975586,0.9174562096595764,-0.7927244901657104
398,-1.4299109914371708,-1.3322711516099228,-1.8172628839776404,-0.2339293509721756,0.9716874957084656,-0.03317701071500778,0.02912071719765663,-0.8229047060012817,0.21847054362297058,0.006695419549942017,0.7233657240867615,0.6740766763687134
399,-1.481676020926437,-1.344419475882345,-1.7727928382509395,-0.22355800867080688,0.9744859933853149,-0.019976472482085228,-0.1659221351146698,-0.018519897013902664,-0.11990974843502045,0.2954268753528595,-0.7570481300354004,0.006823359057307243
400,-1.659831229862785,-1.3317742355863718,-2.0077079660611368,-0.23581457138061523,0.9715699553489685,0.021051382645964622,-0.7885662913322449,1.1809108257293701,0.03000260703265667,0.41777563095092773,-0.7902193665504456,-0.29720497131347656
401,-1.6233219155107612,-1.3355612272541488,-2.083060200446543,-0.23274952173233032,0.9724595546722412,0.012236560694873333,-0.03163629397749901,1.3778265714645386,-0.086294986307621,0.00130423903465271,1.0286388397216797,0.012253759428858757
402,-1.579085302183391,-1.3151511942576335,-2.24570973907816,-0.252860963344574,0.9675003886222839,0.00209600618109107,-0.6965135931968689,1.7107521295547485,-0.39105191826820374,-0.2814865708351135,-0.0069748759269714355,0.2527409791946411
403,-1.642299361776584,-1.2766066153495348,-2.431571403271603,-0.28922373056411743,0.9570373892784119,0.02071569114923477,-0.343142569065094,-0.06662912666797638,-0.260858952999115,0.26531320810317993,-1.1489167213439941,-0.5022373199462891
404,-1.6216756909121048,-1.2906172390411363,-2.2953216278038693,-0.276170015335083,0.9610059261322021,0.01406349241733551,1.5084199905395508,-1.9487454891204834,0.4875022768974304,-0.09413027763366699,0.28856682777404785,-0.18091833591461182
405,-1.3518848094357305,-1.327477401659081,-1.8638173662844195,-0.23517519235610962,0.9705436825752258,-0.052321020513772964,0.5927519202232361,-0.8136756420135498,0.422951877117157,-0.2355431765317917,0.7323371171951294,0.41963058710098267
406,-1.1778516090970674,-1.3571670912334592,-1.5554756595474735,-0.19584999978542328,0.9772679209709167,-0.08118009567260742,0.0841156467795372,-0.6052073240280151,0.2973788380622864,0.21014748513698578,-0.6812626719474792,-0.014309406280517578
407,-1.3301345550858517,-1.3687768985705149,-1.7239026861640605,-0.1948653608560562,0.9796633720397949,-0.04782350733876228,-0.7371882200241089,0.981995165348053,-0.09150587022304535,0.467753529548645,-1.00874662399292,0.0051141418516635895
408,-1.33545488851196,-1.3721372435044834,-1.8227832001528326,-0.19191530346870422,0.98033207654953,-0.04601835831999779,0.22247278690338135,0.3869471848011017,-0.12630878388881683,-0.042474955320358276,1.0853416919708252,-0.4770529270172119
409,-1.3675416254520363,-1.3498981850268013,-2.0226217187182045,-0.21459606289863586,0.9757010340690613,-0.04422840476036072,-0.7069034576416016,1.8212318420410156,-0.45838749408721924,-0.3470799922943115,0.1365426778793335,0.12540513277053833
410,-1.506366683540236,-1.322947746959955,-2.307499327836516,-0.24480941891670227,0.9694424271583557,-0.015794845297932625,-0.6624817252159119,0.49038374423980713,-0.35222873091697693,0.24627427756786346,-1.0442259311676025,-0.04099839925765991
411,-1.5784435069504008,-1.3146310041542604,-2.299975299406634,-0.25336551666259766,0.9673686623573303,0.001937569584697485,0.7480120658874512,-1.5331454277038574,0.15796510875225067,0.015511542558670044,-0.3044506311416626,-0.3682096004486084
412,-1.3902406745230904,-1.340927082589419,-1.9371188285651086,-0.22414623200893402,0.9736961722373962,-0.04091646894812584,0.5476242303848267,-1.1731653213500977,0.2657966911792755,-0.4715019464492798,1.009122371673584,0.19692230224609375
413,-1.2985793547077122,-1.3626436528542791,-1.6879378976184098,-0.1990436315536499,0.9784143567085266,-0.05556230992078781,0.11075760424137115,-1.4311494827270508,0.26680076122283936,0.11156497895717621,-0.44794243574142456,-0.07999677211046219
414,-1.4491265319935265,-1.3641644764440393,-1.846674612815698,-0.2036486119031906,0.9787275195121765,-0.024900881573557854,-0.8948372006416321,0.8611260652542114,-0.2098912000656128,0.48012256622314453,-1.0189495086669922,-0.04835653677582741
415,-1.5296162281022634,-1.3647084957127844,-2.04602799440981,-0.20445844531059265,0.9788389801979065,-0.008424381725490093,0.23459266126155853,0.3930478096008301,-0.08638482540845871,-0.016977086663246155,1.1362581253051758,-0.8772414922714233
416,-1.474281991894236,-1.3419363895980785,-2.140984110105163,-0.22581133246421814,0.9739256501197815,-0.021861955523490906,-0.22670285403728485,1.4808473587036133,-0.4541711211204529,-0.371646523475647,0.12591254711151123,0.2209739089012146
417,-1.484550717126456,-1.3081094725747615,-2.2798217995704313,-0.2587107717990875,0.9656957387924194,-0.022368157282471657,-0.29619860649108887,0.47363466024398804,-0.44596877694129944,0.3316783308982849,-1.0466132164001465,-0.05868655443191528
418,-1.6170454577634916,-1.2981037571229497,-2.355450605380469,-0.2690376937389374,0.9630492329597473,0.012451638467609882,0.07080791890621185,-1.343630313873291,0.2585662007331848,0.09536212682723999,-0.46996140480041504,-0.3121647834777832
419,-1.4381017231281488,-1.3260252305871587,-1.9995157794378307,-0.24020390212535858,0.9701928496360779,-0.032062165439128876,0.7420655488967896,-1.2402206659317017,0.17038081586360931,-0.3789061903953552,1.1421117782592773,0.3080021142959595
420,-1.3023795898060915,-1.339589448389592,-1.7070615980036563,-0.22094713151454926,0.973390519618988,-0.06077246740460396,0.6262933611869812,-1.718493103981018,0.2364586740732193,-0.006683483719825745,-0.29222291707992554,-0.18326133489608765
421,-1.38571263999164,-1.3412631513100202,-1.713454269561846,-0.22363771498203278,0.9737727046012878,-0.04187089949846268,-0.612845242023468,0.2007897049188614,-0.02009892649948597,0.4919940233230591,-1.0133538246154785,-0.11344826221466064
422,-1.4609194766450666,-1.359430047747686,-1.90130430494641,-0.2085314840078354,0.9777451753616333,-0.023005438968539238,-0.19891266524791718,0.785162627696991,0.031155914068222046,-0.5010632872581482,1.3181533813476562,-0.7357226014137268
423,-1.3500339586461265,-1.3465294417246392,-1.9150412853602437,-0.21699446439743042,0.9749574065208435,-0.048697907477617264,-0.46468281745910645,1.9706228971481323,-0.3250539302825928,-0.2482612580060959,0.410220205783844,0.15668433904647827
424,-1.3678458656245165,-1.3249520090833151,-2.1062904104306783,-0.2383805513381958,0.9699321985244751,-0.04905480146408081,-0.21333549916744232,0.7907021045684814,-0.3288878798484802,0.2288895845413208,-0.8275523781776428,0.1573006510734558
425,-1.4673930354835905,-1.3194341830712377,-2.180212919490608,-0.24739530682563782,0.9685745239257812,-0.02567305415868759,0.006544556003063917,-1.1482428312301636,0.2562023401260376,0.22534634172916412,-0.8025894165039062,0.0166856050491333
426,-1.300982733945816,-1.3492711900456613,-1.8532346734786795,-0.211769238114357,0.9755634665489197,-0.05856636166572571,1.2021911144256592,-1.435214638710022,0.264544814825058,-0.4385146200656891,1.2727582454681396,-0.1328551173210144
427,-1.1483959724773838,-1.356516738088737,-1.5629994594560819,-0.19395390152931213,0.9771298170089722,-0.08717349171638489,0.10572831332683563,-1.4485841989517212,0.3427559733390808,0.08871403336524963,-0.14358800649642944,-0.09210205078125
428,-1.296940644756613,-1.376736031158839,-1.6796839695686248,-0.18565873801708221,0.981229305267334,-0.0521540641784668,-0.794877290725708,0.44351133704185486,-0.0921204537153244,0.4868519902229309,-1.0941596031188965,-0.1437687873840332
429,-1.5081913339000412,-1.393301120094586,-1.9856487433978203,-0.1762188822031021,0.9842890501022339,-0.011046617291867733,-0.24237844347953796,0.7866318225860596,0.01942814327776432,-0.12263976037502289,1.1235448122024536,-0.2404792308807373
430,-1.3967714811347338,-1.3879313045538475,-1.9887716570684018,-0.17910142242908478,0.9833267331123352,-0.031486593186855316,0.0069915521889925,1.5516000986099243,-0.2304033637046814,-0.20255140960216522,0.46702128648757935,-0.009422246366739273
431,-1.2777552217414367,-1.3590156139355598,-2.0040036004738897,-0.20124028623104095,0.9776581525802612,-0.060719773173332214,-0.12816265225410461,0.6802526712417603,-0.3891660273075104,0.15079472959041595,-0.6989716291427612,0.1837361454963684
432,-1.4404398544165835,-1.3369044192132633,-2.1325666037545883,-0.22979891300201416,0.9727717638015747,-0.03012661449611187,-0.19087159633636475,-1.2021600008010864,0.006531042978167534,0.16682587563991547,-0.8361140489578247,-0.23819923400878906
433,-1.4074504874890579,-1.3622103424173937,-1.9355810176469201,-0.20432086288928986,0.9783247113227844,-0.033675000071525574,1.0058619976043701,-1.2315582036972046,0.08968294411897659,-0.5118198990821838,1.4012072086334229,-0.44369620084762573
434,-1.24244160044417,-1.364503999058545,-1.6284604102477171,-0.1938885748386383,0.9787970781326294,-0.06605543196201324,0.463403582572937,-1.4392229318618774,0.21072256565093994,0.1044873595237732,-0.10053181648254395,0.012771733105182648
435,-1.2597504992302353,-1.3615649209583198,-1.5930360338172678,-0.1977415829896927,0.9781908392906189,-0.06357016414403915,-0.3572121262550354,0.12420172989368439,-0.1998223513364792,0.3835020363330841,-1.227107286453247,-0.24863994121551514
436,-1.4499096969760712,-1.3595574900940166,-1.839868450363741,-0.2081417292356491,0.9777719378471375,-0.025284839794039726,-0.2058333456516266,0.7100176811218262,0.06022206321358681,-0.2956272065639496,0.9056357741355896,-0.3433980345726013
437,-1.354757257420707,-1.3446769830156513,-1.8984622398290987,-0.21898530423641205,0.9745437502861023,-0.048059407621622086,-0.4066619873046875,2.2505383491516113,-0.29291319847106934,-0.17223475873470306,0.7334639430046082,0.3639621138572693
438,-1.385020927587044,-1.320720298806101,-2.1278959991852493,-0.24321970343589783,0.9688935875892639,-0.045711319893598557,-0.3963747024536133,1.5367170572280884,-0.3055296242237091,0.04766303300857544,-0.6679291725158691,0.11136990785598755
439,-1.4630407490976114,-1.3080839926526682,-2.2479274803509153,-0.2581943869590759,0.9656891226768494,-0.027930069714784622,-0.02804829739034176,-0.6861651539802551,0.1747668981552124,0.3037418723106384,-0.9473328590393066,-0.19342917203903198
440,-1.3791108229915674,-1.3488543118750367,-2.0061975087183646,-0.21609272062778473,0.9754717946052551,-0.041936736553907394,0.6361607909202576,-1.5708173513412476,0.41537052392959595,-0.45123517513275146,1.3557965755462646,0.11614018678665161
441,-1.213408105323715,-1.3659845627522926,-1.724037508783162,-0.19053180515766144,0.9790992736816406,-0.07114914059638977,0.6090471148490906,-1.863065481185913,0.40893813967704773,-0.04745951294898987,0.19848251342773438,0.22495776414871216
442,-1.2896207398584234,-1.3777088935286528,-1.6845759666716544,-0.18435440957546234,0.9814164638519287,-0.0532466322183609,-0.5914612412452698,-0.24150897562503815,-0.13626347482204437,0.43061599135398865,-1.0065934658050537,-0.09987533092498779
443,-1.6535715393545865,-1.3687971258350187,-2.102341105526262,-0.19994132220745087,0.9796674251556396,0.016588088124990463,-0.579882025718689,1.0604561567306519,-0.06848158687353134,0.33698052167892456,-0.2895582318305969,-0.36248958110809326
444,-1.5637202967254895,-1.355180781991802,-2.126153351665613,-0.2139430046081543,0.9768449068069458,-0.0015138923190534115,-0.1116277351975441,1.919582724571228,-0.2645944058895111,0.053542643785476685,0.8281781673431396,0.38966697454452515
445,-1.570244205165554,-1.3132699384277047,-2.3099982656067253,-0.25468912720680237,0.9670229554176331,-0.00014061939145904034,-0.42649298906326294,1.4488694667816162,-0.3567032217979431,-0.11716750264167786,-0.25736725330352783,0.20752280950546265
446,-1.6054150566158139,-1.2812922885512694,-2.407114405141558,-0.2853057384490967,0.9583855867385864,0.009880870580673218,-0.032595112919807434,-0.6487929821014404,-0.09210260957479477,0.33918455243110657,-1.287334680557251,-0.3779839277267456
447,-1.5437257159212454,-1.310214380341552,-2.1875517172470236,-0.2575482726097107,0.9662402272224426,-0.006973692681640387,0.2946641743183136,-1.1346584558486938,0.821320116519928,-0.5305986404418945,1.76042902469635,0.5027623176574707
448,-1.356198202981904,-1.3436430023578347,-1.9020934437646613,-0.22003936767578125,0.9743114113807678,-0.047958508133888245,0.6326530575752258,-0.3964846432209015,0.4571550488471985,-0.17879484593868256,0.4549030661582947,0.22947704792022705
449,-1.3051142770140023,-1.3677032921449364,-1.7820133645826912,-0.19462324678897858,0.9794474244117737,-0.05295989662408829,-0.29371920228004456,-0.1389136165380478,0.09192220121622086,0.2882664203643799,-0.8123483657836914,0.027096271514892578
450,-1.542225219556857,-1.3825026399387839,-2.011126702972166,-0.1871071606874466,0.9823250770568848,-0.005347313825041056,-0.6733107566833496,0.3342609405517578,0.16899117827415466,0.3776741623878479,-0.5775398015975952,-0.19600766897201538
451,-1.5624327552322816,-1.3946982218602548,-2.08874531441694,-0.17518401145935059,0.984534740447998,-0.0014651981182396412,0.3087625205516815,1.19240140914917,-0.05914255976676941,0.006635412573814392,1.0535818338394165,0.36869847774505615
452,-1.580588038033896,-1.3643558199227763,-2.2607669867812477,-0.20496807992458344,0.9787667393684387,0.0020070523023605347,-0.37916088104248047,1.416048288345337,-0.41862016916275024,-0.29252949357032776,-0.05789870023727417,0.19625043869018555
453,-1.602768869789473,-1.3304815767906424,-2.3549251134787066,-0.2378859519958496,0.9712631106376648,0.007608411833643913,-0.17423711717128754,-0.5496630072593689,-0.27688899636268616,0.2925124764442444,-1.0765947103500366,-0.29996681213378906
454,-1.6225580091951528,-1.3323288954816253,-2.2314617626369664,-0.23589681088924408,0.9717011451721191,0.012221332639455795,1.3936843872070312,-2.3782482147216797,0.2640172243118286,-0.2788736820220947,0.5689481496810913,-0.3744344711303711
455,-1.4291308700529808,-1.3699196958610056,-1.8716702426852148,-0.19753001630306244,0.9798920154571533,-0.028171895071864128,0.3389212191104889,-0.5350322723388672,0.3220503628253937,-0.22786976397037506,0.6760375499725342,-0.04146921634674072
456,-1.440030155492442,-1.4087419152584826,-1.7438071917526332,-0.15996922552585602,0.986897885799408,-0.021038619801402092,-0.1799342930316925,-1.1204752922058105,0.20089952647686005,-0.14834986627101898,-0.6532796621322632,-0.08191239833831787
457,-1.8159700605667268,-1.3939891480373328,-2.0393948237034567,-0.17062683403491974,0.984410285949707,0.04269207641482353,-0.7486802339553833,-0.19334998726844788,-0.13526657223701477,0.4397919178009033,-1.0159350633621216,-0.14956462383270264
458,-1.7909427225127703,-1.3569148275524283,-2.0569851797684198,-0.20713236927986145,0.9772143959999084,0.04635066166520119,0.406819611787796,0.20708169043064117,-0.3444899022579193,-0.12267109751701355,1.6595501899719238,-0.5620976686477661
459,-1.7833703483385102,-1.3467012389877577,-2.0775545264033513,-0.21722224354743958,0.9749956130981445,0.04688413813710213,-0.02085498347878456,-0.017267480492591858,-0.056335654109716415,-0.4517535865306854,0.12020397186279297,-0.07792043685913086
460,-1.8931500234234901,-1.32605457186023,-2.1695372214353763,-0.22982534766197205,0.9701999425888062,0.07676249742507935,-0.7647234201431274,-0.9120628237724304,-0.08856136351823807,0.24813589453697205,-0.9686893224716187,0.13785231113433838
461,-2.194962998625759,-1.3235662559377221,-2.276729270629913,-0.1985771656036377,0.9695940017700195,0.14301885664463043,0.05487429350614548,-2.5235602855682373,0.31706884503364563,0.08497551083564758,-0.7556964159011841,-0.13795293867588043
462,-2.147148274753482,-1.395534519269839,-1.8310636331494838,-0.14619861543178558,0.9846809506416321,0.09502425789833069,0.473228394985199,-3.192511558532715,0.43902522325515747,-0.3380848169326782,1.1031944751739502,-0.3474808931350708
463,-2.424328951182645,-1.459098618942551,-1.8868906327444555,-0.07326887547969818,0.9937682747840881,0.08400098979473114,0.21400170028209686,-1.6620861291885376,0.5162017345428467,-0.4175453186035156,-0.06870424747467041,-0.28900277614593506
464,-2.8177653509601135,-1.432375844042956,-2.163742623255979,-0.04390455782413483,0.9904351830482483,0.1308075338602066,-0.8962856531143188,-0.6366612315177917,-0.10898547619581223,0.07803845405578613,-0.9483819603919983,-0.3221222162246704
465,-2.9287625819843774,-1.389400056684574,-2.150404963883076,-0.03810610622167587,0.9835927486419678,0.17633317410945892,1.4996620416641235,-1.3886772394180298,-0.3064289689064026,-0.8015698194503784,1.2738993167877197,-0.4460628032684326
466,-2.965306713821654,-1.4680963467552983,-2.011087651452827,-0.017979195341467857,0.9947310090065002,0.10093013197183609,0.7464938759803772,-0.9936540126800537,-0.18056735396385193,-0.4315600097179413,0.5270737409591675,0.20461176335811615
467,-2.7301555614700392,-1.488304930361638,-1.6176110839831468,-0.03295326232910156,0.9965994954109192,0.07552183419466019,0.31133800745010376,-1.8877569437026978,-0.26432889699935913,-0.21462059020996094,-0.587541937828064,-0.1748412847518921
468,-2.2630070579358756,-1.5296460728635666,-0.912113646900227,-0.031669408082962036,0.9991534352302551,0.02625582367181778,0.6205050945281982,-2.496685743331909,0.11605873703956604,0.16513806581497192,-0.7544482946395874,-0.10831761360168457
469,-0.012383986917115319,-1.541583080318588,1.642464355099961,-0.0003617668407969177,0.9995733499526978,-0.029210977256298065,1.9745501279830933,-4.16064977645874,0.5175527930259705,-0.7921187281608582,0.9204096794128418,-0.7243595719337463
470,0.18202119411285905,-1.4273038063007815,2.166520142193589,0.025885647162795067,0.9897226095199585,-0.14063820242881775,0.7275332808494568,-3.1719489097595215,0.7515590190887451,-0.24639040231704712,0.7492910623550415,-0.08018696308135986
471,0.17893412413896892,-1.3538936557720203,2.4619495289111555,0.03830249607563019,0.9765686988830566,-0.21176977455615997,0.39705461263656616,-2.1004996299743652,0.42242804169654846,-0.384005606174469,-0.4827180504798889,-0.05274133384227753
472,0.05210337520480064,-1.3461761750501446,2.4687438707097558,0.011600032448768616,0.9748787879943848,-0.2224334478378296,-0.42081063985824585,-0.8630830645561218,-0.20056498050689697,0.2322354018688202,-0.889353334903717,0.06891478598117828
473,-0.08204672787949371,-1.3750441311679196,2.4070627313499426,-0.01594056934118271,0.9809016585350037,-0.1938503235578537,-0.2703973352909088,-0.8067017197608948,-0.10761059820652008,-0.2915545403957367,1.0891361236572266,-0.2309238165616989
474,-0.13961575700457482,-1.3835444754316548,2.3676483320145936,-0.025906428694725037,0.9825195670127869,-0.1843479722738266,-0.07019740343093872,-0.05261662229895592,-0.026538686826825142,-0.22966304421424866,0.5385985970497131,0.06273543834686279
475,-0.1384444772163312,-1.381191088565159,2.3632064063147453,-0.026009483262896538,0.9820787310600281,-0.18666759133338928,-0.15259091556072235,-0.1310838907957077,-0.024686871096491814,-0.282019704580307,-0.39751458168029785,0.08016122877597809
476,-0.3499495599557336,-1.4089324821693388,2.197673673683564,-0.055253151804208755,0.9869286417961121,-0.15139038860797882,-0.7986345887184143,-0.3193703889846802,-0.08872265368700027,-0.028868556022644043,-1.0639550685882568,-0.004340827465057373
477,-0.43309416240512477,-1.3954339804384814,2.3449833199377017,-0.073219895362854,0.9846633672714233,-0.15835735201835632,0.7043625712394714,-4.227279186248779,0.4584377706050873,-0.6399911642074585,1.4352738857269287,-0.11675865948200226
478,-0.533065725940793,-1.3417403647089308,2.575375274053994,-0.11538568139076233,0.973881185054779,-0.19555482268333435,0.3388215899467468,-2.136385679244995,0.2906786799430847,0.14607110619544983,0.36638981103897095,0.37505924701690674
479,-0.44363086583882266,-1.3204934204897616,2.7306277514212205,-0.1063171848654747,0.9688374400138855,-0.2237202674150467,0.0041900742799043655,0.13583828508853912,0.035486526787281036,0.1093231663107872,-0.799571692943573,0.026653051376342773
480,-0.6235841545928572,-1.363674745565274,2.5016803516247066,-0.12008506059646606,0.9786269068717957,-0.16693927347660065,-0.6706966757774353,0.9058288931846619,-0.12999889254570007,0.29293662309646606,-0.3733871579170227,-0.12772314250469208
481,-0.6217869874484899,-1.379379482856988,2.4171137492447192,-0.1108185201883316,0.9817356467247009,-0.15464267134666443,0.292084276676178,1.3213603496551514,-0.32137471437454224,-0.040197715163230896,0.9439540505409241,-0.11197412014007568
482,-0.6737374512150119,-1.3848298385830273,2.1459422226377867,-0.11535942554473877,0.9827579855918884,-0.14449629187583923,-0.46552228927612305,1.60129714012146,-0.20193026959896088,-0.29035651683807373,-0.4068148732185364,0.15513168275356293
483,-0.8497422824834338,-1.373568946629761,1.9310068647713894,-0.14718133211135864,0.980613648891449,-0.12936274707317352,-0.1632450520992279,-0.6428494453430176,-0.2847305238246918,0.11762502789497375,-1.0805432796478271,-0.07093937695026398
484,-0.7388436968345801,-1.3520539280387465,2.172868996161691,-0.14613670110702515,0.9761711359024048,-0.1604185402393341,1.3220571279525757,-1.4709177017211914,0.5151399970054626,-0.5849576592445374,2.0670571327209473,0.146975576877594
485,-0.6936950212120176,-1.3314290925373173,2.441745712486221,-0.15158988535404205,0.9714881777763367,-0.18229423463344574,0.7205007076263428,-1.633137822151184,0.4851160943508148,0.21401359140872955,0.38254624605178833,-0.09030401706695557
486,-0.6404927937700858,-1.3416548781323994,2.5895177417990474,-0.13573746383190155,0.9738617539405823,-0.182122141122818,-0.7208927869796753,-0.09631997346878052,0.14397619664669037,0.20173174142837524,-1.030456781387329,-0.08325867354869843
487,-1.064100070432864,-1.399998837399869,2.0571864084776386,-0.14861197769641876,0.9854495525360107,-0.08248399198055267,-1.4129713773727417,1.965268850326538,-0.14908632636070251,0.40975087881088257,-0.343252956867218,-0.10481762140989304
488,-1.1307721589637703,-1.4079301615160422,1.8585643965990941,-0.14670099318027496,0.9867665767669678,-0.0690683051943779,0.3027699291706085,1.5488476753234863,-0.2807072103023529,-0.022671565413475037,1.1550180912017822,-0.097206711769104
489,-1.1686073631090386,-1.3874342667117274,1.5764336885893397,-0.16778776049613953,0.9832362532615662,-0.0713728666305542,-0.9409480094909668,1.8604109287261963,-0.35859888792037964,-0.12045077979564667,-0.42860960960388184,0.1789168119430542
490,-1.3456103031263613,-1.348029164370263,1.3350235921623685,-0.2153507024049759,0.9752898216247559,-0.04933062940835953,0.0688701868057251,-0.9320170283317566,-0.4432591497898102,0.19710122048854828,-1.2470948696136475,-0.22792160511016846
491,-1.2414559908998124,-1.3048314614470236,1.6435993305911911,-0.24871473014354706,0.9648393392562866,-0.08500770479440689,2.137589454650879,-2.7311956882476807,0.4361949861049652,-0.416522741317749,2.693363904953003,-0.07005215436220169
492,-1.2303029166964419,-1.3224324652335477,1.899183509735471,-0.23170554637908936,0.9693158864974976,-0.08209145069122314,0.5274331569671631,-1.1056240797042847,0.11941200494766235,0.25698935985565186,0.3843674659729004,-0.10380636900663376
493,-1.192962689281757,-1.3419611823684006,1.951823630062029,-0.21084366738796234,0.9739313125610352,-0.08368447422981262,-0.676064670085907,0.5480518937110901,0.1997106969356537,0.37901076674461365,-0.8681725263595581,-0.025980420410633087
494,-1.4735605122122075,-1.35879969622631,1.5573058832374878,-0.20941834151744843,0.9776127338409424,-0.020427381619811058,-0.6170163750648499,0.9977256059646606,-0.13154777884483337,0.45278075337409973,-0.6670658588409424,-0.4304088354110718
495,-1.418276858349974,-1.3609046920326135,1.48761298969194,-0.20593523979187012,0.9780535101890564,-0.0316549688577652,0.11769973486661911,1.7048035860061646,-0.05685602128505707,-0.17063641548156738,1.1684765815734863,-0.306235671043396
