,attitude.roll,attitude.pitch,attitude.yaw,gravity.x,gravity.y,gravity.z,rotationRate.x,rotationRate.y,rotationRate.z,userAcceleration.x,userAcceleration.y,userAcceleration.z
0,-1.4964361074052508,-1.3836088755189266,0.7238272749634174,-0.18558189272880554,0.9825315475463867,-0.013825401663780212,0.7200605273246765,-2.033951997756958,0.49779993295669556,-0.28217628598213196,1.0735445022583008,0.12347501516342163
1,0.041927624738694685,0.30254260016551476,-0.6066003197171635,0.040011629462242126,-0.29794830083847046,-0.9537431001663208,0.04308957979083061,0.19448617100715637,0.47129762172698975,0.017941247671842575,0.03712978959083557,-0.5485914945602417
2,0.03172647985989873,0.3211302708457525,-0.5482667937037861,0.030099548399448395,-0.3156392574310303,-0.9484017491340637,-0.5807690620422363,-0.2606441378593445,0.2948490083217621,-0.024591125547885895,0.08517050743103027,0.10721522569656372
3,-0.030299779976856532,0.24543058770787018,-0.4606221702391679,-0.029387284070253372,-0.24297402799129486,-0.9695875644683838,-0.9955604076385498,-0.21072478592395782,1.0949163436889648,-0.07252617180347443,-0.10492636263370514,0.2781202793121338
4,-0.0722517739789915,0.1850355212932176,-0.4375609774546507,-0.07095663994550705,-0.18398144841194153,-0.9803652167320251,-0.03987288102507591,-0.3716674745082855,-0.08274276554584503,0.13614219427108765,-0.05849596858024597,0.026721417903900146
5,-0.12886258391039052,0.20455975220436495,-0.4426822687754739,-0.12582695484161377,-0.2031361162662506,-0.9710320830345154,-0.1663581281900406,-0.9792546033859253,0.18681257963180542,0.10657036304473877,-0.1603434979915619,-0.2616339325904846
6,-0.19978638632887324,0.2229034689313189,-0.4167316676005238,-0.1935500204563141,-0.22106218338012695,-0.9558607935905457,0.8550073504447937,-0.1607881635427475,0.19340935349464417,-0.1546097695827484,-0.32691144943237305,-0.36384135484695435
7,-0.22552609992679723,0.28439440651136894,-0.4107912329028568,-0.21463677287101746,-0.280576229095459,-0.9355255365371704,0.29543545842170715,-0.3476313650608063,-0.3719187378883362,-0.24622441828250885,0.2509894371032715,0.11591494083404541
8,-0.29092308766789915,0.2683344212727707,-0.5030720386706214,-0.2765718698501587,-0.2651258409023285,-0.9236970543861389,-1.046403169631958,-0.8700939416885376,-0.10826002806425095,0.2198702096939087,0.05087721347808838,0.3627535104751587
9,-0.3387676877209398,0.17071637745215204,-0.5630162803792466,-0.32749417424201965,-0.16988836228847504,-0.9294544458389282,-1.0215919017791748,-0.31404536962509155,-0.680108904838562,0.10059598088264465,0.008175700902938843,0.2995716333389282
10,-0.4289936933753432,0.1825949081463618,-0.693954899616345,-0.4090409576892853,-0.18158195912837982,-0.8942670226097107,-0.26902562379837036,-2.2454395294189453,-1.2168935537338257,0.10703900456428528,-0.17753365635871887,-0.0935717225074768
11,-0.5951466070228643,0.14029194403461107,-0.7389226090665407,-0.5551220774650574,-0.13983219861984253,-0.8199307322502136,0.5749000906944275,-0.077003113925457,-0.1912110447883606,-0.33112359046936035,-0.45458918809890747,-0.5505220890045166
12,-0.5130857756598356,0.25713322676810774,-0.7762041274502303,-0.4747297465801239,-0.2543090879917145,-0.8425903916358948,0.6400756239891052,1.0331828594207764,-1.298845887184143,-0.2416856586933136,0.22676697373390198,0.005584776401519775
13,-0.3983569438107638,0.3357380797035443,-0.830247334833892,-0.36624675989151,-0.3294661343097687,-0.870238721370697,0.961798369884491,1.0999664068222046,-0.6732128262519836,0.2049155831336975,0.09434345364570618,0.03260749578475952
14,-0.44533865177902376,0.44763933460990285,-0.6868351032882167,-0.3883209824562073,-0.43283867835998535,-0.8135462403297424,2.0855112075805664,-0.2937534749507904,0.5032621622085571,0.03474435210227966,0.20388054847717285,-0.0011510252952575684
15,-0.5140350663658757,0.5648705788733446,-0.5398328496963515,-0.4153139293193817,-0.5353065133094788,-0.735500693321228,0.8042744994163513,0.19411377608776093,0.6514565348625183,-0.1203153133392334,-0.04262012243270874,0.12682759761810303
16,-0.5048804697538695,0.6275749177351952,-0.4959172185080047,-0.39153510332107544,-0.5871834754943848,-0.7084601521492004,0.6832041144371033,-0.10393880307674408,-0.35210755467414856,-0.32001274824142456,-0.26785802841186523,-0.09866875410079956
17,-0.5124088495523899,0.7265083253310713,-0.5187964583557803,-0.36648207902908325,-0.6642636656761169,-0.6514941453933716,0.40648892521858215,-0.1679002046585083,-0.588307797908783,-0.20955240726470947,-0.14959430694580078,0.15492743253707886
18,-0.46944992101120225,0.7288602674036228,-0.5990862516596628,-0.3374573886394501,-0.6660199165344238,-0.6652368307113647,0.6064626574516296,-0.4093363583087921,-0.39021414518356323,0.12268993258476257,-0.00017881393432617188,-0.31201231479644775
19,-0.5082293113913064,0.7968794744585026,-0.609367182106366,-0.3401268422603607,-0.7151784896850586,-0.6106008291244507,0.39169037342071533,0.07157677412033081,-0.7022899985313416,0.3190697133541107,0.28761202096939087,0.19664520025253296
20,-0.4271831032485908,0.8408159581475312,-0.6763654649235457,-0.276283860206604,-0.745187520980835,-0.6069290637969971,0.21423619985580444,0.7115834951400757,-0.15083253383636475,0.2699819505214691,0.10361647605895996,0.02199864387512207
21,-0.4303792572420411,0.8027825431318839,-0.6145035520990709,-0.2898429334163666,-0.7192919254302979,-0.631355881690979,-0.4408824145793915,0.404643714427948,1.0510286092758179,0.04294043779373169,-0.16831183433532715,-0.2391427755355835
22,-0.4091889750023646,0.7220007632085865,-0.5399913320591988,-0.2985920011997223,-0.6608875393867493,-0.6885277628898621,-0.5606552958488464,1.1016278266906738,0.04606674984097481,-0.2446666955947876,0.008513271808624268,-0.35718756914138794
23,-0.36517105032416297,0.6966213478840693,-0.4644927365051023,-0.27390778064727783,-0.6416298747062683,-0.7164395451545715,-0.3038586378097534,0.802139401435852,0.9942288398742676,0.11040988564491272,0.2929513454437256,0.21976590156555176
24,-0.27185193215174885,0.6367538370521576,-0.39619106278770655,-0.21589481830596924,-0.594588577747345,-0.7745023965835571,-0.6016740798950195,2.0089871883392334,0.42737892270088196,0.12435734272003174,0.31059199571609497,0.47115767002105713
25,-0.15775664731135242,0.517870708105475,-0.2992787343854991,-0.13650299608707428,-0.4950311779975891,-0.8580857515335083,-1.431122064590454,1.0420492887496948,2.0846612453460693,0.005018025636672974,-0.06385248899459839,0.3351212739944458
26,-0.16339807791550537,0.34172794768059445,-0.16213322203829156,-0.15326577425003052,-0.33511561155319214,-0.9296274185180664,-1.045664668083191,0.4771553575992584,0.3663008511066437,-0.392678439617157,-0.49300938844680786,-0.3621053695678711
27,-0.11963760198539074,0.24213614926879712,-0.22492206932677453,-0.1158706545829773,-0.23977699875831604,-0.9638884663581848,-0.7970781922340393,0.4338822662830353,-1.2474737167358398,-0.1821640133857727,-0.5113369226455688,-0.5511872172355652
28,-0.046366393929661485,0.23670883255281183,-0.33177356396073077,-0.04505731910467148,-0.23450450599193573,-0.9710702896118164,0.08998043835163116,0.47383496165275574,-0.8111373782157898,-0.06079290062189102,-0.16078966856002808,-0.2238912582397461
29,-0.032125056901348446,0.258703058024169,-0.3661459200157093,-0.031050676479935646,-0.2558269798755646,-0.9662237763404846,0.11639567464590073,-0.025931619107723236,-0.2592129111289978,-0.0684061124920845,0.16503718495368958,0.3205938935279846
30,0.011512123452298023,0.26099141318653685,-0.4367633479167096,0.011122015304863453,-0.2580385208129883,-0.9660705924034119,-0.2998170256614685,0.43640419840812683,-0.7593812942504883,-0.04725482687354088,0.3435640335083008,0.39356082677841187
31,0.03057666476225036,0.15978737634952878,-0.4557312704956556,0.030182449147105217,-0.15910829603672028,-0.9867996573448181,-1.9704055786132812,-0.05503368750214577,0.41025036573410034,-0.034897416830062866,0.5531207323074341,-0.01271200180053711
32,-0.0519492346819794,-0.028187062301598974,-0.3679310629666497,-0.05190524458885193,0.028183329850435257,-0.9982542395591736,-1.8935436010360718,-1.7968649864196777,1.4443122148513794,-0.14227810502052307,0.49420130252838135,-0.3044496178627014
33,-0.19394199882250765,-0.29551745965511433,-0.3018111515017472,-0.18437400460243225,0.29123491048812866,-0.9387164115905762,-3.1174333095550537,-1.381679892539978,0.5505874156951904,-0.27706703543663025,0.028909742832183838,-0.5704236030578613
34,-0.30131418100471347,-0.5176217115873815,-0.2733476073424985,-0.25789740681648254,0.49481481313705444,-0.8298477530479431,-1.030640721321106,-1.0274356603622437,1.520349144935608,0.001580268144607544,-0.5180997252464294,-0.2922225594520569
35,-0.3517251256196764,-0.5757240649665177,-0.1656237853936554,-0.28898099064826965,0.5444422960281372,-0.787446916103363,-0.04075709357857704,-0.5488399863243103,0.5219619274139404,0.08910608291625977,-0.4469691514968872,0.17199891805648804
36,-0.31009979869994153,-0.6535687971664526,-0.11852232421939089,-0.24226728081703186,0.6080235838890076,-0.7560514807701111,-1.084991693496704,0.4291450083255768,0.8350526690483093,-0.11391861736774445,-0.46268361806869507,-0.11374527215957642
37,-0.2824958335149917,-0.7366548140848703,-0.12710801785139486,-0.20647825300693512,0.6718138456344604,-0.711359977722168,-0.04251348599791527,0.25745493173599243,-0.30588123202323914,-0.3022803068161011,-0.6935728788375854,-0.8015642166137695
38,-0.2782210537409676,-0.6099552658403493,-0.15051985104409207,-0.2251197099685669,0.5728307962417603,-0.7881535291671753,1.939723014831543,0.7939146161079407,-1.2624917030334473,-0.3706749677658081,-0.21276915073394775,-0.6756526231765747
39,-0.23492358909322839,-0.32003467505795646,-0.3193957296724262,-0.22094972431659698,0.31459948420524597,-0.9231513142585754,3.0158863067626953,0.6715707778930664,-1.9794602394104004,-0.19343321025371552,0.21048596501350403,-0.5184075236320496
40,-0.1904645781697464,0.03175018788417871,-0.42703708176470795,-0.18921968340873718,-0.03174485266208649,-0.9814215302467346,3.4974021911621094,1.1879874467849731,-1.6459523439407349,-0.04390409588813782,0.3981083631515503,0.15306764841079712
41,-0.08123440735526595,0.3370616367419504,-0.5472452442493737,-0.07657910138368607,-0.33071550726890564,-0.9406183362007141,2.096358299255371,0.5395092964172363,-1.034622073173523,-0.05621813237667084,0.7675288915634155,0.2439783215522766
42,-0.053154454716759,0.47945363844664873,-0.5418861682451385,-0.04713892936706543,-0.4612944722175598,-0.8859939575195312,0.3288280963897705,-0.10940904170274734,0.8167783617973328,0.029759161174297333,1.072195291519165,0.41817474365234375
43,-0.15872065041560637,0.3483903135318285,-0.3847823772810202,-0.14855965971946716,-0.34138527512550354,-0.9281088709831238,-2.149153470993042,-0.6680585741996765,2.671182870864868,0.16987620294094086,0.9494022727012634,-0.051902055740356445
44,-0.19033397319000542,-0.05896904760182206,-0.23043930713623176,-0.1888580024242401,0.058934878557920456,-0.9802343249320984,-4.498034954071045,-0.021745601668953896,1.6533781290054321,-0.1956329643726349,0.6045630574226379,-0.6896265149116516
45,-0.18680931002310502,-0.46168521855443595,-0.02603695799770395,-0.1662798672914505,0.4454575181007385,-0.8797264695167542,-2.379110336303711,-1.1048256158828735,3.7449724674224854,0.0620013028383255,-0.2972946763038635,-0.42358773946762085
46,0.05190280734644473,-0.6194337992460156,0.5131497072889667,0.04224067181348801,0.5805742740631104,-0.8131108283996582,-0.7167654037475586,-0.039009228348731995,4.585278034210205,-0.6010327935218811,-0.05277276039123535,-0.3135523796081543
47,0.296496879436785,-0.658854069157599,0.9187565199457416,0.231018528342247,0.6122111678123474,-0.7561930418014526,-0.8377295136451721,-0.0011216932907700539,1.4219253063201904,-1.1699528694152832,-0.5953807830810547,-0.4163990616798401
48,0.2544526104779567,-0.6642028428462251,0.9047153026937073,0.19820304214954376,0.6164316534996033,-0.7620548605918884,1.0454003810882568,-0.5201354026794434,-1.5526342391967773,-0.9886846542358398,-0.5602182745933533,-0.8162837624549866
49,0.030602410203317932,-0.5791030205426617,0.5233476868467548,0.025608807802200317,0.5472733974456787,-0.8365620374679565,1.6641926765441895,0.8857410550117493,-4.681352615356445,-0.4619796574115753,-0.09983992576599121,-0.754822850227356
50,-0.08420635186091875,-0.3139956102365314,0.04757971586826761,-0.07999464124441147,0.3088613450527191,-0.9477370381355286,3.3944783210754395,0.9257622957229614,-4.086763858795166,-0.26152756810188293,0.3477243483066559,-0.5206009745597839
51,-0.051935712859960625,0.07260828508281313,-0.25958640353675494,-0.05177558958530426,-0.07254450023174286,-0.9960203766822815,3.6046664714813232,0.6602129340171814,-2.4627888202667236,-0.15026603639125824,0.8025097250938416,-0.076809823513031
52,0.042301712524596684,0.3673844974237207,-0.39938677934849703,0.03946714475750923,-0.3591756820678711,-0.9324350953102112,2.0536162853240967,0.3794676959514618,0.036883387714624405,-0.0002825707197189331,0.9894857406616211,0.09059244394302368
53,-0.01066717345077476,0.4584036583214418,-0.35655126406364157,-0.009565713815391064,-0.44251713156700134,-0.8967090249061584,-0.07844697684049606,-0.5400383472442627,0.826802670955658,0.04144132137298584,1.0539826154708862,0.47283512353897095
54,-0.08789797772350164,0.2508958106662453,-0.2504959877908327,-0.08503632992506027,-0.24827182292938232,-0.9649507403373718,-3.556837797164917,0.20865270495414734,1.4279038906097412,0.031111769378185272,1.0063284635543823,0.034500300884246826
55,-0.0846005937649368,-0.1750814854615443,-0.15524266122359517,-0.08320791274309158,0.17418837547302246,-0.9811905026435852,-4.1530632972717285,-0.34158429503440857,1.919429898262024,0.023637600243091583,0.44273972511291504,-0.5464125871658325
56,-0.06283224232661312,-0.5609910128371259,0.10446110124559607,-0.05316683650016785,0.5320255756378174,-0.8450574278831482,-2.8803699016571045,-0.5455600619316101,2.8601274490356445,-0.15807583928108215,-0.15357708930969238,-0.3764391541481018
57,0.15014624014181346,-0.7699530193901511,0.5183719910287148,0.10739193111658096,0.6961014866828918,-0.709865927696228,-1.790340542793274,-0.39219123125076294,3.2545387744903564,-0.5481420755386353,-0.23366868495941162,-0.571200966835022
58,0.3804922835364163,-0.848458298135701,0.8788278479814245,0.2455328106880188,0.7502620220184326,-0.613857090473175,-0.7479724287986755,-0.619797945022583,0.649968683719635,-1.1921881437301636,-0.8316981792449951,-0.9901772737503052
59,0.22385792023818454,-0.8229523552991534,0.7230850257791955,0.15096843242645264,0.7331568002700806,-0.6630910038948059,1.244036316871643,1.0042285919189453,-2.596479654312134,-0.6733988523483276,-0.5840479135513306,-0.8487498760223389
60,0.010672173865671666,-0.6444592538794192,0.19871510206762794,0.008531438186764717,0.6007662415504456,-0.7993792295455933,3.5998799800872803,1.2057654857635498,-3.349015474319458,-0.32039058208465576,-0.07615381479263306,-1.1396924257278442
61,-0.04100987260982273,-0.2008557304094802,-0.10619147825378102,-0.04017415642738342,0.199507936835289,-0.9790723323822021,4.601200103759766,0.4721628427505493,-2.2615110874176025,-0.2715323865413666,0.6393897533416748,-0.38410210609436035
62,0.012814020607914131,0.2173828960997552,-0.28962375401218915,0.012512103654444218,-0.21567484736442566,-0.9763850569725037,3.3882622718811035,0.22288867831230164,-1.4470244646072388,-0.30012503266334534,1.0135722160339355,0.03360557556152344
63,0.047441818721282905,0.4745623825414584,-0.3951095249964757,0.04218332841992378,-0.45694923400878906,-0.8884919881820679,1.7404112815856934,-0.2602064311504364,-0.5373949408531189,-0.24874155223369598,1.174753189086914,0.28071916103363037
64,-0.016340201515769388,0.5166548167069839,-0.41652678932791337,-0.014206788502633572,-0.49397435784339905,-0.8693603873252869,-1.505712866783142,-0.5570767521858215,0.30175748467445374,0.16192713379859924,1.1669937372207642,0.5193848609924316
65,-0.06705945723920025,0.222686331186351,-0.3728999508056544,-0.0653545930981636,-0.22085042297840118,-0.9731155633926392,-4.091516017913818,-0.4134477972984314,0.9218596816062927,0.0389874130487442,0.898371160030365,-0.21295011043548584
66,-0.10966522742091958,-0.20095875127836002,-0.250616765975503,-0.10724302381277084,0.19960887730121613,-0.9739893674850464,-3.6939034461975098,-0.630254328250885,2.5597755908966064,0.07063718885183334,0.17328540980815887,-0.3138219118118286
67,-0.036641350038358673,-0.5493582823887792,0.07291052709799765,-0.031242940574884415,0.5221400260925293,-0.8522872924804688,-2.965963363647461,-0.44020190834999084,3.732311487197876,-0.3379587233066559,0.05593913793563843,-0.5908126831054688
68,0.2168397471504805,-0.7704631646913507,0.5828510936030004,0.15438510477542877,0.6964676976203918,-0.7007837891578674,-1.8694308996200562,-0.678875207901001,2.7789852619171143,-1.12339448928833,-0.48505717515945435,-0.9794376492500305
69,0.26095416995365045,-0.7906818451454259,0.7720898765578138,0.1814688891172409,0.7108330130577087,-0.6795480251312256,0.2754659950733185,-0.45211806893348694,-0.041374534368515015,-0.7646140456199646,-0.6938804984092712,-0.5716574192047119
70,0.10644904156241057,-0.7552834842636186,0.4820583079574951,0.07735683768987656,0.6854950785636902,-0.7239561080932617,1.6706664562225342,0.9644344449043274,-3.4752650260925293,-0.7305397987365723,-0.3791443705558777,-0.9907197952270508
71,-0.07946663498796153,-0.4951104724342225,0.023816933288466326,-0.06985041499137878,0.4751288592815399,-0.8771393895149231,3.5202887058258057,0.6397626399993896,-3.643395185470581,-0.3606915771961212,0.18379142880439758,-0.4199187159538269
72,-0.10694480348221169,-0.12347311344633745,-0.26134456177178667,-0.10592842847108841,0.12315961718559265,-0.9867172241210938,3.384913682937622,0.6890054941177368,-2.6113250255584717,-0.1969738006591797,0.6374452710151672,0.02689361572265625
73,-0.04765679786787328,0.16615120785786772,-0.426082041755578,-0.04698270931839943,-0.16538779437541962,-0.9851088523864746,2.064586877822876,0.31851062178611755,-0.9128015041351318,-0.20512300729751587,0.8679177165031433,0.19085842370986938
74,-0.04936863043437589,0.2881672231919931,-0.45932537519409183,-0.04731375724077225,-0.28419551253318787,-0.9575982093811035,0.5538149476051331,-0.5399567484855652,0.1516587734222412,-0.18313974142074585,0.7927709817886353,0.3000969886779785
75,-0.14439595477100692,0.252972001784678,-0.4167986897956926,-0.1393149346113205,-0.2502824664115906,-0.9580971002578735,-1.7935899496078491,-0.7174099683761597,0.746025025844574,0.04271155595779419,0.9215165972709656,0.22714006900787354
76,-0.27603636566685824,-0.0038945800793449203,-0.4241344424357767,-0.27254214882850647,0.0038945702835917473,-0.9621359705924988,-2.258197784423828,-2.0120718479156494,0.572044849395752,-0.23630794882774353,0.17382454872131348,-0.5068123936653137
77,-0.4880619306155538,-0.19546311489348514,-0.42484131680902004,-0.4599858224391937,0.19422085583209991,-0.8664244413375854,-0.5323256850242615,-2.0637872219085693,0.24845583736896515,0.029398083686828613,-0.4257271885871887,-0.18490612506866455
78,-0.6813761782090195,-0.13649002022769782,-0.33333545215962257,-0.624004602432251,0.13606663048267365,-0.7694830298423767,1.7203598022460938,-0.6589241623878479,0.14936134219169617,-0.22723746299743652,-0.68024080991745,0.012036800384521484
79,-0.8015666545836754,-0.11046524213722955,-0.09451852976501977,-0.7140676975250244,0.11024072021245956,-0.6913423538208008,3.717987298965454,-1.6130292415618896,1.907684564590454,-0.06016319990158081,-0.8073842525482178,-0.3703489303588867
80,-0.8064738884465186,-0.07875007176861244,0.08053091813814814,-0.7196142673492432,0.07866869866847992,-0.6899032592773438,0.7978891730308533,-0.16441749036312103,2.2976527214050293,0.20327210426330566,0.3907526731491089,-0.311027467250824
81,-0.8453652779095048,-0.3568873480329947,0.1217130684718444,-0.7010676264762878,0.3493594229221344,-0.6216527223587036,-3.603086233139038,-0.8507838249206543,2.777132272720337,-0.04539227485656738,0.6676998734474182,-0.06108647584915161
82,-0.9648060087798155,-0.7789177551684691,-0.00954746002209196,-0.5849524140357971,0.7025096416473389,-0.40535280108451843,-3.361851930618286,-0.7096632719039917,2.3288283348083496,-0.23067563772201538,0.26865118741989136,-0.14461973309516907
83,-1.1578975976777075,-1.0456264466037026,-0.20739149196148296,-0.4592263102531433,0.8652387857437134,-0.20117872953414917,-0.08509453386068344,0.23140451312065125,0.21636900305747986,-0.3998281955718994,-0.34660792350769043,-0.32122114300727844
84,-1.123069602281054,-1.0390087075886978,-0.1902569168569661,-0.4570944011211395,0.8619019985198975,-0.21952161192893982,0.5902101993560791,0.1899726539850235,-0.44679200649261475,-0.6279122829437256,-0.22371840476989746,-0.14916127920150757
85,-1.0710272924926325,-0.877401143592166,-0.1787084837853761,-0.5609794855117798,0.769080400466919,-0.30629628896713257,0.7475188374519348,0.7478659152984619,-2.5915424823760986,-0.3215736150741577,0.007179975509643555,0.1852329969406128
86,-1.0148488967747424,-0.4542649376841668,-0.15719618922528017,-0.7632578015327454,0.43880191445350647,-0.47422605752944946,1.3101441860198975,0.4616108536720276,-3.6279735565185547,0.29588115215301514,0.22138482332229614,-0.31834593415260315
87,-1.069729273037089,-0.12065960022505919,-0.1413533877911106,-0.8706937432289124,0.12036703526973724,-0.47686922550201416,1.2617002725601196,-0.26180994510650635,-4.447084426879883,0.34771400690078735,0.05330849438905716,0.15179598331451416
88,-1.0590311200087927,0.10598045819351166,-0.17178791222583065,-0.8669895529747009,-0.1057821735739708,-0.4869694113731384,-0.8370193839073181,-0.21421237289905548,-0.7809296250343323,0.12812846899032593,0.2227407991886139,0.22581523656845093
89,-1.0809791057925515,0.0190227015188984,-0.3381642110809417,-0.88225919008255,-0.01902155391871929,-0.470379501581192,-1.7975242137908936,-1.1051936149597168,-0.8112738728523254,-0.5581551790237427,0.24111323058605194,-0.3077729642391205
90,-1.121233546634469,0.13570783181767004,-0.5987048838586354,-0.8923566341400146,-0.1352916657924652,-0.43057629466056824,-1.3495856523513794,-0.761955201625824,-3.2447798252105713,0.07617926597595215,-0.4801563322544098,-1.0890769958496094
91,-1.1571808349945558,0.2924433586438818,-0.7307783470191415,-0.876796305179596,-0.28829270601272583,-0.3848578631877899,-1.142465353012085,1.5168495178222656,-3.935551643371582,-0.08322566747665405,0.49233323335647583,0.13555973768234253
92,-1.0976570485003447,0.3956089539010255,-0.910192954583437,-0.821389377117157,-0.3853701651096344,-0.4204868972301483,-0.1721501350402832,-0.9424403309822083,-0.4650334119796753,0.002923250198364258,0.1924532949924469,0.2973027229309082
93,-1.2188535246266836,0.33369611760392187,-0.8150237200889121,-0.8869240880012512,-0.327537477016449,-0.32570669054985046,0.43189460039138794,-0.40718841552734375,0.5307621955871582,0.5015329122543335,-0.09200289845466614,-0.18384528160095215
94,-1.2732255541842263,0.29574971328537214,-0.6508627278498792,-0.9145434498786926,-0.29145708680152893,-0.28046903014183044,1.7829030752182007,0.31200310587882996,1.6089725494384766,0.3731922507286072,-0.3276377022266388,-0.25560274720191956
95,-1.190120440486023,0.08514559548374671,-0.486416571950297,-0.9250502586364746,-0.08504275232553482,-0.3702020049095154,0.9639979004859924,1.6861772537231445,3.9207534790039062,0.17143404483795166,-0.5683233141899109,-0.15735533833503723
96,-1.1800816198485613,-0.09579679000405864,-0.23612840078848077,-0.9203976392745972,0.0956503376364708,-0.3791031539440155,2.291858673095703,-1.1590980291366577,-0.40179961919784546,0.06027495861053467,0.4608834981918335,-0.6830306053161621
97,-1.142684194972111,-0.1487638912993395,-0.08965075533043111,-0.8997029662132263,0.14821578562259674,-0.4105687141418457,0.7412706017494202,0.31198665499687195,0.7992825508117676,-0.23878580331802368,0.03974197804927826,-0.023604869842529297
98,-1.1468337733719312,-0.20942602885080752,-0.023520060286752062,-0.8915508389472961,0.20789849758148193,-0.40238702297210693,-0.23996631801128387,-0.3329816460609436,0.2493762969970703,0.15763366222381592,0.18109381198883057,0.27863824367523193
99,-1.1921073667876345,-0.3513160169558066,-0.0727722715207317,-0.8723981976509094,0.34413373470306396,-0.3471214175224304,-0.7578442692756653,-0.4807318449020386,0.03509627655148506,0.0477064847946167,-0.27984848618507385,-0.46070942282676697
100,-1.223272917673477,-0.35655782775395384,-0.13313822813567322,-0.8810829520225525,0.3490506410598755,-0.31914976239204407,-1.2167565822601318,0.18753233551979065,-0.39808881282806396,-0.3786216378211975,-0.24306312203407288,0.17310789227485657
101,-1.234411795309622,-0.25971921952892507,-0.26113534081521605,-0.912295937538147,0.25680920481681824,-0.3190063536167145,-0.9504822492599487,0.8189690709114075,-1.1811028718948364,0.014117896556854248,0.4902458190917969,0.25232550501823425
102,-1.2466483112821687,-0.30879501817024496,-0.41540067000274944,-0.9030861854553223,0.30391088128089905,-0.3034363389015198,-1.6065950393676758,-0.08588512986898422,0.9203388094902039,-0.23224401473999023,0.29490503668785095,0.020965635776519775
103,-1.3180831532725426,-0.4440151111172008,-0.46428274771862654,-0.8743517398834229,0.42956870794296265,-0.22578735649585724,-0.4214944839477539,-0.4827105700969696,0.9304390549659729,0.6732560396194458,-0.49219071865081787,0.23149409890174866
104,-1.4176319310624046,-0.5242202873486392,-0.36865109535578006,-0.8555797934532166,0.500538170337677,-0.13207881152629852,1.2419015169143677,-2.158466339111328,0.45436719059944153,0.33037227392196655,-0.4074747562408447,-0.06237924098968506
105,-1.4584524007052646,-0.4267888955608781,-0.2970256130187289,-0.9045611619949341,0.4139498770236969,-0.10205165296792984,0.40694546699523926,-0.43108969926834106,-0.8167017698287964,-0.22214776277542114,-0.0624331533908844,-0.0012350603938102722
106,-1.4485348582618722,-0.2179898292324385,-0.339829148448551,-0.9690461754798889,0.21626746654510498,-0.11907088756561279,-0.153252974152565,-0.13438740372657776,-2.136383056640625,-0.6507047414779663,0.16530904173851013,0.004858866333961487
107,-1.44460795108214,0.037519532337261095,-0.38635724222423046,-0.9913506507873535,-0.03751073032617569,-0.12576517462730408,-0.6774668097496033,0.22720183432102203,-2.134655237197876,-0.06286382675170898,0.1966293752193451,-0.06095664203166962
108,-1.4153563158242362,0.256064866154794,-0.4294246106199044,-0.9557308554649353,-0.25327569246292114,-0.1497669667005539,0.5379462838172913,0.7398030757904053,0.545687198638916,0.5612910389900208,-0.40877267718315125,0.016939207911491394
109,-1.3230991367492126,0.4849453156743193,-0.41026709771056386,-0.8576990365982056,-0.46615996956825256,-0.21690386533737183,-0.2431209534406662,0.8079835772514343,-1.9727277755737305,0.12567389011383057,-0.06486111879348755,-0.014571964740753174
110,-1.2649294660695516,0.5806184206136076,-0.5159183915560911,-0.7973158955574036,-0.5485411286354065,-0.2517734169960022,-1.2438994646072388,-0.903830349445343,-1.3975796699523926,-0.17257839441299438,0.05655205249786377,0.12059363722801208
111,-1.161384826713442,0.6188924574318333,-0.5981147891970392,-0.7472055554389954,-0.5801333785057068,-0.3242361843585968,0.050143565982580185,0.8728571534156799,0.0001303509925492108,-0.5665151476860046,0.04047584533691406,-0.0591256320476532
112,-1.1817153788548078,0.45932034342751266,-0.4971918021381734,-0.8293588757514954,-0.4433389902114868,-0.34002137184143066,0.26060304045677185,0.8100808262825012,3.159069538116455,-0.02980262041091919,0.765451967716217,0.09943601489067078
113,-1.1896052066348417,-0.01894172668670524,-0.29430352140283783,-0.9280555844306946,0.018940594047307968,-0.3719595968723297,0.03176461160182953,-0.033827442675828934,4.17041540145874,-0.10082924365997314,-0.09326615929603577,0.07209387421607971
114,-1.178985841046318,-0.2978554587608361,-0.27158020148596657,-0.8835241198539734,0.2934707701206207,-0.36504819989204407,-1.0786902904510498,0.528988242149353,0.3102012872695923,-0.6239374279975891,-0.5820144414901733,-0.10492247343063354
115,-1.1996070580528495,-0.17304257580486168,-0.45617189455530355,-0.9179792404174805,0.17218028008937836,-0.3573068678379059,-1.2157005071640015,-0.40521863102912903,-1.354543685913086,1.0903120040893555,-0.09423837065696716,0.09178870916366577
116,-1.22135463059993,-0.237579645951824,-0.42684082613028457,-0.91317218542099,0.23535095155239105,-0.3327562212944031,0.4124825596809387,0.029669534415006638,1.0760595798492432,-0.21017998456954956,-0.27032405138015747,0.010749965906143188
117,-1.0610354134051603,-0.3800457598810961,-0.26307070581636005,-0.8105805516242981,0.3709629774093628,-0.4531508982181549,1.883059024810791,1.4757097959518433,0.2510174810886383,-1.1582152843475342,0.2353145182132721,-0.8697250485420227
118,-0.8520787410647362,-0.26972542449620474,-0.2536207191610389,-0.7254379391670227,0.26646679639816284,-0.6346142292022705,0.7005510926246643,0.4550281763076782,0.3660091459751129,0.2753799557685852,0.7267583012580872,-0.09521365165710449
119,-0.8557427351626892,-0.3163724044863432,-0.11288062095618148,-0.7175847887992859,0.31112104654312134,-0.6231177449226379,0.26838988065719604,-0.7046852111816406,1.9702396392822266,0.3332921862602234,-0.18772324919700623,0.2526954412460327
120,-0.7764242287616611,-0.3432344691901677,-0.11460554921355655,-0.6598598957061768,0.33653464913368225,-0.671810507774353,-0.9413455128669739,1.2068437337875366,-0.26207801699638367,0.39193081855773926,-0.252031534910202,0.4282192587852478
121,-0.7542097844547028,-0.3620441988356599,-0.19492084496909332,-0.6403262615203857,0.35418665409088135,-0.681567370891571,0.7023003697395325,0.43452534079551697,-1.2668365240097046,-0.5600063800811768,-0.29251062870025635,-0.798474133014679
122,-0.8005195203245175,-0.33283662912907463,-0.26333004640842095,-0.6783291101455688,0.3267253041267395,-0.6581186652183533,-1.014116644859314,0.8053960800170898,-0.2634715735912323,-0.5964816808700562,0.21572467684745789,0.09061384201049805
123,-0.7974767914559693,-0.4283770397147778,-0.3460803179113164,-0.6509354710578918,0.415395051240921,-0.6353975534439087,-1.5837023258209229,-0.7220796346664429,1.6584323644638062,0.6230118870735168,0.15055343508720398,0.6870638132095337
124,-0.8739835709533559,-0.7902241338480348,-0.3976069552460744,-0.5396509766578674,0.7105110287666321,-0.451609343290329,-3.746908664703369,-1.6148189306259155,2.4301223754882812,-0.25675106048583984,0.0736992359161377,0.07682299613952637
125,-1.1059980408540875,-0.9751079133935691,-0.5359344977117534,-0.5015548467636108,0.8277624249458313,-0.2514992654323578,-1.2966419458389282,-0.8035550117492676,1.0150556564331055,-0.08394008874893188,-0.16823190450668335,-0.2373923361301422
126,-1.2859385317188232,-1.1259231268596364,-0.6813554489309883,-0.4130014181137085,0.9026652574539185,-0.12093557417392731,-0.45788902044296265,-0.4125540256500244,0.9154576659202576,-0.181770920753479,-0.20594894886016846,-0.4599055051803589
127,-1.1004113214665032,-1.1832730186567013,-0.4852134164495376,-0.3368546962738037,0.9258478283882141,-0.17127388715744019,1.358656406402588,1.2856831550598145,1.3933156728744507,-0.2713911533355713,-0.1427515149116516,-0.21492606401443481
128,-0.30439485825278617,-1.2787436282949358,0.040115112041407365,-0.08629374206066132,0.9576548933982849,-0.2746824324131012,-1.1406004428863525,1.7008295059204102,1.0227731466293335,0.06277995556592941,-0.6552410125732422,0.2202543318271637
129,0.04429574867389858,-1.1717635826591453,0.8978192135605055,0.017204487696290016,0.9214372038841248,-0.3881463408470154,2.1115245819091797,-5.753971099853516,0.9976261854171753,0.050788670778274536,-0.06984418630599976,0.5654382705688477
130,0.142992399890815,-1.024135737948976,0.7951079426083679,0.074079729616642,0.8542652130126953,-0.5145318508148193,0.6834529042243958,3.4457712173461914,-0.42995205521583557,0.002366788685321808,-0.5741139054298401,0.8700922131538391
131,0.056994443543568044,-1.282887756421191,0.7279701457288392,0.01617465727031231,0.9588398337364197,-0.2834862470626831,-2.788557767868042,-11.768974304199219,-1.8091074228286743,0.24911463260650635,0.34040021896362305,-2.839972496032715
132,-0.39141329626107324,-1.324525234669306,0.2998512771877717,-0.09300428628921509,0.9698282480239868,-0.22535131871700287,-0.8632387518882751,-1.484479546546936,0.051043324172496796,-0.1717814803123474,0.6218770146369934,0.9389438629150391
133,-0.19314420729356746,-1.3374967676992902,0.48548768937620984,-0.04437568038702011,0.9729088544845581,-0.22689004242420197,-1.5445170402526855,0.8485785722732544,1.8400821685791016,0.7582581639289856,-0.4424371123313904,0.6585764288902283
134,1.8028019612016546,-1.4775716709091842,2.527677350466736,0.09059441834688187,0.995657742023468,0.021403832361102104,-2.7865242958068848,-4.240339279174805,0.1488327980041504,-0.45401298999786377,0.06131845712661743,-0.38859128952026367
135,2.4960842969695993,-1.3569275484935317,-2.884913575188303,0.12768571078777313,0.9772171378135681,0.16953757405281067,-0.5351420640945435,0.08308733254671097,0.3983556926250458,-0.16630573570728302,-0.03961038589477539,-0.19971944391727448
136,2.5534863616828285,-1.235909690760699,-2.7811965649144086,0.18233728408813477,0.9444475769996643,0.2734444737434387,-1.2556545734405518,-1.4089418649673462,0.11413106322288513,-0.5138192176818848,0.1353406310081482,-0.593100905418396
137,2.535543409655483,-1.2218887078186407,-2.7778400426346845,0.19473858177661896,0.9397467374801636,0.2809860110282898,0.9902951121330261,0.44112223386764526,-0.4093150198459625,-0.667852520942688,0.4335595369338989,-0.4787245988845825
138,0.5851553891396404,-1.5381244624283117,1.3794420989365512,0.01804206147789955,0.9994663000106812,-0.0272307600826025,3.456737518310547,2.9189951419830322,-1.6643000841140747,0.13608694076538086,0.8425899147987366,0.48168325424194336
139,-0.561385145206968,-1.2750104994120606,0.38676722880487546,-0.1551782339811325,0.9565733671188354,-0.2467530071735382,2.7329766750335693,0.6866443753242493,-2.381248950958252,0.09127442538738251,-0.057708680629730225,0.9156982898712158
140,-0.5860702751593385,-1.0797080790073228,0.18920048714824594,-0.26082995533943176,0.8818202018737793,-0.39288774132728577,0.25109347701072693,3.6728761196136475,-0.7867034673690796,0.27164846658706665,-0.7042537331581116,0.7782179713249207
141,-0.4073932991638792,-1.167814989056014,0.12885044706164964,-0.15538160502910614,0.9198958873748779,-0.3600667119026184,-2.826815605163574,-0.7673198580741882,0.5378285050392151,0.059617429971694946,-0.2866256833076477,0.09616595506668091
142,-0.7136634543394184,-1.2223165106269582,-0.1415356411250514,-0.22352838516235352,0.9398928880691528,-0.25814011693000793,1.0871182680130005,1.2611058950424194,-1.0081971883773804,-0.6453680992126465,1.7672145366668701,-0.17322584986686707
143,-0.6410010059236716,-1.2684592730428388,-0.13216644495042018,-0.1780552864074707,0.9546432495117188,-0.2386477291584015,-1.3646444082260132,-2.6831724643707275,2.6331703662872314,0.8602910041809082,-0.030845582485198975,0.6926882266998291
144,2.0429214596867755,-1.4958990626716817,2.717326023098241,0.06664160639047623,0.9971964955329895,0.03403002396225929,-3.1446802616119385,-0.14701905846595764,1.1858954429626465,-0.614615261554718,0.0928913950920105,-0.34741508960723877
145,2.5795954588253687,-1.3867163433404244,-3.06572401205693,0.09753894060850143,0.9831050634384155,0.1548887938261032,-0.48456504940986633,0.49792933464050293,0.13233767449855804,-0.15735340118408203,-0.0030330419540405273,-0.12414240837097168
146,2.7417719293293317,-1.2699267338036677,-2.858584646090633,0.11535528302192688,0.9550791382789612,0.272977352142334,-1.9398319721221924,-1.0525567531585693,0.17271824181079865,-0.23145943880081177,-0.04455685615539551,-0.46087414026260376
147,2.7353235200002857,-1.2113973987762916,-2.820710931456264,0.1389913409948349,0.936108410358429,0.32308337092399597,0.29255586862564087,-0.38006502389907837,-0.29658591747283936,-0.4574727714061737,0.3758270740509033,-0.6557398438453674
148,3.069702410643258,-1.5234317494741878,-2.597413018237647,0.0034009316004812717,0.9988784790039062,0.04722575098276138,3.9259397983551025,3.1560893058776855,-1.7264258861541748,-0.05700504779815674,0.6738662719726562,0.5337069034576416
149,-0.6610732300164689,-1.3549553134019674,0.08520381786814148,-0.13149195909500122,0.9767966270446777,-0.16905060410499573,1.8589617013931274,0.28994256258010864,-1.2163411378860474,0.4054329991340637,0.04941791296005249,0.6925948858261108
150,-0.5788492111467421,-1.1356810688959624,0.13026648390503298,-0.23059427738189697,0.9068214893341064,-0.3528469502925873,1.466248631477356,2.014636278152466,-0.7846747636795044,0.21687665581703186,-0.6431801915168762,0.5848416090011597
151,-0.32807803607486513,-1.1261246813574206,0.1639000905940253,-0.1386084258556366,0.9027519822120667,-0.4072181284427643,-2.039469003677368,2.06316876411438,0.29506435990333557,0.09554815292358398,-0.5882530808448792,0.5916358232498169
152,-0.644978151772721,-1.229895815976945,-0.15017592643551125,-0.2009965181350708,0.9424539804458618,-0.26717230677604675,-0.001463377964682877,-0.3361787796020508,-0.6068436503410339,-0.031227007508277893,0.13458764553070068,-0.36191707849502563
153,-0.6525099507007325,-1.2328202754729414,-0.16712179132669075,-0.20132873952388763,0.9434276819229126,-0.26345983147621155,-1.5301114320755005,0.8724044561386108,0.3694075047969818,1.0905194282531738,-0.7903667688369751,0.7842575907707214
154,-0.5633834337409701,-1.4960205700395466,0.11028889681536731,-0.03989700600504875,0.9972056150436401,-0.06316086649894714,-3.3247830867767334,-2.9623312950134277,1.9983479976654053,-0.43736737966537476,0.46992695331573486,0.040791451930999756
155,2.890876296009433,-1.4316884802808894,-2.705513145898795,0.0344013087451458,0.9903401136398315,0.13432495296001434,-1.3495886325836182,0.6056950092315674,0.25532448291778564,-0.1560748815536499,-0.179182767868042,-0.20608697831630707
156,2.87381042280608,-1.3240965575921313,-2.6866633582625283,0.06461498886346817,0.969723641872406,0.23550142347812653,-1.3752894401550293,-1.1582717895507812,0.3205832242965698,-0.08872387558221817,0.13479900360107422,-0.18551363050937653
157,2.770485973439824,-1.2190299501020332,-2.74399266432478,0.12495242804288864,0.9387655854225159,0.32110148668289185,0.22819608449935913,0.5071801543235779,0.06590651720762253,-0.6772595643997192,0.45311063528060913,-0.4058030843734741
158,-3.1250575637925584,-1.4029810245843592,-2.401673994995599,-0.0027617141604423523,0.9859520196914673,0.16700619459152222,4.30999231338501,0.7007884979248047,-2.2687623500823975,0.12403857707977295,0.4870399236679077,-0.5965259075164795
159,-0.5799556402393969,-1.439524065264569,0.11862681164160134,-0.07172960788011551,0.9913961887359619,-0.10949329286813736,1.6885390281677246,-1.66585373878479,0.0980868712067604,0.8719920516014099,0.27172648906707764,-0.19017411768436432
160,-0.5114479122411291,-1.204853913383261,0.3567597605540455,-0.17513620853424072,0.933786928653717,-0.3120404779911041,2.2748160362243652,-0.20787030458450317,-0.9752756357192993,0.005748391151428223,-0.4242655038833618,0.42246830463409424
161,-0.3685761167381575,-1.0851054229581452,0.33907705960093154,-0.16818927228450775,0.8843526244163513,-0.4354685842990875,-0.8990731239318848,1.8546874523162842,-0.020041389390826225,0.38387227058410645,-0.6855916380882263,0.8315256834030151
162,-0.4368504822277287,-1.2484371890482033,0.20462408930554557,-0.13403619825839996,0.9484906792640686,-0.28705310821533203,-0.279194712638855,0.27272486686706543,-0.4135036766529083,-0.36149293184280396,0.6574662327766418,-0.521113395690918
163,-0.444486247584342,-1.2313013494057141,0.2525883262866433,-0.14319278299808502,0.9429229497909546,-0.3006529211997986,-0.5112671256065369,1.2441927194595337,-0.31160154938697815,0.5952801704406738,-0.3979552984237671,1.7180418968200684
164,-0.09646739427224964,-1.4244822844662786,0.625397075185467,-0.014042462222278118,0.9893152117729187,-0.14511510729789734,-3.2604820728302,-2.74619197845459,1.4259380102157593,-0.470790296792984,0.7427557706832886,-0.04357510805130005
165,2.4917256707692004,-1.4799419801783467,-3.1014650671143826,0.05489800125360489,0.9958755970001221,0.07223473489284515,-1.731368064880371,0.7438874244689941,0.6112903356552124,-0.025784261524677277,-0.2956804037094116,-0.14074671268463135
166,2.690147468510609,-1.3383056343962956,-2.800579835917394,0.10051663964986801,0.9730955362319946,0.2073197364807129,-1.2324074506759644,-0.988764762878418,0.5180972218513489,-0.21309596300125122,0.035327255725860596,-0.3163590431213379
167,2.6556614686184434,-1.2158202505216438,-2.796491985160506,0.1623251587152481,0.9376547932624817,0.3073332905769348,0.2295958548784256,0.23047375679016113,0.18426761031150818,-0.5581076145172119,0.368894100189209,-0.6373655796051025
168,2.6128117257254844,-1.3647251636361022,-2.8850419616963556,0.10322503000497818,0.9788423776626587,0.17667029798030853,4.299299240112305,1.0385633707046509,-1.681043267250061,-0.5561821460723877,0.48760366439819336,-0.4686930179595947
169,-0.4730676915199122,-1.458596618867111,0.24047081294004435,-0.0510135293006897,0.9937121868133545,-0.09966865926980972,1.1115893125534058,-4.185678958892822,-0.8406758904457092,0.5753818154335022,0.568131685256958,-0.36926448345184326
170,-0.6671129686195582,-1.2176895406995647,0.13725866819031604,-0.21396251022815704,0.9383028745651245,-0.2716757357120514,1.387007713317871,0.15440216660499573,-1.1270095109939575,0.07396315038204193,-0.5659884810447693,0.5412527322769165
171,-0.464375655664071,-1.155223849389195,0.16539534690237406,-0.18080906569957733,0.9148853421211243,-0.3609609007835388,-0.579108476638794,1.776649832725525,0.6945433020591736,0.644447386264801,-0.8125447034835815,0.7534322738647461
172,-0.7537298230224049,-1.2823800410635717,-0.1469917091287524,-0.1946561336517334,0.9586955308914185,-0.207392618060112,-2.242751121520996,0.6471239924430847,-1.3533223867416382,-1.2465364933013916,1.2020862102508545,-0.04861931502819061
173,-0.5429820603911734,-1.2223085953982802,0.025793964205838935,-0.17643816769123077,0.9398902058601379,-0.2923628091812134,-1.2335644960403442,0.38601502776145935,0.7170686721801758,1.1550911664962769,-1.3612616062164307,0.8341718912124634
174,0.12079948932446907,-1.4234839642983266,0.8718019178145107,0.017687851563096046,0.9891691207885742,-0.1457103043794632,-1.6017979383468628,1.048471212387085,2.402252674102783,-0.0805845558643341,0.6184205412864685,0.5610698461532593
175,2.451630928828672,-1.3846335416345295,2.946193634496848,0.11781017482280731,0.9827216863632202,0.14275318384170532,-0.47303181886672974,-0.4100055396556854,-0.26323187351226807,-0.501675546169281,-0.08295685052871704,-0.6494060754776001
176,2.762711765971438,-1.3426048777387039,-2.9106184216800357,0.08367300033569336,0.9740771055221558,0.2101725935935974,-1.280968427658081,-1.5072333812713623,-0.07247685641050339,0.06506966799497604,-0.08868592977523804,-0.04426373541355133
177,2.7907824138577624,-1.223701282760934,-2.864983863542871,0.1169017031788826,0.9403648376464844,0.31944984197616577,-0.015056243166327477,-0.2962672710418701,0.0735621377825737,-0.538563072681427,0.3575326204299927,-0.603034496307373
178,3.0677112340841832,-1.4280235980662388,-2.6201955537772212,0.010502924211323261,0.9898252487182617,0.1419004648923874,3.850416898727417,2.127154588699341,-2.2876226902008057,-0.2840014696121216,0.5283327698707581,-0.08994422852993011
179,-0.5759166419942298,-1.4019386847821433,0.028881484775045308,-0.09152430295944214,0.9857773780822754,-0.14094802737236023,2.3210299015045166,-2.000406503677368,-1.0578035116195679,0.6659261584281921,0.4366927146911621,-0.8369420170783997
180,-0.6868533548376,-1.14506237530158,0.01566928732723653,-0.2618795335292816,0.9107358455657959,-0.3193420469760895,2.048051118850708,1.498144507408142,-1.0124807357788086,0.211464524269104,-0.6512753963470459,0.5289062857627869
181,-0.416824998591005,-1.043220181756153,0.1201710711582953,-0.20382258296012878,0.8640298843383789,-0.460335373878479,-0.1850014626979828,1.7294458150863647,0.4729131758213043,0.4356951415538788,-0.6163492798805237,0.920509934425354
182,-0.5061186744523913,-1.2000067120598648,-0.03392453170073811,-0.175663024187088,0.9320415258407593,-0.316924512386322,-0.8794242739677429,-0.9523376226425171,0.3688927888870239,-0.3637046217918396,1.0206867456436157,-2.486359119415283
183,-0.6319369899450571,-1.2339263745139473,-0.2046586394052,-0.1952497959136963,0.9437938928604126,-0.2667034864425659,-0.21080617606639862,-3.907257556915283,-0.5235245227813721,-0.7022721767425537,0.6847919821739197,-0.3323107957839966
184,-0.703626409742383,-1.3193230303732113,-0.0634415955334609,-0.16099050641059875,0.9685468673706055,-0.18973395228385925,-0.9841492176055908,-3.856452465057373,2.275641441345215,0.46589162945747375,-0.06847667694091797,0.5513367652893066
185,2.6053887576027477,-1.5490454747953233,-3.026784830223629,0.01111300103366375,0.9997634887695312,0.018699903041124344,-4.043277263641357,3.1336145401000977,0.4929865896701813,-0.4598740041255951,-0.0843580961227417,0.15300726890563965
186,2.982367906875517,-1.3518860146543257,-2.5879692727343686,0.03443228825926781,0.9761346578598022,0.21441902220249176,-0.8226348757743835,-2.210937023162842,-0.3649121820926666,-0.1217736005783081,-0.27760255336761475,-0.17029058933258057
187,2.907347191995978,-1.243189540661982,-2.519561363285701,0.0746876448392868,0.9468151330947876,0.31299030780792236,-1.0041199922561646,-1.394690752029419,0.20619209110736847,-0.1889912188053131,-0.0845104455947876,-0.5137654542922974
188,2.7991252461392158,-1.234468328434418,-2.49908013227154,0.11082585155963898,0.9439728856086731,0.31085848808288574,1.932927131652832,-2.409738779067993,-0.8188312649726868,-0.36294683814048767,0.4761931300163269,-1.4903018474578857
189,-1.5705821025158024,-1.5015063104407351,-0.8264616934983429,-0.06923539936542511,0.9976004362106323,-1.4831903172307648e-05,3.1703593730926514,0.3711800277233124,-1.6042604446411133,0.2419954240322113,1.2224009037017822,0.19120746850967407
190,-0.8352858647020149,-1.3444564845233051,0.1765552231563481,-0.16639889776706696,0.9744942784309387,-0.1505727767944336,1.017472267150879,0.22158679366111755,-1.2997617721557617,0.15889158844947815,0.128822922706604,0.6822042465209961
191,-0.7153437635937082,-1.1854545198079995,0.2542373615083542,-0.2465282827615738,0.9266700148582458,-0.28373655676841736,0.9378933906555176,0.4002951681613922,-0.0150968749076128,0.5028454065322876,-1.0650215148925781,0.6020044088363647
192,-0.5317703269209847,-1.2432429355324224,0.20818864532210213,-0.16313518583774567,0.9468322992324829,-0.27730047702789307,-2.748173713684082,3.025190591812134,-0.17579218745231628,-0.3173640966415405,-0.3146606683731079,0.024080872535705566
193,-0.7746567793627975,-1.2389131078588642,0.0007017229054331975,-0.22790418565273285,0.9454303979873657,-0.23285356163978577,-0.3495781421661377,0.8588193655014038,-0.037622466683387756,0.5354145765304565,0.10457253456115723,0.4740797281265259
194,-0.6335752752955067,-1.2823679917946016,0.2751236329629493,-0.16840054094791412,0.9586921334266663,-0.2292395681142807,-0.010212511755526066,-2.5955965518951416,2.063199520111084,0.8232467174530029,-0.27442699670791626,0.6189337968826294
195,0.3614879302452811,-1.5291388889539164,1.1538852790133045,0.01472740899771452,0.9991324543952942,-0.038950834423303604,-4.976717948913574,3.547908306121826,0.4445185959339142,-0.3660152554512024,0.06242138147354126,0.2454175353050232
196,2.984656947648083,-1.3558239471690174,-2.4188115905465004,0.033340368419885635,0.9769822955131531,0.21069905161857605,-1.6713247299194336,-1.3782092332839966,-0.13978785276412964,0.05978402495384216,-0.5229875445365906,-0.1643580198287964
197,2.7523943215064124,-1.22746960602084,-2.4762928754919638,0.12773005664348602,0.9416400194168091,0.31144702434539795,-1.1990470886230469,0.3018157482147217,0.9607107639312744,-0.6578509211540222,0.04625976085662842,-0.0880582332611084
198,2.648615473600223,-1.2601280187129316,-2.570177421187738,0.14467032253742218,0.9521294832229614,0.2692951560020447,3.1003530025482178,0.11775034666061401,-0.368079274892807,-0.5753496885299683,0.5038488507270813,-0.672905445098877
199,-0.41687083528309715,-1.469121730072744,0.39553717828421103,-0.04109732434153557,0.994835615158081,-0.09280724078416824,1.9355976581573486,-2.5391366481781006,-0.6641008257865906,0.42853325605392456,1.5678017139434814,0.08430808782577515
200,-0.8448740468839285,-1.2604426715942363,0.23082478375225152,-0.2284012883901596,0.9522256255149841,-0.20272915065288544,1.6458081007003784,0.5347281098365784,-2.430776834487915,0.004707470536231995,-0.1896524429321289,0.45848172903060913
201,-0.6406412958139317,-1.098231990165953,0.2324579231309165,-0.27206021547317505,0.8904039859771729,-0.36491644382476807,0.4192308187484741,3.0617880821228027,0.20915108919143677,0.806972324848175,-0.9070513844490051,0.8076044321060181
202,-0.4397435929861478,-1.2111563929058178,0.27937395927110775,-0.14982236921787262,0.9360235929489136,-0.3184543550014496,0.0685015395283699,-0.4480111598968506,-0.023804567754268646,-0.4008520841598511,1.7452203035354614,-3.2149014472961426
203,-0.7222794660190374,-1.2148615778727339,0.0719019539931812,-0.2303701490163803,0.9373211860656738,-0.2614547908306122,1.7247767448425293,-0.38420721888542175,0.9774340391159058,0.3901602029800415,2.4586291313171387,-2.3956496715545654
204,-0.17939501755739282,-1.3353141649132483,0.6130397338068803,-0.04163086786866188,0.9724019765853882,-0.229567751288414,-1.884360671043396,0.36859166622161865,2.4089975357055664,0.008534550666809082,0.3414560556411743,0.9613029956817627
205,2.794019085679561,-1.4479160714802795,-2.985659740365618,0.04174976795911789,0.9924597144126892,0.11524134129285812,-4.33024787902832,0.8985978960990906,-0.0002208116347901523,-0.042650043964385986,-0.256528377532959,-0.761283278465271
206,2.756060098585638,-1.3235104495143044,-2.782951546017949,0.09204749763011932,0.969580352306366,0.2268061488866806,-0.6187636256217957,-1.4443193674087524,0.6326774954795837,-0.03246191889047623,-0.4154117703437805,0.043747395277023315
207,2.6920350249606515,-1.1994843989468364,-2.7296901360442583,0.15767760574817657,0.9318521022796631,0.32678648829460144,1.0669946670532227,0.8192867040634155,-0.08406703174114227,-0.6688318252563477,0.4539968967437744,-0.8398785591125488
208,2.9968494562580195,-1.4714414761038654,-2.5397514154331153,0.01430746540427208,0.995068371295929,0.09815596789121628,4.697947025299072,2.5067336559295654,-2.0535993576049805,-0.0031685512512922287,0.7531006932258606,0.08133317530155182
209,-0.49885155734525927,-1.4133132221760036,0.3294389406269243,-0.07503160834312439,0.9876251220703125,-0.13772012293338776,1.1489827632904053,-3.8966224193573,-2.6743383407592773,-0.3287464678287506,0.18470758199691772,-0.37347984313964844
210,-0.6293352273053611,-1.1207432750066812,0.15050981684031986,-0.25605201721191406,0.9004240036010742,-0.3516729176044464,1.8686236143112183,2.9621636867523193,-1.2179088592529297,0.34327128529548645,-0.8420134782791138,0.7101324796676636
211,-0.2943118550354993,-1.0119833044408642,0.21411079330462074,-0.15379540622234344,0.847885012626648,-0.5073835849761963,-0.8388634920120239,1.1497594118118286,0.2668401300907135,0.05400294065475464,-0.5664976835250854,0.5006544589996338
212,-0.4318211405164708,-1.1077936627968978,0.02953416992703857,-0.18692883849143982,0.894715428352356,-0.4056377410888672,-1.1030715703964233,-0.4787761867046356,-1.5570755004882812,-1.1529301404953003,-0.04341232776641846,-0.4250202178955078
213,-0.5717499022404726,-1.1987454415730099,-0.1003851294019953,-0.19670602679252625,0.9315837621688843,-0.3057098984718323,-1.9159350395202637,-1.746002197265625,1.7317216396331787,1.1033985614776611,-0.902241051197052,0.5823975205421448
214,-0.6877748742392482,-1.5230451083086238,0.03221669002930311,-0.030302569270133972,0.9988601207733154,-0.03688229247927666,-1.84917414188385,-3.188911199569702,1.4825654029846191,-0.26123183965682983,0.40661168098449707,-0.16557127237319946
215,2.680159842602219,-1.38859469339711,-3.105338645813188,0.08067354559898376,0.9834471344947815,0.16224443912506104,-2.185074806213379,2.995100736618042,0.8814182877540588,-0.07972749322652817,-0.14392393827438354,-0.34533464908599854
216,2.72726336290893,-1.276505622836098,-2.8789659625825363,0.11677172034978867,0.9570081233978271,0.2655181884765625,-2.6638810634613037,-4.558109283447266,-0.5201154351234436,-0.19376757740974426,-0.12720465660095215,-0.2982635498046875
217,2.7546584273069175,-1.182110443497154,-2.7759686408140016,0.1430055946111679,0.925407886505127,0.35095497965812683,0.6933300495147705,-0.04566621407866478,-0.09651894122362137,-0.333816796541214,0.4755013585090637,-0.8413113951683044
218,-2.9123118302962383,-1.5047517145138933,-2.345606877987285,-0.014999506063759327,0.9978198409080505,0.06426940113306046,3.4253342151641846,3.864675521850586,-0.9767427444458008,0.30342113971710205,0.721830427646637,0.34619200229644775
219,-0.38966321139870724,-1.3815115690512052,0.3319336111409889,-0.07147622108459473,0.9821390509605408,-0.17405152320861816,2.051342010498047,-1.4178097248077393,-2.024385929107666,0.2920572757720947,0.11690568923950195,0.9700109958648682
220,-0.4726423458997866,-1.058362515514085,0.1781328186987617,-0.2232043296098709,0.8715537786483765,-0.4365474581718445,2.3868274688720703,3.4102978706359863,-0.9421224594116211,0.2901446521282196,-0.7083458304405212,0.7446987628936768
221,-0.2095396563474181,-0.9782350450016324,0.17090467110621102,-0.11617080122232437,0.8295129537582397,-0.5462716221809387,-0.9143295884132385,-1.5030916929244995,-0.34033194184303284,-0.2641545236110687,-0.5142816305160522,-1.5659263134002686
222,-0.33370877290044954,-1.024350415288937,-0.00716812914943833,-0.17021238803863525,0.8543767929077148,-0.49098682403564453,1.2080116271972656,1.7404028177261353,0.2725910544395447,1.2097479104995728,2.077080726623535,-0.902827262878418
223,-0.3857999559715272,-1.2462013845986941,0.11058014923477692,-0.12001153081655502,0.9477800130844116,-0.2954830825328827,-2.6554980278015137,-3.0322554111480713,2.1968703269958496,0.07635613530874252,0.5780683159828186,0.7687039375305176
224,0.13044572621090159,-1.5221809495043568,0.5883915239058445,0.006321328226476908,0.9988185167312622,-0.04818427562713623,-2.450207471847534,2.2419395446777344,0.8163489699363708,-0.06424368917942047,-0.03284561634063721,0.12217414379119873
225,2.8248805445546608,-1.3635972018954183,-3.0992969740363763,0.0640701875090599,0.9786109328269958,0.19548827409744263,-1.5809532403945923,-1.1512277126312256,0.37333235144615173,-0.160643070936203,-0.15799331665039062,-0.5655748844146729
226,2.763039410528281,-1.201142453319372,-2.898259092286531,0.1335252821445465,0.9324524402618408,0.3357132375240326,-1.8397518396377563,1.2577528953552246,0.9549420475959778,-0.5756792426109314,0.2557646632194519,-0.4207504093647003
227,2.8098247070071296,-1.197418088461683,-2.868270370337614,0.11880867928266525,0.9311004281044006,0.3448713719844818,1.6801893711090088,0.3894752562046051,-0.9562947750091553,-0.47444531321525574,0.6777861714363098,-0.23934167623519897
228,2.063764519208653,-1.5252512335063306,2.563145183282884,0.040110085159540176,0.9989629983901978,0.021547414362430573,2.7108311653137207,-0.23998475074768066,0.9208365678787231,0.4338584244251251,0.6826777458190918,0.6819742918014526
229,-0.5455519428799371,-1.3295809718317118,0.12471233855807048,-0.12395387887954712,0.9710483551025391,-0.20420679450035095,2.716546058654785,-0.843241274356842,-2.1642730236053467,0.298132985830307,-0.13204389810562134,0.20641936361789703
230,-0.3972669679697786,-1.060440469790993,0.11478028803853145,-0.18899574875831604,0.8725707530975342,-0.4504453241825104,1.5013431310653687,2.5620129108428955,-0.47748953104019165,0.2572788596153259,-0.7379271984100342,0.7828580141067505
231,-0.24789359980731504,-1.1116316826648762,0.1107561881509875,-0.10874450206756592,0.8964230418205261,-0.4296514093875885,-3.2573139667510986,-0.022706007584929466,-0.131903737783432,-0.006688229739665985,-0.3453366756439209,0.0627385675907135
232,-0.8598212639262814,-1.2641504404972592,-0.4532751825797176,-0.22872911393642426,0.9533514380455017,-0.1969873607158661,-1.721688151359558,-0.36583223938941956,-0.09942616522312164,0.7320860624313354,0.4435907006263733,1.0932886600494385
233,-0.3873573090041029,-1.3030575542639804,0.04138367267894836,-0.09993245452642441,0.9643715620040894,-0.24495108425617218,-1.1836837530136108,-1.433668851852417,2.7961480617523193,0.3177516460418701,-0.23220908641815186,0.887864887714386
234,-3.0972446378621936,-1.48917311897538,-2.6201692943305983,-0.0036145932972431183,0.996670663356781,0.08145174384117126,-2.183673858642578,1.7850924730300903,0.21998971700668335,-0.22459585964679718,-0.04299646615982056,-0.013092286884784698
235,2.942494524721027,-1.3231471318982637,-2.69961190866185,0.048482175916433334,0.9694913625717163,0.2402828484773636,-0.6675602197647095,-1.1703718900680542,-0.008807269856333733,-0.15286755561828613,-0.25692129135131836,-0.4378994107246399
236,2.912748593556694,-1.3127554871942024,-2.6919932593057365,0.057889554649591446,0.9668917655944824,0.2485336810350418,-1.299074411392212,-1.9051166772842407,-0.38160571455955505,-0.32600176334381104,0.1367153525352478,0.03181600570678711
237,3.015787288686038,-1.1783302668994744,-2.484778557760792,0.04798975959420204,0.9239686727523804,0.37944579124450684,3.334235191345215,-2.1424379348754883,0.5738492012023926,-0.19860926270484924,0.2624480724334717,-1.1085259914398193
238,-2.816533449813646,-1.463446949088649,-1.9766934285813618,-0.034217994660139084,0.9942435622215271,0.1015329584479332,2.6188395023345947,1.6842718124389648,-1.91135835647583,-0.08403760194778442,0.5989418625831604,0.1712179183959961
239,-0.8736809963556587,-1.357495674893249,0.14992971090771356,-0.16230016946792603,0.9773375391960144,-0.13590514659881592,1.0436036586761475,-1.0008677244186401,-1.8270384073257446,0.11650852859020233,-0.018780291080474854,0.8250073194503784
240,-0.8193510462526568,-1.1641873384955561,0.15790228579235147,-0.28899097442626953,0.9184672236442566,-0.27000418305397034,0.7514029145240784,2.242875099182129,-0.28056207299232483,0.517338752746582,-0.8905130624771118,0.512710452079773
241,-0.5897735242569714,-1.2756509727138075,0.19968189758543936,-0.1617787629365921,0.9567598700523376,-0.24173949658870697,0.47290635108947754,-2.767409563064575,-0.4027045667171478,-0.5440317392349243,0.17312288284301758,-2.414693593978882
242,-0.9081923538848464,-1.2453993954107465,0.028719128019283478,-0.25203752517700195,0.9475238919258118,-0.1966613084077835,1.243122935295105,-0.40854373574256897,0.6033377647399902,0.8631978034973145,0.932114839553833,-0.22442027926445007
243,-0.43925517829747246,-1.3734835092680495,0.37840239773778844,-0.08336695283651352,0.9805968999862671,-0.17742520570755005,-3.345487117767334,0.7756692171096802,1.2843198776245117,-0.4291605055332184,1.008508324623108,0.13781338930130005
244,-2.8542148713119087,-1.418178170926817,-2.1682339516168394,-0.04309004917740822,0.9883764386177063,0.14579156041145325,-3.601943016052246,1.26798415184021,0.12782196700572968,0.0028068460524082184,0.4325829744338989,-0.35688161849975586
245,3.0065323588284096,-1.2781394620274156,-2.444405519836529,0.038846179842948914,0.9574807286262512,0.2858700156211853,1.2848819494247437,-2.2296979427337646,0.3985779285430908,-0.4602634012699127,-0.371085524559021,-1.2590144872665405
246,-2.2761525371296316,-1.525031942859402,-1.3653521535336672,-0.03483301028609276,0.9989529848098755,0.029659824445843697,3.608739137649536,3.16550350189209,-2.125718593597412,-0.03560155630111694,0.04032313823699951,0.4310030937194824
247,-0.6328306511585017,-1.2074807817057018,0.3384027518220976,-0.21017955243587494,0.9347236752510071,-0.2865593135356903,2.2176835536956787,-2.5071537494659424,-0.8398810625076294,0.32483404874801636,1.0518181324005127,0.8996117115020752
248,-0.8381001694860135,-1.071879984435724,0.21697057372737955,-0.3556852638721466,0.8781015872955322,-0.32004016637802124,-0.12548506259918213,2.005901575088501,-0.00807689968496561,0.5382566452026367,-0.3782694339752197,0.612825870513916
249,-0.6573608983765646,-1.2726609303791776,0.26765279239483575,-0.1794828623533249,0.9558858275413513,-0.23252545297145844,0.4856627583503723,1.5846569538116455,0.8992302417755127,-0.3212037682533264,-0.8602895736694336,-1.4276765584945679
250,-0.8260531254674607,-1.3015685786981783,0.24329247716522923,-0.195570170879364,0.9639766216278076,-0.18028150498867035,0.9329226613044739,1.7459313869476318,-0.3308281898498535,0.029539257287979126,0.9276096820831299,-0.21458542346954346
251,-0.5337460419544707,-1.421779098329907,0.25374752742916157,-0.0755341574549675,0.9889174699783325,-0.12781599164009094,-4.941236972808838,3.9405694007873535,0.534573495388031,-0.3114745318889618,0.9222458600997925,0.35663682222366333
252,-2.9455465625799357,-1.2994592377745022,-2.2479313477813605,-0.05220828205347061,0.963413417339325,0.2628856301307678,-2.4412357807159424,-2.727951765060425,0.7224349975585938,0.7998889684677124,0.26086026430130005,-2.5151591300964355
253,2.846459582311919,-1.4399064340357128,-2.5389950068360956,0.037962932139635086,0.9914461374282837,0.12487331032752991,2.482452154159546,-3.7708635330200195,-1.802680492401123,-1.0804433822631836,-0.8622957468032837,-0.604472279548645
254,-0.6221505497202949,-1.3151279823170043,0.16276067683786163,-0.14738157391548157,0.9674944877624512,-0.2055070549249649,2.7933595180511475,1.7120897769927979,-2.555734157562256,-0.17152711749076843,1.7560772895812988,-0.6233198642730713
255,-0.9345661527421179,-1.0886544667612672,0.1044475546917213,-0.37295547127723694,0.886003851890564,-0.27550241351127625,-0.2970346510410309,-0.3391367793083191,-1.2845032215118408,-0.23326095938682556,0.3064401149749756,0.5386707782745361
256,-0.9464685022242219,-1.200181783896273,-0.008797458386770518,-0.29386353492736816,0.9321049451828003,-0.21171776950359344,-2.0089101791381836,0.26513877511024475,2.353541374206543,0.6827948093414307,-1.1049261093139648,0.5587483644485474
257,-1.1990238047907347,-1.2741607741025107,-0.13999808631616256,-0.27233555912971497,0.956325352191925,-0.10618465393781662,-0.37439262866973877,-1.652738332748413,-0.36045339703559875,0.15392738580703735,-0.7936514019966125,0.7033067941665649
258,-0.9452502127426012,-1.2929017354524217,0.13972803019555818,-0.22238558530807495,0.961635172367096,-0.16063247621059418,-1.4197674989700317,5.7902960777282715,1.8976874351501465,0.28500765562057495,0.4782911539077759,1.2845338582992554
259,-2.874233341639118,-1.3976956694970026,-2.2738073417873257,-0.045502640306949615,0.9850554466247559,0.16611818969249725,-4.0993757247924805,-1.8892611265182495,0.35270750522613525,-0.3370504677295685,0.6757873892784119,-0.7677264213562012
260,2.8343064811108203,-1.3192646629666496,-2.5924583854646013,0.07528185099363327,0.9685323238372803,0.2372293770313263,2.1526882648468018,-3.252587080001831,0.3419671654701233,-0.8065135478973389,-0.5318868160247803,-1.3619548082351685
261,-1.4665535917970323,-1.452316962723408,-0.436953593287613,-0.11755994707345963,0.9929895401000977,-0.012299353256821632,2.2497003078460693,2.737241744995117,-2.924633741378784,0.06386426836252213,-0.37957102060317993,0.4395606517791748
262,-1.1242515098591173,-1.1004663589966146,-0.036422044761038594,-0.4087439179420471,0.8914188146591187,-0.19570688903331757,1.2483700513839722,-3.163261890411377,-1.8925926685333252,0.25276851654052734,0.6006772518157959,0.615231990814209
263,-1.1306731124016947,-1.0692271186510904,-0.05807653643371573,-0.43498125672340393,0.8768291473388672,-0.20484618842601776,-0.42772477865219116,1.3941158056259155,1.6185696125030518,0.858672022819519,-0.6739940643310547,0.4090545177459717
264,-1.0774869250193957,-1.281989621813936,-0.0886312315164855,-0.25085070729255676,0.9585844278335571,-0.1348690390586853,-0.9818571209907532,-2.4299521446228027,-0.7484953999519348,-1.4192085266113281,0.07878422737121582,-1.1464115381240845
265,-1.2404319364143712,-1.2157894316021445,0.04399470812995534,-0.3288002014160156,0.9376440644264221,-0.11275613307952881,1.3028655052185059,3.562629222869873,-0.10659551620483398,0.4630775451660156,0.5742424726486206,0.9497312307357788
266,-1.0091214701351787,-1.443048934113755,-0.24161432163355961,-0.10782762616872787,0.9918513894081116,-0.06785432994365692,-4.475996494293213,4.643300533294678,1.0421921014785767,-0.02394726872444153,0.6704105734825134,0.44654691219329834
267,-3.0680069297644645,-1.3159870781723872,-2.223108503324539,-0.018531344830989838,0.9677113890647888,0.25137871503829956,-0.3988124132156372,0.2059132307767868,0.8880366683006287,0.031760722398757935,0.1693735122680664,-0.7255913019180298
268,-3.138118482859852,-1.4332760599307781,-2.1676992599412976,-0.000476263725431636,0.9905589818954468,0.13708646595478058,2.6435859203338623,-2.435671091079712,-2.724285364151001,-0.8337675333023071,-1.0100749731063843,-1.0319687128067017
269,-1.164666396182399,-1.2633257963929645,-0.2253969125352144,-0.27803003787994385,0.953102171421051,-0.11956341564655304,2.8261358737945557,1.5521864891052246,-3.7111623287200928,-0.10932952165603638,2.2448043823242188,-0.13042128086090088
270,-1.1877966723342301,-1.0405866473011256,-0.06251936193703597,-0.4690743088722229,0.8627010583877563,-0.18898773193359375,0.06445852667093277,0.12814585864543915,-1.0096346139907837,-0.20467758178710938,0.1213536262512207,0.40424343943595886
271,-1.085730288727408,-1.186187449017455,-0.10969251518621588,-0.33191540837287903,0.9269452691078186,-0.17494167387485504,-1.928647756576538,0.4170354902744293,2.5647084712982178,0.6444153785705566,-1.0558363199234009,0.47700464725494385
272,-1.4453280225599066,-1.1893056665777142,-0.1927121967672477,-0.3693777322769165,0.928110659122467,-0.0465899333357811,-0.1773805320262909,-1.454990029335022,-0.5752305388450623,0.3550649881362915,0.3507283926010132,-0.19451415538787842
273,-0.8821844210965076,-1.257849236865394,0.1175888654008964,-0.23771058022975922,0.9514303803443909,-0.1956370323896408,-1.654425859451294,4.5437798500061035,2.1331281661987305,0.07900393009185791,0.7279061675071716,0.772663414478302
274,-2.510522644975693,-1.413061491901087,-1.7692657985112108,-0.09267960488796234,0.9875856041908264,0.12682722508907318,-3.494499444961548,-0.33397799730300903,0.2843115031719208,-0.16729962825775146,0.4553769826889038,-0.4722862243652344
275,3.1383840439625277,-1.3805536300973336,-2.2129717793648367,0.0006067382637411356,0.9819583892822266,0.18909630179405212,2.297414541244507,-3.084066152572632,-0.29232606291770935,-0.8750269412994385,-0.45937538146972656,-1.0084322690963745
276,-1.380432648597005,-1.3577716295126212,-0.3314013925131343,-0.20759759843349457,0.9773958921432495,-0.04000343382358551,1.8450509309768677,1.9561564922332764,-3.1761584281921387,0.02284422516822815,0.08998680114746094,0.016184452921152115
277,-1.3374129332404574,-1.0166320260646444,-0.1306037222205334,-0.5119664669036865,0.8503404855728149,-0.1217021495103836,0.15559013187885284,-2.885039806365967,-2.356566905975342,-0.432018518447876,0.45292794704437256,0.1726207733154297
278,-1.3078330760347725,-0.9966897935824666,-0.2566559308658025,-0.5244154334068298,0.8396778702735901,-0.14117106795310974,-0.9088190793991089,0.5987504720687866,1.9365804195404053,1.454606533050537,-0.9316121935844421,0.24642623960971832
279,-1.506303878512002,-1.1540455862500838,-0.41501810553832424,-0.4039497375488281,0.9144090414047241,-0.026087887585163116,-0.7530309557914734,-3.0895462036132812,-1.4822885990142822,-1.2059135437011719,-0.3585466742515564,-0.13252723217010498
280,-1.2406202146720464,-1.1084186647753014,-0.10663506740065659,-0.42198288440704346,0.8949943780899048,-0.14462266862392426,2.319532871246338,3.618516445159912,1.7799134254455566,0.9056101441383362,0.21529626846313477,0.5104979276657104
281,-1.4028076164759309,-1.3702293013657139,-0.6063743829102348,-0.19642096757888794,0.9799537658691406,-0.03331043943762779,-4.628756046295166,1.3140202760696411,1.0521798133850098,-0.18199700117111206,0.4002952575683594,0.2886967658996582
282,-2.735128394098956,-1.310660575115622,-1.9293036705705544,-0.10169223695993423,0.9663550853729248,0.23625513911247253,-0.6218531727790833,-0.5671951174736023,1.1151543855667114,-0.4987258315086365,-0.02235490083694458,-1.124560832977295
283,-2.365493344763185,-1.3973186287216879,-1.4213853716455322,-0.12091241031885147,0.9849904179573059,0.1231822744011879,2.315609931945801,-1.29777991771698,-3.08410906791687,-0.5120068788528442,-0.9994558691978455,-0.5826396942138672
284,-1.3626659135106096,-1.1235750223549716,-0.4556152453376787,-0.4231288731098175,0.9016522765159607,-0.08936003595590591,2.8661856651306152,-2.3739728927612305,-3.4317142963409424,-0.045010775327682495,2.747838020324707,-0.49436497688293457
285,-1.4188729844121633,-0.8755212690146196,-0.2498241316956556,-0.6332182884216309,0.7678775191307068,-0.09694766253232956,0.17649072408676147,1.0083918571472168,-1.4021503925323486,-0.27167367935180664,0.09718900918960571,0.09699344635009766
286,-1.4191041111836429,-0.9835401518916153,-0.2584253226201196,-0.5477161407470703,0.8324640989303589,-0.08372747153043747,-0.6962311863899231,-1.7324436902999878,3.5673413276672363,1.0849323272705078,-0.8380489349365234,0.29768621921539307
287,-1.6531532422301318,-1.0764995416226872,-0.4077505504563547,-0.4728045165538788,0.8803025484085083,0.03902699798345566,3.9705755710601807,-6.796736717224121,-1.620503306388855,-0.49449580907821655,-0.6369249820709229,-2.1103007793426514
288,-1.2991154961754003,-1.103914826346818,-0.10247110447852643,-0.433594673871994,0.8929762840270996,-0.12078583985567093,-1.2961190938949585,4.293942451477051,3.146524667739868,0.33279505372047424,0.6439958810806274,1.1219607591629028
289,-2.0366658562016977,-1.2874267526697738,-1.0269292220772694,-0.24979671835899353,0.9601187705993652,0.1255929172039032,-2.643864870071411,-1.7294795513153076,1.6440807580947876,-0.05722537636756897,0.44562768936157227,-0.3269937038421631
290,-2.747148277622434,-1.2790233850060264,-1.68609460597423,-0.11054279655218124,0.9577354192733765,0.2655620276927948,0.14093773066997528,-0.7132138013839722,1.1315345764160156,-0.756782054901123,-0.15480268001556396,-0.7248821258544922
291,-2.1339112623389718,-1.3266664903022007,-0.8556333080188028,-0.20439067482948303,0.9703480005264282,0.12903130054473877,2.232041835784912,-1.5100780725479126,-3.5064265727996826,0.01171797513961792,-1.0455739498138428,-0.09581293165683746
292,-1.3296568609602655,-1.0121051345378735,-0.06358854430272738,-0.514739990234375,0.8479496240615845,-0.12658730149269104,3.2544028759002686,-3.438110113143921,-1.9669370651245117,0.3653106093406677,2.7255825996398926,0.012421056628227234
293,-1.4340305213185702,-0.8688979132892696,0.03679806162886676,-0.6396393775939941,0.7636178135871887,-0.08803034573793411,-0.2682584226131439,1.4898641109466553,-0.2828633487224579,0.41716623306274414,-0.09586268663406372,0.2942376136779785
294,-1.3942226919253984,-1.087338981160656,0.002321222310465794,-0.45761552453041077,0.8853930830955505,-0.08165320754051208,-0.7643527984619141,1.3153190612792969,3.3893308639526367,0.288059800863266,-0.6015185117721558,-0.17486226558685303
295,-1.6464181236144195,-1.0211654953859624,-0.032441089101114914,-0.5208795666694641,0.852717399597168,0.03946510702371597,-0.5050446391105652,-2.2738287448883057,-0.7658291459083557,1.2584589719772339,-0.31971263885498047,0.8780001401901245
296,-0.9740760748297066,-1.2196686488240658,0.13671849288766696,-0.2845155894756317,0.9389854669570923,-0.19328075647354126,-3.5352883338928223,4.776375770568848,1.9012868404388428,-0.06738266348838806,0.8619484901428223,0.7271857261657715
297,-2.4961057308256493,-1.3064954417508217,-1.4522902862373832,-0.15715524554252625,0.9652753472328186,0.20867572724819183,-0.5904169678688049,-1.3934544324874878,1.4778724908828735,0.26500439643859863,0.39574748277664185,-2.4186367988586426
298,-2.7420176265733525,-1.364225490041791,-1.5998584104784246,-0.07979124039411545,0.9787399768829346,0.188947856426239,2.5390431880950928,-1.8556889295578003,-1.1340992450714111,-0.6790130734443665,-0.7222550511360168,-0.5229170322418213
299,-1.328552043285091,-1.25361440922838,-0.23407866305657543,-0.30278390645980835,0.9501181244850159,-0.07481690496206284,2.468229055404663,0.02043452486395836,-3.3137662410736084,-0.28538137674331665,0.8896646499633789,-0.45879822969436646
300,-1.3465672852490307,-0.9445816072946743,0.01718343999260496,-0.5714099407196045,0.810251772403717,-0.13031813502311707,0.1935337781906128,-0.6599060297012329,-1.94504976272583,-0.131669282913208,0.39168304204940796,0.22914928197860718
301,-1.2984528381591331,-0.9597906673611407,-0.0972039948511556,-0.5525470972061157,0.8190714716911316,-0.15431687235832214,-1.21992826461792,0.25571367144584656,2.0553712844848633,1.1817585229873657,-1.0203197002410889,0.31520551443099976
302,-1.4770904728197105,-1.0879507330713896,-0.21630124309793788,-0.46226438879966736,0.8856772780418396,-0.043444111943244934,-0.3925265073776245,-1.883437991142273,-0.3008016347885132,-0.27317872643470764,-0.6611900329589844,0.556612491607666
303,-1.145079717242704,-1.0770516342512522,0.08437933702199397,-0.43162551522254944,0.8805643320083618,-0.19571922719478607,-1.097273826599121,5.420555591583252,2.5626492500305176,0.5782471895217896,0.17094933986663818,1.4365639686584473
304,-1.9683032337845485,-1.3282016904835932,-1.0801229920218662,-0.2214919924736023,0.9707179665565491,0.09299509227275848,-4.058956146240234,-1.9610880613327026,0.721960186958313,-0.2219436764717102,0.7090000510215759,-0.33159685134887695
305,-2.7017959108352585,-1.3014489958505366,-1.707021724163725,-0.11329462379217148,0.9639447927474976,0.24077972769737244,0.6505823135375977,-2.1773452758789062,0.8884131908416748,-0.5804157257080078,-0.48993051052093506,-0.9917105436325073
306,-1.9585688841941273,-1.3056796469719154,-0.8136091558913509,-0.24256788194179535,0.9650619626045227,0.09907769411802292,1.9326025247573853,0.40263330936431885,-3.124199628829956,0.22846874594688416,-1.0673110485076904,0.333310604095459
307,-1.3101600862294267,-1.0150953090338102,-0.16181019803560634,-0.5097219347953796,0.849530816078186,-0.13594432175159454,2.501812219619751,-4.00774621963501,-1.797408103942871,0.3215811252593994,1.802370309829712,0.49177926778793335
308,-1.3705846905022967,-0.895247553454124,-0.10444299418207639,-0.6128345131874084,0.780363917350769,-0.12436274439096451,-0.2693321406841278,1.529125690460205,0.7341134548187256,0.8520312905311584,-0.26548659801483154,0.3096502423286438
309,-1.2818339869198352,-1.1465056248977694,-0.10365341463598769,-0.39460670948028564,0.9113309383392334,-0.11730989068746567,-1.126617431640625,0.32228267192840576,0.7616137862205505,-0.7563179731369019,-0.8704984188079834,-0.5838161706924438
310,-1.5260594022580174,-1.0539078934056396,-0.1506483078713586,-0.4936832785606384,0.8693610429763794,-0.022100618109107018,1.075136423110962,4.183660984039307,-0.7036966681480408,0.015488028526306152,0.8035669326782227,1.535589337348938
311,-1.1022393200947203,-1.201686347294241,-0.2253376216741484,-0.3219003975391388,0.9326488375663757,-0.16293050348758698,-4.469815731048584,2.2112605571746826,1.1603338718414307,-0.1142568588256836,0.8067615628242493,0.7533540725708008
312,-2.3038004897864277,-1.2658529215263834,-1.4357102716465897,-0.22312790155410767,0.9538639187812805,0.20089147984981537,-0.5636348724365234,-0.39875978231430054,1.2452062368392944,-0.10655348002910614,0.41027170419692993,-1.360147476196289
313,-2.46154835916847,-1.3589709786104198,-1.4439790122636804,-0.13220784068107605,0.9776487946510315,0.1634749323129654,2.0249199867248535,-0.49526673555374146,-0.9027858972549438,-0.49624067544937134,-0.8538084626197815,0.0194321870803833
314,-1.2852983045198831,-1.2157934402168376,-0.3549529696084356,-0.3335229456424713,0.9376454949378967,-0.09789447486400604,1.8034454584121704,3.0441861152648926,-2.5182485580444336,-0.1306340992450714,0.461936354637146,0.23423172533512115
315,-1.3326127946924204,-0.9451335068273359,-0.1379463924637596,-0.569101095199585,0.8105751276016235,-0.13817337155342102,0.08702894300222397,-0.9994627833366394,-1.534472942352295,-0.10684794187545776,0.5100730061531067,0.12685133516788483
316,-1.4012340168262625,-0.9801577396081651,-0.26820238600005164,-0.5489051342010498,0.830585241317749,-0.09397599846124649,-1.250176191329956,0.2053275853395462,2.4272541999816895,0.9621284008026123,-1.003162145614624,0.448330819606781
317,-1.4298641627448985,-1.1702892600838881,-0.36912715227772985,-0.38601958751678467,0.9208633899688721,-0.05476564168930054,-0.270595908164978,-2.247972011566162,-0.027387024834752083,-0.31388577818870544,-0.7758592963218689,-0.05418216064572334
318,-1.4846362791768168,-1.1296607171014228,-0.41806800567445657,-0.4253831207752228,0.9042673707008362,-0.03674199432134628,-0.4484318196773529,4.026458740234375,1.74555504322052,0.1794266700744629,0.5736837983131409,0.6453540325164795
319,-1.8538061928209713,-1.297511012233872,-1.264576990018292,-0.25915980339050293,0.9628893733024597,0.07536778599023819,-3.742793321609497,0.13175328075885773,0.669910192489624,-0.27071690559387207,0.6683971881866455,-0.13010108470916748
320,-2.528551503177102,-1.300219395061855,-1.7209457245189723,-0.15378616750240326,0.9636168479919434,0.21861542761325836,0.8114376068115234,-0.5672352313995361,0.07688295096158981,-0.5454325675964355,-0.3872617483139038,-0.5889767408370972
321,-1.6986411487229889,-1.2905665214234983,-0.6885388092746609,-0.2743194103240967,0.9609919190406799,0.035262636840343475,2.2376742362976074,-0.8326791524887085,-2.549208164215088,0.23070979118347168,-1.1071405410766602,0.44631993770599365
322,-1.2907160023397106,-0.9823229810520924,-0.23690814186031467,-0.5334619283676147,0.8317890763282776,-0.15344567596912384,1.8592870235443115,-3.4781885147094727,-2.048973798751831,0.045409440994262695,2.6393260955810547,0.23944418132305145
323,-1.3043821145985484,-0.897222762811135,-0.2422597121462806,-0.6017767786979675,0.7815975546836853,-0.16422578692436218,-0.4550444483757019,0.9313331246376038,1.0410151481628418,0.8277289271354675,-0.3342403769493103,0.2194167971611023
324,-1.2529021068827306,-1.166684995413108,-0.23404219289041436,-0.37350088357925415,0.9194521903991699,-0.12290195375680923,-1.5696378946304321,-0.011676440015435219,0.3968190550804138,-0.9299659132957458,-0.5858187675476074,-0.09320831298828125
325,-1.6290849493479098,-1.0675992901627014,-0.40227996483030715,-0.4814096689224243,0.8760453462600708,0.028092527762055397,-1.0701675415039062,0.4010608196258545,-0.2723688781261444,0.2986398935317993,0.3292616009712219,0.6261433362960815
326,-1.107151848819827,-1.2854937743205002,-0.3361049199252465,-0.25173479318618774,0.9595765471458435,-0.12586641311645508,-3.586665153503418,4.849916458129883,2.1040494441986084,-0.14633646607398987,0.7455320358276367,0.5340847969055176
327,-2.727910924839076,-1.3161857882570263,-1.8946784236372225,-0.10124702751636505,0.9677614569664001,0.23062293231487274,1.060289740562439,-6.977312088012695,1.2118546962738037,0.47932928800582886,0.30897200107574463,-3.2337355613708496
328,-2.3328468503212334,-1.4270757272373868,-1.3787563642167007,-0.10361383855342865,0.9896899461746216,0.09888510406017303,2.450510263442993,-2.2415690422058105,-2.5121850967407227,-0.6328211426734924,-0.8868608474731445,-0.27721452713012695
329,-1.3549835338291525,-1.2066572912780076,-0.29911590272841143,-0.3478831946849823,0.934430718421936,-0.0762653574347496,1.4202443361282349,0.35749873518943787,-3.262169361114502,-0.5407428741455078,1.036226511001587,-0.9807415008544922
330,-1.4564335803559356,-0.9745273558557302,-0.16411516900165599,-0.5578910112380981,0.8274365663528442,-0.06408156454563141,-0.5000134110450745,1.219132423400879,-0.628126323223114,-0.13691794872283936,0.11416804790496826,0.19718396663665771
331,-1.4541233910627571,-1.1096311425319,-0.23313668528814702,-0.4419662654399872,0.8955346345901489,-0.05180076137185097,-0.6932013630867004,-0.6347353458404541,2.7572131156921387,0.9369919300079346,-0.951061487197876,0.3671541213989258
332,-1.579110790314019,-1.0606929370489122,-0.2961754876499433,-0.48825058341026306,0.8726940155029297,0.004059635102748871,6.222715854644775,-8.005087852478027,-3.164512872695923,-0.45103466510772705,0.35766786336898804,-3.7279212474823
333,-1.2350041796037123,-1.1963040209421616,0.034436455926360285,-0.3453700840473175,0.9306934475898743,-0.12053743749856949,-1.174757957458496,6.038512706756592,3.868656635284424,0.27653768658638,0.7103283405303955,0.999397873878479
334,-2.2529932180643164,-1.4093458024306895,-1.3214545891515688,-0.12477269023656845,0.9869951605796814,0.10135302692651749,-2.9942870140075684,-0.788568377494812,0.9864092469215393,-0.45297083258628845,0.6024823784828186,-0.014667868614196777
335,-2.9675410409188543,-1.3470114408822749,-1.9179846812451447,-0.03843114525079727,0.9750645160675049,0.21856896579265594,0.30329856276512146,-0.16168886423110962,0.5918114185333252,-0.6232815384864807,-0.39207184314727783,-0.6954977512359619
336,-2.1297380720399466,-1.3953652145755202,-0.9520435054289995,-0.1479712426662445,0.9846513867378235,0.09255250543355942,1.4936853647232056,-0.3412710428237915,-3.3638358116149902,-0.1510857343673706,-1.0354785919189453,0.20276616513729095
337,-1.464015617161677,-1.0656722778656273,-0.14094326609659785,-0.48115968704223633,0.8751144409179688,-0.051574744284152985,0.7508708834648132,-5.166147232055664,-2.5119383335113525,0.1324658989906311,2.6866226196289062,0.3448486328125
338,-1.4684483245077542,-0.8870731203384838,-0.08961065159814198,-0.6283779740333557,0.7752262353897095,-0.06453873217105865,-0.4091014266014099,0.8617359399795532,0.05613459646701813,0.626897931098938,-0.256549596786499,0.22823502123355865
339,-1.3978644550755075,-1.116953801699972,-0.1163557274988514,-0.43188318610191345,0.8987690806388855,-0.07543989270925522,-1.0869277715682983,2.283330202102661,1.6895722150802612,-0.6216903924942017,-0.564403235912323,-0.0825800895690918
340,-1.6910148501099551,-1.1095002924682649,-0.21404256225228724,-0.4418962895870209,0.8954764008522034,0.053381532430648804,-1.280148983001709,0.6303132772445679,-0.8184633851051331,-0.40151795744895935,0.35015952587127686,2.9101345539093018
341,-1.3459162774989546,-1.2515391377580471,-0.1935128409097883,-0.3059583306312561,0.9494687914848328,-0.0699877068400383,-1.8131381273269653,4.884145259857178,2.3841793537139893,0.178135484457016,0.8873687982559204,0.7214463949203491
342,-2.4806972429816976,-1.3144508678305495,-1.5809846688138023,-0.1556333601474762,0.9673230051994324,0.20016106963157654,-3.530984401702881,-7.336893081665039,0.7439156770706177,0.2031644880771637,0.39762139320373535,-1.9106712341308594
343,-2.746268059219116,-1.4046332249337032,-1.58456318148239,-0.06369674205780029,0.9862266182899475,0.15264277160167694,2.4783072471618652,-2.6581151485443115,-1.4802958965301514,-0.6614161729812622,-0.6746574640274048,0.11145639419555664
344,-1.4661942515820026,-1.2394763919583436,-0.15083518448250566,-0.32351380586624146,0.9456138014793396,-0.03396417945623398,1.7660928964614868,1.2823469638824463,-2.852980613708496,0.11077576875686646,-0.052272677421569824,-0.1411457061767578
345,-1.5187061641167432,-0.9689713833172856,-0.003455481451816231,-0.5653797388076782,0.8243038058280945,-0.02947738766670227,0.02433781698346138,1.5072944164276123,-1.4182898998260498,-0.322956383228302,0.10117220878601074,0.03584027290344238
346,-1.3909178997758058,-1.0185048567157513,-0.06901397640674005,-0.5161744952201843,0.8513245582580566,-0.09386320412158966,-0.6175870299339294,-0.4258870482444763,2.4072108268737793,1.149841547012329,-0.9115510582923889,0.30428189039230347
347,-1.4755387889544598,-1.1730600807252372,-0.13009787027481415,-0.385576456785202,0.9219402074813843,-0.03684056177735329,-0.7151744365692139,2.354184865951538,-1.1906150579452515,-0.9205911159515381,-0.4867290258407593,0.9735623598098755
348,-1.5466767968980386,-1.1486271736114129,-0.13525368961348527,-0.40962082147598267,0.9122022986412048,-0.009881777688860893,0.3899083435535431,4.113067626953125,2.863386392593384,0.7172990441322327,0.3927292823791504,0.534066915512085
349,-1.8409581696077244,-1.4469046961403311,-0.9971630524758628,-0.1190924420952797,0.9923352599143982,0.032980553805828094,-3.758524179458618,3.874699592590332,0.7002938389778137,-0.1665673553943634,0.6185198426246643,0.4012082815170288
350,-3.063865431818166,-1.3201079784775254,-2.1135562923510887,-0.01926250569522381,0.9687418937683105,0.24732260406017303,0.28720659017562866,-0.3719869554042816,0.23126353323459625,-0.7005861401557922,-0.148215651512146,-0.6799702644348145
351,-2.0435523124028374,-1.4139867293551966,-0.8239162552284951,-0.1390395611524582,0.9877305626869202,0.07111009210348129,1.5945264101028442,-1.012998104095459,-3.569737672805786,-0.0693955272436142,-1.1351914405822754,0.2592275142669678
352,-1.3028570745583958,-1.089281511060631,-0.05738733463361239,-0.44659727811813354,0.886294424533844,-0.12260917574167252,1.4899342060089111,-3.700598955154419,-1.9793012142181396,-0.0018889904022216797,2.992337226867676,0.19395925104618073
353,-1.3945285159916652,-0.94682429105762,-0.03239112604371915,-0.5752102732658386,0.8115641474723816,-0.10245434939861298,-0.2510468065738678,1.6153725385665894,0.4398540258407593,0.6240841150283813,-0.2736460566520691,0.37825697660446167
354,-1.329442413220824,-1.172923408415433,-0.02158330034293504,-0.3762282133102417,0.921887218952179,-0.09260939061641693,-0.15395374596118927,0.7263734340667725,2.0089759826660156,-0.17725390195846558,-0.8649565577507019,-0.6370201110839844
355,-1.6387464169160841,-1.0846897881486195,-0.15672295577027837,-0.46610888838768005,0.8841585516929626,0.031720977276563644,0.3376515805721283,0.5883510708808899,-0.1722271740436554,0.8386217355728149,-0.30961936712265015,0.9599936008453369
356,-1.1476911236214136,-1.2890128013393778,-0.10538897970552379,-0.2535487413406372,0.9605610370635986,-0.11417355388402939,-2.9109842777252197,5.360210418701172,2.345400094985962,-0.3377751111984253,1.0997264385223389,0.5627819299697876
357,-2.781929265089807,-1.2907839637393304,-1.8354541923995822,-0.09726996719837189,0.9610520005226135,0.2586839199066162,1.043351411819458,-6.262714862823486,1.2621396780014038,0.5487470626831055,0.3939130902290344,-3.5756242275238037
358,-2.920105215037283,-1.3760905177323752,-1.8498565750134637,-0.042503390461206436,0.9811046123504639,0.1887514740228653,1.4649559259414673,-0.5750092267990112,-1.6531106233596802,-0.7936171889305115,-0.8983257412910461,-0.0989077240228653
359,-1.4182182775488406,-1.263870334192245,-0.28050513054987847,-0.2986195385456085,0.9532667994499207,-0.04591967910528183,3.8743951320648193,0.38341495394706726,-2.9005956649780273,-0.026423126459121704,0.4784652590751648,-0.67893385887146
360,-1.3263115651178101,-0.9573060189919087,0.04168602400929335,-0.5586041212081909,0.8176435232162476,-0.13935792446136475,0.5462127327919006,0.2179756760597229,-1.7833607196807861,-0.13675415515899658,0.05889761447906494,0.30914247035980225
361,-1.2453716712172973,-1.0151171891536732,0.029957818533753764,-0.4998333156108856,0.8495423793792725,-0.16865409910678864,-0.7444534301757812,0.0420670211315155,2.771334171295166,1.1925671100616455,-1.121148943901062,0.6837450265884399
362,-1.5183433347662227,-1.09051738697377,-0.19114506976301737,-0.4613911807537079,0.8868660926818848,-0.024223567917943,3.883923292160034,-4.486610412597656,-2.2929625511169434,-0.5717661380767822,-0.41480493545532227,-1.6034467220306396
363,-1.2399834342464466,-1.1721713338904918,0.07703210932336933,-0.36710524559020996,0.921595573425293,-0.12607619166374207,-0.7301867008209229,3.9346795082092285,3.9711368083953857,0.49611836671829224,0.49467939138412476,0.785942554473877
364,-2.15319978834334,-1.4416184563487395,-1.3592544692469628,-0.10758253186941147,0.9916681051254272,0.07085482776165009,-4.727393627166748,0.37452951073646545,0.6823137402534485,-0.21150928735733032,0.7335211038589478,-0.2561880350112915
365,2.9835023243041348,-1.3594165354174639,-2.27314242559942,0.033030860126018524,0.9777423739433289,0.20719309151172638,0.8698689341545105,-2.220244884490967,0.2773556709289551,-0.9636949300765991,-0.5084124803543091,-0.9603211879730225
366,-1.8428647126075273,-1.3518853709096716,-0.5967483362681323,-0.2091783583164215,0.9761345386505127,0.058357883244752884,1.7826589345932007,0.11907773464918137,-2.662003755569458,0.5886186361312866,-0.9249871373176575,-0.028175953775644302
367,-1.372630587973439,-1.0470433754192463,-0.06688709055182873,-0.4903455674648285,0.8659483194351196,-0.09846193343400955,0.6887127161026001,-5.568815231323242,-2.5794858932495117,-0.209559828042984,1.2794069051742554,0.23829352855682373
368,-1.4007964960255082,-0.9567537216110488,-0.12261000291832308,-0.5678703784942627,0.8173254728317261,-0.0974787250161171,-0.43214061856269836,1.2346755266189575,1.012965440750122,1.2687981128692627,-0.5215492248535156,0.3229731321334839
369,-1.412667879599552,-1.1341083329228583,-0.14745665293476815,-0.41766390204429626,0.9061574339866638,-0.06660057604312897,-2.2653825283050537,-2.157832145690918,-1.3447340726852417,-1.297027349472046,-0.2505483031272888,0.028026342391967773
370,-1.68933610543696,-1.1069658462249765,-0.28511683226239715,-0.4442374110221863,0.8943454027175903,0.052907854318618774,1.1398037672042847,2.8107728958129883,2.3828608989715576,0.7693870067596436,0.8460109233856201,0.5511418581008911
371,-1.4547459383897239,-1.4410974660052376,-0.541319981588716,-0.12846674025058746,0.9916008710861206,-0.01497590634971857,-4.026150703430176,6.754236698150635,1.4077565670013428,-0.07700811326503754,0.7942116260528564,0.6808542013168335
372,3.029063795068646,-1.3063703945041278,-2.2172723298276047,0.029348017647862434,0.9652426838874817,0.2597026228904724,0.11768399924039841,3.142893075942993,0.42170578241348267,-0.7819267511367798,0.11514073610305786,0.2352924644947052
373,-2.40205186448349,-1.4029660107912418,-1.1661679779265561,-0.1125786080956459,0.9859495162963867,0.12340792268514633,1.6368184089660645,-3.6757543087005615,-5.19983434677124,-0.4021766483783722,-1.0786466598510742,-0.34624719619750977
374,-1.3957739177298507,-1.0950390158707464,-0.08229628956279814,-0.45101457834243774,0.8889461159706116,-0.07975368946790695,1.6548995971679688,-1.0193145275115967,-2.8574559688568115,-0.36372846364974976,3.781311511993408,0.14652609825134277
375,-1.4086365754274959,-0.8678151421905924,0.005641553545734289,-0.6380134224891663,0.76291823387146,-0.10437659174203873,0.13667622208595276,3.074941396713257,-0.3195722997188568,0.5168433785438538,0.06294834613800049,0.5380924344062805
376,-1.432911625601549,-1.0268085802149194,-0.04051360158121074,-0.5126399993896484,0.8556516170501709,-0.07113660126924515,-0.932880163192749,-1.8903781175613403,2.000398874282837,0.12724876403808594,-0.9879301190376282,-0.05178820341825485
377,-1.5640418507163836,-1.015499636694502,-0.128814743546427,-0.5271834135055542,0.8497440814971924,-0.0035609020851552486,1.3928829431533813,2.868082284927368,0.4558674991130829,0.7130202054977417,0.6023433208465576,0.012731432914733887
378,-1.2979455905572355,-1.2364426182943113,-0.10025060086666866,-0.31601908802986145,0.9446225762367249,-0.08843151479959488,-2.5129268169403076,3.957247495651245,2.6917495727539062,0.07807353138923645,0.7560762763023376,0.6063910722732544
379,-2.5078163980927033,-1.3378345773472138,-1.455161904390743,-0.1367131918668747,0.9729869365692139,0.18602599203586578,-2.2118148803710938,-4.820427894592285,1.4224084615707397,-0.13127687573432922,0.4241534471511841,-1.1493133306503296
380,-2.9865227268492958,-1.3711073796270252,-1.7743491081068228,-0.030637282878160477,0.9801283478736877,0.19598457217216492,1.4258155822753906,-2.0793542861938477,-1.0510549545288086,-0.8433709144592285,-0.765986442565918,-0.3986976146697998
381,-1.645354973383284,-1.2981841130779566,-0.28840473422658025,-0.2685002088546753,0.9630708694458008,0.020056191831827164,2.0450756549835205,2.204777479171753,-2.882655382156372,-0.07088574767112732,-0.07081317901611328,-0.05299997329711914
382,-1.5245450488989483,-0.98647663747376,0.07441367309320501,-0.5510420799255371,0.8340875506401062,-0.025504590943455696,0.3118865489959717,-2.815028667449951,-2.5444467067718506,0.047044336795806885,0.3823277950286865,-0.06446123123168945
383,-1.4136586339298973,-0.9370584752991562,0.08883385117204631,-0.5848650336265564,0.8058197498321533,-0.0926683247089386,-0.1619177758693695,-0.17485485970973969,1.9744614362716675,1.2531847953796387,-0.7103760242462158,0.3529832363128662
384,-1.435081738585335,-1.1872845211999055,0.06605794556447317,-0.37073907256126404,0.9273563027381897,-0.05062590166926384,-2.2872753143310547,-0.7246713638305664,-0.14661802351474762,-1.517154574394226,-0.3185763955116272,0.12194550037384033
385,-1.755806421549947,-1.1330848209987159,-0.06860294099419866,-0.41663429141044617,0.905724048614502,0.07797322422266006,0.11804982274770737,-1.6564565896987915,-0.23921777307987213,0.22852393984794617,0.6385111808776855,0.6472922563552856
386,-1.0428746633313395,-1.303517868874815,0.22790573874482903,-0.22815126180648804,0.9644932746887207,-0.13304153084754944,-2.79123592376709,7.994003772735596,2.5613553524017334,-0.20954713225364685,0.8499142527580261,0.891067624092102
387,-3.081414660381637,-1.365068881050423,-1.8688959626876438,-0.0122856879606843,0.9789126515388489,0.20390932261943817,-0.451082319021225,-10.40249252319336,1.3732901811599731,0.011064978316426277,0.36065638065338135,-1.7565522193908691
388,-3.055930453282029,-1.4143324687978402,-1.8012429696506345,-0.013332130387425423,0.9877845048904419,0.15525522828102112,1.8200775384902954,-0.6372895836830139,-2.871328115463257,-1.1219980716705322,-0.9377509355545044,-0.37801826000213623
389,-1.455741687220443,-1.2300704498913146,-0.12550302521724996,-0.33196189999580383,0.9425123333930969,-0.03836318477988243,3.089797258377075,-0.67734295129776,-3.4604034423828125,-0.24443885684013367,1.8431473970413208,-0.03979235887527466
390,-1.4671187889886346,-0.9856391662076321,0.051605115271162925,-0.549364447593689,0.833625316619873,-0.05716170743107796,-0.11024057120084763,0.5289443731307983,-1.3781167268753052,-0.16761553287506104,0.3081439733505249,0.20558393001556396
391,-1.3431112081796446,-1.0908089429554917,0.0016403799029510295,-0.4498504400253296,0.8870007395744324,-0.10423164814710617,-1.2064934968948364,0.27254563570022583,3.2211220264434814,1.0457977056503296,-1.0212781429290771,0.47454720735549927
392,-1.4495041956531414,-1.1483457038947178,-0.12605931587962552,-0.4069846570491791,0.9120869040489197,-0.049607548862695694,1.432212233543396,0.15738244354724884,-2.6283116340637207,-1.327466607093811,-0.05545854568481445,1.0364086627960205
393,-1.1388246138057883,-1.127783591135938,0.18698978920270848,-0.3892870843410492,0.9034643173217773,-0.17946508526802063,-1.6448471546173096,8.00062084197998,4.915988445281982,0.7950030565261841,0.8140649199485779,1.3894717693328857
394,-2.3544968426991733,-1.426396338236578,-1.4977566040199513,-0.10192476958036423,0.989592432975769,0.10157929360866547,-4.609603404998779,-2.9019806385040283,0.40768879652023315,-0.10229890048503876,0.692155122756958,-0.28047335147857666
395,2.9820115961653477,-1.3258223866778651,-2.2179882844232464,0.03853921219706535,0.9701436161994934,0.2394488900899887,0.609985888004303,-2.3238823413848877,0.6619791984558105,-0.7259171605110168,-0.5197958946228027,-0.6305316686630249
396,-1.9855596752290556,-1.360193183967744,-0.6754756542915565,-0.19132500886917114,0.9779050350189209,0.084241583943367,2.2863690853118896,1.470036506652832,-2.925179958343506,0.38071709871292114,-0.7682797908782959,-0.23496794700622559
397,-1.285690507427608,-1.0621764825886892,0.06500367185724326,-0.4673142433166504,0.8734174370765686,-0.13696536421775818,1.1654226779937744,-4.3757829666137695,-1.8797338008880615,-0.0464034378528595,1.1976885795593262,0.6444574594497681
398,-1.3164425923779237,-0.9811975337735995,0.06438721899082368,-0.5381380915641785,0.8311638236045837,-0.13990767300128937,-0.36827850341796875,1.5823954343795776,1.3925789594650269,1.1602998971939087,-0.5607323050498962,0.2698209881782532
399,-1.398026643095794,-1.1916846279328448,-0.020309950379764418,-0.3645857870578766,0.9289937615394592,-0.06362367421388626,-1.748746633529663,-2.2822787761688232,-1.2008335590362549,-1.4277421236038208,-0.3691639304161072,-0.17642760276794434
400,-1.5013904766573918,-1.0843394258506016,0.020648513592103575,-0.46637141704559326,0.8839948177337646,-0.03242098167538643,2.4238381385803223,2.848602771759033,-0.06220691651105881,0.9847582578659058,0.2002185583114624,0.7791403532028198
401,-1.0295741948989996,-1.3705032827441164,0.07312493064661128,-0.1705217957496643,0.9800083041191101,-0.10249930620193481,-4.360179424285889,3.070962429046631,1.7423371076583862,-0.1904401183128357,0.9209468960762024,0.4776976704597473
402,-3.0447896922159328,-1.3614285731229072,-1.8574983428735072,-0.020088331773877144,0.9781625270843506,0.20686912536621094,-1.6474610567092896,1.1739505529403687,0.9766700863838196,-0.4854505956172943,0.23681867122650146,-0.7424221038818359
403,-3.1223736922154606,-1.4358743982346518,-1.7800610393785397,-0.0025850292295217514,0.9909118413925171,0.1344875544309616,1.8066078424453735,-1.7842241525650024,-3.0547497272491455,-0.9186490774154663,-0.9323791861534119,-0.6307491064071655
404,-1.3176864795702288,-1.2461509221947484,0.0013355016546265004,-0.30880939960479736,0.9477639198303223,-0.07987575978040695,2.431999444961548,0.14316768944263458,-3.547586679458618,-0.45893657207489014,1.3989766836166382,-0.48205965757369995
405,-1.3954252863927235,-0.9968609237848214,0.14787092316779454,-0.5346133708953857,0.8397707939147949,-0.09472882747650146,-0.26032090187072754,-0.10006662458181381,-1.106458306312561,-0.22995871305465698,0.2772335410118103,0.27551496028900146
406,-1.3171218572957824,-1.097146527434472,0.10229873952216086,-0.4415392577648163,0.8899093866348267,-0.11447331309318542,-0.7137718200683594,0.3092985451221466,3.454955577850342,0.9768023490905762,-1.0394761562347412,0.3713855743408203
407,-1.4257237775815865,-1.1761628055958846,-0.06256213179305833,-0.38043150305747986,0.9231375455856323,-0.055580634623765945,-0.47933366894721985,2.002134323120117,-0.4831104278564453,-0.013306349515914917,-0.7625844478607178,0.46880388259887695
408,-1.0704888321345265,-1.1977634203159744,0.2394244951218728,-0.31977343559265137,0.9312263131141663,-0.17482072114944458,-0.31639835238456726,5.44440221786499,2.559800624847412,0.43804433941841125,0.3217032551765442,1.1886910200119019
409,-2.3093376330649695,-1.4561236256614285,-1.359872726419166,-0.08460976183414459,0.9934322834014893,0.07703027129173279,-3.666353940963745,-2.846173048019409,0.8490136861801147,-0.2598574161529541,0.5545872449874878,-0.4855690002441406
410,3.0761421933691317,-1.3900892797345725,-2.083279934540708,0.01175474189221859,0.9837168455123901,0.17934101819992065,1.5460551977157593,-2.951871871948242,0.37599650025367737,-0.7269494533538818,-0.5526864528656006,-1.1576125621795654
411,-1.5731638340721923,-1.3687498671979867,-0.29122355237641306,-0.20067410171031952,0.9796579480171204,0.0004750982625409961,1.7334240674972534,0.5781327486038208,-2.923762321472168,0.11174586415290833,-0.18816930055618286,-0.5837727785110474
412,-1.31737411334431,-1.0542052399081,0.09238943396338692,-0.4781431555747986,0.8695079684257507,-0.1238345131278038,0.5838788151741028,-4.145164966583252,-2.7651891708374023,-0.7969269752502441,0.856337308883667,0.5077913999557495
413,-1.3548547593234435,-0.9830447813149663,0.004850750693728074,-0.5416133403778076,0.8321895003318787,-0.11880932003259659,-1.0457595586776733,1.3549233675003052,1.405837893486023,1.2286860942840576,-0.9617366194725037,0.3029066324234009
414,-1.4386175174204408,-1.1205506269055694,-0.08466117794524324,-0.4313909411430359,0.90034019947052,-0.05735515430569649,-0.6095208525657654,-2.312288522720337,-0.42703285813331604,-0.6942347288131714,-0.6294660568237305,-0.040438421070575714
415,-1.2910213631852792,-1.156749412798223,0.01592739009309946,-0.38667458295822144,0.9155001640319824,-0.11109574139118195,1.577944040298462,1.4857650995254517,1.5731983184814453,0.5874496698379517,0.9547085762023926,0.20032918453216553
416,-1.270283784766996,-1.3937252551936856,-0.1925240796963062,-0.16825328767299652,0.984363853931427,-0.05214134603738785,-3.18560791015625,1.3832770586013794,2.0147335529327393,0.09099805355072021,0.425731360912323,0.12663471698760986
417,-3.078832189304268,-1.366406092734926,-1.9867319186009649,-0.012730104848742485,0.9791849255561829,0.20256999135017395,-0.953938364982605,-0.12093858420848846,1.0996654033660889,-0.5859332084655762,0.1465778946876526,-1.374002456665039
418,-2.846607169870139,-1.4808575917532738,-1.6188273418934294,-0.026112783700227737,0.9959582090377808,0.08593961596488953,2.0098249912261963,-2.5459275245666504,-3.0212337970733643,-0.8155009746551514,-1.0023515224456787,-0.7999136447906494
419,-1.2148987970504688,-1.2053001789352529,0.017156534505277262,-0.3350151777267456,0.9339465498924255,-0.12453396618366241,2.6292877197265625,0.07856704294681549,-3.5234975814819336,-0.2504798173904419,2.0577526092529297,-0.240059494972229
420,-1.3786079214882903,-0.9603265500813726,0.05992287167595222,-0.5626979470252991,0.8193787932395935,-0.10949548333883286,-0.44241705536842346,1.3315478563308716,-0.9222669005393982,-0.12338292598724365,0.21960735321044922,0.05898892879486084
421,-1.3094517751337813,-1.0741526624975615,0.017057543106622,-0.46029794216156006,0.879186749458313,-0.12311210483312607,-0.4804397225379944,-0.6628694534301758,3.2813217639923096,0.9222425222396851,-0.894933819770813,0.17705190181732178
422,-1.4660678450967515,-1.1332258278278322,-0.1095746410560917,-0.4214184880256653,0.9057838320732117,-0.044296588748693466,2.6839957237243652,-7.925961017608643,0.413026362657547,0.5234693288803101,-1.047232747077942,-3.872741460800171
423,-1.2597570395676787,-1.2598023709799027,0.012952927738750723,-0.2913217544555664,0.9520298838615417,-0.09365232288837433,0.3271765410900116,4.152543544769287,3.6905252933502197,0.4463510811328888,0.5601465702056885,0.5739074945449829
424,-2.6017337731809103,-1.4666073712635033,-1.7990763890901438,-0.05345815047621727,0.9945772290229797,0.08921024203300476,-4.392310619354248,-2.288747549057007,0.9756520986557007,-0.46688181161880493,0.7888853549957275,-0.7900617122650146
425,3.0047761769752754,-1.3674332847335204,-2.248737442417827,0.027545886114239693,0.9793928861618042,0.20007675886154175,0.4571327865123749,-1.9159115552902222,0.5051026940345764,-0.7823677062988281,-0.5092543959617615,-0.963001012802124
426,-2.2529307697008036,-1.4473962163685814,-1.065466118188466,-0.09554416686296463,0.9923958778381348,0.07760075479745865,1.7551836967468262,-0.03262397274374962,-3.1592671871185303,-0.08855310082435608,-1.0813393592834473,0.28282713890075684
427,-1.2858147237338688,-1.06283282543611,-0.06074261148071309,-0.4667809009552002,0.8737368583679199,-0.1367460936307907,1.0008717775344849,-5.958749294281006,-2.413714647293091,0.2294151782989502,2.7674221992492676,0.6302610635757446
428,-1.4791337184980926,-0.9212488522253628,-0.17033538055036118,-0.6022870540618896,0.7963575720787048,-0.05536234378814697,-1.0094102621078491,2.4035301208496094,0.8906683921813965,0.7946240901947021,-0.3570265769958496,0.3050724267959595
429,-1.3975590703745744,-1.1632424877470569,-0.21303662753643512,-0.39043208956718445,0.9180931448936462,-0.06832223385572433,-1.5086508989334106,-1.0128992795944214,1.0722192525863647,0.008428335189819336,-0.8574547171592712,0.01683908700942993
430,-1.5524011972750784,-1.1196604005965758,-0.26726836951975574,-0.43591439723968506,0.8999524116516113,-0.008019606582820415,1.4979134798049927,3.291386365890503,1.1224955320358276,0.6864331960678101,0.7259020805358887,0.24651449918746948
431,-1.0202403118606633,-1.4120814743987757,-0.28795692222755004,-0.1346949189901352,0.9874312281608582,-0.08268523961305618,-4.465309143066406,5.873829364776611,1.1716210842132568,-0.07494555413722992,0.8316605091094971,0.7343881130218506
432,-3.0086034734908784,-1.3450811195549504,-2.140434754624069,-0.02967577800154686,0.9746342897415161,0.22182722389698029,-1.7056137323379517,2.181824207305908,0.8097360730171204,-0.8685175776481628,0.2662714123725891,-0.4436594247817993
433,-2.34332581818108,-1.4743065849386787,-1.333131939576104,-0.06899415701627731,0.9953484535217285,0.0672408938407898,2.027846097946167,1.8792709112167358,-1.9191521406173706,-0.23110046982765198,-0.8541436195373535,-0.0039168596267700195
434,-1.279026015181256,-1.1650524504951985,-0.22653793488221755,-0.37802085280418396,0.9188090562820435,-0.11353545635938644,2.3869192600250244,-6.242219924926758,-3.6400868892669678,0.13709980249404907,2.4508352279663086,-0.03252166509628296
435,-1.396261653455341,-0.8780553657529975,-0.1476511792518602,-0.62894606590271,0.7694984078407288,-0.11090129613876343,-0.07962578535079956,1.2952907085418701,-1.331485390663147,0.21285420656204224,0.20054858922958374,0.14735448360443115
436,-1.3342267980239944,-0.9727516452435594,-0.1700541709346754,-0.5473458766937256,0.8264380693435669,-0.13195623457431793,-0.6723201870918274,-1.1361428499221802,3.072035551071167,0.9816721081733704,-1.071662187576294,0.25712406635284424
437,-1.5915539277488835,-1.1212933003153576,-0.31780595551543933,-0.4344242215156555,0.9006631374359131,0.009018899872899055,1.4300016164779663,-2.3829007148742676,-1.1131454706192017,-1.2865535020828247,0.14219868183135986,-2.3796396255493164
438,-1.2977373116619921,-1.2220360028304282,-0.14530411063676435,-0.32907170057296753,0.939797043800354,-0.09215793013572693,-0.09567686170339584,4.7667694091796875,2.9004428386688232,0.3269813060760498,0.43331068754196167,0.9371591806411743
439,-2.427655117069194,-1.439756581790204,-1.8437744661332103,-0.08556064963340759,0.9914265871047974,0.0987543836236,-5.119238376617432,1.2214362621307373,0.8940443992614746,-0.2088271677494049,0.6982247829437256,-0.193572536110878
440,3.031094198812258,-1.3025774052091172,-2.4478955528640816,0.029224177822470665,0.9642444252967834,0.2633986175060272,1.1108603477478027,-0.7980626821517944,0.07321351021528244,-0.979816198348999,-0.37218815088272095,-1.1942609548568726
441,-2.253960800099732,-1.4203418967766483,-1.2810697179777542,-0.11624936759471893,0.9887030720710754,0.0946163684129715,1.368822455406189,1.5824676752090454,-2.954611301422119,-0.059470854699611664,-0.6293891668319702,0.4043765068054199
442,-1.4059973448545215,-1.090174045736069,-0.2511375210876719,-0.4560670256614685,0.8867073655128479,-0.07584726810455322,1.087145447731018,-3.456080436706543,-3.144702434539795,0.0673646628856659,0.8515280485153198,0.6298176050186157
443,-1.3131921208797157,-0.9019682781578134,-0.2131922064751158,-0.5996066331863403,0.7845488786697388,-0.1579710692167282,-0.26115119457244873,2.1106135845184326,-0.0797010138630867,1.1847050189971924,-0.28755491971969604,0.5745207071304321
444,-1.494499750902816,-1.1225684598712697,-0.3010336254755446,-0.43210864067077637,0.9012165069580078,-0.033032529056072235,-1.2889175415039062,-1.3915902376174927,2.3416192531585693,-0.019978851079940796,-0.8539446592330933,0.10627472400665283
445,-1.8130804274294283,-1.0880349370985656,-0.4578442527568359,-0.4506681561470032,0.8857163786888123,0.11137765645980835,0.4983898401260376,-0.4637649953365326,0.8656622171401978,0.6693570613861084,1.0784409046173096,-1.2500038146972656
446,-1.2412381216137043,-1.3483171577141935,-0.3567427401997058,-0.2087739109992981,0.9753534197807312,-0.07140721380710602,-2.792651414871216,7.44304895401001,1.9910767078399658,-0.0032011717557907104,0.8319126963615417,0.8794668912887573
447,-3.0979337059755636,-1.2997711305950586,-2.0726103087070515,-0.011684617958962917,0.9634969234466553,0.26746392250061035,-0.5321693420410156,-8.118151664733887,0.7738569974899292,-0.2090642750263214,0.6917458772659302,-1.8041765689849854
448,-3.1397300139956665,-1.322943083663122,-2.036020802655653,-0.00045694896834902465,0.969441294670105,0.245323047041893,1.5002388954162598,-3.131006956100464,-2.769660234451294,-1.0611733198165894,-0.83458411693573,-0.6895827054977417
449,-1.6200208810225045,-1.2338857756474202,-0.416646119926127,-0.3301728665828705,0.9437804818153381,0.0162657517939806,3.319739580154419,1.9280003309249878,-3.7601799964904785,-0.2333952784538269,1.5126709938049316,-0.36514270305633545
450,-1.5362007553090236,-0.9822809623657237,-0.06647770184786672,-0.554794430732727,0.8317657709121704,-0.019201092422008514,0.6344562768936157,-0.015503066591918468,-1.2912445068359375,-0.1284635066986084,0.26068711280822754,0.10869383811950684
451,-1.3723485444743204,-1.0408333342608658,-0.03043839365308623,-0.4955802857875824,0.8628257513046265,-0.09965848922729492,-1.0298644304275513,-0.3070596754550934,2.7054355144500732,1.3172050714492798,-1.237490177154541,0.6836123466491699
452,-1.6326895114524822,-1.1457310442626856,-0.28658983814723815,-0.41159072518348694,0.911011815071106,0.025507241487503052,2.6130104064941406,-4.200958251953125,-0.8141000866889954,-0.25929245352745056,-0.45367538928985596,-0.9901525974273682
453,-1.5136422524825335,-1.2116019690781672,-0.10048873065015694,-0.35094594955444336,0.9361803531646729,-0.02007986046373844,1.3275262117385864,4.463354110717773,3.126817464828491,0.43406060338020325,0.34267401695251465,0.5607903003692627
454,-2.351811458445346,-1.4061650999375788,-1.5160915654850753,-0.11639361083507538,0.986478865146637,0.11537773907184601,-4.46489953994751,-0.14094167947769165,0.6528008580207825,-0.21832320094108582,0.6899585127830505,-0.05148911476135254
455,3.0955447078581098,-1.3064376299898375,-2.010307352444966,0.012027615681290627,0.9652602672576904,0.2610130310058594,1.3212491273880005,-0.7244344353675842,-0.38191473484039307,-0.9668768644332886,-0.4167984127998352,-1.1776237487792969
456,-1.9062816907699462,-1.3027743730055745,-0.421608977177668,-0.25006017088890076,0.9642966389656067,0.08718733489513397,2.1925368309020996,-0.2692921459674835,-2.8722898960113525,0.12963786721229553,-0.361635684967041,-0.6683793067932129
457,-1.406071561999733,-1.0247761869354644,0.1731837818157005,-0.5122610330581665,0.8545979857444763,-0.08515366911888123,0.38635656237602234,-5.794637203216553,-2.9490461349487305,-0.16381019353866577,0.7405559420585632,0.3065282106399536
458,-1.330522945782406,-0.9285028052157123,0.19432796973483354,-0.5818250775337219,0.8007239699363708,-0.14255091547966003,-0.3933056592941284,0.9839009046554565,1.3640391826629639,1.4972914457321167,-0.7237128615379333,0.3752932548522949
459,-1.4400589160216315,-1.1450223994099447,0.09340836084698446,-0.4095011353492737,0.9107193350791931,-0.05384423956274986,-2.1962146759033203,0.12587226927280426,-0.23180367052555084,-0.9075460433959961,-0.2893509268760681,0.19071555137634277
460,-1.5740505222935484,-1.1888452349654601,0.06034433031342729,-0.37272971868515015,0.9279391765594482,0.0012129397364333272,0.7671746611595154,3.3490662574768066,-0.24507294595241547,-0.08413368463516235,1.3160183429718018,0.8556596040725708
461,-1.1495927013962841,-1.3861160892402467,0.018098820821377357,-0.16758213937282562,0.9829950332641602,-0.07507964968681335,-2.8660008907318115,6.858896732330322,2.419532537460327,0.05552162230014801,0.6477116942405701,0.6821811199188232
462,-3.1119693866411775,-1.312890062008613,-1.9186432104801396,-0.007554507348686457,0.966926097869873,0.2549448013305664,0.10078079253435135,-1.6429554224014282,1.214373230934143,0.9644637107849121,0.2548908591270447,-3.7704172134399414
463,-2.9673568188701447,-1.426424522125149,-1.6953345882254842,-0.024940893054008484,0.9895964860916138,0.14169298112392426,2.8177220821380615,-3.930492401123047,-3.695507049560547,-0.9479595422744751,-0.8604155778884888,-0.973647952079773
464,-1.2760579771332405,-1.178874779491251,0.08490581652603604,-0.3654941916465759,0.924176812171936,-0.11095688492059708,2.66837215423584,2.565037727355957,-2.916271924972534,-0.2807155251502991,1.773378849029541,0.17959092557430267
465,-1.3741172621879516,-0.9400438021788731,0.1643681679749018,-0.5783827900886536,0.8075839281082153,-0.11524563282728195,0.11783840507268906,1.859104871749878,-0.9076998233795166,0.047163307666778564,0.25628936290740967,0.24648648500442505
466,-1.292707788962666,-1.0427001350589422,0.11860988830046242,-0.4845314025878906,0.8637679219245911,-0.13832689821720123,-1.6218972206115723,-0.6935563683509827,3.0666847229003906,1.0775642395019531,-1.1795181035995483,0.551809549331665
467,-1.4698150637584917,-1.1651985649032477,-0.08417173050218817,-0.39255771040916443,0.9188666939735413,-0.0397762693464756,0.2072632759809494,-0.3276870846748352,-0.8313338756561279,-0.2374471127986908,-0.4922463893890381,0.1536373496055603
468,-1.2635831653224985,-1.1587129891764665,0.165368701000994,-0.38176703453063965,0.9162883758544922,-0.12111843377351761,0.19251392781734467,3.4599263668060303,2.820371627807617,0.41852545738220215,0.3502826690673828,0.772760272026062
469,-1.6505407035732342,-1.4459938868695592,-0.6752407682123511,-0.12408392876386642,0.992222249507904,0.009916024282574654,-3.605429172515869,2.6207163333892822,1.3486244678497314,-0.11207637190818787,0.35621219873428345,0.20540070533752441
470,3.090197628411361,-1.3467426624537298,-2.034767964890193,0.01141410879790783,0.9750047922134399,0.22189028561115265,0.10897508263587952,1.2201117277145386,0.7665262222290039,-0.6716161370277405,-0.16163510084152222,-0.6009490489959717
471,-1.9131441509315408,-1.3959947343849366,-0.46328879543184875,-0.1638214886188507,0.9847610592842102,0.05838281661272049,1.8169620037078857,-2.208500623703003,-3.449705123901367,0.023226991295814514,-1.2873579263687134,0.06184125691652298
472,-1.2835609522579423,-1.0754813410123942,0.1255901004839083,-0.4558359682559967,0.8798190355300903,-0.13465596735477448,1.3257615566253662,-3.106881618499756,-2.2889814376831055,0.46311435103416443,2.1315183639526367,0.7165193557739258
473,-1.3542073549381453,-0.9324344320787213,0.13682622649857826,-0.5819585919380188,0.8030729293823242,-0.12805448472499847,-0.3055208921432495,1.4552353620529175,0.33932578563690186,0.5913428068161011,-0.06938457489013672,0.30337798595428467
474,-1.2382734717218817,-1.203933206976712,0.13771614023272538,-0.33904045820236206,0.93345707654953,-0.11708632111549377,-1.3163665533065796,1.6273829936981201,2.1778199672698975,-0.43258121609687805,-0.6485450863838196,-0.012659125030040741
475,-1.4657355932233307,-1.2182342734281222,-0.0189650704842863,-0.3433994948863983,0.9384911060333252,-0.036211129277944565,-0.49521318078041077,2.6948726177215576,-0.9217357635498047,0.031280964612960815,0.5069587230682373,1.2890797853469849
476,-0.949936333262447,-1.3754319760003408,0.09601848844806554,-0.15789638459682465,0.9809769988059998,-0.11292877048254013,-2.5330135822296143,6.338736534118652,2.787579298019409,0.26330408453941345,0.8417158722877502,0.8974441289901733
477,-3.1258616345546617,-1.3364886785260466,-2.2030094254708863,-0.003652107436209917,0.9726753234863281,0.23214048147201538,-2.118361234664917,-9.604374885559082,0.8021426200866699,0.38953161239624023,0.4066123366355896,-3.4852380752563477
478,3.0526824152396745,-1.4222100897407401,-2.1619728416957953,0.013144943863153458,0.9889813661575317,0.1474553346633911,2.817854166030884,-2.8040220737457275,-2.756361246109009,-0.784614086151123,-0.7980176210403442,-0.2280980348587036
479,-1.2331673333317676,-1.2722742362823845,-0.1421578182554799,-0.2775035798549652,0.9557722210884094,-0.09742357581853867,2.719621419906616,0.972162127494812,-3.83662486076355,-0.2644886076450348,1.5366594791412354,-0.6355171203613281
480,-1.345277025949008,-0.9732702185423996,-0.017982300579235177,-0.5483527183532715,0.826729953289032,-0.12580415606498718,0.007719402667135,0.10948702692985535,-1.3676453828811646,-0.26640552282333374,0.38658779859542847,0.11301733553409576
481,-1.341421988540144,-1.0571122378904785,-0.11791655212223334,-0.4785190522670746,0.870940089225769,-0.1117262989282608,-1.6436076164245605,-0.2108171135187149,3.3295536041259766,1.037631630897522,-1.168745994567871,0.6317458152770996
482,-1.476093974889852,-1.1862321187717184,-0.30516690002872204,-0.3734738230705261,0.9269620180130005,-0.03547496721148491,-0.2612212896347046,1.729426383972168,-1.595413327217102,-0.8778841495513916,0.04387831687927246,1.0130140781402588
483,-1.2554241935413546,-1.21030942582415,-0.053664189237472924,-0.33533361554145813,0.935725212097168,-0.10940632969141006,0.254404753446579,6.304752826690674,3.76662540435791,0.7570559978485107,0.631108283996582,0.7559517621994019
484,-2.6573626040077243,-1.4757767050425195,-1.9926836655555293,-0.04416836053133011,0.9954890608787537,0.08397038280963898,-4.933154582977295,-1.1551309823989868,0.9418138265609741,-0.3466397523880005,0.7625524401664734,-0.5290082693099976
485,2.90142336686304,-1.3163128893031073,-2.500960237471762,0.05988200008869171,0.9677934646606445,0.24451999366283417,0.6098724007606506,-0.764911949634552,0.15756718814373016,-0.9646061062812805,-0.33049488067626953,-1.023954153060913
486,-2.2057523358371727,-1.4303103437368594,-1.1347347459918973,-0.11273370683193207,0.9901480674743652,0.08305463939905167,1.8019874095916748,0.6532230377197266,-3.2167422771453857,0.08146843314170837,-0.6546225547790527,0.20901381969451904
487,-1.2295066140829232,-1.0908114047624449,-0.11561589469894623,-0.4351331293582916,0.8870018720626831,-0.1545543372631073,1.574184536933899,-4.700821399688721,-2.0741913318634033,0.15626341104507446,1.120154619216919,0.6623516082763672
488,-1.3246122996307912,-0.9544063442245558,-0.09660924638271026,-0.5606635212898254,0.8159707188606262,-0.140884131193161,0.03224792703986168,2.4461662769317627,0.059009354561567307,0.7283881306648254,-0.24254542589187622,0.4584195613861084
489,-1.3235968455889153,-1.1846374808547266,-0.11582061039019037,-0.36518386006355286,0.9263625741004944,-0.09215813875198364,0.4603407680988312,0.46178963780403137,2.145906448364258,-0.025761574506759644,-0.8003402948379517,-0.6916248202323914
490,-1.6281340014708086,-1.1204704341370373,-0.2801187235226779,-0.4345438778400421,0.9003053307533264,0.024943076074123383,-0.2925218939781189,-0.3790700137615204,-0.6249651908874512,0.6713602542877197,0.6494841575622559,0.44156384468078613
491,-0.9627669613819314,-1.339896936579521,-0.08408931062880552,-0.18783752620220184,0.9734609723091125,-0.1307329684495926,-3.3184654712677,8.028971672058105,2.2169671058654785,-0.02776920795440674,0.9679606556892395,1.0470842123031616
492,-3.105624517423579,-1.322175533036303,-2.275603910331397,-0.008848683908581734,0.9692527055740356,0.24590842425823212,0.3210681080818176,-12.530364036560059,0.8986384868621826,0.5155625343322754,0.5434731245040894,-2.8941476345062256
493,3.0843520035123766,-1.3736829179133432,-2.25210967217295,0.011203864589333534,0.9806360006332397,0.1955188512802124,1.5484696626663208,-1.9824906587600708,-3.1294384002685547,-1.1479531526565552,-0.7575067281723022,-0.1572803258895874
494,-1.4873457739519629,-1.2603490514038334,-0.37115895712887575,-0.30442172288894653,0.9521970152854919,-0.025463297963142395,3.005282163619995,1.7375253438949585,-3.1106369495391846,-0.22235745191574097,1.1669435501098633,-0.4852026104927063
495,-1.3779721858153022,-1.0120762902288163,-0.08477706040522914,-0.5202770233154297,0.8479343056678772,-0.10158410668373108,0.2262149155139923,-1.5667123794555664,-1.4666664600372314,-0.1551380157470703,0.1882137656211853,0.1700502634048462
