,attitude.roll,attitude.pitch,attitude.yaw,gravity.x,gravity.y,gravity.z,rotationRate.x,rotationRate.y,rotationRate.z,userAcceleration.x,userAcceleration.y,userAcceleration.z
0,-1.3137994867107132,-1.014313290093446,-0.9031766981900189,-0.5108559727668762,0.8491180539131165,-0.1342572569847107,-0.2824283540248871,2.4222521781921387,-0.8204501271247864,0.13291096687316895,0.12013566493988037,0.3729810118675232
1,0.05337393390638211,0.25279066816254236,-1.2136683743536245,0.05165308341383934,-0.25010690093040466,-0.9668394327163696,0.1060703694820404,-0.17566290497779846,-0.08393678814172745,0.04112035036087036,-0.11711111664772034,-0.22661149501800537
2,0.035455084216942934,0.22911537341759214,-1.2207044223329029,0.034521326422691345,-0.22711610794067383,-0.9732556343078613,-0.5256420969963074,-0.3965933620929718,-0.139207661151886,0.0032899491488933563,-0.11072874069213867,0.042454302310943604
3,-0.010113710202507835,0.20997211727505932,-1.2419714404538178,-0.009891411289572716,-0.2084326297044754,-0.9779866933822632,-0.3936101794242859,-0.17272791266441345,-0.157148540019989,0.07027044147253036,-0.1602807343006134,0.06873071193695068
4,-0.05439553472380893,0.1953761403011457,-1.2587806715734178,-0.05333433300256729,-0.19413553178310394,-0.979523777961731,0.08890736103057861,-1.0456396341323853,-0.4712904095649719,0.019963368773460388,-0.24618734419345856,0.16551315784454346
5,-0.19583783784203293,0.1929605412319688,-1.3671373117429575,-0.19097702205181122,-0.19176532328128815,-0.9626805782318115,-0.13914823532104492,-2.3797290325164795,-1.153275728225708,0.2971019148826599,-0.21353861689567566,0.016208410263061523
6,-0.39396058475654916,0.1408586191866568,-1.3718176106613262,-0.38004690408706665,-0.14039328694343567,-0.9142505526542664,-0.8501452207565308,-1.8877050876617432,0.7926275730133057,-0.04011911153793335,-0.4321317672729492,-0.22085076570510864
7,-0.6529652572788232,0.13593129396497763,-1.3687216875713717,-0.6019400954246521,-0.1355130672454834,-0.7869589328765869,0.5488041639328003,-1.6199419498443604,-0.325586199760437,-0.2449837327003479,-0.1377260535955429,-0.09077239036560059
8,-0.6122598587963994,0.23988108842140995,-1.4541021876304108,-0.5582619309425354,-0.2375871241092682,-0.7949188351631165,-0.38584965467453003,-0.017329802736639977,-2.2862892150878906,-0.1626242995262146,0.09433761239051819,0.20957642793655396
9,-0.6132627361802611,0.3374476612425013,-1.5451696578019634,-0.5430799126625061,-0.33107978105545044,-0.7716543078422546,0.1250067949295044,-0.05980908125638962,-1.3410618305206299,0.3067823648452759,-0.06654897332191467,0.3262655735015869
10,-0.5924284881746456,0.4098195981221644,-1.5948091672831333,-0.512139618396759,-0.39844387769699097,-0.7608912587165833,0.21111755073070526,-0.5172092318534851,-0.11295847594738007,0.41245388984680176,0.020102202892303467,0.24032241106033325
11,-0.5737524607487046,0.3901823527761188,-1.6044837538244454,-0.5019913911819458,-0.3803570568561554,-0.7767452001571655,-0.9753158688545227,0.6828481554985046,0.08761952072381973,0.4304581880569458,0.2653821110725403,0.23614156246185303
12,-0.49017600815158874,0.27447146762147195,-1.6320721994821887,-0.4531591832637787,-0.2710382342338562,-0.849226176738739,-1.7144432067871094,0.7358400225639343,1.2404589653015137,0.23328006267547607,0.3241083323955536,-0.363939106464386
13,-0.49822896606902484,0.0326053977112502,-1.5603721462054703,-0.477616548538208,-0.03259962052106857,-0.8779633641242981,-2.2634027004241943,-0.3362807631492615,1.1698477268218994,-0.6594226360321045,0.24785536527633667,-0.5439574122428894
14,-0.6131713788480885,-0.13466926304071877,-1.5539676100598356,-0.5702536106109619,0.1342625766992569,-0.8104223608970642,-0.6485345363616943,-1.7499035596847534,1.8936951160430908,-0.07755821943283081,-0.2073979675769806,-0.1557794213294983
15,-0.688473048433582,-0.3146020127006511,-1.3979090313817946,-0.6041750907897949,0.3094380497932434,-0.734316349029541,-0.3002999722957611,-0.720255970954895,2.2165117263793945,0.12007474899291992,-0.2940877079963684,0.24315118789672852
16,-0.6352954974404228,-0.4699727599880081,-1.1869934935224877,-0.5290776491165161,0.4528619945049286,-0.7176300287246704,0.3794890344142914,-0.1793479472398758,1.9323958158493042,-0.4297999143600464,-0.432140588760376,-0.1351684331893921
17,-0.5918265480437437,-0.47420852792207163,-1.0686877020041456,-0.4963184893131256,0.4566344618797302,-0.7383447289466858,0.013002807274460793,-0.3366265892982483,0.04298019781708717,-0.6201213598251343,-0.598831057548523,-0.1703314185142517
18,-0.668522113992001,-0.43041414117416343,-1.1237901934925032,-0.5632943511009216,0.4172472059726715,-0.7131649255752563,0.3792060315608978,-0.25150737166404724,-1.6368236541748047,-0.4354848861694336,-0.5119279623031616,-0.40487706661224365
19,-0.7006079238199411,-0.22146519524796335,-1.2575557626856042,-0.6289371848106384,0.21965926885604858,-0.7457799315452576,0.9100201725959778,0.2363007515668869,-2.8206989765167236,-0.6491236686706543,0.11261613667011261,-0.26647281646728516
20,-0.7622433681996071,-0.042305394404651205,-1.3933084480287403,-0.6899279356002808,0.04229277744889259,-0.7226415276527405,0.6779971122741699,-1.1475063562393188,-1.7105263471603394,-0.31580936908721924,0.2176254391670227,-0.11050361394882202
21,-0.8499197987115111,0.17967591601494565,-1.4904679712188138,-0.7391339540481567,-0.1787107139825821,-0.6494178175926208,0.6384211182594299,-0.5717706084251404,-2.4189350605010986,0.23638737201690674,0.6919858455657959,0.20308297872543335
22,-0.9006575813320661,0.29810188783835434,-1.5603867385750094,-0.7491693496704102,-0.29370632767677307,-0.5937017202377319,0.12231188267469406,-0.6310919523239136,-0.349545419216156,0.44815927743911743,0.7866873741149902,0.1612219214439392
23,-0.9222747662090153,0.24090695767605377,-1.5500334054469445,-0.7739625573158264,-0.2385834902524948,-0.5865662097930908,-1.0285284519195557,0.32372599840164185,1.4192320108413696,0.4096437096595764,0.7791565656661987,0.05339360237121582
24,-0.8867630584460325,0.014117491786673738,-1.481841654294219,-0.7749530673027039,-0.014117022976279259,-0.6318610906600952,0.24367792904376984,0.18830859661102295,3.118408679962158,-0.39754748344421387,0.160113126039505,-0.6404930353164673
25,-0.8652506221062326,-0.17131606979368888,-1.289702188361311,-0.7501139640808105,0.17047929763793945,-0.6389568448066711,-0.1456727683544159,-0.25837481021881104,2.629560708999634,-0.22258806228637695,-0.08234456181526184,0.09382140636444092
26,-0.8635201273505027,-0.3624185045759968,-1.2038201683893068,-0.7107577919960022,0.35453668236732483,-0.6075583100318909,-0.6085942983627319,0.0637940764427185,1.5459785461425781,0.1171908974647522,-0.41599905490875244,0.23773103952407837
27,-0.8069882936793826,-0.5083272050787084,-1.10319907397562,-0.6308913826942444,0.486716628074646,-0.604220986366272,-0.09775933623313904,0.15876799821853638,1.9311213493347168,-0.17664951086044312,-0.5220407247543335,-0.09859883785247803
28,-0.7122926861341415,-0.600641778462422,-1.0074602142867586,-0.5391782522201538,0.565172016620636,-0.6243935823440552,-0.27781733870506287,0.7304369807243347,-0.0935116782784462,-0.9196382164955139,-0.27002131938934326,-0.38659268617630005
29,-0.724860153192513,-0.5991645015886573,-1.105858325785949,-0.5475354790687561,0.5639526844024658,-0.6181926727294922,-0.05597994476556778,0.49626433849334717,-1.7684545516967773,-0.6704210042953491,-0.3992951512336731,-0.42978090047836304
30,-0.7419551278296161,-0.3811476262867291,-1.3033172724808006,-0.6272388696670532,0.3719859719276428,-0.6842498183250427,0.2630959749221802,0.6816774010658264,-2.827275276184082,-0.2139628529548645,0.12101021409034729,-0.005310118198394775
31,-0.7166436895975381,-0.19183603496883897,-1.461163698279735,-0.6448081731796265,0.19066156446933746,-0.7401828169822693,0.4766714870929718,0.815848708152771,-1.9774773120880127,0.07867658138275146,0.27082526683807373,0.2928256392478943
32,-0.7191962818773161,-0.0872364317064181,-1.529350645493785,-0.6562750935554504,0.08712582290172577,-0.7494745254516602,0.22605077922344208,-0.5640761852264404,-0.9211727380752563,0.25466376543045044,0.42256349325180054,0.47380924224853516
33,-0.7763970074801245,-0.061194973494406696,-1.5070705636434079,-0.69940185546875,0.06115678697824478,-0.7121074199676514,-0.3510796129703522,0.11220481991767883,0.09015775471925735,0.2867889404296875,0.8011174201965332,0.43737292289733887
34,-0.8064154298681193,-0.23289912551399122,-1.5026573478436764,-0.7023230791091919,0.2307993471622467,-0.6734047532081604,-1.333346962928772,-0.12969538569450378,1.739113688468933,-0.060738444328308105,0.6954702138900757,0.0818520188331604
35,-0.7974671572485805,-0.3963005326773426,-1.4809711252541153,-0.6601276397705078,0.38600826263427734,-0.6443827748298645,-0.022026631981134415,-0.5524312853813171,1.571696400642395,-0.3572216033935547,-0.09172722697257996,-0.7499958872795105
36,-0.8766516505068365,-0.5258774721635461,-1.2475611658308143,-0.6647507548332214,0.5019721388816833,-0.5532906651496887,2.1516659259796143,-3.034071207046509,3.8388707637786865,-0.14277487993240356,-1.031162142753601,-0.6724783778190613
37,-0.9122515029385514,-0.49119849672307164,-1.0369995604962694,-0.697376012802124,0.4716830253601074,-0.5396127104759216,-0.389182448387146,0.28634753823280334,-0.04209635406732559,0.12974905967712402,0.07442906498908997,0.6141824126243591
38,-1.0239530627370153,-0.6553999608818977,-1.2568998808809624,-0.6771897673606873,0.6094763875007629,-0.4122529625892639,-2.8150761127471924,-0.866298258304596,0.9736902713775635,0.17807477712631226,-0.25058966875076294,-0.2631773352622986
39,-1.1273729782644797,-0.6961007211976682,-1.2633060269255618,-0.6931368112564087,0.6412304639816284,-0.3292187452316284,0.6499485373497009,-0.5240440964698792,0.5944011807441711,-0.1673978567123413,0.12930786609649658,-0.2551165819168091
40,-1.143704904222334,-0.759395897725538,-1.3026169446660902,-0.6601059436798096,0.6884834170341492,-0.3004177510738373,-0.8795998692512512,1.4543707370758057,0.3880385160446167,0.5374710559844971,0.12021708488464355,0.33961760997772217
41,-1.0239866522676073,-0.8353247244887007,-1.2749292435373285,-0.573106050491333,0.7415144443511963,-0.34886354207992554,0.3389078676700592,0.9936814904212952,0.9819653034210205,0.05949527025222778,0.4389054775238037,0.22996702790260315
42,-1.1352092867910712,-1.0917132398252116,-1.3828895453225876,-0.41792184114456177,0.8874179720878601,-0.1945010870695114,-1.5673656463623047,-1.4695509672164917,1.7212679386138916,-0.07005423307418823,-0.2990696430206299,-0.5930507779121399
43,-1.3119379373566078,-1.2058844895634706,-1.394868800004531,-0.34497711062431335,0.9341552257537842,-0.0913497656583786,-0.18367834389209747,-2.0576648712158203,1.0859432220458984,-0.22965362668037415,-0.19443970918655396,0.05730742961168289
44,-1.4528423902511312,-1.2602431207052431,-1.4236300185739714,-0.3034617006778717,0.9521646499633789,-0.03596143424510956,0.4795006513595581,-0.8502529859542847,-0.46045035123825073,-0.8820393681526184,-0.11036789417266846,-0.308032751083374
45,-1.3394737106402732,-1.085360033317942,-1.3213628427185518,-0.4541662335395813,0.8844714760780334,-0.10697381943464279,0.4598844051361084,1.179381251335144,-1.3557051420211792,0.3132513165473938,0.23184633255004883,-0.12099248170852661
46,-1.2499677755894236,-0.9032583521626782,-1.3584816805074647,-0.587466835975647,0.7853481769561768,-0.19522063434123993,-0.569513738155365,1.2000243663787842,-1.2451748847961426,-0.0035823583602905273,0.07861971855163574,0.2867123484611511
47,-1.2037552134728706,-0.7089331327605689,-1.4486585334855404,-0.7084985375404358,0.651024341583252,-0.27239149808883667,0.6630915999412537,1.296359658241272,-2.9413959980010986,0.4990869164466858,-0.7468342781066895,0.23599934577941895
48,-1.1663550607403943,-0.45733178983031186,-1.5224275490903292,-0.8248472213745117,0.4415556788444519,-0.35306617617607117,-0.011370930820703506,0.03635620325803757,-1.5806547403335571,0.2795133590698242,-0.335919052362442,-0.09119349718093872
49,-1.187922982314126,-0.29743241652180297,-1.5322915445614533,-0.8868663311004639,0.2930663228034973,-0.35718390345573425,2.2732644081115723,-0.3077429234981537,-2.6099982261657715,-0.5291950702667236,-0.3084014356136322,-0.8223357796669006
50,-1.183906042266432,-0.04045828374294686,-1.5530762943063317,-0.9253290295600891,0.04044724628329277,-0.3770016133785248,-1.326608419418335,0.5732191205024719,-1.6635934114456177,0.11755925416946411,0.2616920471191406,0.07377898693084717
51,-1.1926904456927248,-0.04551290773977592,-1.6723173749767943,-0.9284031391143799,0.04549719765782356,-0.3687784969806671,-2.0557403564453125,-0.4676364064216614,0.155695378780365,0.4654514789581299,0.15767359733581543,0.3952372074127197
52,-1.300570533054802,-0.23888963608437055,-1.7817430296589585,-0.9363424777984619,0.23662394285202026,-0.25936803221702576,-0.6801771521568298,-1.3896288871765137,0.7179496884346008,0.2086966633796692,0.08007223904132843,0.08158794045448303
53,-1.4088217066933366,-0.3562856498344755,-1.8526813378663038,-0.9249317049980164,0.3487955629825592,-0.1511395275592804,-0.5974239110946655,-1.219800591468811,1.7827354669570923,0.12477606534957886,-0.005091339349746704,-0.5309131145477295
54,-1.4377851122465903,-0.493704163636698,-1.872606904325432,-0.8728054165840149,0.4738909602165222,-0.11678242683410645,-0.5805584192276001,1.2953037023544312,1.2110562324523926,-0.48998749256134033,-0.3636462092399597,-0.21796488761901855
55,-1.119201482601899,-0.4808687364544622,-1.8518351486629772,-0.7977144718170166,0.4625495672225952,-0.3869103193283081,1.322512149810791,3.958204984664917,0.2332402467727661,-0.2113950252532959,0.09610521793365479,-0.2081671953201294
56,-0.8592676081695885,-0.43550758162669373,-1.7289677975815871,-0.686669111251831,0.4218706488609314,-0.5920394062995911,2.3451623916625977,-1.655773639678955,0.6082245707511902,0.13881760835647583,0.5172619819641113,-0.6863266229629517
57,-1.0625854988002936,-0.2638186687111446,-1.3837103600930893,-0.8433905243873596,0.26076897978782654,-0.46977871656417847,0.8063711524009705,-1.819855809211731,0.02145543321967125,0.6348791718482971,-0.24514400959014893,1.1473910808563232
58,-1.0704120569981879,-0.2946288738419937,-1.4465617767760286,-0.8395911455154419,0.2903847396373749,-0.4590897262096405,-0.5388830304145813,0.8820514678955078,0.01440642960369587,0.3010321855545044,-0.3727211654186249,0.2120041847229004
59,-1.0569714740183136,-0.22355004986671945,-1.5991423021922104,-0.8492006063461304,0.22169272601604462,-0.4792812466621399,0.44822603464126587,-0.5448463559150696,-1.4202383756637573,0.10039085149765015,-0.21148459613323212,-0.6045962572097778
60,-1.0446949211969407,-0.18013566968005573,-1.637705750855699,-0.8507788181304932,0.17916305363178253,-0.4940403997898102,0.20906440913677216,-0.12597572803497314,-1.4602947235107422,-1.0490624904632568,0.5744990706443787,-0.2885065972805023
61,-1.1202835277815075,-0.1839304822986422,-1.712970475650811,-0.8850392699241638,0.18289515376091003,-0.42808258533477783,-0.7681139707565308,0.4925285875797272,1.313725471496582,0.5066366791725159,0.6087613105773926,0.343304842710495
62,-1.1451110018707702,-0.40351492337402733,-1.7084436768617504,-0.8376099467277527,0.39265337586402893,-0.37977999448776245,-0.47789865732192993,-0.9641894698143005,2.1568117141723633,0.21360182762145996,-0.054701775312423706,0.11124053597450256
63,-1.242116074136299,-0.5421090671176445,-1.7639042921181909,-0.8107666969299316,0.5159438252449036,-0.2765127718448639,-0.7994967103004456,-0.9229130744934082,0.45386582612991333,-0.039239346981048584,-0.2788984775543213,-0.178641676902771
64,-1.331110575893395,-0.6125201204162954,-1.7466241069462478,-0.794811487197876,0.574931263923645,-0.19423893094062805,0.8818344473838806,-0.6405799388885498,0.8941720128059387,-0.4148595333099365,-0.2907668352127075,-0.35695433616638184
65,-1.2287417640245997,-0.5422726277939903,-1.680180824139102,-0.8069166541099548,0.5160838961601257,-0.2873028516769409,-0.5114121437072754,1.552553415298462,-2.651984691619873,-0.9488053917884827,0.29827767610549927,-0.3173419237136841
66,-1.1259935659334852,-0.32485265037721883,-1.6940518892122693,-0.8554825782775879,0.31916913390159607,-0.40777525305747986,1.4946295022964478,0.4529057741165161,0.1185571700334549,0.6858506202697754,0.34615984559059143,0.29162538051605225
67,-1.0390712150189023,-0.31389931793630926,-1.5792052055838544,-0.8198168277740479,0.30876976251602173,-0.4822463393211365,0.8306612372398376,-0.32741254568099976,0.34717121720314026,0.3266528248786926,-0.36505943536758423,0.14992520213127136
68,-1.0079801674031268,-0.2840221091451038,-1.5754007684254994,-0.8118716478347778,0.28021886944770813,-0.5121932625770569,-0.9619725346565247,0.016200358048081398,-0.25418204069137573,0.31878387928009033,-0.371481716632843,-0.049848973751068115
69,-1.0642569614534592,-0.2703538254541826,-1.6484833094043687,-0.8426663279533386,0.2670724391937256,-0.46753156185150146,0.14251641929149628,-0.9972350597381592,-1.1878784894943237,-0.8864290714263916,-0.0699288547039032,-0.614667534828186
70,-1.0396061730653938,-0.18879531714986528,-1.711711823044482,-0.8468843102455139,0.18767575919628143,-0.4975588023662567,0.15895487368106842,-0.3174832761287689,1.4542721509933472,0.4805513620376587,0.5736004710197449,-0.1862790584564209
71,-0.9822556788708228,-0.4142244151997436,-1.6177876118506402,-0.7614094614982605,0.4024800658226013,-0.5081982612609863,-1.9883511066436768,0.20795436203479767,2.6272120475769043,0.1385762095451355,-0.03600972890853882,0.2884412407875061
72,-1.1146546444678846,-0.6538796627922542,-1.737057766512183,-0.7125779986381531,0.6082704067230225,-0.34962818026542664,-2.6597349643707275,0.4594886004924774,1.0876941680908203,0.09227770566940308,-0.19851088523864746,0.21728867292404175
73,-1.1911642531115636,-0.7494498234442738,-1.8836597403444184,-0.6799414753913879,0.6812360882759094,-0.2712872326374054,-0.13054408133029938,-0.2924340069293976,0.2976014316082001,-0.004979729652404785,-0.4588087797164917,-0.42137017846107483
74,-1.0670627160174173,-0.7285749127230836,-1.7487896327196797,-0.6534451842308044,0.6658070087432861,-0.36015307903289795,1.649075984954834,2.3619978427886963,0.6887696385383606,-0.377316415309906,-0.4353078007698059,-0.26040658354759216
75,-0.68732279442742,-0.6614220453907792,-1.6077024846595158,-0.5006727576255798,0.6142396330833435,-0.609947919845581,-0.20799261331558228,2.6923582553863525,0.35967209935188293,-0.5977769494056702,0.4795103669166565,0.12548136711120605
76,-1.0126519439834831,-0.9480642102155489,-1.7536414928076633,-0.4947412610054016,0.8122879862785339,-0.308900386095047,-1.7484338283538818,-3.007660388946533,0.724109411239624,0.3026483952999115,-0.06663674116134644,-0.08004617691040039
77,-0.7473447041095194,-0.8538305489728109,-1.7832903150066342,-0.4466269016265869,0.7538029551506042,-0.48198068141937256,-1.1840729713439941,2.2077603340148926,1.3025944232940674,0.3543722629547119,-1.3615758419036865,1.00796639919281
78,-0.9959977254006123,-1.04357742390208,-1.9083579938553388,-0.42227959632873535,0.8642096519470215,-0.2735356390476227,3.8320584297180176,-10.56658935546875,-1.5847134590148926,0.15894341468811035,1.0551629066467285,-3.1373071670532227
79,-0.9735757049936165,-1.0306723481094138,-1.9487272831463438,-0.4252277910709381,0.8576449155807495,-0.28918224573135376,1.0997287034988403,1.9686238765716553,0.6685386300086975,-0.1770213544368744,1.4147701263427734,-1.0477622747421265
80,-0.867083913270238,-1.172624193379202,-1.825995150814174,-0.295626163482666,0.9217712879180908,-0.250884473323822,-2.990300416946411,-2.396869659423828,0.8479373455047607,-0.033765316009521484,-0.18069767951965332,1.0421442985534668
81,-2.1294541478733873,-1.184780985947654,-2.924537069632891,-0.31925973296165466,0.9264166355133057,0.19956330955028534,-1.8653572797775269,-1.1926698684692383,-1.3463740348815918,-0.32986441254615784,-0.25931763648986816,0.1442171335220337
82,-2.2082079117073317,-1.0644719253552024,-2.4192179891576298,-0.38973739743232727,0.87453293800354,0.2886115610599518,2.656538724899292,-4.683113098144531,-0.6432790160179138,0.19051870703697205,0.04004824161529541,-0.26105430722236633
83,-2.404661068880426,-1.0741450036735176,-2.523892610313007,-0.32020628452301025,0.8791830539703369,0.3528527319431305,-1.4035475254058838,-0.7976515889167786,0.3837461471557617,-1.1867974996566772,-0.21278595924377441,-0.9713525772094727
84,-2.0660057098427114,-1.0890043495728183,-2.2430864355537725,-0.40770280361175537,0.886165976524353,0.2201995998620987,2.279282331466675,3.247669219970703,-1.5691168308258057,-0.7258114814758301,0.20921647548675537,-0.15220648050308228
85,-1.4891725576867787,-0.9887976585145534,-1.8479880497310839,-0.5478647947311401,0.8353656530380249,-0.044818367809057236,3.4980783462524414,-2.31536865234375,-1.0647807121276855,0.48992711305618286,1.1707990169525146,-0.6419644951820374
86,-1.2679284388739007,-0.8297410882219738,-1.510079393017376,-0.6443410515785217,0.737756609916687,-0.2013445794582367,0.24565142393112183,1.7958568334579468,-1.3251657485961914,0.102669358253479,-0.5862826704978943,0.4704333543777466
87,-1.0734298757764986,-0.763965023146389,-1.552709549125271,-0.6346108317375183,0.691789984703064,-0.34452253580093384,-1.161746859550476,2.7091293334960938,0.2048351764678955,0.9423958659172058,-0.35138165950775146,0.7835789322853088
88,-1.2434505897616777,-0.868779544836187,-1.7568794376852959,-0.611468493938446,0.7635414004325867,-0.20763139426708221,-1.2793083190917969,-1.54256010055542,-0.44164276123046875,-1.3333709239959717,0.17572855949401855,0.1892293244600296
89,-1.229553866485143,-0.8451743500313313,-1.6950988720531666,-0.6253373622894287,0.7480868101119995,-0.22207945585250854,-0.5213459730148315,1.1685398817062378,0.2743684649467468,1.0200974941253662,0.11371427774429321,1.8230620622634888
90,-1.3186004291361464,-0.9846221408934076,-1.6429433303975711,-0.5356793403625488,0.8330631256103516,-0.13803508877754211,-0.7301023006439209,-0.03402857109904289,1.3021361827850342,0.08546870946884155,0.565221905708313,0.8784220218658447
91,-1.9233861561602759,-1.063255025487792,-2.38560990009231,-0.45613011717796326,0.8739421367645264,0.16784046590328217,-4.127831935882568,-1.3229725360870361,0.7599942684173584,0.18615639209747314,-0.17389947175979614,-1.0618834495544434
92,-2.1739022901555836,-1.09841822323379,-2.4589997910160597,-0.37473204731941223,0.8904887437820435,0.25808030366897583,-0.5984290838241577,-1.8876076936721802,0.6226539015769958,-0.1852501928806305,-0.12118655443191528,-0.11069566011428833
93,-2.375409040794899,-1.122332811915513,-2.5702258436231524,-0.30064114928245544,0.9011143445968628,0.31242233514785767,0.27643635869026184,-0.31541773676872253,0.014257336966693401,-0.8581875562667847,0.00045114755630493164,-0.20136895775794983
94,-1.9251686464529945,-1.1083705154844106,-2.1863598573224885,-0.4184006154537201,0.8949729204177856,0.15480461716651917,2.223104953765869,3.5880353450775146,-1.914655089378357,-0.5386916399002075,0.45159995555877686,0.022151589393615723
95,-1.4333637287868417,-0.9626192809903104,-1.770391412369858,-0.565984845161438,0.8206909894943237,-0.07827822118997574,2.483819007873535,-2.334712266921997,-1.4496968984603882,0.2990323305130005,0.6925688982009888,-0.35299623012542725
96,-1.2087409929570598,-0.8061828777419202,-1.5725250636451542,-0.6473797559738159,0.7216500043869019,-0.24519585072994232,0.3285484313964844,1.2630558013916016,-1.5030505657196045,0.24375420808792114,-0.5531318783760071,0.6296563148498535
97,-1.0278885177295665,-0.7825164998961374,-1.6492692227925283,-0.6071739792823792,0.7050662040710449,-0.36636221408843994,-1.6011019945144653,3.046994209289551,0.6406185030937195,0.8187829852104187,-0.3605991005897522,0.7499834299087524
98,-1.1956269090770473,-0.8375870324496232,-1.8221630670904323,-0.622707724571228,0.7430303692817688,-0.24523615837097168,-0.8297338485717773,-1.5524555444717407,-0.7956258654594421,-0.6386600136756897,-0.2936590909957886,0.04615476727485657
99,-1.2759245152775769,-0.8614060232130928,-1.8876587039898438,-0.6232576370239258,0.7587591409683228,-0.18929967284202576,1.9463056325912476,-0.5625420808792114,0.20952360332012177,-0.7511166930198669,0.9704278111457825,-1.8497170209884644
100,-1.4810849734966671,-0.9695736186617728,-1.8756231641727068,-0.563376784324646,0.8246446251869202,-0.05067731812596321,0.7077460885047913,-2.340522527694702,0.9798052310943604,0.6088326573371887,-0.043959081172943115,0.4538755416870117
101,-1.7061243809314706,-1.0702337443084802,-2.196151531123728,-0.47553157806396484,0.8773127198219299,0.06474851071834564,-3.9414453506469727,-0.7376800775527954,0.9076805710792542,-0.22953134775161743,-0.07694333791732788,-0.09248899668455124
102,-2.183684856179308,-1.0900676124328532,-2.485773899557819,-0.37825947999954224,0.8866581916809082,0.2660023272037506,0.7952477335929871,-2.10845685005188,0.313514769077301,-0.10725998878479004,-0.16314733028411865,-0.09125861525535583
103,-2.4598852768663706,-1.099982221515859,-2.606082923742546,-0.28582969307899475,0.8911992907524109,0.352228581905365,-0.056592635810375214,-0.44166144728660583,0.44462189078330994,-0.7682473659515381,-0.07155835628509521,-0.5350746512413025
104,-2.2752155147733704,-1.1155619043300795,-2.4175870343994363,-0.33502545952796936,0.8981579542160034,0.28472843766212463,2.1230878829956055,2.1346096992492676,-1.726256251335144,-0.7468990087509155,0.05161011219024658,-0.7217401266098022
105,-1.561493500446306,-1.009675773993939,-1.9000394468694835,-0.5321123003959656,0.8466593623161316,-0.0049502914771437645,1.8235982656478882,-0.504302978515625,-1.7144509553909302,-0.12616711854934692,1.2267963886260986,-0.027489900588989258
106,-1.3083836115612855,-0.8649283244368046,-1.5527526937945093,-0.6264877915382385,0.7610487937927246,-0.1682787984609604,0.657427966594696,0.14408844709396362,-0.8251104950904846,0.2557450532913208,-0.19476467370986938,0.5694018006324768
107,-1.0968341097409853,-0.7399918434093419,-1.5600456769987374,-0.657069742679596,0.674281895160675,-0.3370508551597595,-1.210810899734497,3.578686237335205,-0.08880113065242767,0.727748453617096,-0.5042227506637573,0.8695826530456543
108,-1.0879918251484695,-0.8656993835478123,-1.8157546189776996,-0.5740265846252441,0.7615486979484558,-0.3008936643600464,-0.47719115018844604,-3.4461445808410645,0.19116295874118805,0.2531190514564514,0.3162252902984619,-2.825448989868164
109,-1.2407719658894576,-0.8662434533744402,-1.8818065432272437,-0.6127399802207947,0.7619011998176575,-0.20989535748958588,0.20914989709854126,-1.10212242603302,0.9186331033706665,0.29273271560668945,0.5484471917152405,0.17422033846378326
110,-1.289903599263812,-0.9397568671132374,-1.7408555661360177,-0.5668619871139526,0.8074146509170532,-0.16355165839195251,0.5327682495117188,-3.6406116485595703,1.5369689464569092,0.5557383298873901,-0.14866220951080322,0.4437946081161499
111,-1.495336686333552,-1.0728874159587727,-1.9419244227505976,-0.4762301445007324,0.8785831928253174,-0.03600452095270157,-4.979031562805176,-0.564176082611084,0.568173348903656,-0.3374294936656952,-0.12878161668777466,0.10517257452011108
112,-2.075841400749902,-1.0613326531210874,-2.4263395027726813,-0.42682021856307983,0.8730062246322632,0.2359766960144043,0.0627281665802002,-2.6424903869628906,0.14405611157417297,0.20440801978111267,-0.23109936714172363,-0.1539301574230194
113,-2.3309656126003824,-1.095960193045491,-2.498716949453879,-0.33133646845817566,0.8893676400184631,0.3150259852409363,0.06818993389606476,-1.947211503982544,0.6162444949150085,-0.40349629521369934,-0.30043941736221313,-0.532982587814331
114,-2.3556128456309224,-1.1297494360958562,-2.4616101409050137,-0.3020299971103668,0.9043052792549133,0.3016788363456726,1.015894889831543,1.0761021375656128,-0.7660156488418579,-0.9434229135513306,0.008826494216918945,-0.7519198656082153
115,-1.5469902211653228,-1.0418944941768988,-1.8612379454608912,-0.5044425129890442,0.8633617162704468,-0.012011080980300903,2.2281301021575928,2.4097583293914795,-1.8646067380905151,-0.34977495670318604,0.8826099038124084,0.414766788482666
116,-1.3014791298146124,-0.8734924006124906,-1.5548869123596787,-0.6190053224563599,0.7665762901306152,-0.17085981369018555,0.572633683681488,1.7812026739120483,-0.6634894013404846,0.4733755588531494,0.03791278600692749,1.2690043449401855
117,-1.1550750858065642,-0.7453650668638335,-1.5732490383875217,-0.6722503900527954,0.6782401204109192,-0.2967650890350342,-0.6064209342002869,2.3578732013702393,-0.5324933528900146,0.7147156596183777,-0.7195457220077515,0.5585906505584717
118,-1.0596423629789429,-0.8650653427241504,-1.8021463346643476,-0.5656880736351013,0.7611376643180847,-0.3172801434993744,-1.8930938243865967,-1.6831681728363037,0.709592342376709,0.38368117809295654,-0.1618027687072754,-1.8011432886123657
119,-1.2187834501679538,-0.8443170826509825,-1.9128557640226336,-0.6235110759735107,0.7475176453590393,-0.22902263700962067,-0.9728913307189941,-1.385593295097351,0.04067038744688034,0.8838412761688232,-0.025120794773101807,0.488498330116272
120,-1.3273804148791237,-0.9197990361574242,-1.838987570432559,-0.588115930557251,0.7954798340797424,-0.14605283737182617,0.518257737159729,-3.5892333984375,1.24001145362854,0.8279078006744385,0.03444570302963257,0.33410215377807617
121,-1.495948260423202,-1.0773860423140684,-1.915241778413497,-0.4723059833049774,0.8807227611541748,-0.035417355597019196,-3.209489583969116,1.6768577098846436,0.8378582000732422,-0.2775871753692627,0.10414046049118042,0.6767594814300537
122,-2.1027533679048163,-1.0934758463611502,-2.4813339440469275,-0.3959187865257263,0.8882290720939636,0.23301757872104645,1.0965431928634644,-2.597524404525757,0.03514285758137703,-0.1023111343383789,-0.17570477724075317,-0.38148561120033264
123,-2.3784994124739134,-1.11951612804482,-2.5382250267799598,-0.3014272451400757,0.8998895287513733,0.31518295407295227,-0.948398232460022,-1.468242883682251,0.930908203125,-0.34359225630760193,-0.25918829441070557,-0.5357030630111694
124,-2.3942378437671277,-1.1534129758425036,-2.5377020040910416,-0.2755301594734192,0.9141528010368347,0.29733437299728394,1.7138121128082275,1.1142586469650269,-1.0636847019195557,-0.9412513971328735,0.002869844436645508,-0.9079452753067017
125,-1.486613867003887,-1.0361001153009568,-1.866471430587036,-0.5077751278877258,0.8604234457015991,-0.04284701868891716,1.5580179691314697,0.43899187445640564,-2.389756679534912,-0.4552832841873169,1.2526593208312988,0.10035741329193115
126,-1.2868825238054933,-0.8559112509105551,-1.607697521111384,-0.6292875409126282,0.7551685571670532,-0.18362393975257874,0.13882164657115936,1.4656131267547607,-1.1444652080535889,0.22857648134231567,-0.08211863040924072,0.47300684452056885
127,-1.0963679763935994,-0.7163907530166963,-1.638654207356569,-0.6708844900131226,0.6566669344902039,-0.34453240036964417,-0.7829138040542603,3.459523916244507,-0.5574333071708679,0.7541211843490601,-0.6249744296073914,0.7909740209579468
128,-1.008707464478938,-0.8457112181654182,-1.8793980396055552,-0.5611618161201477,0.7484430074691772,-0.35345524549484253,-2.3236348628997803,-3.59851336479187,0.3990728259086609,0.3140915036201477,-0.26750117540359497,-1.5061028003692627
129,-1.2336526111571497,-0.8398611143904504,-1.982132962083893,-0.6299846172332764,0.7445504069328308,-0.22082623839378357,1.1873817443847656,-1.5357513427734375,-0.43700486421585083,-0.7601978778839111,0.7895072102546692,0.3714914917945862
130,-1.324603585260224,-0.9265723356308028,-1.8624508275781844,-0.5824692249298096,0.7995660901069641,-0.14636889100074768,0.44715914130210876,-2.7174768447875977,2.6541693210601807,0.5262558460235596,0.2549383044242859,0.5535343885421753
131,-1.6326865119776273,-1.1103118157995986,-2.188859917153859,-0.4435318112373352,0.8958373069763184,0.02748536877334118,-5.217918395996094,-1.9722956418991089,1.0169810056686401,-0.33491069078445435,-0.30553555488586426,-0.07062184065580368
132,-2.0838258679485757,-1.127241516870255,-2.552062537364432,-0.3739047348499298,0.9032317996025085,0.21063658595085144,0.009643848054111004,-1.60709810256958,0.0818401575088501,-0.07183504104614258,-0.31083977222442627,-0.00015673041343688965
133,-2.409573272407585,-1.123512302730864,-2.7077182189719706,-0.2890833914279938,0.9016251564025879,0.3217182457447052,0.020826663821935654,-0.9716725945472717,0.7284333109855652,-0.5229893326759338,-0.06974655389785767,-0.5786610841751099
134,-2.3152282016552546,-1.1721967863646992,-2.5854345964914205,-0.2854578495025635,0.9216054677963257,0.26297786831855774,2.290334701538086,0.8267279267311096,-1.2960540056228638,-0.980853796005249,-0.06659448146820068,-0.8639605045318604
135,-1.4890046276562052,-1.0249579121174583,-2.000882688738199,-0.5173995494842529,0.8546923398971558,-0.042413610965013504,0.6016293168067932,-0.10973599553108215,-2.072539806365967,-0.5193283557891846,1.2369977235794067,0.007425189018249512
136,-1.2725441269925717,-0.8316201327485433,-1.8221141575501465,-0.6439374685287476,0.7390238046646118,-0.19796068966388702,0.5287693738937378,1.6848866939544678,-1.7878823280334473,0.04251223802566528,-0.09417212009429932,0.38015061616897583
137,-1.0556128948447556,-0.7055610238346028,-1.8982992200320148,-0.66243976354599,0.6484609842300415,-0.37506264448165894,-1.234574556350708,3.672921895980835,-0.1735052913427353,1.1172126531600952,-0.399086594581604,0.9605576395988464
138,-1.0431299283109114,-0.8361787591804374,-2.0784388981699915,-0.5791317820549011,0.7420871257781982,-0.33751019835472107,-1.5858029127120972,-2.27642560005188,-0.25109341740608215,-1.2476657629013062,1.1191799640655518,-0.842619776725769
139,-1.2562947521188454,-0.8332479514298098,-2.126628639922272,-0.6394909024238586,0.740119457244873,-0.2080252319574356,0.5674540996551514,-0.6896976232528687,-0.13590623438358307,-0.8482562303543091,1.2530598640441895,0.3902914822101593
140,-1.4480276730802404,-0.9527342282479971,-2.146952249758969,-0.575095534324646,0.8150029182434082,-0.07096057385206223,-0.28922203183174133,-1.1881600618362427,1.8904321193695068,0.278922438621521,0.3163447380065918,0.542335033416748
141,-1.8859135159595235,-1.0530332868838614,-2.5904010803595385,-0.47056666016578674,0.8689284920692444,0.1533948928117752,-3.876986503601074,-2.2484657764434814,0.8413293361663818,-0.1236257553100586,-0.3283708095550537,-0.5550520420074463
142,-2.1224744140414384,-1.0743939610857656,-2.662384576930206,-0.40560972690582275,0.8793016672134399,0.24961890280246735,-0.092204749584198,-3.0760812759399414,-0.018949296325445175,-0.1462855041027069,-0.19480746984481812,-0.16384929418563843
143,-2.4407207300044034,-1.0752039797532367,-2.818939630620844,-0.30667635798454285,0.8796871900558472,0.3634553551673889,0.48185408115386963,0.152091845870018,0.4391120374202728,-1.0210518836975098,0.006161630153656006,-0.7134004235267639
144,-2.1642729431116865,-1.0803976106615645,-2.602746418929584,-0.39044129848480225,0.8821451663970947,0.26339271664619446,2.3552708625793457,3.154562473297119,-2.2283520698547363,-0.8249212503433228,0.1567801833152771,-0.5345567464828491
145,-1.5271950346405956,-0.9346360490486412,-2.0555297975259004,-0.5935466289520264,0.8043829202651978,-0.02589581161737442,1.8655211925506592,-3.2082431316375732,-1.4974348545074463,0.45357775688171387,1.3213495016098022,-0.15228110551834106
146,-1.2793035517937206,-0.7999641995312745,-1.7635765230781546,-0.6673412919044495,0.7173311710357666,-0.20022855699062347,1.218727707862854,1.0131332874298096,-1.9603577852249146,0.10456663370132446,-0.5442355275154114,0.6465939283370972
147,-1.0173332963898025,-0.7158742314234319,-1.7984679658464435,-0.6418769955635071,0.6562772989273071,-0.3966030478477478,-1.1009082794189453,3.5364513397216797,0.23026452958583832,0.9974983930587769,-0.3279845118522644,0.8639035224914551
148,-1.1741614497629216,-0.8252334028494787,-1.9808890708155134,-0.6257197856903076,0.7347061634063721,-0.2620715796947479,-1.606441617012024,-2.6072847843170166,0.043369244784116745,-1.3879063129425049,0.5348708033561707,-0.4145794212818146
149,-1.293428752217478,-0.8527976016216993,-2.0793372781945325,-0.6327341794967651,0.7531238198280334,-0.18014346063137054,2.31691575050354,-0.14752919971942902,0.7729626893997192,-0.2865467071533203,1.2612345218658447,-1.9666613340377808
150,-1.3770262306772432,-0.9886888710178474,-2.016505638477993,-0.5394964814186096,0.8353058695793152,-0.10586660355329514,-0.4093330502510071,-2.2379820346832275,2.155982732772827,0.5197973847389221,-0.20826119184494019,0.45436209440231323
151,-1.6025488415325682,-1.1144102719347262,-2.3092781574252252,-0.4404847323894501,0.8976510763168335,0.013991200365126133,-3.1678109169006348,0.09485901147127151,0.29305827617645264,-0.22362354397773743,-0.157462477684021,0.13911545276641846
152,-2.197696313509163,-1.0954974690494372,-2.6586826652751157,-0.3705904483795166,0.8891559839248657,0.2684473395347595,1.2591543197631836,-1.590351939201355,-0.3445156216621399,-0.10813876986503601,-0.06458646059036255,-0.3082271218299866
153,-2.4966809951719897,-1.1090990756184107,-2.7757725406579317,-0.267783522605896,0.8952977061271667,0.3559974133968353,-0.6526792645454407,-1.3280928134918213,0.6888424754142761,-0.7815786600112915,-0.09143418073654175,-0.6638435125350952
154,-2.223776244420141,-1.1044156692463347,-2.5597032896653333,-0.35715198516845703,0.8932015895843506,0.2731916606426239,2.0890443325042725,2.6748926639556885,-2.510451078414917,-0.949885368347168,0.36837995052337646,-0.4766065776348114
155,-1.5325651806293066,-0.9590164736402116,-1.991653005582318,-0.573905885219574,0.818627119064331,-0.02195177599787712,1.701949119567871,-2.950190782546997,-1.130533218383789,0.7025679349899292,1.2251198291778564,-0.5371302366256714
156,-1.2707629651839403,-0.8014548097731329,-1.6784280168098318,-0.664584755897522,0.7183688879013062,-0.2056044489145279,1.331017255783081,1.5835671424865723,-2.340052366256714,-0.18211013078689575,-0.7645115256309509,0.4184951186180115
157,-0.9454342785253648,-0.7445717673429424,-1.7493581429299863,-0.5962088704109192,0.6776569485664368,-0.43048369884490967,-1.473986268043518,3.663145065307617,0.1041993722319603,1.0116751194000244,-0.354170560836792,0.9011104702949524
158,-1.121409331757688,-0.7683347655834767,-1.8945305385359925,-0.6476751565933228,0.6949387788772583,-0.31237322092056274,0.8099451661109924,-1.0843225717544556,-1.7556495666503906,-2.6422266960144043,0.4818800687789917,-1.671971321105957
159,-1.2250693199675966,-0.8769991191099882,-1.9373080511304652,-0.6016237735748291,0.7688233852386475,-0.21670107543468475,-0.13324537873268127,-3.8706214427948,3.426597833633423,0.9304659962654114,0.7365781664848328,0.7944141030311584
160,-1.6694123928013356,-1.1188317156693657,-2.0598924321590943,-0.4346120357513428,0.8995908498764038,0.04299921169877052,-2.307378053665161,-0.4840610921382904,1.7149831056594849,-0.490650475025177,0.004507780075073242,0.61737060546875
161,-2.1318789331565307,-1.159318798361755,-2.4799012779018565,-0.3386411666870117,0.9165308475494385,0.21282199025154114,-1.270538568496704,-0.2987223267555237,-0.10866567492485046,-0.3374452292919159,-0.27724868059158325,-0.034706130623817444
162,-2.2984316761875876,-1.1183441130833016,-2.5444256949015456,-0.32645779848098755,0.8993777632713318,0.29076552391052246,-1.0444949865341187,-2.4493186473846436,0.28774723410606384,-0.054065823554992676,0.03493297100067139,-0.20859700441360474
163,-2.4053097671260844,-1.1309641693677304,-2.6507242196104093,-0.2859324514865875,0.9048231244087219,0.3154955208301544,1.533166766166687,0.41155797243118286,-0.4681534767150879,-0.8193836808204651,-0.11365509033203125,-0.755894660949707
164,-1.602677620044634,-1.0400879687193363,-2.1066488728979067,-0.5058870911598206,0.8624487519264221,0.016133802011609077,1.6667771339416504,3.473473310470581,-2.2624759674072266,-0.36506927013397217,1.0700920820236206,0.37764978408813477
165,-1.337530574878918,-0.8553303912771211,-1.7518054562406582,-0.6382033228874207,0.7547876834869385,-0.15163123607635498,0.8612942695617676,-0.19296255707740784,-1.3007698059082031,0.23607319593429565,0.09968924522399902,1.21355140209198
166,-1.1462477540652547,-0.7043528190491078,-1.7465026856674248,-0.6943812966346741,0.647540807723999,-0.31388768553733826,-0.5045170783996582,3.305595636367798,-0.2679222822189331,0.9762722253799438,-0.5479467511177063,0.6735068559646606
167,-1.0244695976998488,-0.8167897982966297,-1.9115067630426708,-0.584918737411499,0.7289519906044006,-0.3556671738624573,-0.7816874980926514,-2.375068187713623,0.06128031387925148,-0.10233712196350098,-0.29863888025283813,-1.8874053955078125
168,-1.2178615818303682,-0.8107400538712559,-2.006285094971983,-0.6464961767196655,0.724797248840332,-0.2381419539451599,1.4461233615875244,-0.3626692593097687,-0.4481014609336853,-1.1378055810928345,1.386469841003418,-0.2047138810157776
169,-1.3432278672405482,-0.9166582047799581,-1.940200287235343,-0.5927877426147461,0.7935726642608643,-0.1372777670621872,0.2689145505428314,-3.000994920730591,2.70184588432312,0.4550008177757263,0.41106295585632324,0.4413701295852661
170,-1.618101731699861,-1.1082666433446173,-2.153427866789988,-0.44571438431739807,0.8949266076087952,0.021100440993905067,-3.4492039680480957,1.4394266605377197,0.9520411491394043,-0.35486850142478943,-0.1497025489807129,0.37050116062164307
171,-2.0814461663949104,-1.1193143846469034,-2.5418520088805248,-0.3806392550468445,0.89980149269104,0.21323874592781067,0.5561544299125671,-0.7694374918937683,-0.24025946855545044,-0.20148351788520813,-0.36286014318466187,-0.07716099917888641
172,-2.316402407557121,-1.1186827406124522,-2.5802217465773833,-0.32095688581466675,0.8995257616043091,0.29637882113456726,-1.2341015338897705,-1.652332067489624,0.7723129987716675,-0.15586504340171814,-0.15814685821533203,-0.13899967074394226
173,-2.3964104887766275,-1.131455732336158,-2.6599506805727873,-0.28842705488204956,0.9050323367118835,0.31261146068573,1.616663932800293,0.7487542033195496,-0.7983613610267639,-0.7956488132476807,-0.012729048728942871,-0.8109636306762695
174,-1.5465819952461155,-1.0245943373866584,-2.0496757514100667,-0.5192934274673462,0.8545035123825073,-0.012576800771057606,1.7794231176376343,3.11791729927063,-2.3308699131011963,-0.3393796682357788,1.1322365999221802,0.41467636823654175
175,-1.2956134417351028,-0.8532710405267105,-1.7698110652787373,-0.6327832341194153,0.7534351944923401,-0.17866384983062744,0.6621848940849304,0.23000282049179077,-1.036200761795044,0.1817333698272705,0.020582079887390137,0.43737661838531494
176,-1.1244021732298726,-0.7064011520886975,-1.753643763523586,-0.6861613988876343,0.6491003036499023,-0.32840749621391296,-0.46495234966278076,3.1551578044891357,-0.5205156207084656,0.8690226674079895,-0.45442867279052734,0.7718888521194458
177,-1.0199620665571427,-0.8116601818081683,-1.9395874499078423,-0.5864880681037903,0.7254308462142944,-0.3602524399757385,-0.0413452684879303,-3.025169849395752,-0.15735197067260742,-0.07458370923995972,0.29289495944976807,-3.0305557250976562
178,-1.2806679905304212,-0.8161877392222642,-2.0615012866652602,-0.6563752889633179,0.7285397052764893,-0.19596251845359802,1.8458291292190552,0.2969284951686859,0.1421196460723877,-0.6747099161148071,1.0231996774673462,-0.6721863150596619
179,-1.3604862195571026,-0.876628718818501,-1.9775821669399047,-0.6256498098373413,0.7685865163803101,-0.1335553675889969,0.6899951696395874,-2.4550979137420654,1.9649516344070435,0.7407926321029663,-0.010178923606872559,0.4348401427268982
180,-1.6089185978917082,-1.0684444310428622,-2.189306859225174,-0.4811384677886963,0.8764525651931763,0.018350981175899506,-3.2310094833374023,1.306052803993225,1.0430926084518433,-0.3815018832683563,-0.11062920093536377,0.4187675714492798
181,-2.1356809014517757,-1.0875475401498558,-2.554073537920864,-0.39247411489486694,0.8854900002479553,0.2487402856349945,0.9001549482345581,-1.0612096786499023,-0.24145309627056122,-0.12931549549102783,-0.31192725896835327,-0.201605886220932
182,-2.4057230212353358,-1.1096645349217753,-2.650943417411751,-0.2986724376678467,0.895549476146698,0.32982656359672546,-1.1003950834274292,-1.7344845533370972,0.8109278678894043,-0.45689696073532104,-0.24772250652313232,-0.2994769215583801
183,-2.374963754491259,-1.1343747304340035,-2.5986196735530926,-0.2932313084602356,0.9062700271606445,0.3044506907463074,1.8922393321990967,1.2326791286468506,-1.2310839891433716,-0.7882658839225769,0.10004717111587524,-0.8594890832901001
184,-1.533014475124742,-1.0018888875451137,-1.9941289492760312,-0.5383274555206299,0.8424900770187378,-0.020348692312836647,2.188162326812744,-0.2720507085323334,-2.053670644760132,-0.2832515239715576,1.2958003282546997,-0.12709695100784302
185,-1.301955439563268,-0.8317270536771122,-1.686418756682214,-0.6494043469429016,0.7390958070755005,-0.1789178103208542,0.7956448793411255,1.1336044073104858,-1.2170695066452026,0.21460509300231934,-0.09651762247085571,0.4074029326438904
186,-1.0526853038411264,-0.7105938794236618,-1.7080211380940749,-0.6584951281547546,0.6522840261459351,-0.3753792941570282,-0.7704180479049683,3.6292941570281982,-0.024888481944799423,0.9631521105766296,-0.48838937282562256,0.9312417507171631
187,-1.1268791828155171,-0.8537587582594806,-1.9231532761068242,-0.5934606790542603,0.7537558078765869,-0.28223487734794617,-1.1133379936218262,-2.532661199569702,-0.14482057094573975,-1.1403038501739502,0.8875710368156433,-2.3258278369903564
188,-1.1792117249265683,-0.8401698081677916,-1.9525233945347755,-0.6168224811553955,0.7447564601898193,-0.2546912431716919,0.6067097187042236,0.9235063791275024,0.5918993353843689,0.9665693044662476,0.5932714343070984,1.1284857988357544
189,-1.3024635718171673,-0.9933687433628078,-1.8832900147951739,-0.5263359546661377,0.8378696441650391,-0.14472344517707825,-0.7622911930084229,-1.1133946180343628,2.4412119388580322,0.09332209825515747,0.6638240218162537,0.7427306175231934
190,-1.9700036920104858,-1.1361101109175746,-2.533063545733856,-0.3880123794078827,0.9070022106170654,0.1636865884065628,-3.1847620010375977,-4.933779716491699,1.31155264377594,-0.017154216766357422,-0.4466446042060852,-1.4286249876022339
191,-2.1072231249269833,-1.1545006960034279,-2.5939613504372083,-0.3475770354270935,0.9145931601524353,0.2066633552312851,-0.8707287907600403,-1.7542556524276733,0.09497112780809402,-0.23155507445335388,-0.17666274309158325,0.0428178608417511
192,-2.398172675862383,-1.1591714220168414,-2.777493820957454,-0.2707909345626831,0.9164718985557556,0.294536292552948,0.15033164620399475,-0.02684934064745903,0.631585955619812,-0.8028174638748169,-0.13918906450271606,-0.16454669833183289
193,-2.230727710848814,-1.1824459399337006,-2.6355899904681657,-0.2991558611392975,0.9255349636077881,0.23214344680309296,1.849509596824646,2.0284135341644287,-1.6649870872497559,-0.8862536549568176,-0.14051616191864014,-0.4063836634159088
194,-1.505871325836986,-1.011689125246117,-2.136544362887547,-0.5293120741844177,0.8477290272712708,-0.034413956105709076,0.6141582727432251,-2.8002190589904785,-1.4060711860656738,0.15919488668441772,1.698779821395874,-0.13427197933197021
195,-1.2743578558729125,-0.8572735408027792,-1.8901796361290792,-0.6259537935256958,0.7560608983039856,-0.1911902129650116,1.0392049551010132,0.7581055164337158,-1.7281676530838013,0.034095942974090576,-0.4606507420539856,0.2798437476158142
196,-1.0937356731213785,-0.7717273505739523,-1.9324846459865872,-0.6366856098175049,0.6973742842674255,-0.3290903866291046,-1.2411941289901733,3.6223232746124268,0.32481083273887634,1.0014164447784424,-0.4925098419189453,0.9272655248641968
197,-1.1967424919905167,-0.8709041985061142,-2.148026593209537,-0.5995956659317017,0.7649116516113281,-0.23536182940006256,-1.9547735452651978,-2.0308446884155273,-0.6234341859817505,-1.4402601718902588,0.7024497985839844,0.34192919731140137
198,-1.25162432206514,-0.8501409745902863,-2.1581901791806994,-0.626550555229187,0.7513734102249146,-0.20705661177635193,0.2448398768901825,0.6514062285423279,0.24621625244617462,0.6524752378463745,0.25415027141571045,1.8137460947036743
199,-1.388519225807385,-0.9876132249295351,-2.163237277753971,-0.5415608882904053,0.8347139954566956,-0.09982212632894516,-0.5057827830314636,-1.8567094802856445,2.117279529571533,0.3183858394622803,0.34120458364486694,0.5028982758522034
200,-1.8882356636729358,-1.0948274296621527,-2.594809875742706,-0.43530702590942383,0.8888491988182068,0.14302009344100952,-3.724902391433716,-4.457045078277588,0.9052174091339111,-0.14220759272575378,-0.5010471343994141,-0.7644648551940918
201,-2.163447078520488,-1.1063939043606252,-2.7509831002912555,-0.3715072572231293,0.89408940076828,0.25017356872558594,-0.12038355320692062,-2.1800777912139893,0.12686064839363098,-0.24189606308937073,-0.0824437141418457,-0.24034687876701355
202,-2.4647592654917356,-1.1074225630344183,-2.9086955143762436,-0.2799486219882965,0.8945496082305908,0.34843865036964417,-0.31562063097953796,0.3586253821849823,0.50254887342453,-0.9850049614906311,-0.07040727138519287,-0.22876408696174622
203,-2.218358551690998,-1.123478840387247,-2.6862521370243666,-0.3449817895889282,0.9016106724739075,0.2609321177005768,2.2303895950317383,2.3648147583007812,-1.9889150857925415,-0.7777446508407593,0.09242302179336548,-0.4297248423099518
204,-1.5524889008293168,-0.9615395796335313,-2.1310343328862626,-0.5721622109413147,0.8200736045837402,-0.010475987568497658,1.5894455909729004,-2.388397216796875,-1.363255262374878,0.4114108681678772,1.4274544715881348,-0.33153456449508667
205,-1.2804386545652102,-0.813063295443246,-1.852331996496689,-0.6585081815719604,0.7263959050178528,-0.1967637985944748,1.1346756219863892,1.0643013715744019,-2.02947735786438,0.04063403606414795,-0.5304120182991028,0.643083393573761
206,-1.037217617537822,-0.7426562480583597,-1.8976953551628106,-0.6342714428901672,0.6762470602989197,-0.37468597292900085,-1.3506300449371338,3.4190926551818848,0.3459259569644928,1.110421895980835,-0.46819353103637695,0.9753939509391785
207,-1.2658611543256721,-0.8467369828638567,-2.1290923122316565,-0.6318708658218384,0.7491228580474854,-0.198882594704628,-1.7808842658996582,-1.4635980129241943,-0.06276661902666092,-1.2260087728500366,0.27103400230407715,-0.1350712776184082
208,-1.3122262039786885,-0.8413453133251815,-2.141852429886771,-0.6443051695823669,0.7455403804779053,-0.17041295766830444,-0.510087788105011,-0.3801686763763428,0.25073882937431335,1.0828733444213867,-0.2522847056388855,0.8152951598167419
209,-1.5247337382979758,-1.007109995255243,-2.163594001581174,-0.5337390899658203,0.845291256904602,-0.024602806195616722,-0.8975231051445007,-2.874558210372925,2.220534563064575,0.2332935333251953,0.46174609661102295,0.36914628744125366
210,-2.0181723378675316,-1.095816455339119,-2.5783523188979784,-0.412313312292099,0.8893019556999207,0.19783735275268555,-3.0119221210479736,-5.417885780334473,1.1734503507614136,-0.1878911256790161,-0.5982406139373779,-1.1720043420791626
211,-2.173999165892466,-1.1278720851300645,-2.5383079444658874,-0.35294824838638306,0.9035022258758545,0.24312806129455566,-0.02244541421532631,-1.6415141820907593,0.3398244082927704,-0.28851595520973206,-0.13159066438674927,-0.08808352053165436
212,-2.4357573193989306,-1.1410172552267368,-2.7164793220012693,-0.27028101682662964,0.9090578556060791,0.31711477041244507,0.31718552112579346,0.24308259785175323,0.46336451172828674,-1.060758352279663,0.03179901838302612,-0.6961889266967773
213,-1.9274284586391894,-1.1710792832543788,-2.273735508738685,-0.36467114090919495,0.9211711287498474,0.13586285710334778,2.122948408126831,3.628023147583008,-2.600677490234375,-0.8664842844009399,0.1460896134376526,0.08497750759124756
214,-1.4775019783706758,-0.9570736259147644,-1.9009617425659369,-0.5734102725982666,0.8175097107887268,-0.05365168675780296,3.72184681892395,-0.009456761181354523,-1.9087156057357788,0.3703005909919739,1.5710400342941284,-0.8306866884231567
215,-1.238855118548439,-0.74751973671375,-1.7461566445769894,-0.6933432817459106,0.6798219084739685,-0.23899215459823608,0.6619067788124084,1.865936040878296,-2.1741864681243896,0.3280326724052429,-0.530026376247406,0.5507749915122986
216,-1.0054225999070863,-0.733297387554355,-1.8468596641879464,-0.6273564696311951,0.6693231463432312,-0.39803311228752136,-2.662555456161499,3.012786626815796,1.1206527948379517,1.2412328720092773,-0.4586145281791687,1.0789413452148438
217,-1.2863413191552437,-0.8082809063288823,-2.0654386495741863,-0.6629849076271057,0.7231007814407349,-0.19384612143039703,-0.04545764625072479,-0.3445434272289276,-0.449776291847229,-0.4200076460838318,-0.5928823351860046,-0.3475204110145569
218,-1.3209734557169057,-0.8234588678866448,-2.054194882606655,-0.658588171005249,0.733501136302948,-0.1680409163236618,-0.7160360217094421,-0.25427135825157166,0.9367623329162598,1.3981664180755615,0.2650492787361145,0.8939473032951355
219,-1.371915408762535,-0.9741860279480554,-1.9678918762968425,-0.55076664686203,0.8272448182106018,-0.11100439727306366,-1.1570398807525635,-1.1139651536941528,2.0033247470855713,-0.02244502305984497,0.3720806837081909,0.6410642266273499
220,-2.010504365376068,-1.063407433734212,-2.5763083926645445,-0.4396764636039734,0.8740162253379822,0.2068343162536621,-4.047443866729736,-5.3097028732299805,0.5502931475639343,0.05053156614303589,-0.3471149802207947,-1.035569667816162
221,-2.234485295557408,-1.1003308809355201,-2.579675184278977,-0.3570767343044281,0.891357421875,0.2792457640171051,-0.5666805505752563,-2.545093059539795,0.4535149037837982,-0.3059939444065094,-0.236297607421875,-0.15185022354125977
222,-2.430624468622847,-1.114289792246872,-2.7090992065319965,-0.28766152262687683,0.8975979685783386,0.3340187966823578,0.2610301375389099,-0.2335675209760666,0.033056799322366714,-0.8282594680786133,0.10472124814987183,-0.5455665588378906
223,-1.9609132378871734,-1.1122851357313928,-2.319849867916351,-0.40935778617858887,0.8967124819755554,0.16832448542118073,1.9730008840560913,3.865347146987915,-2.4013845920562744,-0.6414845585823059,0.40200895071029663,-0.1797991842031479
224,-1.4585330206556417,-0.9441528181878912,-1.8892562154474168,-0.5827376246452332,0.8100004196166992,-0.06569627672433853,3.0718655586242676,1.2411292791366577,-1.3450844287872314,0.5799758434295654,0.9547089338302612,-0.33797502517700195
225,-1.224816885451346,-0.7851711388212211,-1.7029617468310088,-0.6653572916984558,0.7069462537765503,-0.23984724283218384,0.760847270488739,1.3667718172073364,-1.514173150062561,0.4567086696624756,-0.8444889187812805,0.5180454850196838
226,-1.0157557863639255,-0.7967160563310187,-1.791688228724004,-0.5941153168678284,0.715064287185669,-0.3683883547782898,-2.512446880340576,3.091383695602417,0.6868279576301575,0.8219137787818909,-0.46755146980285645,0.7998917102813721
227,-1.2743307362955212,-0.8653249972134104,-1.986937207956928,-0.6201065182685852,0.7613060474395752,-0.189422607421875,0.10248740017414093,0.07538782805204391,-0.4713348150253296,0.14734351634979248,-0.2156670093536377,-0.32977294921875
228,-1.2733461746582642,-0.872709048004849,-1.9376500960855068,-0.6145281195640564,0.7660729885101318,-0.18838027119636536,-0.7596601843833923,-1.1033645868301392,0.9593803286552429,1.3491320610046387,-0.2136439085006714,0.44721511006355286
229,-1.4484248429653912,-1.0532551006366198,-1.9279935625985702,-0.49104535579681396,0.8690382838249207,-0.06039170175790787,-1.5804848670959473,-0.8061147332191467,1.3383327722549438,-0.10969319939613342,0.2453569769859314,0.7116673588752747
230,-2.1350677937947835,-1.0721015972818813,-2.602135278035669,-0.404136061668396,0.8782075643539429,0.25578415393829346,-1.4134483337402344,-5.266319274902344,0.06835699081420898,0.1214669942855835,-0.09215104579925537,-1.9187785387039185
231,-2.1783131591455347,-1.1044838591439217,-2.4595140573354617,-0.36914852261543274,0.8932322263717651,0.25664278864860535,-0.3901388347148895,-1.8108317852020264,0.7159693241119385,-0.09346744418144226,-0.05421251058578491,0.012003391981124878
232,-2.423658288918556,-1.1074399632576095,-2.658557847881066,-0.2940192222595215,0.8945574164390564,0.33662986755371094,0.02901473455131054,-0.6249053478240967,-0.174106165766716,-0.9245171546936035,0.07436037063598633,-0.6287593841552734
233,-1.7765913761972185,-1.1135918480810325,-2.1470034059224106,-0.432126522064209,0.897290050983429,0.0902065709233284,2.541595458984375,5.012670516967773,-2.3312277793884277,-0.705538272857666,0.36561888456344604,0.7189822196960449
234,-1.372264824904113,-0.9040243742278808,-1.7675811328714275,-0.6063044667243958,0.7858221530914307,-0.12197732925415039,2.2545700073242188,2.3595097064971924,-1.4493680000305176,0.5409815907478333,0.6106317043304443,0.5328965187072754
235,-1.2031740293919007,-0.755565227379054,-1.7053580213305186,-0.6792502999305725,0.6857001781463623,-0.2615998387336731,0.4523053765296936,1.6629117727279663,-1.4729692935943604,0.5309195518493652,-0.63652104139328,0.401751846075058
236,-0.9738046468209354,-0.7729544410144288,-1.8041209177321587,-0.5920304656028748,0.6982532143592834,-0.4024205803871155,-2.245330333709717,2.996670961380005,0.7162439823150635,0.7717332243919373,-0.4153248071670532,0.7854467630386353
237,-1.2770199102956932,-0.8474692773846685,-2.0228461928703148,-0.6335254311561584,0.7496077418327332,-0.1916605532169342,-0.33198463916778564,0.18482890725135803,-0.5054647326469421,-0.39728206396102905,-0.25647419691085815,-0.28905239701271057
238,-1.27106054774065,-0.8666647645102997,-2.002569992658839,-0.6185088157653809,0.7621740698814392,-0.19114814698696136,-1.180720567703247,-1.2915557622909546,1.462296962738037,1.3963103294372559,-0.3474554419517517,0.6648877859115601
239,-1.3871186695931292,-1.075166154324923,-2.069355802748375,-0.4675861895084381,0.879669189453125,-0.08686420321464539,-2.398442506790161,0.08861745148897171,1.310340404510498,-0.2915843427181244,0.4368896484375,0.6826436519622803
240,-2.157782412687726,-1.0910122602351275,-2.672062988360322,-0.38432419300079346,0.8870946168899536,0.25565218925476074,0.7536563277244568,-2.4892454147338867,0.17197485268115997,0.25280869007110596,-0.08773243427276611,-1.1050479412078857
241,-2.118417474001085,-1.1227260124300846,-2.4876895808994015,-0.3698744773864746,0.9012847542762756,0.22556310892105103,-0.06007898226380348,-1.4887245893478394,0.59636390209198,-0.3337235450744629,0.059896886348724365,0.0445479154586792
242,-2.4165812506140063,-1.1161568496584602,-2.6667453371406533,-0.2912117838859558,0.8984193801879883,0.3286912739276886,0.7226133346557617,0.5838137269020081,0.002851612400263548,-1.0450918674468994,-0.05611914396286011,-0.524385392665863
243,-1.771847161837992,-1.0894033957632374,-2.1553485381234943,-0.45368778705596924,0.8863508105278015,0.09246351569890976,2.7421891689300537,4.453287124633789,-2.716313362121582,-0.4566973149776459,0.5212266445159912,0.6339157819747925
244,-1.3768806826480149,-0.8990941243001449,-1.7618728029331037,-0.6106551289558411,0.7827634811401367,-0.11992252618074417,2.556462287902832,2.3017256259918213,-0.7882068753242493,0.6052993535995483,0.5655945539474487,0.4475134611129761
245,-1.172487564094577,-0.7570410591804333,-1.627648782087093,-0.669970691204071,0.6867736577987671,-0.28192439675331116,0.6592652797698975,0.8207208514213562,-1.0763806104660034,0.619769275188446,-0.8033050298690796,0.49637144804000854
246,-1.0223628025912574,-0.7803908235353645,-1.7215313489737092,-0.6064180731773376,0.7035571932792664,-0.3704923093318939,-2.6470072269439697,1.7764511108398438,0.6435830593109131,0.5901674032211304,-0.5048877596855164,0.7321561574935913
247,-1.3075499271407882,-0.8745290366562566,-1.9304938035814136,-0.6192636489868164,0.7672415375709534,-0.16689197719097137,0.874914288520813,2.6389992237091064,-0.2776249945163727,-1.0092458724975586,1.7244882583618164,-0.5072565674781799
248,-1.2473302881109063,-0.871440303351289,-1.8754601067501697,-0.61034095287323,0.7652568817138672,-0.20461101830005646,0.5397717356681824,-1.0751361846923828,1.877794861793518,1.360234260559082,-0.42922788858413696,0.5125333666801453
249,-1.5846929278589255,-1.1190132839237403,-2.0186453898184173,-0.4365282356739044,0.8996701240539551,0.006066649220883846,-2.4931163787841797,-0.236077681183815,1.8790905475616455,-0.3138837516307831,0.03242826461791992,0.5667483806610107
250,-2.142334912918656,-1.1530250782173235,-2.6117407808242845,-0.34124264121055603,0.9139954447746277,0.21946726739406586,0.09559005498886108,-0.5398063063621521,-0.16718468070030212,-0.44034308195114136,-0.2155700922012329,-0.18502816557884216
251,-2.4296021343580887,-1.1138650034336492,-2.749738446473868,-0.28825220465660095,0.8974106311798096,0.3340134918689728,-0.5030947327613831,-0.08750319480895996,1.1497646570205688,0.04879602789878845,-0.1323654055595398,-0.6514420509338379
252,-2.4136050773764617,-1.1491608484160483,-2.7268968442916584,-0.2723042070865631,0.9124208092689514,0.30551356077194214,1.7426732778549194,1.0593546628952026,-1.3225184679031372,-0.993030846118927,-0.05710476636886597,-0.5671712160110474
253,-1.518171435701938,-1.0045983032836137,-2.11973431313695,-0.5356846451759338,0.8439465761184692,-0.028216397389769554,1.2046855688095093,0.2111031413078308,-2.353747844696045,-0.1935175657272339,1.7010821104049683,-0.08744525909423828
254,-1.3187308038517502,-0.8316948172759923,-1.8240049220717431,-0.6523371934890747,0.7390741109848022,-0.1680050492286682,1.0603119134902954,-0.23484860360622406,-1.6543498039245605,0.09768015146255493,-0.22430360317230225,0.3374233841896057
255,-1.087352875154574,-0.6962112512853365,-1.865459458014746,-0.6793470978736877,0.6413152813911438,-0.35665416717529297,-0.8648762106895447,3.629599094390869,0.038646090775728226,0.933207631111145,-0.4712103605270386,0.8715925216674805
256,-1.0371008166806017,-0.8089784953753917,-2.089007953309951,-0.5942485332489014,0.7235824465751648,-0.351136714220047,-1.0134161710739136,-1.5999069213867188,0.27353715896606445,-0.8727467060089111,0.8296554088592529,-1.1249985694885254
257,-1.255622091543866,-0.837137312821731,-2.2184676797569467,-0.6366092562675476,0.7427293062210083,-0.20756147801876068,1.0713005065917969,-1.0233080387115479,0.3726724088191986,-0.8154323101043701,1.2211987972259521,-1.4153480529785156
258,-1.4288746059162878,-0.8991465857532316,-2.1414889953174385,-0.6160219311714172,0.7827961444854736,-0.08801863342523575,0.35009196400642395,-3.5418968200683594,1.8744741678237915,0.6382539868354797,0.28026843070983887,0.6653196215629578
259,-1.7682404993156329,-1.0512420257426844,-2.3135212571792576,-0.48684707283973694,0.8680405616760254,0.09739402681589127,-3.710886240005493,0.03881137818098068,1.227127194404602,-0.43911731243133545,-0.06561136245727539,0.6046934127807617
260,-2.160931706381741,-1.0746395091267922,-2.6946476286448138,-0.3955327570438385,0.8794186115264893,0.2649087607860565,0.12055271863937378,-1.736411213874817,0.20493608713150024,-0.2394006848335266,-0.32224398851394653,-0.2182779610157013
261,-2.427723687025028,-1.1065012743620304,-2.764500165308936,-0.29319778084754944,0.894137442111969,0.33845674991607666,-0.1654980331659317,-1.6573609113693237,0.764045774936676,-0.7763517498970032,0.00668025016784668,-0.33168187737464905
262,-2.4148445296827568,-1.1436530015176427,-2.7390380498095848,-0.27526023983955383,0.9101529121398926,0.3096018135547638,1.4390740394592285,1.1500658988952637,-0.9385606646537781,-0.8735129237174988,-0.05308210849761963,-0.5893869400024414
263,-1.6233504087274044,-1.0085285520592822,-2.1204118842963653,-0.5323701500892639,0.8460482954978943,0.028004013001918793,1.883423924446106,0.6637980341911316,-2.537047863006592,-0.3077787160873413,1.2112789154052734,0.14030051231384277
264,-1.3448526439929145,-0.7877038466705476,-1.7957156247937056,-0.6875436305999756,0.7087352871894836,-0.1580447554588318,1.9701818227767944,0.5807134509086609,-2.3160746097564697,0.11906218528747559,0.023198366165161133,0.3628482222557068
265,-1.0700856047915375,-0.6294784038763489,-1.785412491014886,-0.7091048359870911,0.5887232422828674,-0.3880403935909271,-0.7645472288131714,3.908233642578125,-0.2806892991065979,0.9035323858261108,-0.44878482818603516,0.9605348706245422
266,-0.9491138933762477,-0.6944113232077853,-1.9750428484258364,-0.6246570348739624,0.639933168888092,-0.44753676652908325,-2.2092108726501465,-0.6157391667366028,0.31302064657211304,-0.1380382776260376,-0.21882110834121704,-0.24322861433029175
267,-1.1778506275129519,-0.7932488816599065,-2.0592824278463406,-0.6480663418769836,0.7126362323760986,-0.2686251401901245,0.6205179691314697,-1.8078396320343018,0.6462910771369934,-0.2760668396949768,0.2875620722770691,1.6188143491744995
268,-1.4687284331011945,-0.9625702646774172,-1.9813499911478272,-0.5684385895729065,0.8206629753112793,-0.05822164937853813,0.3508032262325287,-1.2476598024368286,2.0288586616516113,0.15249931812286377,0.3310245871543884,0.7695406079292297
269,-1.8926863767258244,-1.1080832768189914,-2.3785425546038463,-0.42345118522644043,0.8948447704315186,0.14121602475643158,-0.7633610367774963,1.3436405658721924,0.7201679348945618,-0.37005162239074707,-0.15920329093933105,-0.5702626705169678
270,-2.1763926698724894,-1.112238670469095,-2.579599840717004,-0.3639344871044159,0.8966919183731079,0.2519824802875519,0.21057645976543427,-1.7958946228027344,0.3096531331539154,-0.05917644500732422,0.0046904683113098145,-0.4159534275531769
271,-2.4079776596499562,-1.1544892794369448,-2.713086818351965,-0.270760178565979,0.9145885705947876,0.30036112666130066,0.463651180267334,0.08516263216733932,0.4604715406894684,-1.1606210470199585,-0.025840282440185547,-0.37367960810661316
272,-2.0250916900173968,-1.1632238330398195,-2.409650450866954,-0.35617727041244507,0.9180857539176941,0.17394407093524933,1.8364025354385376,3.2064151763916016,-2.1120049953460693,-0.6216212511062622,-0.05585724115371704,0.012228503823280334
273,-1.4856423381151835,-0.9533496271062581,-2.0436271622581357,-0.5768574476242065,0.815359354019165,-0.04924078658223152,3.4434826374053955,0.13226284086704254,-1.968218445777893,0.39922988414764404,1.4702394008636475,-0.9137261509895325
274,-1.2569866960258482,-0.7372226383893498,-1.825669538911187,-0.7041837573051453,0.672234296798706,-0.22853098809719086,0.8758377432823181,1.6487435102462769,-2.0791385173797607,0.307104229927063,-0.5043113827705383,0.5994263887405396
275,-0.9708413361568915,-0.6993903735667816,-1.9142388864343425,-0.6315949559211731,0.643751323223114,-0.43205562233924866,-1.8884737491607666,3.8930366039276123,0.6591785550117493,1.1308472156524658,-0.4751874804496765,0.996630847454071
276,-1.1379436792627529,-0.7964380220152125,-2.0835761699950432,-0.6347670555114746,0.7148699164390564,-0.2933120131492615,-1.5421723127365112,-1.1657456159591675,-0.1204017847776413,-0.12280130386352539,-0.15609300136566162,-0.06673437356948853
277,-1.3506548139613106,-0.8319603415260697,-2.134004561507523,-0.6571757793426514,0.7392529249191284,-0.14705491065979004,-0.2555895447731018,-1.0777571201324463,0.6446918249130249,0.35476183891296387,1.1319934129714966,1.826528787612915
278,-1.526065441893042,-0.9752569795629351,-2.0975267927576766,-0.5603942275047302,0.8278460502624512,-0.02508366107940674,0.18786288797855377,-0.8256898522377014,1.5593074560165405,0.22781366109848022,0.18040889501571655,0.5668927431106567
279,-1.786413316810559,-1.0616865044904935,-2.4376006371609416,-0.4761141836643219,0.8731787204742432,0.10427934676408768,-4.24690055847168,-0.39921557903289795,0.7012028694152832,-0.2053585946559906,-0.31040412187576294,-0.0570380762219429
280,-2.1877611856592254,-1.0730021297132,-2.5650987062787443,-0.3894578814506531,0.878637969493866,0.27625682950019836,0.26061511039733887,-2.765794038772583,0.192621648311615,-0.14873483777046204,-0.15125155448913574,0.041293829679489136
281,-2.436563287918001,-1.095598250510789,-2.6670274490633,-0.29649490118026733,0.8892021179199219,0.34843939542770386,0.1751844882965088,0.37685656547546387,0.4186936020851135,-1.1502976417541504,-0.0588952898979187,-0.3568928837776184
282,-2.0533385987970023,-1.1242691860846146,-2.31505466848439,-0.38252800703048706,0.9019522666931152,0.2003859430551529,2.880777597427368,2.939479112625122,-2.1324737071990967,-0.7496131062507629,0.13404321670532227,-0.23381805419921875
283,-1.476155144494487,-0.928067304075322,-1.8266414288985597,-0.5966998338699341,0.8004630208015442,-0.0566415935754776,3.4046130180358887,1.1738237142562866,-1.5648373365402222,0.2866870164871216,1.278714895248413,-0.7335042953491211
284,-1.2089709775523423,-0.739060993609662,-1.5990565964865804,-0.6912463307380676,0.6735941767692566,-0.2616286277770996,0.6823944449424744,2.294344902038574,-1.5696276426315308,0.3866656422615051,-0.4042155146598816,0.7555861473083496
285,-0.9383274501629152,-0.7186567088354708,-1.6521740410406933,-0.6070982217788696,0.6583741903305054,-0.4449440538883209,-1.8778657913208008,3.3607029914855957,0.6428590416908264,1.0754972696304321,-0.5145753622055054,0.926007866859436
286,-1.2132501650665606,-0.808151262686502,-1.8676272264258456,-0.6471466422080994,0.7230112552642822,-0.24177652597427368,-1.0960156917572021,-0.710192859172821,-0.19385914504528046,-0.6491637229919434,-0.4944499135017395,0.025147512555122375
287,-1.2755930172475216,-0.8188433464151866,-1.8522003981907456,-0.6535189747810364,0.7303562760353088,-0.19872748851776123,-0.6249947547912598,-3.4290666580200195,1.039113998413086,1.2386020421981812,-0.30806928873062134,0.6703766584396362
288,-1.5279126053668355,-1.0098825991276292,-1.7888664622254027,-0.5314709544181824,0.846769392490387,-0.022805433720350266,-1.4839061498641968,0.0854412242770195,1.7445762157440186,-0.3375628590583801,0.42163264751434326,0.7160274982452393
289,-1.9745829355988895,-1.100357488083051,-2.3436225951437506,-0.4168247580528259,0.8913694620132446,0.17809416353702545,-2.140056848526001,0.14373105764389038,0.614349365234375,-0.016860514879226685,-0.2796599268913269,0.06177400052547455
290,-2.288655856078691,-1.1072627876274428,-2.5628385031167076,-0.3367713689804077,0.8944782018661499,0.2940984070301056,0.041871197521686554,-1.7493647336959839,0.6757713556289673,-0.23546373844146729,-0.1567004919052124,-0.021530747413635254
291,-2.427698323312617,-1.1494720829191085,-2.6187663540417825,-0.2677859663963318,0.9125481843948364,0.3091064393520355,0.019997484982013702,-0.18030859529972076,0.11959177255630493,-0.8523159623146057,-0.06867605447769165,-0.6274352073669434
292,-1.7714667078276547,-1.1054367567727428,-2.0898229585980994,-0.4397391080856323,0.8936602473258972,0.08944647759199142,1.6349291801452637,4.199215888977051,-2.483177900314331,-0.5901528596878052,0.5974895358085632,0.7951055765151978
293,-1.3561468022787437,-0.8662177189871847,-1.699453975596244,-0.6328486204147339,0.7618845701217651,-0.1379660964012146,1.4409431219100952,0.6017098426818848,-1.8459771871566772,0.3425806760787964,0.45678913593292236,0.8258780837059021
294,-1.1630195998328692,-0.6857594404292365,-1.6787868338609582,-0.710479199886322,0.63326096534729,-0.30692026019096375,-0.5131818056106567,3.4882447719573975,-1.1551622152328491,0.6672357320785522,-0.35082072019577026,0.6962025165557861
295,-0.9218172542225093,-0.7651098191792808,-1.8636206036400649,-0.5746656060218811,0.6926162242889404,-0.43593829870224,-2.909494638442993,0.9742200970649719,-0.14058002829551697,0.15631544589996338,-0.3911941647529602,0.020761936902999878
296,-1.2128454236488508,-0.8176361091701351,-2.0496208616581186,-0.6405968070030212,0.7295311093330383,-0.2396250069141388,-0.7799457311630249,-1.2816342115402222,-0.5789633393287659,0.027361392974853516,-0.25078660249710083,0.6168375015258789
297,-1.4166275500101129,-0.8738812821473306,-2.0487742765264954,-0.6342422366142273,0.7668259143829346,-0.09856246411800385,-0.1943129301071167,-3.7472598552703857,1.1346739530563354,1.082515001296997,-0.01884019374847412,0.31697678565979004
298,-1.6331801814483604,-1.0292266142367104,-2.1475784052293,-0.5144789814949036,0.8569005727767944,0.032136883586645126,-2.2774078845977783,-0.3424589931964874,1.2346340417861938,-0.04606783390045166,0.09935247898101807,0.4063091278076172
299,-2.0907159408076272,-1.056371736156183,-2.507053138057939,-0.42701613903045654,0.8705759644508362,0.24444755911827087,0.5096676349639893,-2.0211095809936523,-0.18449793756008148,-0.19328415393829346,-0.30633652210235596,-0.12906062602996826
300,-2.355831306941235,-1.0820024180247974,-2.5572587928108166,-0.33215051889419556,0.882899820804596,0.3319093585014343,-0.07947111874818802,-1.4578686952590942,0.980803370475769,-0.39670076966285706,-0.18011057376861572,-0.5589295625686646
301,-2.477064157511133,-1.1170240012113175,-2.6149843074493178,-0.27033108472824097,0.8987998962402344,0.3450799882411957,0.5712376236915588,-0.5367454886436462,-0.11558215320110321,-0.8344815969467163,-0.044582247734069824,-0.6000696420669556
302,-1.8172554788700495,-1.0860695555164688,-2.1236716897765238,-0.4518863260746002,0.8848022818565369,0.11368267238140106,1.8056210279464722,4.791316032409668,-2.5237042903900146,-0.6086910963058472,0.5950255393981934,0.5506696701049805
303,-1.3683460788452304,-0.8885990147523085,-1.6978784650379648,-0.6176232099533081,0.7761892080307007,-0.12677472829818726,2.4255433082580566,0.45299622416496277,-1.1582589149475098,0.6672906279563904,0.5140024423599243,0.6358842253684998
304,-1.1699873957216154,-0.7117051739649766,-1.5502972689286958,-0.6972340941429138,0.6531259417533875,-0.29545092582702637,0.2926492691040039,2.93106746673584,-0.9389545321464539,0.46415603160858154,-0.5568429827690125,0.6831309795379639
305,-0.8897768212610486,-0.7721319798383437,-1.644469473617528,-0.5566129088401794,0.697664201259613,-0.45105066895484924,-2.4911601543426514,2.079021453857422,0.2662261426448822,0.36802953481674194,-0.4131183624267578,0.5950021743774414
306,-1.1838654378062505,-0.8702516054076846,-1.8657348582166624,-0.5969773530960083,0.7644911408424377,-0.24325141310691833,-0.37963056564331055,-0.1255778968334198,-0.5265650749206543,0.18610399961471558,-0.04612267017364502,-0.37181514501571655
307,-1.299323639176965,-0.9691549636978501,-1.8428202861379517,-0.5452679991722107,0.824407696723938,-0.15177223086357117,1.3670005798339844,-0.7721506357192993,1.8304623365402222,0.05205816030502319,1.119760513305664,1.677056074142456
308,-1.427864010940767,-1.0946880728868142,-1.8696824423774678,-0.4536499083042145,0.8887853026390076,-0.06528643518686295,-2.332085371017456,1.0206934213638306,0.6308209896087646,-0.24366146326065063,0.08620548248291016,0.5883424878120422
309,-1.975683905030045,-1.095714057099922,-2.4233366565924825,-0.42042842507362366,0.8892551064491272,0.18018151819705963,-1.609237551689148,0.0967465192079544,0.31774988770484924,0.08153074979782104,-0.3307681679725647,0.35830116271972656
310,-2.3191096145013286,-1.0977861379943936,-2.6509070211464323,-0.33385753631591797,0.8902009725570679,0.30997031927108765,0.3950635492801666,-2.3239338397979736,0.5010973215103149,-0.43803882598876953,-0.18257451057434082,-0.3486665189266205
311,-2.372688525865114,-1.1480048445753581,-2.5917307771857727,-0.28530648350715637,0.9119471311569214,0.29487690329551697,0.9105086326599121,0.7489868402481079,-0.640498697757721,-1.169374942779541,-0.05306053161621094,-0.47233667969703674
312,-1.6274358411117886,-1.03261747049976,-2.05435627569011,-0.511751115322113,0.8586435914039612,0.029016371816396713,2.3211560249328613,3.3753678798675537,-2.184971332550049,-0.2464275360107422,0.8527058959007263,0.625433087348938
313,-1.3250944604512815,-0.8453446350437057,-1.7899759265264852,-0.6435472369194031,0.7481998205184937,-0.16138140857219696,1.1476348638534546,0.7240567803382874,-1.6673027276992798,-0.15235114097595215,0.10687214136123657,0.27202290296554565
314,-1.1170171574073435,-0.664781458602386,-1.815229682404902,-0.7073995471000671,0.6168871521949768,-0.3450161814689636,-0.8957951068878174,3.975651979446411,-0.9776176810264587,0.7015096545219421,-0.5275774598121643,0.7325894236564636
315,-0.9142968541484603,-0.7701266904496095,-1.9869478269160536,-0.5686113834381104,0.696226179599762,-0.43812137842178345,-2.757359027862549,-0.17568999528884888,0.5953448414802551,0.21569085121154785,-0.28716856241226196,-0.07489436864852905
316,-1.214644856991788,-0.8320655567350842,-2.1973006462745217,-0.6310944557189941,0.7393237948417664,-0.23477685451507568,-0.42868903279304504,-1.9494445323944092,-0.7291507720947266,-0.12798452377319336,0.027109920978546143,0.045918822288513184
317,-1.2867223753631691,-0.9143986857498858,-2.14904144964316,-0.585808515548706,0.7921957969665527,-0.1710387021303177,0.23873159289360046,-3.0816938877105713,1.3952515125274658,0.45996928215026855,0.14234399795532227,0.466769278049469
318,-1.5165726851536498,-1.0468041682205826,-2.245293412910784,-0.4996052384376526,0.8658286333084106,-0.02711699716746807,-3.184223175048828,0.7453978061676025,0.5780365467071533,-0.2331218123435974,0.06077653169631958,0.5748922824859619
319,-2.0229489781416565,-1.0681591762643792,-2.7624093972722528,-0.43332773447036743,0.876315176486969,0.21047282218933105,0.037358034402132034,-2.676708936691284,0.10232511907815933,-0.09220021963119507,-0.236056387424469,-0.35511088371276855
320,-2.280560821792254,-1.0927400898961386,-2.8208972358542037,-0.34895816445350647,0.8878908157348633,0.2997966706752777,-0.14796793460845947,-1.6201545000076294,0.7686755657196045,-0.41686519980430603,-0.12124347686767578,-0.4516216516494751
321,-2.3795074404006145,-1.1117174754074792,-2.894413912715521,-0.30594542622566223,0.8964610695838928,0.32055363059043884,0.26206350326538086,0.8898539543151855,-0.39834651350975037,-0.8566979169845581,0.05294066667556763,-0.5541203022003174
322,-1.756665379632164,-1.056179514397342,-2.419137971075227,-0.48372361063957214,0.8704813718795776,0.09095913171768188,2.2864787578582764,3.3599696159362793,-1.8281759023666382,-0.11820510029792786,0.5399647355079651,0.5147995948791504
323,-1.3559485617096263,-0.861327885495352,-1.9888968116626575,-0.6364536285400391,0.7587082386016846,-0.13888418674468994,2.0519814491271973,0.4504818618297577,-1.1954797506332397,0.4224643111228943,0.24464881420135498,0.8414598703384399
324,-1.1770870063541117,-0.682339582530777,-1.9385132330926362,-0.7167220115661621,0.6306105256080627,-0.2977246046066284,-0.17029131948947906,3.2455153465270996,-0.9261168241500854,0.4990859627723694,-0.6096754670143127,0.5519970655441284
325,-0.9372978011874517,-0.7454133598937658,-2.0660206411219773,-0.5922265648841858,0.6782755851745605,-0.43498262763023376,-2.3103461265563965,1.8801168203353882,0.41871532797813416,0.5244013071060181,-0.3472514748573303,0.48965489864349365
326,-1.1948791104120777,-0.8195832510954775,-2.25291944973585,-0.6348661184310913,0.7308614253997803,-0.25057294964790344,-0.6281686425209045,-0.0027373088523745537,-0.41115957498550415,-0.016684234142303467,-0.266093909740448,-0.22855302691459656
327,-1.3115401065574068,-0.8553614592853398,-2.270682498179195,-0.634024441242218,0.7548080682754517,-0.16815932095050812,-1.0194298028945923,-1.7156676054000854,0.8728363513946533,0.9728459715843201,-0.14955300092697144,0.5710676312446594
328,-1.5156858608714265,-0.9958885659426746,-2.259819754746037,-0.5429316163063049,0.8392424583435059,-0.029951544478535652,-0.46968111395835876,-0.03328186273574829,1.4569671154022217,0.04595297574996948,0.3426573872566223,0.4447311758995056
329,-1.968727462053993,-1.0659657023133537,-2.770954003149713,-0.4458681643009186,0.8752564191818237,0.18742366135120392,-3.393103837966919,-2.4048497676849365,0.4827142655849457,-0.16642120480537415,-0.13924884796142578,-0.43727102875709534
330,-2.1740544160710358,-1.087980717715466,-2.799976309399424,-0.3823266327381134,0.885691225528717,0.2633965015411377,-0.32082676887512207,-1.7014528512954712,0.32004550099372864,-0.298764705657959,-0.13009113073349,0.06649854779243469
331,-2.3879579961634954,-1.110142082321576,-2.9357005269284886,-0.30419179797172546,0.8957618474960327,0.32415705919265747,-0.08160003274679184,-0.40886062383651733,0.24596640467643738,-0.9414899349212646,-0.07323694229125977,-0.23513737320899963
332,-2.0361900763027423,-1.1270547114866971,-2.6151685377956393,-0.3836613893508911,0.9031516313552856,0.1926688253879547,2.826385974884033,2.641369342803955,-2.1973743438720703,-0.7086238265037537,-0.053877830505371094,-0.42522796988487244
333,-1.4867970157953325,-0.9191491091763883,-2.193592147863665,-0.6043585538864136,0.7950858473777771,-0.05088543891906738,2.486759662628174,-1.1807359457015991,-1.9245038032531738,0.2576636075973511,1.2661933898925781,-0.3876521587371826
334,-1.2295078228873426,-0.7313345469439031,-1.9961777283124122,-0.7013565897941589,0.6678634881973267,-0.24911294877529144,0.7789381146430969,1.4824124574661255,-1.7173694372177124,0.20715492963790894,-0.43757784366607666,0.23011571168899536
335,-1.026676898144412,-0.6822720909389327,-2.0771866280327864,-0.6640543937683105,0.6305581331253052,-0.40178152918815613,-1.6167047023773193,3.3904547691345215,0.5629401803016663,1.262794017791748,-0.5414620041847229,0.8169578909873962
336,-1.1676717080042516,-0.807490694167876,-2.2521933243702446,-0.6358977556228638,0.7225547432899475,-0.27119848132133484,-1.8946282863616943,-2.714421510696411,0.3879966735839844,-0.48281556367874146,-0.08092272281646729,-0.4573933780193329
337,-1.3202025710835348,-0.8470467898152629,-2.2474134673982484,-0.6415151953697205,0.749328076839447,-0.16421152651309967,-0.5351801514625549,-0.348820298910141,1.1024411916732788,0.45267254114151,0.411377489566803,2.245922327041626
338,-1.4812925557959116,-0.9959922141260812,-2.20393403562342,-0.5414941310882568,0.8392988443374634,-0.048595599830150604,0.058972541242837906,-0.2089611291885376,1.4150480031967163,0.14557433128356934,0.2758287191390991,0.6199457049369812
339,-2.040229235214697,-1.057880642771591,-2.7934040046248514,-0.437636137008667,0.871317446231842,0.2219921052455902,-2.0132858753204346,-3.0139448642730713,1.0161415338516235,-0.02104303240776062,-0.3003641366958618,-1.4573588371276855
340,-2.199568058468779,-1.0895967976266578,-2.7396374974432733,-0.37432441115379333,0.8864403963088989,0.2722218930721283,-0.4965420067310333,-2.081735849380493,0.6566469073295593,-0.05128896236419678,-0.054027676582336426,-0.057179808616638184
341,-2.464229354436079,-1.1356719008970082,-2.924759318038984,-0.2641858756542206,0.906817615032196,0.3284628391265869,0.04526563733816147,-0.5407153964042664,0.16149428486824036,-1.1994677782058716,0.013165414333343506,-0.3014852702617645
342,-2.0476447158214497,-1.1423078648636311,-2.561677535591935,-0.3691461980342865,0.9095948338508606,0.19070520997047424,2.1915273666381836,3.163792848587036,-2.364581823348999,-0.4919988214969635,0.016323745250701904,-0.012619853019714355
343,-1.489644058217348,-0.9216838008150874,-2.1581599358916836,-0.6024903059005737,0.7966205477714539,-0.049001071602106094,2.3000779151916504,-1.8440580368041992,-1.6589080095291138,0.46427619457244873,1.1547496318817139,-0.9439951181411743
344,-1.2168133247466366,-0.7625764035870801,-1.946901273508477,-0.6782287359237671,0.690786600112915,-0.2506386339664459,0.9639292359352112,1.5797394514083862,-2.0465433597564697,0.2397063970565796,-0.37184739112854004,0.6042762994766235
345,-0.9721830069206175,-0.6769805003801518,-2.0139540313617337,-0.6439322829246521,0.6264422535896301,-0.4392281770706177,-1.9847919940948486,3.355088949203491,0.08472622185945511,1.1022758483886719,-0.24803954362869263,1.1580239534378052
346,-1.2383026948966336,-0.8049259801882193,-2.257912866161556,-0.6552008390426636,0.7207793593406677,-0.22624965012073517,-1.7579931020736694,-1.2679263353347778,0.18185271322727203,-1.2988548278808594,0.8194580674171448,-0.04532626271247864
347,-1.267511859641431,-0.7958478967620001,-2.2072254103523274,-0.6677463054656982,0.714457094669342,-0.20896364748477936,-0.10313378274440765,-2.1276068687438965,1.2276902198791504,1.0941836833953857,-0.13982641696929932,0.7551062107086182
348,-1.5431530145274592,-1.0247661207392844,-2.1789401582927694,-0.5191006064414978,0.8545927405357361,-0.014353316277265549,-1.0247925519943237,-0.7835948467254639,1.70279061794281,-0.023074746131896973,0.3634096384048462,0.6836495995521545
349,-2.164233489325406,-1.061596035945236,-2.823214856770116,-0.404131680727005,0.8731346130371094,0.2726050913333893,-1.3686712980270386,-2.5364019870758057,0.8548290729522705,0.051440030336380005,-0.20031362771987915,-1.6068183183670044
350,-2.2823446246091024,-1.1071114320091806,-2.6997902987426206,-0.3387233018875122,0.8944104909896851,0.29205551743507385,-0.6694740056991577,-1.660662055015564,0.41201403737068176,-0.4089573621749878,-0.14137405157089233,-0.017000555992126465
351,-2.4281796685844093,-1.110622194715516,-2.755999478143446,-0.2906295955181122,0.8959751725196838,0.3358013927936554,0.054361239075660706,-1.087537169456482,-0.3050319254398346,-0.7251784801483154,-0.037134408950805664,-0.6074690222740173
352,-1.678248355785635,-1.0750494495552492,-2.1599946656235605,-0.47294530272483826,0.8796136975288391,0.051015425473451614,1.935622215270996,6.030825138092041,-2.5086593627929688,-0.6176003217697144,0.3807470202445984,0.8037208318710327
353,-1.4053888259976595,-0.846603508863775,-1.7959595678439586,-0.6534883975982666,0.7490344643592834,-0.10908857733011246,2.0500106811523438,1.4798836708068848,-2.0426652431488037,0.6168367862701416,0.27888911962509155,0.8499332666397095
354,-1.1907024564483706,-0.703052090354459,-1.8106006267112966,-0.7084260582923889,0.6465490460395813,-0.28303149342536926,-0.3910674750804901,2.669229507446289,-0.8533844351768494,0.6616884469985962,-0.7536352872848511,0.5716056823730469
355,-1.0067196552578919,-0.8249991140859798,-1.956586757588972,-0.5734373331069946,0.7345471978187561,-0.36278119683265686,-3.3377411365509033,-0.25605642795562744,1.0533521175384521,0.38973671197891235,-0.25447511672973633,-0.07633620500564575
356,-1.2435294692179035,-0.8148863685670484,-2.053196067718156,-0.6495438814163208,0.7276476621627808,-0.22050319612026215,0.18077674508094788,-0.8749037981033325,-0.5840216279029846,0.0764085054397583,0.9222241640090942,-0.5221115350723267
357,-1.2855377166908042,-0.888333091436698,-2.0185193819118297,-0.6052188873291016,0.7760214805603027,-0.17748431861400604,0.0005414836341515183,-2.3313939571380615,1.57511568069458,0.8327274918556213,0.07450336217880249,0.33049947023391724
358,-1.5233399242506307,-1.0392913845420235,-2.027403533965047,-0.5062606930732727,0.8620452880859375,-0.024043362587690353,-1.4131402969360352,0.9275965094566345,1.1773382425308228,-0.1940566897392273,0.0727386474609375,0.7650254368782043
359,-2.078948748140124,-1.0865130570957222,-2.603930992921597,-0.40674668550491333,0.8850088715553284,0.22653169929981232,0.8871458768844604,-0.6656317710876465,-0.12486577779054642,-0.18154069781303406,-0.01870626211166382,-0.6847531795501709
360,-2.258236591394907,-1.1041821449353861,-2.5678047811172755,-0.34768855571746826,0.8930965662002563,0.28546684980392456,0.04987526684999466,-0.822777271270752,0.6229485869407654,-0.14460572600364685,-0.25590479373931885,-0.11467516422271729
361,-2.4410454554890597,-1.1161784029496475,-2.723252025187242,-0.2830721139907837,0.8984288573265076,0.3357020616531372,0.17982949316501617,-0.9023194313049316,-0.19038522243499756,-0.7297605276107788,0.14345651865005493,-0.6270076036453247
362,-1.90704094948823,-1.1368326387018024,-2.2824868404501513,-0.3969241678714752,0.9073062539100647,0.13873180747032166,1.8661890029907227,3.657757043838501,-2.2952880859375,-0.4896572530269623,0.09284627437591553,0.14183150231838226
363,-1.4971335813704636,-0.9473847388540027,-1.951613898643431,-0.5822252631187439,0.811891496181488,-0.042966052889823914,2.700352668762207,-1.0860559940338135,-2.0543012619018555,0.2772935628890991,0.9390546083450317,-0.6320827603340149
364,-1.2545448481427144,-0.7694103785545876,-1.8193673494293547,-0.6826980113983154,0.6957118511199951,-0.2234022468328476,0.2218599021434784,2.1384963989257812,-1.7254905700683594,0.5093276500701904,-0.3887813091278076,0.6341841220855713
365,-1.0281783481734705,-0.7541830668492219,-1.9093219070637832,-0.6241417527198792,0.6846935153007507,-0.3763536512851715,-1.8086336851119995,3.180344820022583,0.8393654823303223,0.8928185105323792,-0.44409286975860596,0.6732897162437439
366,-1.2987469619051841,-0.8519868700952068,-2.1173185546983215,-0.6342713832855225,0.7525902390480042,-0.1769399642944336,-0.42328494787216187,0.5714054703712463,-0.24307586252689362,-0.29747605323791504,-0.41291433572769165,-0.29924100637435913
367,-1.2759429047288309,-0.8758485936385867,-2.086922986968796,-0.6127109527587891,0.7680871486663818,-0.1860840767621994,-1.0426682233810425,-0.1502530574798584,1.3878337144851685,0.9297581315040588,0.010751903057098389,1.7200044393539429
368,-1.3874666763679209,-1.0270084594163895,-2.0317002201333256,-0.5087111592292786,0.8557550311088562,-0.09432091563940048,-0.15142355859279633,-0.8148389458656311,1.203850507736206,0.023466408252716064,0.4460485577583313,0.6406008005142212
369,-1.9106967278693583,-1.0791818169727438,-2.653845418021914,-0.44504284858703613,0.881571888923645,0.1573781967163086,-4.803818225860596,-2.5403976440429688,-0.1406470239162445,-0.10390734672546387,-0.13407433032989502,-0.3574056625366211
370,-2.1648724088923577,-1.102632593212745,-2.6221442554380805,-0.373934268951416,0.8923984169960022,0.2525833547115326,0.16457806527614594,-2.813673496246338,0.44148126244544983,-0.3214545249938965,-0.13345670700073242,0.07540428638458252
371,-2.4640405376090873,-1.114755758422111,-2.7852745512822845,-0.276079386472702,0.8978032469749451,0.3431174159049988,0.3199649155139923,-0.24522535502910614,0.36309564113616943,-1.116483449935913,-0.12763112783432007,-0.593178391456604
372,-2.104976511105376,-1.1458992740494154,-2.4832240546714175,-0.35479840636253357,0.9110811948776245,0.20987959206104279,2.9095194339752197,2.6698429584503174,-1.9679900407791138,-0.8555135130882263,0.11330240964889526,-0.3461099863052368
373,-1.53659880467795,-0.9497741058491291,-2.0381766097872074,-0.5815264582633972,0.8132840991020203,-0.019894519820809364,1.8093255758285522,-2.8924787044525146,-1.662512183189392,0.2820727825164795,1.26938796043396,-0.17761528491973877
374,-1.2861802908432187,-0.7906817756313855,-1.8278726387646473,-0.6750642657279968,0.710832953453064,-0.1974959522485733,0.5460332036018372,2.0917294025421143,-1.9754012823104858,0.1733705997467041,-0.44092029333114624,0.6491408348083496
375,-1.020764034672079,-0.7232748679340573,-1.902787933423857,-0.6390756964683533,0.6618431806564331,-0.3918490409851074,-1.2733756303787231,2.554948329925537,0.4302898347377777,1.1022257804870605,-0.13282102346420288,0.7993198037147522
376,-1.2268778226446977,-0.8479145038787861,-2.0884587460755046,-0.6228085160255432,0.7499023675918579,-0.2230600118637085,-1.7234559059143066,-2.3769192695617676,-0.16943120956420898,-1.429468035697937,0.5498716831207275,0.08948461711406708
377,-1.2660832088200384,-0.8452058888635499,-2.052691676024599,-0.6330084204673767,0.7481077313423157,-0.19908617436885834,-0.2297096997499466,0.3136904835700989,0.3086833357810974,0.7479375600814819,0.2549898028373718,1.2999467849731445
378,-1.4771995406963812,-1.0215446743810679,-2.053046865263366,-0.5197640657424927,0.8529154062271118,-0.04879080504179001,0.012045458890497684,-2.7224557399749756,1.605383038520813,0.17898958921432495,0.3417256474494934,0.3949059247970581
379,-1.8852143698657429,-1.0939480486894821,-2.4843465992968414,-0.4364803433418274,0.8884459137916565,0.141945943236351,-4.152412414550781,-3.022932291030884,0.5685190558433533,-0.1972324252128601,-0.27340996265411377,-0.4382106065750122
380,-2.1356335014875136,-1.1267851679773926,-2.4547799349585784,-0.36284327507019043,0.9030358791351318,0.2299368977546692,0.24350190162658691,-1.9807432889938354,0.6135241985321045,-0.25629734992980957,-0.13701415061950684,0.09290850162506104
381,-2.4539170368052035,-1.1259984614808567,-2.697031133637944,-0.2731141448020935,0.9026976823806763,0.33248382806777954,-0.20944546163082123,-0.13808193802833557,0.48922601342201233,-1.1759519577026367,-0.053958117961883545,-0.9813944101333618
382,-2.1846405076516797,-1.147167555242636,-2.475744022164546,-0.33602628111839294,0.9116032719612122,0.23678302764892578,2.066831111907959,2.91377329826355,-1.6688451766967773,-0.7003049850463867,-0.11286658048629761,-0.4328584372997284
383,-1.4417772038586543,-0.9670153655497443,-1.9754609572711863,-0.5630402565002441,0.8231948018074036,-0.07304873317480087,1.926975965499878,-3.562298536300659,-1.9809269905090332,-0.16710805892944336,1.3966081142425537,-0.05498773604631424
384,-1.3058059488784681,-0.7874577839540812,-1.732356568988252,-0.6810181736946106,0.7085616588592529,-0.18480941653251648,0.7416041493415833,0.7792747616767883,-1.5927131175994873,0.1327088475227356,-0.32799220085144043,0.4064280390739441
385,-1.0780941709184926,-0.6844750700182253,-1.757829459456146,-0.6826004981994629,0.6322664022445679,-0.36646369099617004,-0.7820517420768738,3.1681437492370605,0.03122011572122574,1.030897617340088,-0.18217796087265015,0.7521142959594727
386,-1.2144234145807058,-0.8275941599865184,-1.929181424631526,-0.6341342926025391,0.7363055944442749,-0.23606757819652557,-0.5066859126091003,-2.7233901023864746,-0.3475229740142822,-1.607290267944336,0.9024730920791626,-2.807053804397583
387,-1.2866164261655204,-0.8345011593162865,-1.962622920154875,-0.6446129679679871,0.7409616112709045,-0.18828198313713074,1.643458366394043,0.6987416744232178,-0.0659070760011673,-0.3499702215194702,1.0663046836853027,-1.1417655944824219
388,-1.3871076589517233,-0.9487245803765572,-1.9880267240949387,-0.5729168653488159,0.8126729726791382,-0.10643816739320755,-0.31246936321258545,-2.2367286682128906,1.71983003616333,0.4675396680831909,0.2560373544692993,0.40869957208633423
389,-1.6274217866478358,-1.0644251321103346,-2.137583530772503,-0.48422959446907043,0.8745102286338806,0.027449067682027817,-2.7314064502716064,-0.12901490926742554,0.9966806173324585,-0.05870860815048218,-0.01386880874633789,0.41009676456451416
390,-2.103851917224845,-1.1109050039696982,-2.462459190491409,-0.38227012753486633,0.8961007595062256,0.22555045783519745,0.9283562302589417,-1.0380635261535645,0.2745136320590973,-0.4011771082878113,-0.23206877708435059,-0.22510790824890137
391,-2.356798136193602,-1.1312848922011431,-2.5783057743216937,-0.30069053173065186,0.9049596786499023,0.3010537624359131,-1.2835016250610352,-2.056227445602417,0.6209242343902588,-0.38093486428260803,-0.2434757947921753,-0.4427010715007782
392,-2.3412918030236782,-1.1328872048519645,-2.5688488400546454,-0.3042815625667572,0.9056402444839478,0.29534485936164856,1.4940108060836792,1.1250011920928955,-1.155260682106018,-0.7585236430168152,0.13107246160507202,-0.9143328666687012
393,-1.4893259297567147,-1.0127479385863423,-1.9923391743416092,-0.5277750492095947,0.8482901453971863,-0.04309342801570892,2.1372625827789307,2.74721097946167,-2.2978944778442383,-0.543437659740448,0.8889228105545044,0.23318743705749512
394,-1.3444017732999505,-0.8198752253195968,-1.6976249781944421,-0.664901077747345,0.7310606837272644,-0.1531555950641632,1.2273589372634888,0.5450138449668884,-0.8927227854728699,0.5337823629379272,-0.04876399040222168,0.2848389148712158
395,-1.191246873612554,-0.6820745182181672,-1.6813759825344528,-0.7210208773612976,0.6304047703742981,-0.2876082956790924,-0.35256075859069824,2.210052728652954,-0.48279356956481934,0.7703068256378174,-0.5068543553352356,0.4720260798931122
396,-1.1803001665110333,-0.8384963082844116,-1.849985726338877,-0.6182512640953064,0.7436386346817017,-0.2544938623905182,-2.0877106189727783,-2.6610851287841797,1.2991076707839966,-0.1102338433265686,-0.18290865421295166,-1.1833418607711792
397,-1.3265239024715147,-0.8440219202821378,-1.9337690203388764,-0.6447368860244751,0.7473215460777283,-0.16070051491260529,0.3887886106967926,0.3120860755443573,-0.20401006937026978,-0.22155028581619263,0.18412059545516968,0.4936472773551941
398,-1.3688490479501312,-0.9012130439144156,-1.9074131755941386,-0.6080462336540222,0.7840803861618042,-0.12449024617671967,-0.2659537196159363,-2.1531453132629395,1.6118587255477905,0.7286211848258972,-0.3051375150680542,0.24637746810913086
399,-1.557455325280471,-1.0470653444207758,-2.033972722142559,-0.5000700354576111,0.8659592866897583,-0.006671831011772156,-3.0700087547302246,1.937483549118042,1.1120381355285645,-0.039923250675201416,0.0472487211227417,0.6331214308738708
400,-2.107517090855522,-1.0811458316307307,-2.59479985359921,-0.4041860103607178,0.8824973106384277,0.24048294126987457,0.431606650352478,-1.647905707359314,0.3168967366218567,-0.13257238268852234,-0.1891379952430725,-0.3347517251968384
401,-2.3627531814067724,-1.1104534385220586,-2.6556971703229815,-0.31206879019737244,0.8959002494812012,0.31618940830230713,-0.4820016026496887,-1.8152453899383545,0.7893686890602112,-0.3556710481643677,-0.21889835596084595,-0.3435026705265045
402,-2.4487825710656463,-1.149925344550337,-2.685428431140335,-0.26094526052474976,0.9127334356307983,0.31436485052108765,0.4033691883087158,1.182647705078125,-0.1354692280292511,-0.9153852462768555,-0.18890231847763062,-0.5881532430648804
403,-1.600975888803468,-1.0579213730678285,-2.1048865258457283,-0.49046093225479126,0.8713374137878418,0.014806391671299934,2.067462682723999,4.952553749084473,-2.5407142639160156,-0.38618701696395874,0.7659153938293457,0.6916602849960327
404,-1.322672076586848,-0.871730990074979,-1.7826560626209744,-0.623795211315155,0.7654439806938171,-0.1580352932214737,1.4559739828109741,1.1781079769134521,-0.8140681982040405,0.47992008924484253,0.10157567262649536,0.605316162109375
405,-1.1303165924947869,-0.7044142616656074,-1.7478950116808665,-0.6892569065093994,0.6475875973701477,-0.3248927593231201,-0.1507507860660553,2.659374237060547,-0.8561091423034668,0.6612264513969421,-0.6405075192451477,0.6487452983856201
406,-1.0018853264001182,-0.8018373022527611,-1.8978663988458966,-0.5858558416366577,0.7186349630355835,-0.3746156692504883,-3.5754523277282715,-1.187461495399475,0.8654448986053467,0.30979377031326294,-0.4226144552230835,-0.02366924285888672
407,-1.2886729392194394,-0.8458385190254678,-2.0500982617067542,-0.6368889808654785,0.7485274076461792,-0.18460527062416077,-0.7088406085968018,-1.3154815435409546,-0.21921806037425995,0.33154547214508057,-0.1190718412399292,0.47095173597335815
408,-1.3812653081031687,-0.9092371772864108,-2.0379049694619695,-0.6033463478088379,0.7890353202819824,-0.11574207246303558,-0.776447057723999,-2.3706181049346924,1.0640119314193726,0.8707109689712524,-0.22902262210845947,0.15639153122901917
409,-1.6438093052298897,-1.0593531003119105,-2.109899688944096,-0.4881323575973511,0.8720390200614929,0.03570346161723137,-2.0923774242401123,-0.3735648989677429,1.2427598237991333,0.13083255290985107,0.1834113597869873,0.4593832492828369
410,-2.119423510240211,-1.0346985239713122,-2.6324159558581672,-0.43582287430763245,0.8597084283828735,0.26638275384902954,1.3118478059768677,-2.5914578437805176,0.03448714315891266,-0.08585986495018005,-0.1672036051750183,-1.3432412147521973
411,-2.296131229624398,-1.0787704632509918,-2.5911009894301347,-0.3534952402114868,0.881377637386322,0.3133915960788727,-1.251971960067749,-2.4283299446105957,0.8289467096328735,-0.2564443051815033,-0.28028833866119385,-0.15512746572494507
412,-2.434053529411606,-1.0825689921124255,-2.6606102109261984,-0.3048734664916992,0.883165717124939,0.3564692735671997,0.8827188014984131,0.5395644903182983,-0.3840697407722473,-0.6382112503051758,0.07412487268447876,-1.0885707139968872
413,-1.6433740374683743,-1.0242907297269654,-2.04429666300153,-0.5183364152908325,0.8543457984924316,0.03768586739897728,1.8768774271011353,3.3058738708496094,-2.5766546726226807,-0.30254048109054565,0.795861542224884,0.6007571220397949
414,-1.3634228675043956,-0.8316196336036097,-1.6753986052500798,-0.6592462658882141,0.7390234470367432,-0.13870416581630707,0.9626909494400024,0.8083935976028442,-1.11509108543396,0.23262572288513184,0.12628722190856934,0.743638813495636
415,-1.1852740789703609,-0.6892711222617215,-1.6131435129685419,-0.7150680422782898,0.6359748840332031,-0.29019618034362793,-0.3041386306285858,2.355621814727783,-0.7658635377883911,0.6823989152908325,-0.6181373000144958,0.6277358531951904
416,-1.074747074104361,-0.7766561291251383,-1.781485397315224,-0.6272916793823242,0.700898289680481,-0.3394800126552582,-3.3235230445861816,-0.9985537528991699,0.5305951833724976,0.101718008518219,-0.32515066862106323,0.03908023238182068
417,-1.308861955316256,-0.8000655624533781,-1.9366641328892158,-0.6728971600532532,0.7174017429351807,-0.1803995966911316,-0.48834893107414246,-1.186851143836975,-0.26407739520072937,0.30532824993133545,0.7281548380851746,0.08915205299854279
418,-1.3579378765135504,-0.8494501571893283,-1.8627186014657953,-0.6454916000366211,0.750917375087738,-0.13951177895069122,-0.005049115978181362,-3.99160099029541,1.4556423425674438,0.8921194672584534,-0.2379627227783203,0.24301213026046753
419,-1.5485097715636953,-1.0082331571190934,-1.8952184356064465,-0.5332236289978027,0.8458908200263977,-0.011885684914886951,-2.505699396133423,0.692223072052002,1.196339726448059,-0.04348224401473999,0.056224048137664795,0.6612082123756409
420,-2.063352343453228,-1.0440314018838852,-2.445838341715912,-0.44297707080841064,0.864437997341156,0.2377350926399231,0.3668164014816284,-2.0372347831726074,0.6029775142669678,0.01240462064743042,-0.020703375339508057,-0.5464967489242554
421,-2.304220177146445,-1.0900750873327039,-2.4639830584804723,-0.34352487325668335,0.8866616487503052,0.3095511198043823,-0.8797026872634888,-1.1382348537445068,0.8447295427322388,-0.42550283670425415,-0.24106228351593018,-0.13447177410125732
422,-2.48359249688493,-1.0980606753186026,-2.6074186510136523,-0.278446763753891,0.8903260231018066,0.3602598011493683,0.3220040202140808,-0.5348867177963257,0.029577068984508514,-0.5097765326499939,0.018411219120025635,-0.6596982479095459
423,-1.7963299218195734,-1.0909369928742825,-2.0480353388275274,-0.4499627947807312,0.8870598673820496,0.10323810577392578,2.085787534713745,4.5163421630859375,-2.762094259262085,-0.5818517208099365,0.3399145007133484,0.6118650436401367
424,-1.4707421343399218,-0.8800986165315741,-1.6525082453590698,-0.6338889598846436,0.7708017230033875,-0.06363574415445328,1.8661285638809204,2.104426860809326,-1.832892894744873,0.39131999015808105,0.40459805727005005,0.8002538084983826
425,-1.2438145845943058,-0.7053531202616278,-1.5933100255153783,-0.7210416793823242,0.6483027338981628,-0.244545578956604,0.18280740082263947,2.881175994873047,-1.1446667909622192,0.6184720396995544,-0.5420710444450378,0.544533371925354
426,-1.0351801227938267,-0.7154360013743597,-1.6550292446009174,-0.6490997076034546,0.6559465527534485,-0.38523176312446594,-1.685197114944458,2.457685708999634,0.9043701887130737,0.8337616324424744,-0.44333070516586304,0.774986982345581
427,-1.3124798539695437,-0.8392988350152993,-1.8605770827295824,-0.6458219885826111,0.7441749572753906,-0.17063887417316437,-0.8109821677207947,-0.5126721262931824,-0.09856031090021133,-0.4872346520423889,0.055034637451171875,-0.24638378620147705
428,-1.294373740871466,-0.8674886875674949,-1.8278376930671194,-0.6221922039985657,0.7627071738243103,-0.1765066236257553,-1.3365185260772705,0.4279802441596985,1.4022544622421265,0.8913878202438354,-0.019604206085205078,1.001106858253479
429,-1.4352161664328176,-1.0232835472954136,-1.8423479291635405,-0.5157879590988159,0.8538219332695007,-0.07036227732896805,-0.1391502171754837,-0.9549742937088013,1.1924775838851929,-0.03371149301528931,0.3285510540008545,0.49361056089401245
430,-2.0374094465020574,-1.0747121027591733,-2.4408512512120115,-0.42510131001472473,0.8794531226158142,0.21412880718708038,-2.0839016437530518,-2.1226272583007812,0.7470501661300659,0.08502867817878723,-0.1306738257408142,-0.9760764837265015
431,-2.2713970821683525,-1.1029634528538954,-2.5130674999304095,-0.3447335362434387,0.8925476670265198,0.29071927070617676,-0.2789911925792694,-1.0620766878128052,0.8025527596473694,-0.15247413516044617,-0.005996644496917725,-0.09331616759300232
432,-2.483837646005382,-1.129137978355869,-2.668074711653771,-0.26131126284599304,0.9040440917015076,0.3382608890533447,-0.1607501208782196,0.011472387239336967,0.40313720703125,-1.1719772815704346,0.0010918378829956055,-0.437702476978302
433,-2.1608395299029586,-1.1469484948736182,-2.412629511518744,-0.3417316675186157,0.9115132093429565,0.2288297414779663,2.783230781555176,3.1726653575897217,-2.1930696964263916,-0.6169780492782593,-0.12385457754135132,-0.4036649465560913
434,-1.5215699183542095,-0.9767824862141554,-1.9400103385312422,-0.5590137839317322,0.828700840473175,-0.02754049189388752,1.6929501295089722,-4.852259635925293,-1.4580382108688354,0.03556102514266968,1.4927866458892822,-0.21144264936447144
435,-1.2923327645601757,-0.7953494413711494,-1.6843922760709455,-0.6730690598487854,0.7141082882881165,-0.19242477416992188,0.8399050235748291,2.083186149597168,-2.0569276809692383,0.20720303058624268,-0.20371711254119873,0.7049217224121094
436,-1.0092537397001133,-0.7033000106772331,-1.725630692733223,-0.6455859541893005,0.6467381715774536,-0.40613847970962524,-1.0840198993682861,3.4466962814331055,0.21273475885391235,1.2079944610595703,-0.2774602770805359,0.905802845954895
437,-1.1192047669779637,-0.8423976747525672,-1.8888549101752525,-0.5989439487457275,0.7462413311004639,-0.2904995083808899,-1.9143040180206299,-2.3508522510528564,0.08133850246667862,-1.440377950668335,0.35161322355270386,-0.20123019814491272
438,-1.2775266079184173,-0.858478890340149,-1.9576347819690196,-0.6256836652755737,0.7568492293357849,-0.18894217908382416,0.6728494167327881,0.5257860422134399,0.3408104479312897,-0.43608391284942627,1.0414295196533203,0.5739824771881104
439,-1.3045780508210907,-0.97318448165067,-1.9463219319212506,-0.5428485870361328,0.8266817331314087,-0.14802990853786469,-0.5984401702880859,-0.42719513177871704,1.6572790145874023,0.2749805450439453,0.040856778621673584,0.7102705240249634
440,-1.7632275037199334,-1.091792409002728,-2.436636289569566,-0.45238828659057617,0.8874544501304626,0.08814429491758347,-4.947242736816406,-3.792121171951294,0.3456496596336365,-0.11966371536254883,-0.15181297063827515,-0.40305519104003906
441,-2.1579590458515168,-1.0990806367921846,-2.6181403820135025,-0.3783075511455536,0.8907899856567383,0.25174635648727417,-0.36003896594047546,-3.2795047760009766,0.37699154019355774,-0.005679786205291748,-0.20908856391906738,-0.20323866605758667
442,-2.4650412624211113,-1.1227137685998807,-2.81438612111835,-0.2712538540363312,0.9012794494628906,0.33781173825263977,-0.17539562284946442,0.08968645334243774,0.6429500579833984,-0.9626481533050537,-0.14984512329101562,-0.4293186664581299
443,-2.1902989106309336,-1.1552052757027091,-2.5734723784706848,-0.3287043869495392,0.9148778319358826,0.23441827297210693,3.3439176082611084,2.351148843765259,-1.975124478340149,-0.6362918615341187,0.038628578186035156,-0.6402410268783569
444,-1.4791546361907835,-0.9601459495772772,-1.9444392064182754,-0.5709942579269409,0.8192752599716187,-0.05247385427355766,1.0101726055145264,-4.839437484741211,-1.6104423999786377,0.014079034328460693,1.5598902702331543,-0.00018423423171043396
445,-1.280887224852238,-0.805423322386172,-1.754416079600991,-0.6638951301574707,0.721123993396759,-0.19804906845092773,0.7405474185943604,2.092941999435425,-1.9284791946411133,0.2717137336730957,-0.25126010179519653,0.5566458702087402
446,-1.0723811561116825,-0.7208492302624453,-1.7864729691107049,-0.6598499417304993,0.6600229144096375,-0.3591209948062897,-0.7712734341621399,2.8544883728027344,0.2102910280227661,0.9755542874336243,-0.3177071809768677,0.8811241388320923
447,-1.2113188768196363,-0.8689007605186629,-1.9740029294009225,-0.6043957471847534,0.7636196613311768,-0.2271357923746109,-0.5071148872375488,-4.041414737701416,-0.9313782453536987,-1.823979377746582,1.3123385906219482,-3.0796267986297607
448,-1.226660229650793,-0.8255672954284077,-1.9819102167136742,-0.6383790373802185,0.7349326014518738,-0.22879336774349213,0.8182568550109863,2.5472090244293213,0.2630051076412201,0.5754212737083435,0.6422188878059387,1.4560120105743408
449,-1.284911445893544,-0.9787643206961845,-1.958781966115099,-0.5353984832763672,0.8298084139823914,-0.15737326443195343,-0.37881630659103394,-2.3085081577301025,2.3159515857696533,0.2955608367919922,0.5778758525848389,0.47179585695266724
450,-1.8293007538174786,-1.1238025247238008,-2.462411299729571,-0.4178943634033203,0.9017506241798401,0.11049994826316833,-4.88319730758667,-1.028342604637146,1.119910717010498,-0.2916088104248047,-0.2980213761329651,-0.12873423099517822
451,-2.210255898289145,-1.1310339677277526,-2.7163824389043927,-0.3416088819503784,0.9048528671264648,0.2540559470653534,-0.5510204434394836,-2.2678420543670654,0.25931307673454285,-0.1609697937965393,-0.31207960844039917,-0.0879639983177185
452,-2.4856790375296867,-1.1332905221017042,-2.920403186003209,-0.25839632749557495,0.9058112502098083,0.33576375246047974,-0.062300439924001694,0.346310019493103,0.4394645690917969,-0.8720052242279053,-0.04945749044418335,-0.2178744375705719
453,-2.0649830467129284,-1.1719937923072778,-2.522443951312913,-0.34185510873794556,0.9215266704559326,0.1841840296983719,3.6406912803649902,2.406733274459839,-2.350389242172241,-0.5280789732933044,0.2527897357940674,-0.3133190870285034
454,-1.4786153599694754,-0.9664188514547056,-1.981267335776365,-0.5658371448516846,0.8228560090065002,-0.05230765789747238,3.0611138343811035,-4.56408166885376,-1.7202770709991455,0.27050334215164185,1.543034315109253,-0.368346631526947
455,-1.2583304789725578,-0.7994731792222225,-1.710559509823153,-0.6633306741714478,0.7169889807701111,-0.21428801119327545,0.3811514973640442,2.569772720336914,-1.2816309928894043,0.38630741834640503,-0.3342832922935486,0.7872250080108643
456,-1.0515731765767191,-0.7502183811434301,-1.747049445539009,-0.6351267695426941,0.68179851770401,-0.3629944622516632,-1.266480803489685,2.5587713718414307,0.3466535210609436,1.1609903573989868,-0.34203100204467773,0.9494965076446533
457,-1.2185291381873693,-0.863418758882499,-1.9427931488413033,-0.6099377274513245,0.7600686550140381,-0.22421306371688843,-1.8193891048431396,-1.648711085319519,-0.6598345041275024,-1.8769396543502808,0.7066823840141296,0.4640964865684509
458,-1.312777231708867,-0.8534912438358747,-2.0136622198591585,-0.6355960965156555,0.7535799741744995,-0.16773481667041779,2.1429624557495117,-1.928391695022583,-1.2607885599136353,-1.3205502033233643,1.3917447328567505,-1.8418018817901611
459,-1.4247591118175382,-0.9440106912152052,-2.040199708362036,-0.5803008675575256,0.8099170327186584,-0.08535315841436386,-0.46497514843940735,-1.0004935264587402,1.5902245044708252,0.4808593988418579,0.2813457250595093,0.6561844348907471
460,-1.8903898010214744,-1.0708494869378231,-2.5085956927077704,-0.4551047682762146,0.877608060836792,0.15061159431934357,-3.819836139678955,-2.039604663848877,1.3746079206466675,-0.1444740891456604,-0.23213070631027222,-0.08693671226501465
461,-2.226988274986798,-1.0996814644468627,-2.7430687929019424,-0.35961848497390747,0.89106285572052,0.2769138216972351,-0.26790735125541687,-2.463433027267456,0.10945293307304382,-0.20245420932769775,-0.30749058723449707,-0.10943332314491272
462,-2.4748956879862933,-1.0839350083737311,-2.861658627893522,-0.2893180251121521,0.8838056325912476,0.3676718473434448,-0.0370500311255455,-0.8675738573074341,0.39255645871162415,-0.7284278869628906,-0.007249295711517334,-0.11317053437232971
463,-2.4038710782058956,-1.1323062472502692,-2.7096961118107483,-0.28556910157203674,0.9053937792778015,0.3141850233078003,2.6422512531280518,0.6221082210540771,-1.3082646131515503,-0.7827292084693909,0.013246238231658936,-0.7170628309249878
464,-1.5617671473537167,-1.0040540461542187,-2.0472593394941025,-0.5368648171424866,0.843654453754425,-0.0048475805670022964,2.129483938217163,-0.718230664730072,-2.036393880844116,-0.22784465551376343,1.3592875003814697,-0.033528268337249756
465,-1.3556402806841727,-0.8359573481624942,-1.6863759030970373,-0.6550089716911316,0.7419387102127075,-0.14314481616020203,1.0807156562805176,0.8197193741798401,-1.6195238828659058,0.029856324195861816,-0.16083824634552002,0.14624230563640594
466,-1.1639537252925898,-0.7362647139520085,-1.6757535138286677,-0.6804993152618408,0.6715248227119446,-0.29321524500846863,-0.4208831489086151,1.4719709157943726,0.06353213638067245,1.0469238758087158,-0.6389015316963196,0.5408653616905212
467,-1.2039169560195984,-0.8786557588756083,-1.8554399134260815,-0.595716118812561,0.7698817253112793,-0.22892023622989655,1.288175106048584,-1.9678491353988647,0.6141036748886108,-0.23985517024993896,0.24586528539657593,-3.1682355403900146
468,-1.3373745107010833,-0.8460776081346637,-1.9163096302080513,-0.6449466347694397,0.748685896396637,-0.15333972871303558,2.323354482650757,1.0663472414016724,-0.1008584126830101,-0.345730185508728,0.8308733105659485,0.1411784440279007
469,-1.3631587561618899,-0.8917220224152818,-1.8606546234051335,-0.614582359790802,0.7781544327735901,-0.12947647273540497,0.23833271861076355,-1.7847728729248047,1.8772435188293457,0.5113109350204468,0.33524882793426514,0.7538966536521912
470,-1.722309230547585,-1.0564762303259512,-2.151214837686804,-0.4863072335720062,0.8706274032592773,0.07425086200237274,-3.7839255332946777,-0.7096462249755859,1.270559310913086,-0.2382715940475464,-0.19449520111083984,0.3622572422027588
471,-2.1290451759311515,-1.0833850294327183,-2.5260423926830646,-0.39723876118659973,0.8835482001304626,0.24808065593242645,1.0126972198486328,-3.177537202835083,0.06928277015686035,-0.24858948588371277,-0.28622764348983765,-0.20405900478363037
472,-2.388173664247883,-1.097801685101561,-2.626986561670723,-0.3116614818572998,0.8902080655097961,0.3322606086730957,-0.14402329921722412,-0.34157875180244446,0.6891855001449585,-0.5270988941192627,0.08496600389480591,-0.5409245491027832
473,-2.3053314764567374,-1.1203986193579119,-2.5534616454755756,-0.32307228446006775,0.9002740383148193,0.29177242517471313,1.9655829668045044,1.3018444776535034,-1.707230567932129,-0.9144613146781921,0.06705701351165771,-0.7279449701309204
474,-1.477581003509157,-0.9729323126606156,-1.8735613182737352,-0.5604345798492432,0.8265398144721985,-0.052392929792404175,2.8464674949645996,-1.7709754705429077,-2.0132408142089844,-0.002385854721069336,1.4983656406402588,0.011468827724456787
475,-1.3168016016941242,-0.8363917137518416,-1.5864470593911069,-0.6486448049545288,0.7422298789024353,-0.16838914155960083,0.9350033402442932,0.6721676588058472,-1.046515941619873,0.10871249437332153,-0.2378200888633728,0.32981187105178833
476,-1.1635590792637474,-0.7347359187868212,-1.5618207383119218,-0.681325376033783,0.6703912019729614,-0.2938900291919708,-0.252376914024353,1.9375578165054321,-0.40414881706237793,0.7735952734947205,-0.4988672137260437,0.5426235198974609
477,-1.1727401759362053,-0.8348015837522254,-1.7530370802369322,-0.6188378930091858,0.7411633133888245,-0.2602236866950989,-2.675309419631958,-2.246217966079712,0.39645150303840637,0.06993359327316284,-0.21554386615753174,-0.5552211999893188
478,-1.3932120087140283,-0.8165819408703365,-1.8790585894629372,-0.6739480495452881,0.7288097143173218,-0.12095679342746735,-1.541712760925293,-0.12465512752532959,0.22637417912483215,0.2611367702484131,0.5943409204483032,1.1116031408309937
479,-1.360329275556559,-0.9050363056720985,-1.8484226754077375,-0.6040273904800415,0.7864475846290588,-0.12903884053230286,-0.3294999897480011,-1.9910389184951782,2.1161651611328125,1.015038251876831,-0.2129155397415161,0.11374951899051666
480,-1.5334373498527851,-1.0654897718787402,-1.855763962379495,-0.48373812437057495,0.8750261068344116,-0.018080374225974083,-1.8326592445373535,0.2032223492860794,1.3252204656600952,0.031009793281555176,0.019932448863983154,0.7075029611587524
481,-2.1914010266272554,-1.0684414503088127,-2.4936667202076603,-0.3917059004306793,0.8764511346817017,0.28000012040138245,-1.4480319805443287e-05,-3.8759937286376953,-0.2078128457069397,-0.15623721480369568,-0.0018936395645141602,-2.040116786956787
482,-2.200201618140225,-1.0947858001443125,-2.41722416798296,-0.37042829394340515,0.8888301253318787,0.26974746584892273,-1.0717122554779053,-0.3980085551738739,0.7428273558616638,-0.3186890780925751,-0.135229229927063,-0.08023327589035034
483,-2.415181012179762,-1.081003994749098,-2.5707012343793276,-0.3124640882015228,0.8824305534362793,0.35168546438217163,0.9737288355827332,-0.16054193675518036,-0.06888950616121292,-0.4692589342594147,0.14819395542144775,-0.7676553726196289
484,-1.6367851922919532,-1.0731859972726425,-1.9554565607074121,-0.4762880802154541,0.8787257075309753,0.031475409865379333,2.6419670581817627,4.597264766693115,-2.3661115169525146,-0.4781949520111084,0.4904606342315674,0.8046756982803345
485,-1.3671779444513144,-0.8405297588184238,-1.5779080692209697,-0.6532875299453735,0.7449966073036194,-0.13489073514938354,1.3774362802505493,2.207458257675171,-1.43366277217865,0.39892351627349854,0.24856418371200562,0.516802966594696
486,-1.1577038310408778,-0.7001037963093293,-1.5317716616588553,-0.7004452347755432,0.6442970633506775,-0.3070141673088074,0.1363646537065506,2.234882354736328,-0.67791748046875,0.7035276293754578,-0.7212929725646973,0.6096874475479126
487,-0.9926641410794265,-0.7725089721250544,-1.5966633512220743,-0.5997745990753174,0.6979342699050903,-0.39135420322418213,-2.4251484870910645,1.1855566501617432,1.5594078302383423,0.5934575200080872,-0.2391940951347351,0.5518919229507446
488,-1.2953353957715128,-0.8460653378398011,-1.7423835138718518,-0.6379413604736328,0.7486777901649475,-0.18031176924705505,-0.3359466791152954,-0.6497368812561035,-0.47521060705184937,-0.2826060652732849,-0.4856621026992798,-0.41490310430526733
489,-1.3505710941109752,-0.8886423094808982,-1.770916657675085,-0.6152395009994507,0.7762165069580078,-0.13772501051425934,-1.2880351543426514,0.7749926447868347,1.487223744392395,1.3146719932556152,-0.09646803140640259,0.2837821841239929
490,-1.3720190126982312,-1.0303841875737008,-1.7221805069729978,-0.5043584704399109,0.8574967384338379,-0.10159666836261749,-0.6587400436401367,0.3904729187488556,0.834984302520752,0.1574956774711609,0.1511092185974121,0.6066930890083313
491,-1.9594415036554926,-1.0830342403598676,-2.3305175065511503,-0.43369951844215393,0.8833838701248169,0.1775878220796585,-3.15535831451416,-3.745718479156494,0.7422780990600586,-0.008088171482086182,-0.23610615730285645,-0.8459075689315796
492,-2.1420209113044395,-1.107801820267582,-2.3651152416529606,-0.375722199678421,0.8947190642356873,0.24147574603557587,-0.6324977874755859,-1.6648037433624268,0.39372268319129944,-0.12290453910827637,-0.07291126251220703,0.015299201011657715
493,-2.3807997469909727,-1.1313393699067231,-2.5667520555746868,-0.29334452748298645,0.9049828052520752,0.3081473708152771,0.08081736415624619,-0.29587480425834656,0.5139343738555908,-0.9156398177146912,-0.04815620183944702,-0.1723136007785797
494,-1.9817586136794774,-1.1094418717278907,-2.2514992066368524,-0.4080958068370819,0.8954503536224365,0.1778382509946823,2.507272720336914,2.748392343521118,-2.3853156566619873,-0.5590367317199707,0.280864953994751,-0.3938722610473633
495,-1.4785813758597817,-0.9281219990989211,-1.7665226197797406,-0.5967917442321777,0.8004958033561707,-0.055189650505781174,2.143197536468506,-2.0594120025634766,-1.3387517929077148,0.30350261926651,0.8114883303642273,-0.34810012578964233
496,-1.235166742612405,-0.7597549403361308,-1.6021239175145265,-0.6845518946647644,0.6887437701225281,-0.23879028856754303,0.5737837553024292,2.45381236076355,-1.6162254810333252,0.3740965723991394,-0.5330583453178406,0.6155297756195068
497,-1.0452304326371904,-0.7068028288095217,-1.6575568823465443,-0.6578129529953003,0.649405837059021,-0.381515771150589,-1.1456153392791748,2.4757838249206543,0.1112252026796341,0.8915165662765503,-0.236686110496521,0.8792880177497864
