,attitude.roll,attitude.pitch,attitude.yaw,gravity.x,gravity.y,gravity.z,rotationRate.x,rotationRate.y,rotationRate.z,userAcceleration.x,userAcceleration.y,userAcceleration.z
0,-0.9762602223577918,-0.7112409103606518,-1.8461569808059375,-0.6275628209114075,0.6527743339538574,-0.424323707818985,-1.7833222150802612,0.24811400473117828,-0.07462842017412186,-0.15319889783859253,-0.5599703192710876,-0.6437152624130249
1,-0.07782060186222195,0.08449766280046365,-2.4034190267783337,-0.07746470719575882,-0.08439715206623077,-0.9934164881706238,0.09114569425582886,0.1513034701347351,-0.02793802320957184,0.10334362089633942,0.01809772104024887,0.30156779289245605
2,-0.0708534991732625,0.08923030515267893,-2.4083948670773587,-0.07051258534193039,-0.08911194652318954,-0.9935225248336792,-0.07400033622980118,-0.22790928184986115,0.18156476318836212,0.11036854237318039,-0.23059019446372986,-0.0410233736038208
3,-0.09046307719404109,0.0742656273158049,-2.3989159717097834,-0.09009072929620743,-0.07419738173484802,-0.9931658506393433,-0.3458465039730072,-0.12198200076818466,0.10257107019424438,0.07638832926750183,-0.4693054258823395,-0.31027042865753174
4,-0.07091986955360813,0.11660559813692233,-2.4159330091359723,-0.07037924230098724,-0.11634153127670288,-0.990712583065033,0.6745175719261169,0.1160755306482315,0.3958342671394348,-0.016397491097450256,0.4973840117454529,-0.04691559076309204
5,-0.11173533190704572,0.10079809371557424,-2.3456136732384194,-0.11093700677156448,-0.10062748938798904,-0.9887199401855469,-0.37989315390586853,-0.6161839365959167,0.39261773228645325,-0.0029851123690605164,-0.28209346532821655,0.15037155151367188
6,-0.16979731060582018,0.12201924740613473,-2.3466698241894948,-0.16772617399692535,-0.1217166855931282,-0.978290855884552,0.7692909240722656,-0.7332919239997864,-0.3457695245742798,0.11654818058013916,0.0969974547624588,0.359485924243927
7,-0.2375326111474715,0.23250706031113066,-2.312291026608422,-0.2289735972881317,-0.23041784763336182,-0.9457688331604004,1.123449444770813,-0.7060062289237976,0.15736353397369385,0.1255953013896942,-0.05301417410373688,0.1921219825744629
8,-0.3564767123076955,0.3687798691957979,-2.3237998041971974,-0.3255123198032379,-0.36047759652137756,-0.8741267919540405,0.6239553093910217,-0.6764830946922302,-0.47578164935112,-0.020007699728012085,-0.44326385855674744,-0.21054422855377197
9,-0.31440399081517484,0.4270386774317903,-2.40562551027535,-0.2814779579639435,-0.4141772389411926,-0.8655792474746704,0.41238686442375183,1.0337939262390137,-1.2430802583694458,-0.22129914164543152,0.07755309343338013,-0.12132871150970459
10,-0.23779801190553487,0.4271424540586982,-2.5175190443932878,-0.214398592710495,-0.41427168250083923,-0.8845406770706177,-0.7039381265640259,0.34001198410987854,-1.5521771907806396,0.11366006731987,0.23836839199066162,0.15941250324249268
11,-0.1267461882854634,0.5353900158091811,-2.617297544254324,-0.10871892422437668,-0.5101765394210815,-0.85317063331604,3.251368522644043,1.7879000902175903,-0.545120358467102,0.3092041611671448,0.33820992708206177,-0.03540968894958496
12,-0.07310775786875594,0.6842027539562864,-2.6131934251114735,-0.05660244822502136,-0.632055401802063,-0.7728532552719116,-0.5685778856277466,-0.37324264645576477,0.7720140218734741,-0.05641939491033554,0.214849591255188,0.2958482503890991
13,-0.18612180238232492,0.5959431219019959,-2.4881621888043557,-0.15315023064613342,-0.5612895488739014,-0.8133259415626526,-0.26716500520706177,-0.6015062928199768,1.8640766143798828,-0.08792337775230408,0.39405322074890137,0.09898573160171509
14,-0.4325108176650369,0.4172740615371829,-2.228790365893457,-0.38318729400634766,-0.40526992082595825,-0.8300143480300903,-1.5931047201156616,-1.6226165294647217,3.3071231842041016,-0.7710332870483398,-0.06686753034591675,-0.17302215099334717
15,-0.7301068359027519,0.16024975407190387,-2.033588289351862,-0.6584039330482483,-0.1595647633075714,-0.7355564832687378,-0.4743970036506653,-2.7527010440826416,1.5786083936691284,-0.4745611548423767,-0.2206232100725174,-0.1433497667312622
16,-0.8647212824651516,-0.0638247066644211,-1.852400859227716,-0.7593651413917542,0.06378138065338135,-0.6475310921669006,1.5353467464447021,-0.1850382387638092,4.208032131195068,-0.20354074239730835,-0.8875882029533386,-0.4131377935409546
17,-0.948623968159197,-0.17130479500262427,-1.573318976460556,-0.80072021484375,0.17046819627285004,-0.5742714405059814,-0.4986616373062134,-0.8711611032485962,1.7875834703445435,0.2493133544921875,-0.22481998801231384,0.07070088386535645
18,-1.0706269004842908,-0.33138613145640755,-1.5496279649308902,-0.8297585248947144,0.32535406947135925,-0.4534817039966583,-0.568185031414032,-1.7995936870574951,1.861350178718567,-0.7236624956130981,0.006478846073150635,-0.25695228576660156
19,-1.2331440741360296,-0.45271179018483365,-1.6422074219498413,-0.8484872579574585,0.4374057650566101,-0.29790180921554565,-0.9474090337753296,-0.4919763207435608,-0.30042150616645813,0.8488993048667908,0.6964748501777649,0.12126609683036804
20,-1.3062763840672322,-0.5384770000481268,-1.7746896396368552,-0.828630805015564,0.5128291249275208,-0.22444891929626465,-1.510664463043213,0.2623991370201111,0.9044950008392334,-0.48542553186416626,0.34520310163497925,-0.24152396619319916
21,-1.3974257776482297,-0.6210394136418537,-1.9230744266480837,-0.8010822534561157,0.5818808078765869,-0.14029249548912048,-1.3200956583023071,-0.527721107006073,0.8592259883880615,0.4443012475967407,-0.3265860080718994,-0.05491316318511963
22,-1.5996729835078647,-0.7947924047729362,-2.1040400682910096,-0.7001411318778992,0.7137182354927063,0.020223356783390045,-0.4651164710521698,-1.3479093313217163,1.395113229751587,-0.05645066499710083,-0.8202855587005615,-0.23909533023834229
23,-1.6687889061063506,-0.8995068988579821,-2.0265118168837053,-0.6190123558044434,0.7830203175544739,0.06085352599620819,0.5358259677886963,-0.30525174736976624,0.9070084095001221,-0.46079111099243164,-0.3127291202545166,-0.2568373680114746
24,-1.5167766489127108,-0.9101495674970038,-1.8499066571632221,-0.6127327680587769,0.7895955443382263,-0.033131860196590424,0.49099087715148926,1.085184097290039,-0.9407256841659546,-0.3491508364677429,0.20411795377731323,0.022511716932058334
25,-1.2935158464128587,-0.7526701197466799,-1.7462749901458854,-0.7019878029823303,0.6835900545120239,-0.19979430735111237,2.1247096061706543,1.6013295650482178,-1.7504931688308716,-0.022407948970794678,0.5037878751754761,-0.04968690872192383
26,-1.144250142408516,-0.489821392157202,-1.6142130955849796,-0.8033523559570312,0.47046828269958496,-0.3650813400745392,0.5440636873245239,0.3257482349872589,-2.8779895305633545,0.5730057954788208,0.049734294414520264,-0.016571491956710815
27,-1.1145036648422169,-0.2801899044619845,-1.7355765647545272,-0.8626848459243774,0.2765381634235382,-0.4234400689601898,-0.8823882341384888,0.41462671756744385,-2.482966899871826,0.14964163303375244,-0.3571960926055908,0.2614375352859497
28,-1.197186212083136,-0.17037369599560628,-1.843253867880188,-0.9175360202789307,0.16955064237117767,-0.3596945106983185,0.2692883014678955,-0.6918365359306335,-2.4843523502349854,-0.6596581339836121,-0.28559374809265137,-0.5034952163696289
29,-1.2660893858026767,-0.047408076747764885,-1.9908117744002436,-0.9528631567955017,0.04739031940698624,-0.2996765673160553,-0.5753212571144104,-0.8067913055419922,-0.8820362687110901,-0.1518121361732483,0.39216962456703186,-0.06749570369720459
30,-1.3520016503380883,-0.0873607533731829,-2.123299013200993,-0.9724370837211609,0.08724967390298843,-0.21622543036937714,-1.8010882139205933,-0.3951304852962494,0.33985647559165955,-0.36527037620544434,0.036636434495449066,0.15708239376544952
31,-1.508326631488712,-0.24275102472394552,-2.1557185467122104,-0.9687869548797607,0.240373894572258,-0.06059867516160011,0.3767591118812561,-1.8158224821090698,0.9051799178123474,0.7719181180000305,-0.21591408550739288,-0.006189044564962387
32,-1.627278270152436,-0.2848606487151148,-2.0981413234293886,-0.9581703543663025,0.28102371096611023,0.054176945239305496,0.36846575140953064,-0.9372259378433228,0.5708204507827759,0.22269678115844727,-0.14038348197937012,-0.128182053565979
33,-1.6945059581211022,-0.3923849688819931,-2.061317164953009,-0.9169383645057678,0.3823932111263275,0.1140163391828537,0.40284666419029236,-0.053805459290742874,0.9744648337364197,-0.15538841485977173,-0.34662652015686035,-0.24031327664852142
34,-1.615633574798354,-0.43240254222683805,-1.985421928604509,-0.9070490002632141,0.41905343532562256,0.04069685935974121,0.8098298907279968,1.4269870519638062,-0.5948742628097534,-0.3609563112258911,0.07766592502593994,0.001417398452758789
35,-1.5141246907085386,-0.40826797668594444,-1.9550890774819345,-0.9163365364074707,0.39702025055885315,-0.051985956728458405,-0.15895703434944153,1.0053346157073975,-0.826328694820404,-0.09730494022369385,0.344099223613739,-0.0622718408703804
36,-1.483517464948967,-0.3383523253852533,-1.9762448789265863,-0.9397122859954834,0.33193328976631165,-0.08222591131925583,0.5235983729362488,-0.2483026087284088,-1.5211291313171387,0.1971585750579834,-0.5086910724639893,0.11944210529327393
37,-1.5045269610030454,-0.14039432436720492,-1.8690592867606155,-0.9879876375198364,0.13993357121944427,-0.06556932628154755,1.638772964477539,-0.44129040837287903,-0.07900033891201019,0.7696647644042969,0.003529593348503113,-0.18897777795791626
38,-1.4388050778074444,0.048216410195623324,-1.8210965434233048,-0.9901497960090637,-0.048197731375694275,-0.13145539164543152,0.3835621178150177,0.5967044234275818,-2.0905344486236572,0.26189351081848145,-0.17543509602546692,-0.04942232370376587
39,-1.4067437472387418,0.3231346373635277,-1.8779489264191909,-0.9355131387710571,-0.3175405263900757,-0.15486514568328857,-0.18998689949512482,0.05303042382001877,-4.470202922821045,-0.7391694784164429,0.009679168462753296,0.2613562345504761
40,-1.530586699266746,0.5581368059465633,-2.0179285616947062,-0.847557783126831,-0.5296066999435425,-0.03409836068749428,-0.9923906326293945,-0.3428393304347992,-0.45884814858436584,-0.022467851638793945,0.4703415632247925,0.07189440727233887
41,-1.4561445308239687,0.5259518161121126,-2.08553163599604,-0.8591685891151428,-0.5020363926887512,-0.09893912076950073,-0.8106727600097656,0.635988712310791,-0.11009743064641953,0.20389503240585327,0.16036158800125122,0.35984915494918823
42,-1.416388075922454,0.4622478619317369,-2.1183997023841568,-0.8844034671783447,-0.4459611773490906,-0.13765493035316467,0.09980124980211258,0.2469233274459839,1.0260834693908691,0.12236440181732178,0.34153008460998535,0.09139026701450348
43,-1.3794336841342645,0.3003794769848974,-2.0437588825300423,-0.937787652015686,-0.2958827018737793,-0.18168064951896667,-0.21500620245933533,1.5632257461547852,1.524682641029358,0.032971978187561035,-0.4605107307434082,-0.09396934509277344
44,-1.202987651293027,0.19660477397755852,-2.0089169897602397,-0.9151414632797241,-0.19534064829349518,-0.35264456272125244,0.34041228890419006,2.3792757987976074,1.4407280683517456,-0.4629560708999634,-0.579714298248291,-0.36352670192718506
45,-1.0919436591594023,0.17323220163704425,-1.9153851777160773,-0.8742403984069824,-0.17236706614494324,-0.4538648724555969,0.43852636218070984,0.46811169385910034,-1.5766578912734985,-0.3924374580383301,0.4621772766113281,-0.11803454160690308
46,-1.0753747876818922,0.2821314676118591,-2.074145778903145,-0.844986081123352,-0.27840349078178406,-0.4566071331501007,-2.927140712738037,-0.5041729211807251,-1.7512505054473877,0.36360180377960205,0.17002028226852417,0.3663513660430908
47,-1.013755654054467,0.17159800339466436,-2.408607543083832,-0.8363567590713501,-0.17075709998607635,-0.5209119319915771,-0.0005591546650975943,-0.5377543568611145,0.4218411147594452,0.5324932932853699,0.22994592785835266,0.7672498226165771
48,-1.1442154016090293,0.10514573193704674,-2.224687962871767,-0.9053578972816467,-0.10495209693908691,-0.41147544980049133,0.11318869888782501,-1.3352066278457642,1.7069047689437866,-0.3451608419418335,-0.6389443874359131,-0.7143332362174988
49,-1.1763801812440233,0.13320844258697448,-2.301237696596775,-0.9150422215461731,-0.13281483948230743,-0.3808649480342865,-2.3139736652374268,-0.7879402041435242,-1.2351332902908325,-0.8824126720428467,-0.15415719151496887,0.5437220335006714
50,-1.2971917373385153,0.12604754124874804,-2.3326033837796456,-0.9551648497581482,-0.1257140338420868,-0.2680600583553314,0.06970145553350449,-0.9401770234107971,1.0274662971496582,0.6188916563987732,0.9059722423553467,0.3334745168685913
51,-1.3168754751961762,0.029048295349631756,-2.237610379669678,-0.9675266146659851,-0.02904421091079712,-0.2510950565338135,0.7840245962142944,0.6537155508995056,0.26665470004081726,-0.7280300259590149,-0.8799523711204529,-0.22174429893493652
52,-1.4070563847528508,-0.05634951948667115,-2.2315394331201577,-0.985058605670929,0.0563197024166584,-0.16275052726268768,-1.0628423690795898,-2.120579481124878,1.843151330947876,1.2383391857147217,1.1105351448059082,0.2965090870857239
53,-1.396020965652789,-0.26315840421153935,-2.1400944546347276,-0.9508633017539978,0.26013150811195374,-0.16790054738521576,2.093919038772583,5.7126336097717285,-0.6770045757293701,-2.41127347946167,-0.8528134226799011,0.3339924216270447
54,-1.1182658277669741,-0.2390890504105903,-2.0895042175817498,-0.8737608194351196,0.23681768774986267,-0.4248049259185791,-0.21440774202346802,-0.4324587285518646,2.6910459995269775,0.15226435661315918,0.11811698973178864,-0.10142487287521362
55,-1.1415731332057535,-0.42006879886276927,-1.8947082120222054,-0.8302364349365234,0.40782326459884644,-0.3799835741519928,3.6413843631744385,0.8580926656723022,-0.8852984309196472,-0.9865207076072693,0.6773970127105713,-0.5323545932769775
56,-1.065348213976452,-0.2343209652173425,-1.7901057883488862,-0.8510469198226929,0.2321825623512268,-0.47096744179725647,0.5888394713401794,1.3647037744522095,-1.0430479049682617,0.20889610052108765,-0.03865538537502289,0.31891360878944397
57,-0.9216010947422497,-0.2331842768491369,-1.8418469317535786,-0.7750118374824524,0.23107679188251495,-0.5881838798522949,-0.38669323921203613,0.5021789073944092,-0.06300315260887146,0.6346157193183899,-0.18331676721572876,0.5911593437194824
58,-0.8899266970575237,-0.2938091189422401,-2.029821913784479,-0.7437282800674438,0.2896001935005188,-0.6024948358535767,-3.6951425075531006,2.4633164405822754,-2.1361560821533203,-0.36329686641693115,-0.4155614972114563,-0.20588529109954834
59,-0.8650477363542753,-0.321649622629386,-2.193326087649041,-0.7220920324325562,0.3161320090293884,-0.6153402924537659,1.6500258445739746,-1.7138158082962036,1.0594196319580078,-0.19831806421279907,-0.03408855199813843,0.14425569772720337
60,-0.8290872459242445,-0.42436776126430487,-2.1876596186754513,-0.6719146966934204,0.41174471378326416,-0.6156273484230042,-0.4661638140678406,-0.32997825741767883,0.9032782912254333,0.3983703851699829,0.3141311705112457,-0.10043710470199585
61,-0.9994817400418363,-0.5478923206744927,-2.0941037692969755,-0.7180608510971069,0.5208892226219177,-0.4615873396396637,-0.41329577565193176,-2.473332643508911,1.5928981304168701,0.1854376196861267,-0.0831451416015625,0.5132994055747986
62,-1.1206038694176714,-0.7020092661154461,-2.1413583774206657,-0.6874690055847168,0.6457531452178955,-0.3322485685348511,-1.067893385887146,-0.11802498251199722,0.23451566696166992,-0.03883403539657593,-0.2991955876350403,-0.09753045439720154
63,-1.2744227263776922,-0.7931780037114939,-2.272144669079868,-0.6709964275360107,0.712586522102356,-0.2049003541469574,-1.3626594543457031,-0.9092158079147339,1.0152289867401123,-0.028069615364074707,-0.28823965787887573,-0.3966621160507202
64,-1.3153577089707296,-0.879497689203547,-2.2043525291275907,-0.6168516278266907,0.7704187631607056,-0.16108663380146027,0.9595602750778198,0.2084730565547943,0.12657177448272705,-0.576004147529602,0.03611499071121216,-0.2815403342247009
65,-1.0192831334462706,-0.8401440319588943,-2.039481606183461,-0.5684084296226501,0.7447392344474792,-0.3496786952018738,1.6088972091674805,2.61448073387146,0.15823420882225037,-0.23308992385864258,0.0841485857963562,0.13166114687919617
66,-0.6914167910624883,-0.8601767536931515,-1.8979678729206237,-0.4159277677536011,0.7579578757286072,-0.502497673034668,-3.1913018226623535,-2.322495460510254,1.0385864973068237,0.22203433513641357,0.0035319924354553223,-0.42282581329345703
67,-0.8781087712516907,-0.9362161078883641,-1.9840537831132357,-0.4562091827392578,0.8053206205368042,-0.37859177589416504,0.8556783199310303,3.2769510746002197,-0.740426778793335,0.0504780113697052,0.8009567856788635,0.8645079135894775
68,-0.713086702794255,-1.0035794585022324,-2.0860404737351628,-0.351477712392807,0.8433995842933655,-0.40637484192848206,-2.398033618927002,-0.1722756177186966,-0.8495616316795349,-0.014962106943130493,-0.45472776889801025,0.15573397278785706
69,-1.2738370661059022,-0.8995905865355552,-2.4140734503844534,-0.5947092175483704,0.7830723524093628,-0.18198557198047638,-1.8951033353805542,-1.8449631929397583,-0.991815984249115,-0.5253469944000244,-0.4833744764328003,0.6469208598136902
70,-1.1694873720862076,-1.0683623102743123,-2.3394648326899183,-0.4433005750179291,0.8764130473136902,-0.18810884654521942,-1.9343663454055786,-1.888570785522461,1.749991536140442,0.823809027671814,-0.14191597700119019,0.4787430167198181
71,-1.3460819161880424,-1.2332805064378096,-2.405885668583518,-0.3228181302547455,0.9435802102088928,-0.0737880989909172,-1.6159298419952393,1.0044915676116943,1.5420314073562622,-0.014538407325744629,0.2680591344833374,0.6622738242149353
72,-2.4268135312365198,-1.2329997531652486,2.9797122210527416,-0.21722210943698883,0.9434871673583984,0.2502925395965576,0.000963717233389616,-6.4169697761535645,0.016096636652946472,-0.03761492669582367,-0.08321201801300049,-1.6186091899871826
73,-2.4690323831505285,-1.2472887630855969,3.0772127878076807,-0.19804489612579346,0.9481261968612671,0.24866582453250885,-1.26387619972229,-0.7575531601905823,0.8131988644599915,-0.32714733481407166,-0.15248727798461914,-0.10694220662117004
74,-2.7162332722249443,-1.2103614259485713,2.908905608158034,-0.14553327858448029,0.935743510723114,0.32125401496887207,0.2996087074279785,-0.21319571137428284,-0.39265385270118713,-0.6316426396369934,0.1387345790863037,-0.5255081653594971
75,-1.7347117931608325,-1.2365166487500578,-2.532425584267733,-0.3236912488937378,0.9446468949317932,0.053538355976343155,2.8965632915496826,3.677084445953369,-2.27790904045105,-0.1855403184890747,0.4215487837791443,0.6192522048950195
76,-1.254121241464847,-1.0648123553274271,-2.0360089803670394,-0.46056878566741943,0.8746979832649231,-0.15092995762825012,2.100999116897583,0.7099313735961914,-0.9200707674026489,0.44790399074554443,0.3067137598991394,0.4513450264930725
77,-1.1171690587507423,-0.9022660513624133,-1.9167496345514796,-0.5571454167366028,0.7847334742546082,-0.27162879705429077,0.48925960063934326,1.433327078819275,-0.648604154586792,0.44647353887557983,-0.6977889537811279,0.501258373260498
78,-0.9214549775887673,-0.944849589796623,-1.9998183628263324,-0.46663081645965576,0.8104088306427002,-0.35425007343292236,-2.426698684692383,2.730900526046753,0.25832271575927734,0.42604246735572815,-0.46099787950515747,0.8244343996047974
79,-1.201694785273034,-0.9659009055203038,-2.1895080743220623,-0.530376672744751,0.8225615620613098,-0.2051655501127243,0.14337249100208282,0.5085087418556213,0.24093955755233765,0.20731765031814575,0.8963257074356079,-0.255848228931427
80,-1.18043419637778,-0.9777260126973074,-2.1321018180704012,-0.5168634057044983,0.8292285799980164,-0.21267807483673096,-0.6947937607765198,-2.1241605281829834,1.034091591835022,0.9954554438591003,-0.42531323432922363,0.47212332487106323
81,-1.4467605201609286,-1.1688406591801204,-2.189516126617753,-0.388213187456131,0.9202976822853088,-0.04840080440044403,-1.562538504600525,-0.7164590358734131,1.8160874843597412,-0.14106836915016174,0.33424943685531616,0.4270781874656677
82,-2.0277854093157512,-1.2482021003631076,-2.7271530597600933,-0.28449633717536926,0.9484161734580994,0.13988809287548065,-1.0236989259719849,0.09839511662721634,0.6379132866859436,-0.01816171407699585,-0.18277591466903687,-0.12775732576847076
83,-2.332743111195853,-1.2487853414544883,-3.001385920772353,-0.22896738350391388,0.9486008882522583,0.21847237646579742,-0.48676255345344543,-0.9423310160636902,0.27280348539352417,-0.27776169776916504,-0.07117486000061035,-0.059124842286109924
84,-2.5533657256863136,-1.248352000014151,3.135370747833581,-0.17583589255809784,0.9484636783599854,0.2636256814002991,-0.09126155823469162,-0.6699594259262085,0.1466042846441269,-1.0485446453094482,0.05844855308532715,-0.25770533084869385
85,-1.9935326649122387,-1.2816938800704343,-2.6454222768373237,-0.2599949538707733,0.9585001468658447,0.11696096509695053,3.0314781665802,3.5304176807403564,-1.982865810394287,-0.5628657341003418,0.18448984622955322,-0.10919429361820221
86,-1.3522608302871906,-1.0912701386513548,-2.0933915230970954,-0.4503859281539917,0.8872136473655701,-0.10002268850803375,2.0790765285491943,-4.5480780601501465,-1.34245765209198,0.3276137113571167,0.9072199463844299,-0.21464401483535767
87,-1.1451316451780287,-0.9114566561212318,-1.9388495845352858,-0.5579298734664917,0.7903969287872314,-0.2529565989971161,0.6182553768157959,1.4002189636230469,-1.4345576763153076,0.3555525541305542,-0.45775532722473145,0.5857812762260437
88,-0.9752448240540907,-0.8691240472726386,-1.9493915125988612,-0.5343668460845947,0.7637637853622437,-0.36210086941719055,-0.7405804395675659,2.252049446105957,0.3902738690376282,0.8969767093658447,-0.39884984493255615,0.7477820515632629
89,-1.2095342990645392,-0.9515722411056557,-2.1396477755269885,-0.542939305305481,0.8143290281295776,-0.20514656603336334,0.04753253608942032,-3.236978054046631,-2.688387393951416,-2.3839709758758545,2.1112232208251953,-3.2624590396881104
90,-1.2112840663312674,-0.9365500663996967,-2.2169612215982815,-0.5546867847442627,0.8055185675621033,-0.20847688615322113,2.0852293968200684,0.27951937913894653,-0.07371272146701813,-0.4869849681854248,0.4054343104362488,-0.6050301790237427
91,-1.2795309107372004,-1.0540188493660991,-2.2524460303103777,-0.47327107191085815,0.8694158792495728,-0.14188259840011597,-0.9572118520736694,-2.6473562717437744,1.3694651126861572,0.45131367444992065,0.32669007778167725,0.587469756603241
92,-1.7354196988218762,-1.2072514302754975,-2.545457020461464,-0.35078197717666626,0.9346421957015991,0.058274295181035995,-2.429387092590332,0.6805577874183655,1.1218328475952148,-0.14071884751319885,-0.0984453558921814,0.4694662094116211
93,-2.1783608274617214,-1.2411421855427558,-2.9500495827778317,-0.26578405499458313,0.9461543560028076,0.18479959666728973,-0.6793860793113708,0.5367754101753235,0.8403457999229431,-0.17075467109680176,-0.22380328178405762,0.021178841590881348
94,-2.5551007892387014,-1.2164245839309917,2.9890861352191616,-0.19204500317573547,0.9378646612167358,0.2890125811100006,-0.8783966302871704,-1.814074993133545,0.25900280475616455,-0.27820032835006714,0.058091580867767334,-0.307933509349823
95,-2.6297999833305092,-1.2221653692473198,3.000557326512886,-0.1673010289669037,0.9398412704467773,0.297839879989624,0.6935879588127136,0.04778314009308815,-0.6320660710334778,-0.6232415437698364,0.0916832685470581,-0.510181188583374
96,-1.6904948619412423,-1.2081877893109771,-2.4714831409025924,-0.3521766662597656,0.934974730014801,0.04235752299427986,2.201547861099243,3.314258337020874,-1.9189903736114502,-0.09907150268554688,0.5874557495117188,0.5808877944946289
97,-1.3389982904829358,-1.0595804395986264,-2.0532161861141174,-0.4761534631252289,0.8721503019332886,-0.1123916283249855,1.4563928842544556,0.6166908740997314,-1.526175618171692,0.07612904906272888,0.07777035236358643,0.4215194582939148
98,-1.1857502854946902,-0.9004044411758891,-1.9545480526649475,-0.575802743434906,0.7835782766342163,-0.23335881531238556,0.1159352958202362,2.145644187927246,-1.1288028955459595,0.381771981716156,-0.5216764211654663,0.47087711095809937
99,-1.0659927804316627,-0.9162974339363867,-2.0930032506253617,-0.5328307747840881,0.7933530807495117,-0.29441890120506287,-2.0192182064056396,1.6896384954452515,0.016629114747047424,0.41074520349502563,-0.46199309825897217,0.46038874983787537
100,-1.3136428662972817,-0.9310577915154423,-2.314181518852798,-0.5773555636405945,0.8022518754005432,-0.15183056890964508,-0.3119388222694397,0.8374970555305481,0.01886303909122944,-0.10942727327346802,0.04041475057601929,-0.18161970376968384
101,-1.2139902306980688,-0.9703693176339281,-2.2716065799313534,-0.5294100642204285,0.82509446144104,-0.19734331965446472,-1.0706528425216675,-0.6079685688018799,0.6887246966362,1.1815094947814941,-0.496130108833313,0.4987196624279022
102,-1.486975776028822,-1.1567965703462664,-2.332504992951416,-0.4008623957633972,0.9155191779136658,-0.03367941826581955,-1.89689302444458,-1.5496643781661987,1.7995370626449585,0.08080923557281494,0.3915945887565613,0.5066408514976501
103,-2.177119646710216,-1.2148817833588264,-3.0229548022024653,-0.28633666038513184,0.9373282194137573,0.19856305420398712,-0.3171815276145935,-1.5471243858337402,0.2524876296520233,-0.04891422390937805,-0.10648715496063232,-0.4600071907043457
104,-2.4697544005001135,-1.2150295363868042,3.1243534928640355,-0.21679651737213135,0.9373796582221985,0.27261409163475037,-0.7489331960678101,-0.4904342591762543,0.24430449306964874,-0.5233005285263062,-0.17691224813461304,0.16708311438560486
105,-2.6774642427399327,-1.1930052300584755,2.9811838886502158,-0.1651216745376587,0.9294816851615906,0.3298467695713043,0.031137067824602127,-1.0864123106002808,-0.17791317403316498,-0.6650022268295288,0.2678450345993042,-0.31969961524009705
106,-2.161053172392655,-1.2503414219181748,-2.7811099871834792,-0.2616994082927704,0.9490922093391418,0.17531968653202057,2.7921934127807617,1.84324049949646,-2.224809408187866,-0.5034983158111572,0.39531368017196655,-0.40174487233161926
107,-1.4510604609336468,-1.138672910845625,-2.2187552243916633,-0.4158015251159668,0.9080784916877747,-0.05002565309405327,0.961948573589325,-3.386457681655884,-0.5827004909515381,0.2195277214050293,0.5278192758560181,0.07993286848068237
108,-1.2244675827798899,-0.9899056315985723,-1.9489027009292825,-0.5161855816841125,0.8359742164611816,-0.18627774715423584,0.696313738822937,1.205067753791809,-1.2471290826797485,0.3450735807418823,-0.3961397409439087,0.5712722539901733
109,-1.0616482464145307,-0.9061483632851279,-1.9533050758515842,-0.538549542427063,0.7871339917182922,-0.3006403148174286,-0.5194740891456604,2.6170809268951416,-0.23393207788467407,0.7054654359817505,-0.45421773195266724,0.6618311405181885
110,-1.2357988341258468,-0.9579155282328454,-2.1574212205143666,-0.5432499647140503,0.8179942965507507,-0.1891152560710907,-1.3065050840377808,-1.639941930770874,-1.3099853992462158,-1.7027215957641602,0.4827715754508972,-0.2169516384601593
111,-1.2874558249582178,-0.9470620960094027,-2.135471909380269,-0.5607815384864807,0.811703085899353,-0.16328531503677368,0.9546206593513489,-0.24413707852363586,0.8016715049743652,-0.05414760112762451,1.8191561698913574,-0.6128682494163513
112,-1.3195878793233926,-1.104691601965771,-2.195213845187839,-0.4353044629096985,0.8933256268501282,-0.11171199381351471,-1.0071316957473755,-0.3682873249053955,1.8160929679870605,0.4269883930683136,0.17778044939041138,0.6529107689857483
113,-2.0126523082406167,-1.2313529755097599,-2.9166004684005857,-0.3009840250015259,0.9429401755332947,0.14238044619560242,-2.048924207687378,0.27071627974510193,1.1414828300476074,-0.09028178453445435,-0.27208763360977173,-0.9216773509979248
114,-2.3827778353444176,-1.2298423930168711,3.0905642860688443,-0.2300785332918167,0.9424360990524292,0.2426481544971466,-0.608324408531189,-1.862510323524475,0.36325639486312866,-0.334969699382782,-0.0990217924118042,-0.23211956024169922
115,-2.6759087862501962,-1.207281081793803,2.888746427746503,-0.15965944528579712,0.9346526861190796,0.31769993901252747,-0.4364093840122223,-0.7562469244003296,0.5061648488044739,-0.5442742705345154,0.02750551700592041,-0.4619412422180176
116,-2.4838037223487284,-1.2321204555589806,3.0413469256516485,-0.20312005281448364,0.9431954026222229,0.26291540265083313,2.9878108501434326,2.054159641265869,-1.7749780416488647,-0.7264300584793091,0.20403653383255005,-0.8860080242156982
117,-1.3982560240435937,-1.1350297899967003,-2.3854012805964953,-0.41583773493766785,0.9065467715263367,-0.07246933877468109,1.4489156007766724,-3.217355966567993,-1.0360321998596191,0.16905736923217773,0.981987714767456,-0.07152783125638962
118,-1.1952515145805291,-0.992772951356993,-2.049847888851567,-0.5082917213439941,0.8375442624092102,-0.2003970444202423,1.2201942205429077,0.7231719493865967,-1.341883659362793,0.018576204776763916,-0.382954478263855,0.5556522011756897
119,-0.9692419806578422,-0.887639856620333,-2.0075112494915266,-0.5204336047172546,0.7755841016769409,-0.3572366237640381,-0.44896751642227173,2.8586432933807373,-0.05622119829058647,0.6755393147468567,-0.4291333556175232,0.7989022731781006
120,-1.0905006612278805,-0.9972729499259572,-2.2034542305878095,-0.4812049865722656,0.8399944305419922,-0.2507013976573944,1.6450611352920532,-4.45695686340332,-1.839284896850586,-1.4579582214355469,1.0393848419189453,-4.107727527618408
121,-1.1932659050330356,-0.9883137294401387,-2.2870566896195976,-0.511359691619873,0.8350995779037476,-0.20278069376945496,2.153451919555664,-0.07961755990982056,0.6169118285179138,-0.3852466940879822,0.39361441135406494,-0.17241768538951874
122,-1.1508033034022325,-1.0885859031301284,-2.196518759227349,-0.42343613505363464,0.8859720230102539,-0.18909141421318054,-0.09785579890012741,-1.977094054222107,1.6968311071395874,0.3358200788497925,0.15185463428497314,0.5369613170623779
123,-1.5706098267300685,-1.253116165346106,-2.6544928258126785,-0.3123641312122345,0.9499626159667969,-5.82559296162799e-05,-3.5593488216400146,1.8023954629898071,0.7068333029747009,-0.12016153335571289,-0.10174167156219482,0.16320526599884033
124,-2.282727997778223,-1.2241461024523415,3.0925336983953313,-0.2572246789932251,0.9405160546302795,0.22195738554000854,0.4825900197029114,-2.0811655521392822,-0.015067458152770996,0.03760489821434021,-0.16555267572402954,-0.3302032947540283
125,-2.63002853062632,-1.2251282951359463,2.8888578008713734,-0.16586890816688538,0.9408493041992188,0.2954484820365906,-1.4249862432479858,-1.6664478778839111,0.7124688625335693,-0.7064607739448547,-0.0643388032913208,-0.43344905972480774
126,-2.4086428352401805,-1.2531156779497483,3.098915358415016,-0.20899173617362976,0.9499624371528625,0.232150137424469,2.597935914993286,1.7425795793533325,-1.834911823272705,-0.5385057926177979,0.2977029085159302,-0.7020751237869263
127,-1.3577488401752813,-1.1467792064895967,-2.3497763023604348,-0.40212321281433105,0.9114435315132141,-0.08699150383472443,1.1932960748672485,-1.9328371286392212,-0.7407861351966858,0.22506025433540344,1.1106206178665161,0.11732596904039383
128,-1.334798969486396,-1.0343915731929132,-2.1209233546440927,-0.49688345193862915,0.8595516085624695,-0.11948978155851364,0.5007703900337219,1.2971196174621582,-1.212510347366333,0.2537957429885864,-0.13793301582336426,0.40128910541534424
129,-1.172411491884841,-0.9226178118443547,-2.1279179804072057,-0.5564560890197754,0.7971848249435425,-0.2342071682214737,-0.3524619936943054,2.7968666553497314,-0.19354084134101868,0.6476426720619202,-0.55138099193573,0.6105194091796875
130,-1.1834856641703753,-0.987995792884722,-2.3012055190679206,-0.5095977187156677,0.8349246382713318,-0.20787236094474792,-0.1910424679517746,-4.297476768493652,-1.5088744163513184,-1.2765960693359375,1.1459407806396484,-3.0135326385498047
131,-1.3436105597081507,-0.950533272473279,-2.3935583777430285,-0.5663134455680847,0.8137255907058716,-0.13091853260993958,4.248164653778076,0.4496285915374756,-0.2547402083873749,-1.0433361530303955,1.398661494255066,-2.917543411254883
132,-1.3166829092509122,-1.0745618553197358,-2.3005581233815757,-0.46082770824432373,0.8793815970420837,-0.1196899339556694,0.8028311729431152,-2.0813612937927246,2.094259262084961,0.8083924651145935,-0.08101135492324829,0.501922607421875
133,-1.6116779690364609,-1.2413648719765271,-2.6055582470564924,-0.32323482632637024,0.9462264180183411,0.013221736997365952,-3.1981868743896484,2.717550277709961,0.8751351833343506,-0.01671576499938965,-0.06567221879959106,0.45893096923828125
134,-2.3100626192548956,-1.2418294210841905,3.108726918891283,-0.23873381316661835,0.946376621723175,0.21766436100006104,1.3505452871322632,-1.4451576471328735,0.029573539271950722,-0.15363070368766785,-0.13111460208892822,-0.07652053236961365
135,-2.692334416150888,-1.2399184729948085,2.856823223015634,-0.1410917192697525,0.9457575082778931,0.29263609647750854,-1.9817203283309937,-1.0038421154022217,0.8493435978889465,-0.6324220895767212,-0.024187684059143066,-0.2516510486602783
136,-2.676131576725514,-1.239954784972293,2.8747026122927957,-0.14579913020133972,0.9457693099975586,0.2902810275554657,1.5613595247268677,0.42175713181495667,-1.3064451217651367,-0.7003617286682129,0.048569679260253906,-0.7773721218109131
137,-1.4731073179094243,-1.1514857612316245,-2.4517450228473865,-0.4051893949508667,0.9133698344230652,-0.0397089459002018,1.8053064346313477,-0.24080631136894226,-1.4472697973251343,0.18532556295394897,1.367742657661438,-0.048853032290935516
138,-1.2571307945072432,-1.0222107146467128,-2.0503041574539447,-0.4960373044013977,0.8532629609107971,-0.16090157628059387,1.2725703716278076,-0.35240834951400757,-1.365171194076538,0.10744175314903259,-0.2838965058326721,0.3606390953063965
139,-1.0628898341979276,-0.8856522367155968,-2.014234310483553,-0.5529047846794128,0.7743278741836548,-0.3077542185783386,-0.3289073705673218,2.9420320987701416,-0.4294397234916687,0.7158076167106628,-0.4945732355117798,0.7028653025627136
140,-1.1359432607404178,-0.9928635989620309,-2.281209608352995,-0.495450884103775,0.8375937938690186,-0.23014090955257416,-1.3393645286560059,-3.809619188308716,0.03948083147406578,-0.4077167510986328,0.2573615312576294,-1.7331159114837646
141,-1.283571295436917,-0.9411297227118487,-2.4134707197546827,-0.5647512674331665,0.8082239031791687,-0.16682368516921997,-0.46138739585876465,-0.0449979193508625,1.2011051177978516,0.3957907557487488,0.4011724591255188,1.1209100484848022
142,-1.3058110214280383,-1.0136444055747718,-2.326216601626798,-0.5103151202201843,0.8487645387649536,-0.13848257064819336,0.6368716955184937,-3.3051066398620605,1.810056209564209,0.761428952217102,-0.11896717548370361,0.32058095932006836
143,-1.618837657202326,-1.2202786336532507,-2.58978445005777,-0.34298810362815857,0.9391950964927673,0.01649029366672039,-2.888056993484497,2.20851731300354,0.9360730051994324,-0.07305806875228882,-0.03604257106781006,0.3594862222671509
144,-2.2608853313463158,-1.2076918072399616,3.0036506188530363,-0.2739095091819763,0.9347986578941345,0.2261084020137787,0.7910141944885254,-1.4559141397476196,0.4508790373802185,-0.01825055480003357,-0.1228480339050293,-0.5452306270599365
145,-2.6163109521970296,-1.2070835138383376,2.7851124261743854,-0.17839162051677704,0.9345824718475342,0.3077859580516815,-1.7944207191467285,-1.3876230716705322,0.9235100150108337,-0.48463326692581177,-0.10357356071472168,-0.5175027847290039
146,-2.6182637518290934,-1.2058724662883078,2.8017843605719968,-0.178355872631073,0.9341509342193604,0.3091140687465668,1.5897613763809204,0.42000988125801086,-0.9321445822715759,-0.3881266713142395,0.0572279691696167,-0.9263626337051392
147,-1.4292883208156026,-1.1657387026048858,-2.5576410774541496,-0.3901326656341553,0.9190796613693237,-0.05557836964726448,1.9892827272415161,0.3513141870498657,-2.0150809288024902,-0.3089792728424072,1.1348447799682617,0.11142551898956299
148,-1.3144133361705093,-1.0040921750021041,-2.1928793436365304,-0.5193063020706177,0.8436749577522278,-0.13613732159137726,0.8283751606941223,-0.0159841887652874,-0.7565247416496277,0.6148263812065125,0.08898794651031494,0.8706954717636108
149,-1.0821880275272362,-0.8743570461126593,-2.091401291514037,-0.56642746925354,0.7671312093734741,-0.30111387372016907,0.5341799855232239,1.2572245597839355,-0.07785052806138992,0.5398924946784973,-0.8504289984703064,0.32256773114204407
150,-1.004501035459527,-0.9936298049186146,-2.249093751899744,-0.46047231554985046,0.8380120992660522,-0.2927471697330475,-4.281813621520996,-1.7156882286071777,0.48894795775413513,-0.12982919812202454,-0.328063428401947,-0.16982302069664001
151,-1.2827732470470912,-0.9310199619593439,-2.3732842104064957,-0.5724234580993652,0.8022292852401733,-0.16958679258823395,-0.8113046288490295,0.09772320091724396,0.11967819929122925,0.5822501182556152,0.18766939640045166,1.1194616556167603
152,-1.1994295470499354,-1.0147245515568633,-2.2997247199868984,-0.49187129735946655,0.8493351936340332,-0.19155257940292358,0.13057738542556763,-1.3705661296844482,1.183817744255066,0.777439534664154,-0.2096562385559082,0.3091215491294861
153,-1.4216392232547614,-1.1967752338580548,-2.436067952470858,-0.36130499839782715,0.9308657050132751,-0.05429445207118988,-2.7220816612243652,1.3133952617645264,1.3934309482574463,-0.02925899624824524,0.12989479303359985,0.5910223722457886
154,-2.217804725641415,-1.2047522714191237,3.0045907002132566,-0.2855846583843231,0.933750569820404,0.21575766801834106,-2.3951172828674316,-4.554687023162842,0.1082632839679718,0.14537161588668823,-0.24734920263290405,-1.0040266513824463
155,-2.5298753397438642,-1.2131104841262008,2.897889064364672,-0.2010577917098999,0.9367095232009888,0.286620169878006,-0.38824447989463806,-0.16399233043193817,0.5723839402198792,-0.3877178430557251,-0.09492790699005127,0.053940773010253906
156,-2.7612130079438644,-1.1714343468782826,2.7267958809318187,-0.144362211227417,0.9213092923164368,0.3610382080078125,-0.2704140245914459,-0.912520170211792,-0.33513081073760986,-0.6130077838897705,0.23239243030548096,-0.4172973930835724
157,-1.9632644111742386,-1.2342979517413293,-2.8242649965964173,-0.3050798177719116,0.9439166188240051,0.1262856423854828,2.5864977836608887,4.89106559753418,-2.7185916900634766,-0.32309404015541077,0.3407209515571594,0.7400627136230469
158,-1.456904058275408,-1.076040519397888,-2.2500276295770627,-0.4717405140399933,0.8800846934318542,-0.05396111682057381,3.070584774017334,-1.7102590799331665,-1.4204500913619995,0.4314878284931183,0.5384333729743958,-0.5107971429824829
159,-1.1957884145376585,-0.9228149117780562,-2.014851792157307,-0.5616323947906494,0.7973037958145142,-0.22107857465744019,1.2789525985717773,1.9738885164260864,-1.2408313751220703,0.2918875217437744,-0.8033157587051392,0.4718567728996277
160,-0.9675379376635084,-0.8955165623098956,-2.0277843952718575,-0.5147772431373596,0.7805321216583252,-0.3546459972858429,-1.491551399230957,2.894807815551758,0.6589175462722778,0.8244850039482117,-0.54652339220047,0.7803967595100403
161,-1.2273536886541532,-0.9562964372674776,-2.266705327520941,-0.5428802371025085,0.8170619010925293,-0.19414211809635162,-0.5930551886558533,-0.8935481309890747,-0.262307733297348,-0.45103150606155396,-0.3630213141441345,-0.43961644172668457
162,-1.2160250898742853,-0.949540892680678,-2.2078901465231513,-0.5458095073699951,0.8131483793258667,-0.20219236612319946,-1.9970449209213257,0.2594015598297119,0.836642861366272,1.6799037456512451,-0.3771742582321167,0.6010571122169495
163,-1.2787310566158487,-1.1207887154413347,-2.1910357170632198,-0.41655170917510986,0.9004437923431396,-0.12524184584617615,-1.2404334545135498,-1.4483704566955566,1.9091700315475464,0.11023160815238953,0.3987504243850708,0.49245983362197876
164,-1.9324290618552746,-1.2363647250316305,-2.999799589586078,-0.3070029318332672,0.9445970058441162,0.11612939834594727,-3.6472935676574707,-1.883551836013794,0.27842628955841064,0.06217566132545471,-0.37210237979888916,-0.6510567665100098
165,-2.3483246307457675,-1.2333921563053067,3.1110749573754837,-0.2359144687652588,0.9436171650886536,0.23223015666007996,-0.4487285912036896,-2.090266466140747,0.41520917415618896,-0.3178117275238037,-0.12719571590423584,-0.12146665155887604
166,-2.7232663079557127,-1.199019029309896,2.833992819619014,-0.14757269620895386,0.9316831827163696,0.33194729685783386,0.44759926199913025,0.5832570195198059,0.14648491144180298,-0.9033001661300659,0.11249113082885742,-0.5464859008789062
167,-2.2399834586211216,-1.248563024312646,-3.041805090719074,-0.24838492274284363,0.9485305547714233,0.19645556807518005,3.510284900665283,3.1168465614318848,-2.3300204277038574,-0.6374946236610413,0.32032930850982666,-0.42207205295562744
168,-1.4086728556176542,-1.127257855766553,-2.329318401903719,-0.42351073026657104,0.903238832950592,-0.06926898658275604,1.463452696800232,-5.330642223358154,-0.335611492395401,0.41525575518608093,0.9668172597885132,0.08584005385637283
169,-1.2574414376060528,-0.9689227499310591,-2.0644393051605707,-0.5386171340942383,0.8242762684822083,-0.17452844977378845,0.7877946496009827,1.6324208974838257,-1.6796696186065674,0.12110620737075806,-0.5015681982040405,0.5648788213729858
170,-0.9990902880140304,-0.8861125562244001,-2.0566140233527066,-0.5318588614463806,0.7746191024780273,-0.3421863615512848,-0.5958365797996521,2.7860753536224365,0.260130912065506,1.0514206886291504,-0.5096502304077148,0.7904742956161499
171,-1.2088015814577449,-0.960895376649158,-2.2611380314475777,-0.5356651544570923,0.8197047710418701,-0.2028467059135437,-1.7339738607406616,-1.6648273468017578,-1.4264562129974365,-1.5552008152008057,0.6819583177566528,0.2055017650127411
172,-1.1451476230677966,-0.9387179456957532,-2.2424794252830917,-0.5381043553352356,0.8068013191223145,-0.24395766854286194,-1.5464407205581665,2.571007490158081,0.8683666586875916,1.2423127889633179,-0.13527727127075195,1.9036104679107666
173,-1.3470822995682254,-1.1149694992565826,-2.284643589289323,-0.42923489212989807,0.8978973627090454,-0.09766056388616562,-0.7102103233337402,-3.7604219913482666,2.638256311416626,0.5311789512634277,0.3917296528816223,0.47928285598754883
174,-1.71070262319467,-1.274270123225647,-2.7896574228750834,-0.28934434056282043,0.9563573002815247,0.040747303515672684,-3.3774263858795166,3.0759503841400146,0.6344054937362671,0.05986744165420532,-0.2183050513267517,0.1285794973373413
175,-2.399502137476771,-1.2333466018618855,2.95571176775682,-0.22375506162643433,0.9436020851135254,0.24402624368667603,0.8783567547798157,-2.141753673553467,-0.07329053431749344,-0.21720871329307556,-0.1330857276916504,-0.2303849458694458
176,-2.677989811342706,-1.2309612557290457,2.8180205612177867,-0.14905714988708496,0.9428096413612366,0.29814764857292175,-1.7171066999435425,-1.529808759689331,0.594558596611023,-0.7106077671051025,0.1067204475402832,-0.007177799940109253
177,-2.6477156565248725,-1.2261911375996009,2.8837695436868738,-0.16014364361763,0.9412088990211487,0.29745548963546753,1.7492527961730957,1.4954403638839722,-1.6249499320983887,-0.6947910189628601,0.06565755605697632,-0.5699775218963623
178,-1.3648892219166255,-1.1260479227521798,-2.391562206174165,-0.42114245891571045,0.9027189612388611,-0.08796289563179016,2.119699478149414,-0.21587035059928894,-1.301632046699524,0.04550161957740784,1.5042481422424316,0.035045452415943146
179,-1.1698764621457687,-1.0100863899538104,-2.062727137895376,-0.48961812257766724,0.8468778133392334,-0.20753832161426544,1.5861666202545166,-0.11604049801826477,-0.8958610892295837,0.19524556398391724,-0.3591458201408386,0.24046677350997925
180,-0.9548835856503126,-0.8891014939692422,-1.9468621956999108,-0.5143250823020935,0.7765058875083923,-0.36401695013046265,0.051176298409700394,2.5752692222595215,-0.15738323330879211,0.6625337600708008,-0.6021437048912048,0.7753176093101501
181,-1.0685947553133002,-1.0119292745674093,-2.1787808861251485,-0.4647563397884369,0.8478564023971558,-0.2552277147769928,-0.1247987449169159,-9.258877754211426,-0.6615732312202454,-0.230663001537323,0.5734997987747192,-3.148733615875244
182,-1.2632917797965157,-0.9760435768043563,-2.2811551158377052,-0.5340213179588318,0.8282870650291443,-0.16959351301193237,0.4617834985256195,0.24709948897361755,0.4595760703086853,-0.03639799356460571,0.239568829536438,0.7135388255119324
183,-1.1079876583899102,-1.0508148541254485,-2.1557549574405965,-0.44459494948387146,0.867828369140625,-0.22183144092559814,-0.013033856637775898,-1.5679279565811157,1.9289191961288452,0.6218868494033813,-0.037017881870269775,0.49325478076934814
184,-1.5457916322296217,-1.2519564522282924,-2.5179688516716605,-0.3133668899536133,0.9495997428894043,-0.00783727690577507,-3.535158395767212,1.2863490581512451,0.9893624782562256,-0.17682167887687683,-0.14785724878311157,0.27646827697753906
185,-2.22642111735496,-1.257997117343319,-3.1164652027173187,-0.24392172694206238,0.9514759182929993,0.1876046061515808,0.9282305836677551,-1.242806315422058,-0.029103830456733704,-0.18393468856811523,-0.1827535629272461,-0.14719931781291962
186,-2.563004676819218,-1.2454954873744044,2.967944415809842,-0.17476731538772583,0.9475546479225159,0.2675751745700836,-1.6989480257034302,-1.424705147743225,0.7634924054145813,-0.31767958402633667,0.014069437980651855,-0.2821930944919586
187,-2.58589101128587,-1.252332135587081,2.9635787970580836,-0.16517671942710876,0.9497174024581909,0.2659946084022522,1.0169495344161987,0.29295262694358826,-1.1705682277679443,-0.7274166345596313,0.08467566967010498,-0.5420261025428772
188,-1.4174000032160925,-1.1780325503835363,-2.3724235198206878,-0.3782488703727722,0.9238547682762146,-0.058481402695178986,2.302530527114868,2.1309080123901367,-1.6376080513000488,0.023466765880584717,1.0686988830566406,0.3823949694633484
189,-1.1594154643499464,-1.049592350995683,-2.0246633100747746,-0.4563824534416199,0.8672203421592712,-0.19910775125026703,0.9720012545585632,0.5180380344390869,-0.84768146276474,0.16207095980644226,-0.13185358047485352,0.4387318193912506
190,-1.049511259214146,-0.8941129516323995,-1.9632156270686298,-0.5430371761322021,0.7796539068222046,-0.3118496537208557,0.03115195967257023,1.7804313898086548,-0.7874293327331543,0.4752119183540344,-0.47124338150024414,0.5477811098098755
191,-0.9798660100514611,-0.9589243330158939,-2.1266364871523904,-0.47699546813964844,0.8185741901397705,-0.32001808285713196,-3.0192902088165283,0.7680460214614868,0.5222708582878113,0.05296897888183594,-0.495103120803833,0.21589207649230957
192,-1.294594563521399,-0.9634824050351163,-2.3578288268474306,-0.5490344762802124,0.8211838006973267,-0.15562188625335693,-0.43565115332603455,0.6140773892402649,-0.135573148727417,0.018455922603607178,0.9025405049324036,0.23547114431858063
193,-1.1185893749871134,-1.0191253505050475,-2.2531889772746476,-0.4714297950267792,0.8516499400138855,-0.22901111841201782,-0.38585323095321655,-1.549836277961731,1.5356024503707886,0.8056583404541016,-0.2610892057418823,0.5171581506729126
194,-1.3620880561502235,-1.2183187916471614,-2.3523774831772464,-0.3377321660518646,0.9385203123092651,-0.07152910530567169,-2.5428497791290283,0.46087443828582764,1.0991828441619873,-0.186712384223938,0.03219795227050781,0.468547523021698
195,-2.224239415198033,-1.2346279745345592,3.135450866514629,-0.2619168758392334,0.9440255761146545,0.2005370557308197,0.07284191250801086,-3.1571271419525146,-0.05364691838622093,0.0198514461517334,-0.2102763056755066,-0.6468566656112671
196,-2.33168331190776,-1.2524273191484225,-3.092092321700835,-0.2266951948404312,0.9497472047805786,0.21584582328796387,-0.3924562931060791,0.13265493512153625,0.6706238389015198,-0.1991165578365326,-0.1503545641899109,0.05940745770931244
197,-2.638994300689635,-1.2099432224143758,2.9313258439348693,-0.17007645964622498,0.9355959296226501,0.30940932035446167,-0.1534559577703476,-1.557352900505066,-0.21348699927330017,-0.7285898923873901,0.24868440628051758,-0.600684404373169
198,-2.213270297542256,-1.2580041173523833,-2.905209003094056,-0.24636292457580566,0.9514780640602112,0.18437710404396057,3.1864027976989746,1.848197102546692,-1.5821038484573364,-0.6069695949554443,0.17126363515853882,-0.6359151601791382
199,-1.3922387270667569,-1.131449471591417,-2.1583856707965445,-0.41858577728271484,0.9050296545028687,-0.0755462571978569,1.2260215282440186,-3.6530046463012695,-0.8053449988365173,0.30390068888664246,0.8109432458877563,0.11688232421875
200,-1.1906023751232246,-0.9780468067542892,-1.9169833453100111,-0.5187523365020752,0.829407811164856,-0.2073129564523697,1.1433777809143066,0.9237680435180664,-1.4107818603515625,0.14356929063796997,-0.38359183073043823,0.45854896306991577
201,-1.0050115623561409,-0.8727751106587657,-1.9111420932056957,-0.5425493717193604,0.7661154270172119,-0.34453919529914856,-0.5404326319694519,1.8550190925598145,-0.3251526653766632,0.8146288394927979,-0.3667929768562317,0.696040689945221
202,-1.2256858029961695,-0.9694040185975408,-2.15709306632299,-0.5324311256408691,0.8245486617088318,-0.19140757620334625,-0.12423095107078552,-2.732792377471924,-1.5019608736038208,-1.6819853782653809,1.314993143081665,-3.2486255168914795
203,-1.2639379076845976,-0.9359734055360851,-2.2409155834836074,-0.5653327107429504,0.8051767349243164,-0.1791353076696396,2.536187171936035,0.873698890209198,-0.241562157869339,-0.6729637980461121,0.5759574174880981,-0.9366941452026367
204,-1.2416036526693754,-1.0595500608350727,-2.215621976574135,-0.4629930853843689,0.8721354603767395,-0.15816912055015564,-0.41287872195243835,-2.475752115249634,1.996885061264038,0.5317033529281616,0.15241605043411255,0.37205153703689575
205,-1.8190558221508262,-1.2383015359592162,-2.674096737447355,-0.3163951337337494,0.9452309608459473,0.0802026093006134,-2.7549240589141846,1.9593381881713867,1.1017324924468994,-0.14568674564361572,0.04726165533065796,0.351529598236084
206,-2.2395617366680924,-1.247682545463214,-3.006848067747174,-0.24912294745445251,0.9482513070106506,0.19686856865882874,-0.20259498059749603,-1.5397599935531616,-0.1504877656698227,-0.20415468513965607,-0.24894094467163086,-0.1901547610759735
207,-2.5891616778478483,-1.2005957565558796,3.0405651639584637,-0.18985897302627563,0.9322547912597656,0.3079851269721985,-1.256360411643982,-1.5914407968521118,0.6265859007835388,-0.17059943079948425,-0.12080752849578857,-0.3462083041667938
208,-2.674703133292757,-1.187510822900898,2.980643164740187,-0.16832774877548218,0.9274409413337708,0.33394452929496765,0.9116777777671814,0.1774398535490036,-0.9348157048225403,-0.6090617775917053,0.276523232460022,-0.5290281772613525
209,-1.5888015770309387,-1.1571844207496507,-2.374987516096061,-0.4018540382385254,0.9156751036643982,0.007236264646053314,2.427623987197876,3.5989015102386475,-2.348127603530884,-0.1397109031677246,0.7880144715309143,0.574138879776001
210,-1.2823900831661694,-1.036525145524875,-1.9514881527593637,-0.48818275332450867,0.8606399893760681,-0.144833043217659,1.6927164793014526,0.389554500579834,-0.5840806365013123,0.470924973487854,0.014817893505096436,0.7353023886680603
211,-1.1337969869915674,-0.9037892929755762,-1.8025163100837875,-0.5605012774467468,0.7856767177581787,-0.26182132959365845,0.5099510550498962,1.36372709274292,-0.553860068321228,0.4316560626029968,-0.6276719570159912,0.506282389163971
212,-1.0106858329211224,-0.9982256074476857,-1.920655155799515,-0.4590063691139221,0.8405109643936157,-0.2878444790840149,-3.631662368774414,1.2862884998321533,0.7874243855476379,0.05724245309829712,-0.4137836694717407,0.42450225353240967
213,-1.3082630875211705,-0.9739613676765865,-2.0960899674882643,-0.5427698493003845,0.8271185755729675,-0.14586174488067627,-0.18979769945144653,0.5005244016647339,-0.10310707986354828,0.5035242438316345,0.3959801197052002,0.11398613452911377
214,-1.1651608004105691,-1.0627170402388533,-2.0338876278384967,-0.44702160358428955,0.8736805319786072,-0.19197434186935425,-0.6028420329093933,0.30232274532318115,1.91175377368927,0.7186890840530396,-0.4867939352989197,0.24647879600524902
215,-1.3282591867849245,-1.232875354686347,-2.1552251182697373,-0.3218235373497009,0.9434459805488586,-0.07962153851985931,-2.7393062114715576,0.21789613366127014,0.7210810780525208,0.00535622239112854,0.09076428413391113,0.4706432819366455
216,-2.230034771721178,-1.235363787825765,-2.9997742474541784,-0.26020151376724243,0.944267988204956,0.20162633061408997,-0.642859935760498,-2.939873218536377,0.1585136204957962,0.10892587900161743,-0.18387675285339355,-0.7755703926086426
217,-2.3882637091752454,-1.2610172747181263,-2.999380306546972,-0.2085377722978592,0.9524009227752686,0.22236110270023346,-0.5669233798980713,-0.6421684622764587,0.7522718906402588,-0.2182048112154007,-0.15428990125656128,0.0038503706455230713
218,-2.7113201169803154,-1.205128714858518,2.996114917637521,-0.14915022253990173,0.9338852763175964,0.324980765581131,0.4739818871021271,0.9244813919067383,0.031300999224185944,-0.7853285074234009,0.11100602149963379,-0.4918051064014435
219,-2.052067444909264,-1.2406608297092323,-2.719981093116692,-0.2873477637767792,0.9459984302520752,0.15006092190742493,3.2910032272338867,2.846764326095581,-2.4980506896972656,-0.5561581254005432,0.4531409740447998,-0.32820725440979004
220,-1.4205476393655774,-1.0768198353823975,-2.1196081581679618,-0.46878913044929504,0.880454421043396,-0.07096979767084122,1.8456463813781738,-3.907566547393799,-1.0268826484680176,0.5295801162719727,0.5700154900550842,-0.4266955852508545
221,-1.1919554483481392,-0.9149772291713837,-1.895436468604863,-0.5665695071220398,0.7925487160682678,-0.22553393244743347,0.939578652381897,1.1072121858596802,-1.3542885780334473,0.2504226565361023,-0.4687877297401428,0.41957998275756836
222,-0.9653191657302742,-0.8742307303409697,-1.882343928107285,-0.5275324583053589,0.7670501470565796,-0.3651621341705322,-0.7496002316474915,2.258066177368164,0.6493164896965027,0.9659938812255859,-0.49306339025497437,0.7737467288970947
223,-1.225983972817229,-0.9736020136113408,-2.1053739937713103,-0.5292257070541382,0.8269165754318237,-0.1900770515203476,-1.2369076013565063,-0.04650107026100159,-0.8406722545623779,-1.6593729257583618,0.19449150562286377,0.2642652988433838
224,-1.2053676461413472,-0.9797490933266031,-2.092545443111313,-0.5204371213912964,0.8303576111793518,-0.1991262286901474,-1.8171454668045044,2.3439993858337402,0.5766492486000061,0.8009242415428162,0.24065673351287842,2.388014793395996
225,-1.1884763074415976,-1.1496914296389322,-2.0831841782821354,-0.3792565166950226,0.9126378297805786,-0.15250107645988464,-0.6456115245819092,-0.46567782759666443,1.9956122636795044,0.28820735216140747,0.2565057873725891,0.5108842849731445
226,-1.7905388436833534,-1.284030334738887,-2.809558822483087,-0.27605077624320984,0.9591636061668396,0.0616556853055954,-2.501211643218994,0.5846083164215088,-0.07103888690471649,-0.25930386781692505,-0.13813382387161255,-0.08086644858121872
227,-2.1675624636269344,-1.2381623338355645,-2.8748868299165538,-0.2700943052768707,0.9451855421066284,0.18350201845169067,1.3509544134140015,0.41337254643440247,-0.8530588150024414,-0.21486049890518188,-0.21776878833770752,0.17079170048236847
228,-2.4784092442135197,-1.2099178572569476,3.119445350924954,-0.21737627685070038,0.9355869889259338,0.27825286984443665,-2.8845021724700928,-0.017471157014369965,0.4580678343772888,-0.5814213752746582,0.12346452474594116,0.12836337089538574
229,-2.481333424812334,-1.1904470503745979,-3.1383594269541972,-0.2276925891637802,0.9285350441932678,0.293221652507782,1.922573208808899,0.0658872053027153,-1.0269767045974731,-0.6431417465209961,0.08701366186141968,-0.6444789171218872
230,-1.367961371728415,-1.132548679132641,-2.2964338192244003,-0.41565367579460144,0.9054966568946838,-0.08548466116189957,2.3105130195617676,1.0622084140777588,-1.1273574829101562,-0.17727231979370117,0.9877222180366516,0.13817328214645386
231,-1.2560095663993835,-0.9725719572207338,-1.9947080837999758,-0.5355030298233032,0.8263369202613831,-0.1743670552968979,1.286888599395752,0.9774289727210999,-1.244325876235962,0.23400461673736572,-0.12539392709732056,0.3558856248855591
232,-1.0664406413022487,-0.8453636087706579,-1.9668442020271506,-0.5808492302894592,0.7482123970985413,-0.3206122815608978,0.08812393993139267,2.0614564418792725,-0.49897465109825134,0.6689382791519165,-0.45274126529693604,0.5755561590194702
233,-1.0442575146977122,-0.9559705509665487,-2.100165081336469,-0.4986874759197235,0.8168739676475525,-0.2898755669593811,-2.799429416656494,-2.5587375164031982,0.8774999380111694,-0.1384279727935791,-0.12252277135848999,-0.5983690619468689
234,-1.2981707316800692,-0.9327484173143856,-2.2423826481757936,-0.5736303925514221,0.8032600283622742,-0.1603795439004898,-0.18147611618041992,0.2507082223892212,-0.15365475416183472,-0.4178857207298279,0.5664452314376831,0.4187108278274536
235,-1.187997191212141,-0.9894798470546013,-2.1998640188781575,-0.5093806982040405,0.8357404470443726,-0.20510828495025635,-0.11166907101869583,-0.9882927536964417,1.6824113130569458,0.6156123280525208,0.010466337203979492,0.5287777185440063
236,-1.5821445907762415,-1.200657816273823,-2.4542941433067336,-0.36172163486480713,0.932277262210846,0.004105088766664267,-2.756570816040039,-0.28952351212501526,1.539872169494629,-0.09189167618751526,-0.009532392024993896,0.2918848991394043
237,-2.196251932518645,-1.234822390070593,-3.0851442865597725,-0.26727741956710815,0.9440896511077881,0.1930217146873474,-0.39148420095443726,-0.6024656891822815,0.1988598257303238,-0.12397319078445435,-0.19703465700149536,-0.17172051966190338
238,-2.390067822732522,-1.213687189459601,3.1386414088670267,-0.23866815865039825,0.9369112849235535,0.25541064143180847,-0.47706249356269836,-0.6356777548789978,0.23366282880306244,-0.13524843752384186,-0.12753945589065552,-0.17351678013801575
239,-2.6827913948562343,-1.1756482897426743,2.887372755824705,-0.17048192024230957,0.9229395985603333,0.3451353907585144,-0.23807388544082642,-0.13474446535110474,-0.16586442291736603,-0.9802749156951904,0.22746628522872925,-0.3129088878631592
240,-2.057536722589113,-1.191851575558167,-2.86507577812238,-0.32697638869285583,0.9290555119514465,0.17303866147994995,2.9344089031219482,2.42871356010437,-2.5344510078430176,-0.5011028051376343,0.5071017146110535,-0.15591824054718018
241,-1.4758764801399928,-1.0932408978514196,-2.316793261312694,-0.45754024386405945,0.8881211280822754,-0.04356055334210396,3.191603183746338,-0.7954031229019165,-0.7332761287689209,0.6236780285835266,0.4534161686897278,-0.48184531927108765
242,-1.2386373225159393,-0.9352344118868381,-1.9999593772057085,-0.56118243932724,0.8047382831573486,-0.19357368350028992,1.2846264839172363,1.4741960763931274,-1.835274338722229,0.01001971960067749,-0.4510546326637268,0.6246496438980103
243,-0.9985277487478948,-0.8640629439042079,-1.9976912021881181,-0.5458945631980896,0.7604871392250061,-0.35165101289749146,-0.9306496381759644,2.6392507553100586,0.2075919359922409,0.8140830397605896,-0.4821668267250061,0.7490509152412415
244,-1.158759106173625,-0.9459838097574622,-2.1806992619857093,-0.5359893441200256,0.811072826385498,-0.2342570424079895,-0.8177316188812256,0.022599875926971436,-0.5640944838523865,-1.0635285377502441,0.05921220779418945,-0.11548972129821777
245,-1.1983615112829533,-0.938830296043508,-2.187683178455689,-0.5502341985702515,0.8068676590919495,-0.2149582952260971,-1.4740557670593262,1.4130799770355225,0.0949108675122261,0.8468497395515442,0.3565235137939453,1.6664201021194458
246,-1.2922084459591299,-1.0807927638522303,-2.186922436138643,-0.45248401165008545,0.8823311924934387,-0.12942221760749817,-0.9090341925621033,-1.693471908569336,1.986127257347107,0.2415616810321808,0.29366379976272583,0.49087244272232056
247,-1.8719528743040321,-1.2050673026677625,-2.7829163522294835,-0.34153440594673157,0.9338632822036743,0.10608192533254623,-2.953126907348633,-1.40077543258667,0.7683122158050537,-0.06320491433143616,-0.19964098930358887,-0.4787015914916992
248,-2.1659510489156024,-1.205952165417995,-2.947759268602129,-0.2954557240009308,0.9341793656349182,0.20003746449947357,-0.1779487580060959,-2.31599497795105,0.26888003945350647,-0.10726955533027649,-0.13828086853027344,-0.15618368983268738
249,-2.5907327548236365,-1.1706507448050354,3.0372842796783837,-0.20389950275421143,0.9210042953491211,0.33192765712738037,-0.04547860473394394,-0.3357132077217102,0.05758564546704292,-0.9978827238082886,0.11567777395248413,-0.8361390829086304
250,-2.1152799630361474,-1.2185781589046385,-2.8062943524568125,-0.295094758272171,0.938609778881073,0.17869189381599426,4.328036308288574,1.6970102787017822,-1.9215366840362549,-0.41301989555358887,0.137104332447052,-0.7287560701370239
251,-1.2866030981858754,-1.038843727421914,-2.1333330887106245,-0.4868718981742859,0.8618183135986328,-0.14221517741680145,1.4578195810317993,-4.225331783294678,-0.6453995108604431,0.1125737726688385,1.1285076141357422,0.32733482122421265
252,-1.2551905517537942,-0.8907464111673741,-1.9757321469142455,-0.5977729558944702,0.7775413393974304,-0.1951846331357956,0.46298569440841675,1.3162893056869507,-1.3545516729354858,0.3578742742538452,-0.2727348208427429,0.509210467338562
253,-1.1074899385155108,-0.8264848996653862,-2.022333146114649,-0.6060467958450317,0.735554575920105,-0.3027649521827698,-0.6383832693099976,1.8954612016677856,0.5391858220100403,0.9873030185699463,-0.44807904958724976,0.6062012910842896
254,-1.098729959072626,-0.9857810621440535,-2.110754002700794,-0.4918169677257538,0.8337036371231079,-0.2511060833930969,2.121980905532837,-4.93252420425415,-1.8143423795700073,-1.6304516792297363,1.957205057144165,-4.401863098144531
255,-1.3253697529281023,-0.9390018300285562,-2.2542152085899874,-0.572895884513855,0.8069689869880676,-0.14349664747714996,-0.8535908460617065,2.7837750911712646,0.706792950630188,-1.145289421081543,0.3795238733291626,0.9901305437088013
256,-1.2133718753941296,-1.07573659242564,-2.278447231755582,-0.4450593888759613,0.8799403309822083,-0.1662142127752304,-0.3581864535808563,-1.2694454193115234,1.5714341402053833,0.7198549509048462,0.05264627933502197,0.3695527911186218
257,-1.4284903442184793,-1.1999477037562971,-2.413909771219214,-0.3587433695793152,0.9320201277732849,-0.051398757845163345,-1.8610053062438965,1.0191949605941772,1.1527596712112427,0.15827339887619019,-0.010847032070159912,0.31912946701049805
258,-2.028997491971438,-1.2650286746108064,-3.0989685861019693,-0.2699745297431946,0.9536161422729492,0.1331542432308197,-1.0175694227218628,0.0843028798699379,0.3404257297515869,-0.09521406888961792,-0.05090612173080444,-0.1518157571554184
259,-2.371694969352811,-1.2485562721300254,2.9911964872994288,-0.22043704986572266,0.9485284090042114,0.2273789644241333,-0.5661777257919312,-0.9761025905609131,0.35579079389572144,-0.25301265716552734,-0.14603829383850098,-0.03238694369792938
260,-2.602471646213913,-1.2242558933331655,2.8051236809011626,-0.17436827719211578,0.9405533671379089,0.291471004486084,-0.14408613741397858,-0.8708788752555847,0.059834904968738556,-0.6066223382949829,0.14390414953231812,-0.3341040313243866
261,-2.384193163766101,-1.2369873334826478,3.0045005621658913,-0.22510287165641785,0.9448012113571167,0.23807461559772491,1.946116328239441,1.2118375301361084,-1.670161485671997,-0.7956337928771973,0.3848649263381958,-0.350669264793396
262,-1.391272625768293,-1.1640498209245078,-2.3701039442432603,-0.3892652988433838,0.9184128642082214,-0.07064289599657059,2.3516957759857178,-1.7592544555664062,-0.6277387738227844,0.4553511440753937,0.9658339619636536,0.42788165807724
263,-1.209799398058293,-1.0125656847828044,-2.0233609033684448,-0.4955454170703888,0.8481936454772949,-0.18708893656730652,1.5184880495071411,-0.9314615726470947,-1.545991063117981,-0.01603597402572632,-0.3024020195007324,0.27322477102279663
264,-1.0742624366105002,-0.8731985609521999,-1.9596036066267815,-0.564804196357727,0.7663875222206116,-0.3060167729854584,-0.13954971730709076,2.051220178604126,-0.5807512998580933,0.5192415118217468,-0.5072475671768188,0.48640623688697815
265,-1.0560131431558324,-0.9716728522710761,-2.1512686088091715,-0.4908347427845001,0.8258302211761475,-0.2776433229446411,-1.986189365386963,0.1168026328086853,0.4594930112361908,0.13852459192276,-0.25402235984802246,-0.7065181136131287
266,-1.1826794522913824,-0.9653651771269671,-2.2348788332173997,-0.526787519454956,0.8222568035125732,-0.21537986397743225,-0.7872449159622192,-0.29980358481407166,0.19716361165046692,0.26494675874710083,0.3432399034500122,0.31956687569618225
267,-1.1926343700540756,-0.9999338704744005,-2.174598614871728,-0.5021788477897644,0.8414352536201477,-0.19950713217258453,-0.22994911670684814,-1.1115447282791138,1.2731140851974487,0.9197661876678467,-0.37999427318573,0.27102506160736084
268,-1.4436749699878366,-1.2001195088410133,-2.2749013457081544,-0.3593233525753021,0.9320823550224304,-0.045925322920084,-2.1417524814605713,-1.1068655252456665,1.7080012559890747,0.03421962261199951,0.047348737716674805,0.2234460711479187
269,-2.082082743743305,-1.2779235329979093,-2.8979177807988497,-0.25178295373916626,0.9574184417724609,0.14126253128051758,-1.2370378971099854,-1.0915371179580688,0.24718622863292694,-0.23631516098976135,-0.09575474262237549,-0.16042758524417877
270,-2.3928392988957414,-1.2446280091849595,-3.1037030477798426,-0.21811535954475403,0.9472770094871521,0.2347167283296585,-0.2846560478210449,-0.5626782774925232,0.3904673457145691,-0.22249744832515717,-0.0618247389793396,-0.11893308162689209
271,-2.672086368684994,-1.2070585473628113,2.906260828193375,-0.16096654534339905,0.9345735907554626,0.3172723948955536,0.42529046535491943,-0.11421351879835129,0.23704132437705994,-0.8274825811386108,0.3077663779258728,-0.627514123916626
272,-2.053470627386396,-1.2726067754590593,-2.832442793860256,-0.260226309299469,0.9558699727058411,0.13636241853237152,3.643850088119507,3.1730802059173584,-1.941521406173706,-0.5538452863693237,0.19889986515045166,-0.3825477361679077
273,-1.3055763077107032,-1.114130623656487,-2.1591795950437396,-0.42553991079330444,0.8975277543067932,-0.11558463424444199,1.727036476135254,-4.168875217437744,-1.074724555015564,0.35911834239959717,0.7174320220947266,-0.112076535820961
274,-1.1396656477725577,-0.9216893251972397,-1.9743194931227952,-0.5491620898246765,0.7966238856315613,-0.2526091933250427,0.7703272700309753,1.5812838077545166,-2.270535945892334,0.09211558103561401,-0.2927328944206238,0.8379058241844177
275,-0.9566732304572323,-0.8373035753381803,-2.071259761755496,-0.5471424460411072,0.7428406476974487,-0.38577577471733093,-1.428633451461792,2.623911142349243,0.12448995560407639,1.0344929695129395,-0.392270028591156,0.8042023181915283
276,-1.1308002910892947,-0.9867088149928213,-2.291951885269489,-0.4989157021045685,0.8342156410217285,-0.23487737774848938,-2.161562919616699,-1.5951558351516724,-0.800308108329773,-1.8325204849243164,0.6753973960876465,-0.16133230924606323
277,-1.1313061567170615,-0.9685255393301954,-2.3189037298405952,-0.5126784443855286,0.8240513205528259,-0.24103979766368866,0.8031104803085327,2.142120599746704,0.07592783123254776,0.28149259090423584,1.0188746452331543,0.34382301568984985
278,-1.2108788270449202,-1.0704345431827251,-2.352126850761563,-0.44900384545326233,0.877409040927887,-0.16896404325962067,-0.3020116090774536,-1.1058835983276367,1.8245371580123901,0.2807757258415222,0.5058001279830933,0.6236454248428345
279,-1.7423009708401294,-1.2436909673220393,-2.922346675779379,-0.3165893852710724,0.946976363658905,0.054835245013237,-2.5323281288146973,0.38127896189689636,0.8464868068695068,-0.06158438324928284,-0.1457679271697998,0.017537228763103485
280,-2.269924295231975,-1.22490667886518,2.8716487484670163,-0.25949758291244507,0.9407742023468018,0.21818524599075317,-0.4687446653842926,-1.0490552186965942,0.11926720291376114,-0.21238043904304504,-0.08997470140457153,-0.2049558311700821
281,-2.671709553603988,-1.1758692489673184,2.6053770367143834,-0.17420360445976257,0.923024594783783,0.34304279088974,-0.5256588459014893,-0.5539053678512573,0.36044201254844666,-0.85622239112854,0.12610846757888794,-0.97542804479599
282,-2.435169314080292,-1.206100988660006,2.8483168864303963,-0.2315172404050827,0.9342324733734131,0.2713107466697693,2.714015007019043,1.2371513843536377,-1.9278589487075806,-0.6139264702796936,0.18872284889221191,-0.9373873472213745
283,-1.360337636661583,-1.1398594998932898,-2.5253224260000784,-0.40850526094436646,0.9085748195648193,-0.08726572245359421,2.7211456298828125,-0.30197879672050476,-1.1997323036193848,0.037976086139678955,1.2744390964508057,0.3408362865447998
284,-1.2247457566251947,-0.9870674089673644,-2.2010957106194726,-0.5184673070907593,0.8344132900238037,-0.18693818151950836,1.4175920486450195,-0.7040004134178162,-1.090323567390442,0.14322322607040405,-0.17796504497528076,0.31050384044647217
285,-1.0398595475291565,-0.880793087043797,-2.1159601471571534,-0.5489093065261841,0.7712439298629761,-0.32230639457702637,-0.18218320608139038,2.737621545791626,-0.27908414602279663,0.4637804627418518,-0.6438025236129761,0.7105968594551086
286,-0.9955903416589433,-0.9651684214440711,-2.2866765328690426,-0.4776703417301178,0.8221448063850403,-0.309691846370697,1.525091528892517,-2.1125640869140625,-0.23538969457149506,-0.1207488477230072,0.4585101008415222,-3.8459324836730957
287,-1.1478791385957736,-0.9532506365426847,-2.362044394787749,-0.5280203223228455,0.8153020739555359,-0.23764930665493011,1.061374545097351,-1.9963550567626953,-0.04008444398641586,-0.660288393497467,0.4902552366256714,0.011987090110778809
288,-1.2151479321724443,-1.0229097339582764,-2.2682888858901182,-0.4882880449295044,0.8536272644996643,-0.18137109279632568,-0.34759482741355896,-3.2892534732818604,1.892932415008545,0.6061316728591919,-0.1297960877418518,0.4314931631088257
289,-1.4870006060106504,-1.2291877927380355,-2.430751021609681,-0.33382776379585266,0.9422169923782349,-0.0280389953404665,-2.4377737045288086,1.9976035356521606,1.0157783031463623,-0.31723421812057495,0.08062541484832764,0.5299006104469299
290,-2.3179214810542437,-1.2427747967446297,3.084931186814473,-0.23635907471179962,0.9466816186904907,0.21892544627189636,-0.0016933424631133676,-0.39019903540611267,0.2514348030090332,-0.14906266331672668,-0.14512217044830322,-0.33061981201171875
291,-2.5188650289883516,-1.2378758564724865,2.953197823525852,-0.19060981273651123,0.945091962814331,0.26546040177345276,-1.2378509044647217,-1.9314874410629272,0.49167540669441223,-0.45405879616737366,-0.1487356424331665,-0.19234022498130798
292,-2.7005509827830885,-1.1965243425887706,2.8391916571505877,-0.15606606006622314,0.9307740330696106,0.33061081171035767,0.6118733882904053,0.03353773429989815,-0.1330184042453766,-0.45750510692596436,0.24169617891311646,-0.475187748670578
293,-1.6998943235006372,-1.2374702179926982,-2.5942236335506426,-0.3244648873806,0.944959282875061,0.04212203621864319,2.208258628845215,5.28070592880249,-2.285706043243408,-0.35603126883506775,0.3485434055328369,0.8412245512008667
294,-1.413302734600196,-1.0586205228898442,-2.217409297372622,-0.4840095341205597,0.8716802597045898,-0.07686498016119003,1.755521297454834,-0.5011416673660278,-2.2380318641662598,0.3146370053291321,0.15332889556884766,0.41959261894226074
295,-1.2295180300779684,-0.8506729043835031,-2.193882725406427,-0.6214438676834106,0.751724362373352,-0.22072182595729828,-0.1994820386171341,3.2255451679229736,-1.1555906534194946,0.5513755083084106,-0.6202698945999146,0.590915322303772
296,-0.9992739224552563,-0.9084801120829207,-2.2858681974502897,-0.5172170996665955,0.788569986820221,-0.3326318860054016,-2.2575557231903076,1.6469608545303345,1.0064160823822021,0.515065610408783,-0.3792223334312439,0.5665032863616943
297,-1.3368256196319133,-0.9458354969019073,-2.465732531335409,-0.5691243410110474,0.8109860420227051,-0.1356426328420639,0.5508316159248352,-1.1840192079544067,-0.3758437931537628,-0.49940282106399536,0.007373213768005371,-0.15331308543682098
298,-1.2840577945684306,-0.9298081951266078,-2.4532790601342884,-0.5735729336738586,0.8015052676200867,-0.16912619769573212,-0.5985519289970398,-1.2824523448944092,0.7062416076660156,1.3721721172332764,-0.5104895234107971,0.2787148356437683
299,-1.4671465744230217,-1.125608236170358,-2.579994064166668,-0.42831674218177795,0.9025296568870544,-0.04455459490418434,-3.081184148788452,0.050023533403873444,1.5518594980239868,0.08961737155914307,0.0033083558082580566,0.03546035289764404
300,-2.0688624091213614,-1.1834353864394136,-3.134454839496327,-0.3318532407283783,0.925909161567688,0.18045982718467712,-1.6786746978759766,-0.994177520275116,0.5303941965103149,0.1404622495174408,-0.2221280336380005,-0.607416033744812
301,-2.4392526039450293,-1.1779814299694804,2.9223382657593637,-0.2472851723432541,0.9238352179527283,0.2921968400478363,-1.1932786703109741,-0.9418056607246399,0.7040752172470093,-0.3336322009563446,-0.12619715929031372,-0.08583685755729675
302,-2.6324793414925263,-1.158915288693565,2.7681001438047055,-0.19512417912483215,0.9163693785667419,0.3495626449584961,-0.04080108180642128,-0.9502331614494324,-0.24963831901550293,-0.48949193954467773,0.2680789828300476,-0.3131551444530487
303,-1.9223505768640246,-1.2086269002906225,-2.828931857331509,-0.3326343595981598,0.9351304173469543,0.12200723588466644,3.234119415283203,2.5903124809265137,-2.248654365539551,-0.5516735315322876,0.4347122311592102,0.22097982466220856
304,-1.385654522948216,-1.0676488396622497,-2.241631994971693,-0.4739450514316559,0.8760692477226257,-0.08876356482505798,3.644843339920044,-0.8453682661056519,-1.220210075378418,0.6001351475715637,0.6257466673851013,-0.091168113052845
305,-1.1955885348035664,-0.9181318809478489,-1.954474768752873,-0.5650559663772583,0.7944684624671936,-0.22255665063858032,1.14692223072052,0.21160975098609924,-0.8399807810783386,0.2909623980522156,-0.5440717935562134,0.5971751809120178
306,-1.0334456910683327,-0.8677437106492728,-1.9343469520088599,-0.5554298162460327,0.7628720998764038,-0.3309439718723297,-0.7266110777854919,2.2036356925964355,0.4668101966381073,0.8339637517929077,-0.5747312307357788,0.7522849440574646
307,-1.1804892435942642,-0.9561597961563584,-2.145337028902143,-0.5332923531532288,0.8169831037521362,-0.21940389275550842,-0.9907519221305847,0.3806370496749878,-1.0904319286346436,-1.5552544593811035,0.8759032487869263,0.45881426334381104
308,-1.1553948648160124,-0.9071296710546914,-2.129866184477259,-0.5636204481124878,0.7877388596534729,-0.24859505891799927,0.6193534135818481,0.055881205946207047,-0.10297666490077972,1.0821599960327148,0.1793326735496521,0.9356525540351868
309,-1.226120125352597,-1.0653294248426017,-2.0463239935511526,-0.4557366371154785,0.8749485015869141,-0.16361263394355774,-0.8720617890357971,-0.9440378546714783,2.253308057785034,0.1250177025794983,0.43138688802719116,0.6056902408599854
310,-1.8525954668847728,-1.2770260931061606,-2.6684617509716113,-0.2781416177749634,0.9571589827537537,0.08052290230989456,-3.159241199493408,-1.3961564302444458,1.2266391515731812,-0.46917280554771423,-0.22604936361312866,-0.33189618587493896
311,-2.2388258926535074,-1.256952146503044,-3.102854970831274,-0.2423563003540039,0.9511538147926331,0.19123171269893646,-0.5126423835754395,-1.5386816263198853,-0.16182424128055573,-0.2978505492210388,-0.2928439974784851,-0.28604987263679504
312,-2.5930087559934636,-1.215607124266613,2.9325815594763838,-0.18135394155979156,0.9375807046890259,0.29673799872398376,-0.9260213971138,0.36698436737060547,1.0448180437088013,-0.7995725870132446,0.13662290573120117,-0.5530245304107666
313,-2.5209108474211863,-1.2384453293117996,2.9918247455918756,-0.18975336849689484,0.9452779293060303,0.26541203260421753,1.896672010421753,0.9679955244064331,-1.1406469345092773,-0.7101337909698486,0.17573964595794678,-0.8665167093276978
314,-1.3721765571906284,-1.1475303557905692,-2.351155793830349,-0.4026653468608856,0.9117523431777954,-0.08104585856199265,2.070472478866577,1.6813619136810303,-1.443016767501831,-0.03549081087112427,1.1067566871643066,0.42528414726257324
315,-1.2234802588696332,-1.0022204578807068,-2.0276102190621326,-0.50628262758255,0.8426686525344849,-0.183269202709198,0.8603026866912842,-0.25539839267730713,-1.1859021186828613,0.3321341276168823,-0.09181410074234009,0.998546302318573
316,-1.1583869113772618,-0.8692071961290471,-1.9935334594362357,-0.5913178324699402,0.7638174891471863,-0.25870081782341003,-0.16056925058364868,1.8866157531738281,-0.3499586582183838,0.65690016746521,-0.6563650965690613,0.5289797782897949
317,-1.0745653411843448,-0.9661234174720014,-2.1787759133354476,-0.4999232888221741,0.822688102722168,-0.27066779136657715,-2.5802958011627197,0.10529188066720963,0.2763191759586334,-0.03358501195907593,-0.23835277557373047,-0.36403679847717285
318,-1.230410627147943,-0.9180268692209431,-2.292196847202829,-0.5725404620170593,0.7944046854972839,-0.2027771770954132,-0.752608597278595,1.8720406293869019,-0.004064594395458698,0.5322725176811218,1.1257612705230713,0.3199341893196106
319,-1.265863237616701,-0.9607239355760042,-2.254964312041571,-0.5464958548545837,0.8196065425872803,-0.1720093935728073,-0.035156235098838806,-3.010070562362671,1.625661015510559,0.926027774810791,-0.18389499187469482,0.3510560393333435
320,-1.4979036119195215,-1.1812867613452633,-2.3789428116190217,-0.3787263333797455,0.9250953793525696,-0.02765538915991783,-2.492882490158081,0.49600616097450256,1.8545318841934204,-0.20383897423744202,0.06674110889434814,0.33093905448913574
321,-2.1038399696832184,-1.2189507252136274,-2.9683768054006467,-0.2968182861804962,0.9387382864952087,0.17512661218643188,-1.4177902936935425,-0.5427692532539368,0.506370484828949,0.1804853081703186,-0.27928394079208374,-0.10992588102817535
322,-2.4252001665897174,-1.2244216492713254,3.080456567125579,-0.22293248772621155,0.9406096339225769,0.256036639213562,-0.6480646133422852,-1.3715870380401611,0.7114651203155518,-0.15188442170619965,-0.08726179599761963,0.057943493127822876
323,-2.688071701692526,-1.2051085348086414,2.8543957335379395,-0.15667271614074707,0.9338780045509338,0.32144254446029663,-0.02606019377708435,-0.5876400470733643,-0.12343931943178177,-0.5920608043670654,0.26302123069763184,-0.46580591797828674
324,-1.7779686201546325,-1.25024269456907,-2.639588954379247,-0.3083544969558716,0.9490610957145691,0.06481242924928665,2.803898334503174,4.498842716217041,-2.1810357570648193,-0.4150647222995758,0.5916951894760132,0.6174843311309814
325,-1.297766567318277,-1.0597582187328614,-2.1219174387871447,-0.4709666669368744,0.8722372651100159,-0.13188135623931885,2.7434802055358887,0.4837433993816376,-1.6751779317855835,0.536701500415802,0.41211026906967163,0.23135340213775635
326,-1.1286872816568378,-0.880148044371447,-2.005234620726804,-0.5757867693901062,0.7708331942558289,-0.2725541889667511,0.465596079826355,1.5699141025543213,-1.0318796634674072,0.4581262469291687,-0.6745044589042664,0.591966450214386
327,-0.9562826099547374,-0.8778981443438892,-2.041285054068498,-0.5219094157218933,0.7693979740142822,-0.368289977312088,-1.1568937301635742,2.32770037651062,0.5997644066810608,0.872144341468811,-0.4804726839065552,0.8489875793457031
328,-1.2896188193215725,-0.9315300014501661,-2.321863527977595,-0.5731778144836426,0.8025336861610413,-0.16555072367191315,-1.648984670639038,1.2552188634872437,-0.5107640027999878,-1.7656437158584595,0.3918328285217285,0.39392900466918945
329,-1.1537416214193628,-0.9516074189885221,-2.2859497350482627,-0.5306284427642822,0.8143494725227356,-0.23509202897548676,-0.09026982635259628,0.9520649313926697,0.6218235492706299,1.1090433597564697,0.02729475498199463,1.9284361600875854
330,-1.3282084011191106,-1.0887849847354931,-2.305205356955246,-0.4499891996383667,0.886064350605011,-0.11135493963956833,-1.0204682350158691,-0.7714521884918213,2.02927303314209,0.0997084379196167,0.4908277988433838,0.4273339509963989
331,-1.8006249848864138,-1.2476968441142826,-2.7571279786447382,-0.3091583251953125,0.9482558369636536,0.0723314955830574,-1.853796124458313,-0.23009371757507324,1.1306865215301514,-0.04295346140861511,-0.17434537410736084,0.24448668956756592
332,-2.336762569184938,-1.250445240277246,3.113480886884394,-0.2269521951675415,0.9491249322891235,0.2182990163564682,0.7136573195457458,-1.2277411222457886,-0.17023760080337524,-0.4788888394832611,-0.1850411295890808,-0.14510264992713928
333,-2.651755948346095,-1.196182483292793,2.8898769119582917,-0.17215542495250702,0.9306489825248718,0.3228852152824402,-1.2951397895812988,-1.7115942239761353,0.4459478259086609,-0.2982577681541443,0.2577054500579834,-0.8290345668792725
334,-2.5667062896009045,-1.236913109497125,2.995571923440542,-0.17819112539291382,0.9447768926620483,0.27503547072410583,1.8534995317459106,2.076702833175659,-1.330032467842102,-0.7986918091773987,0.04350435733795166,-0.7239948511123657
335,-1.4028513648525318,-1.1775605340379103,-2.4093551414181302,-0.3777881860733032,0.9236739873886108,-0.06405095010995865,2.505760908126831,1.733689785003662,-1.179471492767334,0.05086863040924072,1.1910263299942017,0.5377143025398254
336,-1.1784469910336302,-1.0167522843201884,-2.068840441807247,-0.4861518144607544,0.8504037857055664,-0.20117150247097015,1.3170212507247925,-0.10527867823839188,-1.403596043586731,-0.11501401662826538,-0.24287497997283936,0.42823752760887146
337,-0.9969848509750612,-0.8828060221297366,-2.0041443767794527,-0.53328537940979,0.7725237011909485,-0.3446938693523407,0.21661552786827087,2.6095151901245117,-0.5002315640449524,0.6136229038238525,-0.436174213886261,0.6390969753265381
338,-0.9688929192084154,-0.9371243618594064,-2.15359842378675,-0.4880504310131073,0.8058587312698364,-0.3352587819099426,-2.599491834640503,-2.206618309020996,-0.31448695063591003,-0.1334705352783203,-0.4140741229057312,-0.22429624199867249
339,-1.2250456395392877,-0.9605357015047841,-2.3706939278730794,-0.5391668081283569,0.8194986581802368,-0.19421888887882233,-0.3680175244808197,1.9659901857376099,0.12077165395021439,-0.34692633152008057,1.2357990741729736,-0.019282102584838867
340,-1.20525305370537,-0.9991129528297318,-2.341206703369683,-0.5053014159202576,0.8409913778305054,-0.1934014856815338,-0.2542971074581146,-2.8198039531707764,1.855806589126587,0.8276432752609253,-0.41012895107269287,0.7739678621292114
341,-1.5910598058366208,-1.2079902967033442,-2.4141161922695766,-0.3548259735107422,0.9349046349525452,0.007190993055701256,-1.517548680305481,0.13479028642177582,2.0904457569122314,-0.1260242462158203,-0.05068838596343994,0.5278584957122803
342,-2.249430476765861,-1.263595703916486,3.0824716104048355,-0.23539093136787415,0.9531838297843933,0.18982039391994476,-1.8397480249404907,0.4438477158546448,0.6334556937217712,-0.0073306262493133545,-0.14655840396881104,-0.28852951526641846
343,-2.540883560279692,-1.2452261487666092,2.944773873168201,-0.1807873249053955,0.9474685192108154,0.263854444026947,-0.3249009847640991,-1.2591423988342285,0.5023261904716492,0.014298692345619202,-0.10098731517791748,0.027435868978500366
344,-2.76919330439799,-1.2215130129054803,2.7630100822593726,-0.12451881170272827,0.9396182298660278,0.3187673091888428,0.19182738661766052,-0.5068239569664001,-0.08556970953941345,-0.6398854851722717,0.36577117443084717,-0.6927144527435303
345,-2.0838626862912593,-1.288129258750886,-2.945389766969042,-0.2430058717727661,0.9603149890899658,0.1369074285030365,2.6171092987060547,4.008236408233643,-2.171968936920166,-0.6421412229537964,0.220211923122406,0.09511770308017731
346,-1.3386144536739044,-1.137981806727276,-2.3006019658698467,-0.40817272663116455,0.907788872718811,-0.09651082009077072,3.2027502059936523,-0.30074867606163025,-1.2179985046386719,0.6997987031936646,0.7115653157234192,-0.4122629761695862
347,-1.1361964644967488,-0.9484858174777966,-2.0712198024907167,-0.5287256240844727,0.8125337958335876,-0.24543452262878418,0.9265743494033813,1.7227985858917236,-1.5184130668640137,0.2960137724876404,-0.5067476630210876,0.7474486827850342
348,-0.9198028624889372,-0.9188912674831039,-2.0940106350624212,-0.4826205372810364,0.7949294447898865,-0.3676473796367645,-0.9630867838859558,2.503427267074585,0.3112673759460449,0.9520266652107239,-0.682792603969574,0.7811758518218994
349,-1.19058686501667,-0.9580274455920307,-2.3622216863601513,-0.5340626239776611,0.8180586695671082,-0.2134411334991455,-2.024662733078003,1.4119553565979004,-1.7359064817428589,-1.7914531230926514,1.290431261062622,0.6756298542022705
350,-1.071617812862902,-0.9254711935933817,-2.3539073247309688,-0.5280659794807434,0.7989042401313782,-0.287920743227005,-0.2958328127861023,2.476799964904785,0.7994005084037781,1.4460499286651611,0.18360918760299683,1.9988429546356201
351,-1.3239058390889933,-1.0804749019232958,-2.369233245759328,-0.45663005113601685,0.8821815252304077,-0.11508551239967346,-0.8020744323730469,-3.672151565551758,2.351043462753296,0.31844648718833923,0.570806086063385,0.6154669523239136
352,-1.8587603081916755,-1.2738665685186479,-2.834155257548963,-0.2805381715297699,0.9562392830848694,0.0830945074558258,-2.4459025859832764,-0.1560330092906952,1.2138539552688599,-0.4671119451522827,-0.26498568058013916,-0.043131716549396515
353,-2.3790021070340317,-1.2394978714431149,2.881271467276465,-0.2246962934732437,0.9456207752227783,0.23518694937229156,-0.6169322729110718,-0.3977491855621338,0.25188636779785156,-0.32152259349823,-0.24673771858215332,-0.3428835868835449
354,-2.7189415613075485,-1.2087593619894945,2.6902580652743193,-0.14527715742588043,0.9351773262023926,0.32301318645477295,0.34946948289871216,-0.023733120411634445,0.5408334732055664,-0.540788471698761,0.1293366551399231,-0.7678070664405823
355,-2.458129768089505,-1.2504211481343486,2.937462931360666,-0.19886822998523712,0.9491173028945923,0.24418841302394867,3.428093433380127,2.3604204654693604,-2.019951820373535,-0.6610103249549866,0.11356592178344727,-0.7120534181594849
356,-1.441947418087206,-1.1370950141048255,-2.513127808756597,-0.41674861311912537,0.907416582107544,-0.05399675667285919,1.4111719131469727,-3.447340488433838,-1.1355397701263428,0.30777040123939514,1.366051435470581,-0.010914143174886703
357,-1.2018057513009572,-0.9735227161701631,-2.182669996584845,-0.5245367288589478,0.8268719911575317,-0.20283958315849304,1.705524206161499,0.02560662291944027,-1.751052737236023,0.04498356580734253,-0.30521976947784424,0.31393879652023315
358,-1.0412425854297698,-0.8570960225781366,-2.1301213974191304,-0.564971923828125,0.7559447288513184,-0.3306880593299866,-0.17155800759792328,2.276585340499878,-0.16342996060848236,0.7877044081687927,-0.4632352590560913,0.7289423942565918
359,-1.0625707120587553,-0.9658640263562718,-2.2967452530588273,-0.49682727456092834,0.8225405812263489,-0.2767484188079834,0.07954053580760956,-3.232556104660034,0.09239989519119263,-0.44047436118125916,0.6823880076408386,-2.8281404972076416
360,-1.2371231212232232,-0.9601148760762934,-2.481874186807183,-0.5417990684509277,0.8192574381828308,-0.18780609965324402,-1.8455358743667603,0.1077733263373375,1.0546138286590576,0.24205541610717773,0.6198142170906067,0.5675362944602966
361,-1.270428247469463,-1.010094700043767,-2.488255051440515,-0.5079717040061951,0.8468822240829468,-0.157338947057724,-0.42209652066230774,-2.142207622528076,1.4282127618789673,0.902212917804718,-0.16038918495178223,0.3769739270210266
362,-1.570037970678502,-1.2275991562051354,-2.6325908850916107,-0.33649951219558716,0.9416836500167847,-0.00025518651818856597,-3.0248124599456787,-0.5344974398612976,1.882888913154602,-0.14302319288253784,0.005139470100402832,0.44227176904678345
363,-2.3363192582655135,-1.2355412432057806,2.9869021742793826,-0.23722325265407562,0.9443264007568359,0.22797608375549316,1.5396913290023804,-2.942262649536133,-0.49317651987075806,-0.36885589361190796,-0.12169444561004639,-0.6785528659820557
364,-2.3935932461625593,-1.2305046150792833,3.0211417680618387,-0.2270161658525467,0.9426573514938354,0.24466466903686523,-1.359440803527832,-1.550662875175476,0.6622506976127625,-0.07704570889472961,-0.13241565227508545,-0.12250280380249023
365,-2.695751549620377,-1.1738722618706465,2.76106063756753,-0.16670140624046326,0.9222544431686401,0.34879443049430847,0.6671814322471619,-0.6041311025619507,-0.30091777443885803,-0.5727242827415466,0.21289271116256714,-0.6255736351013184
366,-1.8741896896353356,-1.21800898937444,-2.8458046865135906,-0.3297343850135803,0.9384133219718933,0.10322606563568115,2.475126028060913,4.859983921051025,-2.106398582458496,-0.27544447779655457,0.3807547688484192,0.33335840702056885
367,-1.3161587772742365,-1.0829204410092867,-2.292695497549452,-0.4536357522010803,0.8833305239677429,-0.11807581782341003,2.7536869049072266,0.44191160798072815,-0.9781963229179382,0.7082133293151855,0.38128745555877686,0.15767239034175873
368,-1.0944399767915358,-0.917350743819795,-2.1073630747576315,-0.5402461886405945,0.7939938306808472,-0.27876076102256775,1.386415719985962,1.80513596534729,-1.2019329071044922,0.33454257249832153,-0.7383756637573242,0.5548685789108276
369,-0.86358512207033,-0.9056638615601962,-2.1280639192123276,-0.46915316581726074,0.7868350148200989,-0.40098103880882263,-1.7109652757644653,1.7282044887542725,0.5196641683578491,0.505942165851593,-0.4706272482872009,0.7571059465408325
370,-1.1353092173601371,-0.949665935017257,-2.3414522313697086,-0.5276377201080322,0.8132211565971375,-0.24549879133701324,-0.8152472376823425,-0.31985437870025635,-0.7129022479057312,-0.866588294506073,-0.05885720252990723,-0.46189865469932556
371,-1.1220993463650693,-0.9313742884460986,-2.314870915373719,-0.5376631617546082,0.8024407625198364,-0.258857399225235,-0.2985769510269165,1.1757255792617798,0.1923435777425766,1.1040542125701904,0.15593326091766357,2.091377019882202
372,-1.2190817072675337,-1.0803339640432421,-2.315085544548899,-0.44219866394996643,0.8821151852607727,-0.16227488219738007,-0.5243120789527893,-0.669532299041748,2.326691150665283,0.23753252625465393,0.4173690676689148,0.5966010689735413
373,-1.798338181780864,-1.2426257874534519,-2.9082804149243993,-0.31400346755981445,0.9466335773468018,0.07270810753107071,-3.2481913566589355,-0.3652307391166687,0.6808093786239624,-0.14479780197143555,-0.1894162893295288,-0.1211853101849556
374,-2.279511845575303,-1.2169280930296116,3.103363667537115,-0.263084352016449,0.9380393028259277,0.2255416065454483,0.7203923463821411,-0.7989976406097412,-0.4495945870876312,-0.15575414896011353,-0.20915746688842773,-0.0036940574645996094
375,-2.590590095463089,-1.2067172077721713,2.9370206818465356,-0.1864272654056549,0.9344520568847656,0.3033875823020935,-1.5002650022506714,-2.1453661918640137,0.5742681622505188,-0.7058151364326477,0.12781894207000732,-0.15235617756843567
376,-2.5980100893136857,-1.1967825476911786,2.9817233541583277,-0.18896353244781494,0.93086838722229,0.3126930594444275,1.70023512840271,1.0560885667800903,-1.2371529340744019,-0.7337354421615601,0.10686659812927246,-0.5335639715194702
377,-1.4204183261923153,-1.1436244011827925,-2.375614633058814,-0.4096229374408722,0.9101410508155823,-0.062066834419965744,2.7078258991241455,2.2500147819519043,-1.0006920099258423,0.021057844161987305,1.0842283964157104,0.38660603761672974
378,-1.307745131417399,-0.9980698194025541,-2.065744302223857,-0.5232837796211243,0.8404265642166138,-0.14091578125953674,1.58954918384552,0.8881497979164124,-1.596837043762207,0.24595534801483154,-0.14232176542282104,0.40042197704315186
379,-1.1103795675066095,-0.8662206729973541,-2.005635889637809,-0.5802628397941589,0.761886477470398,-0.28779175877571106,0.22439223527908325,1.912194848060608,-0.307930052280426,0.7285782694816589,-0.5547178983688354,0.556697428226471
380,-0.9915867540919759,-0.9484047962544255,-2.108960846013468,-0.48789331316947937,0.8124865889549255,-0.3191014230251312,-2.759214401245117,-2.82865047454834,0.28421130776405334,-0.19852328300476074,-0.35466182231903076,-0.49573320150375366
381,-1.1743475906432392,-0.9372587526626396,-2.2300194009289402,-0.5460830926895142,0.8059383034706116,-0.2285977005958557,0.5567774176597595,0.7505656480789185,-0.30239900946617126,-0.4508499503135681,0.8614811897277832,-0.3306216299533844
382,-1.1037308055106418,-1.0153842022148767,-2.167486607391206,-0.47081685066223145,0.8496832251548767,-0.2374233901500702,-0.3783101439476013,-0.5550235509872437,1.9403789043426514,0.531684160232544,-0.2588934302330017,0.5771298408508301
383,-1.228752087358806,-1.2483127712990665,-2.2839409055933753,-0.29856419563293457,0.9484512209892273,-0.10630036890506744,-2.7479138374328613,0.6008058190345764,0.8949810266494751,-0.19751432538032532,0.00764918327331543,0.37879180908203125
384,-2.229401517544199,-1.2378816342806898,3.100668963110621,-0.25844791531562805,0.9450938701629639,0.2000056952238083,-0.38921576738357544,-2.854734420776367,-0.23860420286655426,0.30657413601875305,-0.10804247856140137,-0.8567135334014893
385,-2.287076474098125,-1.2820032260492034,-3.056122974547094,-0.21480798721313477,0.9585883021354675,0.18699204921722412,-0.5028581619262695,-0.6450913548469543,0.6912868618965149,-0.36615514755249023,-0.10563725233078003,0.08585035800933838
386,-2.717244683220237,-1.2396444366285642,2.8582680271998515,-0.13386568427085876,0.9456684589385986,0.2962955832481384,0.5809304118156433,0.37717288732528687,0.07903724908828735,-1.1611324548721313,0.12168377637863159,-0.3578801453113556
387,-1.9289495692378344,-1.2494801239423372,-2.7556802833472194,-0.295775830745697,0.9488205909729004,0.11070768535137177,2.546555995941162,3.9505889415740967,-2.5058817863464355,-0.309357225894928,0.4038405418395996,0.043634891510009766
388,-1.3367059571520652,-1.103092005084818,-2.2098777418113005,-0.4385419189929962,0.8926056027412415,-0.10457564145326614,0.9652122855186462,-1.0767589807510376,-1.3089467287063599,0.2409254014492035,0.44081413745880127,0.07538563758134842
389,-1.1288965643334852,-0.9147805635982893,-2.1180708279007283,-0.5513718128204346,0.792428731918335,-0.26085588335990906,0.48441290855407715,2.4381561279296875,-1.689056158065796,0.34279948472976685,-0.37656575441360474,0.541693925857544
390,-0.9457143876778595,-0.8639297841029094,-2.1882688983713487,-0.5266522765159607,0.760400652885437,-0.3800370395183563,-1.3219330310821533,1.4345556497573853,0.29588741064071655,0.806330680847168,-0.3973483443260193,0.7601335048675537
391,-1.150168125898259,-0.9548400463088874,-2.354476816614704,-0.5273792743682861,0.8162213563919067,-0.2359105944633484,-1.4364253282546997,-1.3448091745376587,-1.6254088878631592,-1.6467082500457764,1.6391619443893433,-0.7960107922554016
392,-1.222913792051355,-0.9426355097634846,-2.4147733904927295,-0.5524548888206482,0.8091096878051758,-0.20033712685108185,3.7518670558929443,1.063488245010376,-0.256259948015213,-1.120579719543457,2.0274534225463867,-2.595149278640747
393,-1.199594427261016,-1.0905059658209093,-2.4317271508737512,-0.43056830763816833,0.8868607878684998,-0.1675972193479538,-0.763727068901062,-1.4793757200241089,1.752657413482666,0.6244465112686157,-0.02028369903564453,0.8032478094100952
394,-1.6096698591014262,-1.248731475247744,-2.789735935687876,-0.31628626585006714,0.9485838413238525,0.012301362119615078,-2.5705366134643555,-0.032541338354349136,0.9062427282333374,-0.1271950900554657,-0.034582555294036865,0.15115082263946533
395,-2.2931653744012053,-1.2474619200471628,3.0279778803200377,-0.2383742332458496,0.9481812715530396,0.2100715935230255,0.7854286432266235,-1.5461344718933105,-0.37359800934791565,-0.3926834762096405,-0.11982738971710205,-0.08037185668945312
396,-2.4708224252218276,-1.189172047489124,2.8686009745680807,-0.23149800300598145,0.9280609488487244,0.2917397618293762,-0.7421528100967407,-1.341111660003662,0.11034906655550003,-0.30465012788772583,0.052118122577667236,-0.44147413969039917
397,-2.5916626632084054,-1.172943509296308,2.8118589454831695,-0.20248690247535706,0.9218950271606445,0.330316424369812,1.0010319948196411,-0.11168449372053146,-0.34750741720199585,-0.5610629320144653,0.18653404712677002,-0.7648714780807495
398,-1.6335180335662387,-1.1696129467940863,-2.6960440367479523,-0.3897400498390198,0.9205995202064514,0.024477267637848854,2.7883219718933105,5.129705905914307,-1.9231934547424316,-0.25187674164772034,0.4405454397201538,0.6522500514984131
399,-1.3483241286977727,-1.0321550295960868,-2.3130707763411666,-0.500328004360199,0.8584064245223999,-0.11318254470825195,2.1237435340881348,1.1424521207809448,-0.859848141670227,0.395835816860199,0.1287304162979126,0.33545732498168945
400,-1.0586308626336347,-0.8383678868263936,-2.1217713713496247,-0.5828761458396912,0.7435527443885803,-0.32769596576690674,1.138723611831665,1.154780626296997,-1.5339568853378296,0.5341090559959412,-0.5925365686416626,0.3743574321269989
401,-0.9740003857519137,-0.8923978067227578,-2.190840894250887,-0.5190696120262146,0.7785786986351013,-0.35267841815948486,-2.3913116455078125,1.3041285276412964,1.616987705230713,0.4351310133934021,-0.610381007194519,0.6082324981689453
402,-1.1466347146863058,-0.9053241061832339,-2.3693525690011272,-0.5627163648605347,0.786625325679779,-0.2541077733039856,-1.016206979751587,1.213991641998291,-0.4489460587501526,-0.14431482553482056,-0.3690534234046936,-0.1627318561077118
403,-1.119311306805257,-0.9036181179715197,-2.376846927270049,-0.5567710399627686,0.7855708599090576,-0.2699715495109558,-1.5446851253509521,0.13527227938175201,0.7224574089050293,1.640801191329956,-0.38600409030914307,1.329206109046936
404,-1.2536126560898586,-1.1141425110436074,-2.3219822869691367,-0.4189518392086029,0.8975329995155334,-0.1375279426574707,-0.7845281958580017,-0.9010472893714905,2.7651491165161133,0.07868087291717529,0.554752767086029,0.6389012336730957
405,-1.9554024619894093,-1.2794284593729626,-3.1030046560853624,-0.26627683639526367,0.9578518271446228,0.10777916014194489,-3.788930892944336,-3.9570205211639404,0.7089148759841919,-0.19852107763290405,-0.27752357721328735,-0.6501528024673462
406,-2.3308969428490207,-1.2581611729197915,2.9853622157061426,-0.22291433811187744,0.951526403427124,0.21191194653511047,-0.8988878726959229,-0.5387460589408875,-0.1080564558506012,-0.28909432888031006,-0.2188299298286438,-0.02117706835269928
407,-2.7021548009786622,-1.1813634584770163,2.709890045494795,-0.16152077913284302,0.9251245260238647,0.3435925245285034,-1.246767520904541,-1.6038727760314941,0.4441491663455963,-0.4853450655937195,0.1346137523651123,-0.6132763624191284
408,-2.5429225366946926,-1.2066048805932192,2.872844245578723,-0.20073123276233673,0.9344120621681213,0.29424694180488586,2.424093723297119,2.0759479999542236,-1.7264670133590698,-0.8109265565872192,0.15323448181152344,-0.5553247928619385
409,-1.443300707183336,-1.1285209329332455,-2.5973543046118315,-0.42452287673950195,0.9037801623344421,-0.05441999435424805,1.701940894126892,-1.3691567182540894,-0.35514700412750244,0.45313316583633423,1.520810842514038,0.049720294773578644
410,-1.183710496415773,-1.0241807688000542,-2.2206004259638217,-0.4813406467437744,0.854288637638092,-0.19621966779232025,1.5059386491775513,-0.9533372521400452,-1.64263117313385,-0.037626028060913086,-0.32160431146621704,0.38010334968566895
411,-0.9548758069874353,-0.9182009417740743,-2.0894503310404033,-0.49566349387168884,0.7945104241371155,-0.3508148491382599,0.036460425704717636,3.146040678024292,0.2010720819234848,0.6458709836006165,-0.7456058859825134,0.7883453369140625
412,-0.9785554907059604,-0.977476359434131,-2.2824554376005226,-0.4638946056365967,0.8290889859199524,-0.3121110498905182,0.41287392377853394,-4.501984119415283,-0.9084323644638062,-0.24856877326965332,0.7983219027519226,-4.149375915527344
413,-1.056182294112583,-0.9882171582029495,-2.3858062914664013,-0.4789217710494995,0.8350464105606079,-0.2707977294921875,0.8874426484107971,-1.2061039209365845,-0.5596417188644409,-0.812414288520813,1.6687530279159546,-1.10546875
414,-1.1601715391049163,-1.0998790928661735,-2.3606187539013948,-0.41598814725875854,0.8911525011062622,-0.18111051619052887,-1.204716682434082,-2.216980457305908,2.4525351524353027,0.7882874011993408,-0.09076797962188721,0.5973397493362427
415,-1.7670120328310188,-1.2837620175429936,-2.8324722254897057,-0.2776765525341034,0.9590877294540405,0.0551946647465229,-2.267908811569214,-3.277188539505005,0.5262730717658997,-0.3693724274635315,-0.04342305660247803,-0.17422842979431152
416,-2.435889511723437,-1.2623258416191894,-3.1315223150506473,-0.19690653681755066,0.9527990221977234,0.23108795285224915,-0.38642609119415283,-2.5897200107574463,-0.27854856848716736,-0.35236406326293945,-0.22426825761795044,-0.16872526705265045
417,-2.5196479529404643,-1.2134120300046063,2.9833233883418755,-0.20381416380405426,0.936815083026886,0.28431954979896545,-1.127372145652771,-1.4641979932785034,0.12364120036363602,-0.29560598731040955,-0.03036665916442871,-0.20007574558258057
418,-2.7384766215616745,-1.1615653380732012,2.8829329291573034,-0.15609222650527954,0.9174270629882812,0.3660089075565338,0.7024354934692383,-0.7171417474746704,-0.3297189176082611,-0.6365408301353455,0.24253064393997192,-0.5266382098197937
419,-2.0067539788334274,-1.202067980512336,-2.784238068777779,-0.3267172574996948,0.9327864646911621,0.15220175683498383,2.782975912094116,4.410629749298096,-2.5547499656677246,-0.37817782163619995,0.49067550897598267,0.22859656810760498
420,-1.4230130728955404,-1.0916231836891976,-2.236746242702382,-0.4560202956199646,0.8873764276504517,-0.06788709759712219,2.3862199783325195,-2.857499361038208,-1.471729040145874,0.3070487380027771,0.45100247859954834,-0.4895774722099304
421,-1.1865030543276127,-0.8836465612849445,-2.0194652516962783,-0.5880701541900635,0.7730571627616882,-0.2378152757883072,0.8909585475921631,2.89247465133667,-1.0858811140060425,0.3902552127838135,-0.5428783297538757,0.6716378927230835
422,-0.8445299272414603,-0.8674853656563674,-1.9845988025744394,-0.48354586958885193,0.7627050280570984,-0.429493248462677,-0.9215644001960754,1.9503272771835327,0.565270185470581,0.6698404550552368,-0.5033819079399109,0.7041209936141968
423,-1.137080489814973,-0.9372578638876218,-2.2252029927872385,-0.5371872186660767,0.8059377670288086,-0.24878542125225067,-1.2031539678573608,-0.24696610867977142,-0.32219886779785156,-1.6098921298980713,0.31497281789779663,0.02271123230457306
424,-1.0265859715025742,-0.9109498891660084,-2.1591205709125956,-0.5244399309158325,0.7900863885879517,-0.31737393140792847,-0.8521946668624878,2.2281134128570557,1.0510063171386719,1.954432725906372,-0.08070534467697144,2.2212741374969482
425,-1.1407026409308754,-1.0962199038254707,-2.1151421766238814,-0.41534486413002014,0.8894863724708557,-0.19053298234939575,-1.0049165487289429,-1.3986986875534058,2.616283655166626,0.09980839490890503,0.8714847564697266,0.8584712147712708
426,-1.918709358061611,-1.3014445008692272,-2.6414108795626543,-0.25016361474990845,0.963943600654602,0.09072565287351608,-1.3994568586349487,0.5106959342956543,1.1037249565124512,-0.33310359716415405,-0.4057464599609375,-0.05894159525632858
427,-2.3998641781940693,-1.2737299023047035,3.030018757684988,-0.197748064994812,0.9561992883682251,0.21581993997097015,-0.8465998768806458,-0.2592104971408844,0.27842119336128235,-0.1562863141298294,-0.2656630277633667,-0.2642056345939636
428,-2.7315881019310386,-1.2381397383669137,2.8035415636677095,-0.13016945123672485,0.9451781511306763,0.2994903028011322,-0.8167847394943237,-1.1147794723510742,0.6933476328849792,-0.46382468938827515,-0.009188652038574219,-0.3760741651058197
429,-2.6927410571945036,-1.2492529009189828,2.8652050418156567,-0.13713593780994415,0.948748767375946,0.2847273647785187,1.6225981712341309,0.7375754714012146,-1.0302433967590332,-0.706492006778717,0.207211434841156,-0.6040176153182983
430,-1.4933740046201283,-1.1968741461302974,-2.5015973670427614,-0.364175021648407,0.9309018850326538,-0.02825174853205681,2.154167652130127,3.6560535430908203,-1.6538785696029663,-0.11185339093208313,0.8689332604408264,0.478523313999176
431,-1.228785013165837,-1.0320230270267368,-2.1446683941514433,-0.48336663842201233,0.8583387136459351,-0.17207923531532288,1.4171541929244995,0.41315898299217224,-1.6098623275756836,0.2621294856071472,-0.09988534450531006,0.40401285886764526
432,-1.0498176183298158,-0.8928427741700976,-2.0642259835712373,-0.5439912676811218,0.7788578867912292,-0.312175989151001,0.46187880635261536,2.440300464630127,-0.2574702501296997,0.6013796329498291,-0.7233769297599792,0.561260461807251
433,-0.9079481486886367,-0.9426285290834433,-2.1478296694366397,-0.4632214307785034,0.8091055750846863,-0.36162713170051575,-1.8624669313430786,0.9751956462860107,-0.47102928161621094,-0.08411139249801636,-0.405068039894104,0.27100512385368347
434,-1.1599017129241669,-0.9222405916829535,-2.355904836313034,-0.5537583827972412,0.7969570159912109,-0.24126987159252167,-0.6695283651351929,1.0967621803283691,-0.06472165882587433,-0.225813090801239,0.025934159755706787,-0.15851037204265594
435,-1.0781500475392758,-0.9538756577823041,-2.3051888525444597,-0.5097305774688721,0.8156638145446777,-0.2736193537712097,-2.151069164276123,0.864507257938385,1.5206235647201538,1.8787033557891846,-0.4924215078353882,0.34203973412513733
436,-1.3935959696124716,-1.168361944569409,-2.386588030695882,-0.385526180267334,0.920110285282135,-0.06903950870037079,-1.5901520252227783,-5.32729434967041,2.0413239002227783,-0.19397205114364624,0.29154425859451294,-0.19403725862503052
437,-1.9289819146100557,-1.2714622440878587,-2.8458446228304806,-0.2761687636375427,0.9555330872535706,0.103379026055336,-2.188544511795044,-0.028093628585338593,1.239845871925354,-0.2661590576171875,-0.28716766834259033,-0.2500312328338623
438,-2.3562251301340584,-1.2503533574382617,2.9570749233721143,-0.2227223813533783,0.9490959644317627,0.22273603081703186,-0.9800801277160645,-0.8419966101646423,0.33862563967704773,-0.224222794175148,-0.23351997137069702,-0.25474900007247925
439,-2.7159039670091936,-1.1901286068976522,2.7332067645797955,-0.15342694520950317,0.9284167289733887,0.33838221430778503,0.17114870250225067,0.27613702416419983,0.3334598243236542,-0.6696473956108093,0.35185664892196655,-0.6709016561508179
440,-2.5488246120627043,-1.2154961083294793,2.9041117324510273,-0.19434191286563873,0.9375420808792114,0.2885242998600006,1.777094841003418,2.2387046813964844,-1.6809273958206177,-0.8240296840667725,0.15466690063476562,-0.4159047305583954
441,-1.4672329025169555,-1.132230221908431,-2.5578813117442034,-0.42236682772636414,0.9053614735603333,-0.0438988097012043,1.9627737998962402,-0.0995904803276062,-0.9582496285438538,0.339816689491272,1.3057897090911865,0.0366051159799099
442,-1.2134295407118405,-1.0027886124564163,-2.1911315212158655,-0.5039663910865784,0.8429744243621826,-0.1881808042526245,1.7036138772964478,-0.1090545654296875,-1.472960352897644,0.006453573703765869,-0.3531673550605774,0.3643587827682495
443,-0.9615250853672238,-0.8743803040754806,-2.0829488512368735,-0.5260493755340576,0.767146110534668,-0.3670954704284668,0.11944771558046341,2.887401819229126,-0.33273300528526306,0.6932398676872253,-0.3886517882347107,0.7792963981628418
444,-0.9096123989570363,-0.9172598545974263,-2.181772404768558,-0.479871928691864,0.7939385771751404,-0.3733421564102173,-0.23507365584373474,-2.720529794692993,-0.30763113498687744,-0.6610124111175537,0.17284297943115234,-2.4404397010803223
445,-1.0353409724978426,-0.9272234886190486,-2.3221062234862684,-0.5160713195800781,0.7999569773674011,-0.30616897344589233,-0.8356185555458069,-1.0025831460952759,0.2918992340564728,-0.4208641052246094,0.29707372188568115,-0.10876327753067017
446,-1.0748507113126657,-1.0019644347940029,-2.308949190254996,-0.4737514853477478,0.8425307273864746,-0.25632309913635254,-0.7279640436172485,-1.548253059387207,2.0400919914245605,0.6975063681602478,-0.3212752342224121,0.72926926612854
447,-1.5944558645057116,-1.1928730818485285,-2.567033673106722,-0.3688879609107971,0.9294329285621643,0.00872934702783823,-0.9101695418357849,-2.370558977127075,1.1901271343231201,-0.09583374857902527,-0.07246875762939453,0.13607656955718994
448,-2.073371784292457,-1.2411706040817514,-3.01745418482112,-0.28366273641586304,0.946163535118103,0.15591558814048767,-1.018160343170166,-0.9289218783378601,0.6025707125663757,0.0513630211353302,-0.15052467584609985,-0.21142712235450745
449,-2.3621852531093666,-1.2433972829453448,3.0192053119585673,-0.22602589428424835,0.9468819499015808,0.22875039279460907,-0.6983789801597595,-2.3784406185150146,0.4864146411418915,-0.28390759229660034,-0.047055959701538086,-0.18851304054260254
450,-2.747743213185441,-1.1878718588793087,2.8407727189013197,-0.14338071644306183,0.927575945854187,0.34502851963043213,0.9555199146270752,0.8851502537727356,-0.3202580213546753,-0.8516448736190796,0.4483090043067932,-0.6276823282241821
451,-2.14818533654869,-1.2093894799018168,-2.949510364554764,-0.29627054929733276,0.9354003071784973,0.19300338625907898,3.1316933631896973,2.9656975269317627,-2.4174180030822754,-0.3064058721065521,0.33001118898391724,-0.8791301250457764
452,-1.304891113953417,-1.125127705056768,-2.2403340322519,-0.41591158509254456,0.9023226499557495,-0.11327546089887619,0.8691563010215759,-3.6906867027282715,-0.767004668712616,0.32702913880348206,0.7780972123146057,0.042459435760974884
453,-1.1098259591395543,-0.9219667576898706,-1.9921203869832829,-0.5411831140518188,0.7967915534973145,-0.2687828540802002,1.132960319519043,1.9301406145095825,-1.1170626878738403,0.2545314431190491,-0.49584245681762695,0.6942284107208252
454,-0.8160675780513427,-0.8430160135250722,-1.9699295021744576,-0.48458003997802734,0.7466527819633484,-0.45573219656944275,-0.2748870849609375,2.0324018001556396,0.0788477435708046,0.9952459335327148,-0.5215704441070557,0.7606180310249329
455,-0.9515597839281073,-0.8682083372356544,-2.0819724077130997,-0.5262105464935303,0.7631723880767822,-0.3750603199005127,-1.5770928859710693,-0.20215095579624176,-0.5842229723930359,-0.88971346616745,0.2135578989982605,-0.3315894305706024
456,-0.9930809926028512,-0.8925037312803298,-2.1693467108956916,-0.525634765625,0.7786452174186707,-0.34266549348831177,0.06000804528594017,3.119255781173706,0.5164808034896851,1.0647125244140625,0.9820816516876221,0.44763079285621643
457,-1.1413430858945999,-1.0539745291673404,-2.199085911502266,-0.44925013184547424,0.8693940043449402,-0.20573833584785461,-0.5538727045059204,-2.018216371536255,2.390549659729004,0.4101419150829315,0.43758225440979004,0.8877909779548645
458,-1.8320141933305216,-1.2706056899803775,-2.5921929697835697,-0.28567075729370117,0.9552801251411438,0.07636722177267075,-0.3519001007080078,-0.11063648760318756,1.1044543981552124,-0.46367308497428894,-0.16040414571762085,0.2524597644805908
459,-2.3265377981504507,-1.27818566462993,3.1170900348040926,-0.2099255472421646,0.9574940800666809,0.19782933592796326,-1.0599664449691772,0.2856486737728119,0.3539435565471649,-0.2535754442214966,-0.2079823613166809,-0.3360433578491211
460,-2.58565394189802,-1.2297144427264062,2.968146218651253,-0.17653293907642365,0.9423933029174805,0.2841319441795349,-2.0810885429382324,-2.6626152992248535,0.28555724024772644,-0.23153285682201385,0.041142404079437256,0.05980122089385986
461,-2.682605619564086,-1.2055415952514854,2.8893401880402947,-0.1582481414079666,0.9340327978134155,0.32021865248680115,1.2919613122940063,0.3300555646419525,-0.5838471055030823,-0.7057502269744873,0.2974734306335449,-0.2626167833805084
462,-1.5751207885219312,-1.1955526204367821,-2.5063159102777135,-0.36649560928344727,0.9304183125495911,0.001584906131029129,2.9882993698120117,4.283065319061279,-1.507655382156372,-0.009038418531417847,0.7507644295692444,0.5192433595657349
463,-1.2667591833058238,-1.0307863115804863,-2.102493028423077,-0.49056366086006165,0.8577035069465637,-0.15392182767391205,1.742884635925293,1.0654646158218384,-1.7696226835250854,0.16742825508117676,-0.002829909324645996,0.5760104656219482
464,-1.015763811965358,-0.8662787219410488,-2.002983349939555,-0.5504408478736877,0.7619240880012512,-0.3413013815879822,0.6930276155471802,2.439455509185791,-0.8005490303039551,0.625285267829895,-0.4925606846809387,0.6265339255332947
465,-0.8668429841046108,-0.8797177254146987,-2.05715445747415,-0.4858594536781311,0.7705590128898621,-0.41252821683883667,-1.6983063220977783,-0.19699698686599731,-0.03471231460571289,-0.015025585889816284,-0.47046440839767456,-0.06571274995803833
466,-1.130751424508279,-0.923842782603534,-2.2785052432634774,-0.545335054397583,0.7979238033294678,-0.2567630410194397,-1.4023516178131104,-0.6653895378112793,0.14333027601242065,-0.09882998466491699,-0.011073827743530273,0.3843722939491272
467,-1.1272670263837459,-0.9895344680761982,-2.2830033789828184,-0.49595168232917786,0.8357704281806946,-0.23562626540660858,-0.3116605877876282,-2.972778558731079,1.6299046277999878,1.261439323425293,-0.6968544125556946,0.4511414170265198
468,-1.4817590686522781,-1.2168290222528186,-2.4262217002844566,-0.3452489972114563,0.9380049705505371,-0.030821513384580612,-3.0808956623077393,-4.118778228759766,1.7813117504119873,-0.4083368182182312,0.23943954706192017,0.013533294200897217
469,-2.132628197021471,-1.2861026588142315,-3.073534307212384,-0.23768945038318634,0.9597477316856384,0.14962655305862427,-1.5333760976791382,1.2925069332122803,0.690342128276825,-0.12395912408828735,-0.24726909399032593,-0.08619582653045654
470,-2.489608560916714,-1.2386527319746174,2.932187044806051,-0.19784776866436005,0.9453455805778503,0.2591870129108429,-1.1780813932418823,-2.1421191692352295,0.0226979348808527,-0.24944832921028137,0.11419415473937988,-0.0015118420124053955
471,-2.6723981036930935,-1.2190143192422804,2.831200774239985,-0.1558043211698532,0.9387601613998413,0.307334840297699,0.541826069355011,-0.6625062823295593,-0.08715050667524338,-0.6982148289680481,0.15964388847351074,-0.3214796483516693
472,-1.8162240277676294,-1.2272416739508891,-2.7161252783582563,-0.3267424404621124,0.9415633082389832,0.08184152096509933,2.595993757247925,3.8945963382720947,-2.0456812381744385,0.006567239761352539,0.5911057591438293,0.014472007751464844
473,-1.2894357043634683,-1.0913185855061611,-2.1866019230501426,-0.44317641854286194,0.8872359991073608,-0.12809041142463684,2.4259836673736572,0.15333794057369232,-1.8490047454833984,0.31724557280540466,0.3829057216644287,0.30835777521133423
474,-1.1048231529008166,-0.9061265799431282,-1.9759398170579534,-0.5510388612747192,0.787120521068573,-0.2771231532096863,0.8600552082061768,1.974393606185913,-0.8972794413566589,0.3363630771636963,-0.5328176617622375,0.5696799755096436
475,-0.9022982280230569,-0.8611412843977847,-2.0099779321342446,-0.5113235712051392,0.7585867047309875,-0.403849720954895,-0.9420124292373657,1.5528948307037354,-0.23281900584697723,0.5163894295692444,-0.5291707515716553,0.558451771736145
476,-1.0898267146819043,-0.8925647172832046,-2.223939100969718,-0.5562345385551453,0.7786834836006165,-0.29026761651039124,-1.6273428201675415,1.0320261716842651,-0.0751776248216629,-0.02558302879333496,-0.24854737520217896,0.012496590614318848
477,-1.078884880198294,-0.9200440457468957,-2.2488916230643934,-0.5339582562446594,0.7956283092498779,-0.28611937165260315,-1.7261546850204468,-0.2531607449054718,0.5979391932487488,1.8190535306930542,-0.8403975963592529,1.1622790098190308
478,-1.3277534187133004,-1.1470387689798827,-2.273834567613134,-0.3991039991378784,0.9115503430366516,-0.09895554184913635,-2.5027825832366943,-2.9489684104919434,2.458122968673706,0.04661065340042114,0.6516211628913879,0.577867865562439
479,-2.084225783402753,-1.2608282610317456,-2.7899735151667096,-0.26569971442222595,0.9523432850837708,0.14982005953788757,-0.5260061621665955,-1.211127519607544,0.9280004501342773,-0.23829811811447144,-0.302990198135376,-0.2660766839981079
480,-2.345403741578103,-1.2362992256065397,-3.088341798797579,-0.23463068902492523,0.9445755481719971,0.22962087392807007,-0.5054971575737,-1.1517064571380615,0.03356761112809181,-0.17984381318092346,-0.4257156252861023,-0.2465580701828003
481,-2.6786509928107396,-1.1559779102068277,2.926727718878448,-0.17998339235782623,0.9151895046234131,0.3606029748916626,0.03657276928424835,-0.18511328101158142,0.16220596432685852,-0.9893129467964172,0.34767383337020874,-1.2361063957214355
482,-2.1956688690319606,-1.1967088605361242,-2.885534051423262,-0.29637160897254944,0.9308414459228516,0.2137700766324997,2.8327226638793945,2.5042402744293213,-2.8650639057159424,-0.8320767879486084,0.31671690940856934,-0.4015142321586609
483,-1.4659489516606548,-1.1037400564899194,-2.262838112190193,-0.44778725504875183,0.8928976058959961,-0.04712211713194847,1.4926395416259766,-2.423818588256836,-0.624178946018219,0.3407773971557617,0.7600107192993164,-0.17506110668182373
484,-1.2009106030054206,-0.9096811833882252,-1.9422424890805656,-0.572472095489502,0.7893080115318298,-0.22196558117866516,1.6780674457550049,2.3253116607666016,-1.210708498954773,0.40811967849731445,-0.39628738164901733,0.629054844379425
485,-0.8830158445070228,-0.8130443498615285,-1.8851225229912778,-0.5310395956039429,0.7263829112052917,-0.43630826473236084,-0.04742704704403877,2.0460832118988037,-0.08903449773788452,0.8860200643539429,-0.417544960975647,0.7359145879745483
486,-1.0307134313664212,-0.8399324329047269,-2.0460746785429227,-0.5725033283233643,0.7445980310440063,-0.343239963054657,-1.8903353214263916,-0.45390331745147705,0.4430868327617645,-0.814215362071991,-0.2545468211174011,-0.34186437726020813
487,-1.0470588033621313,-0.8892711899764546,-2.09829464463555,-0.5455335378646851,0.7766128182411194,-0.3150648772716522,-1.7877309322357178,-0.14212456345558167,0.258656769990921,1.3948986530303955,-0.06987136602401733,1.1929945945739746
488,-1.244832165570933,-1.098138550804081,-2.0541323327130385,-0.4312816560268402,0.890361487865448,-0.14578257501125336,-1.6414138078689575,-1.2937300205230713,2.0176336765289307,0.04877433180809021,0.5036967396736145,0.7611695528030396
489,-1.887865850552635,-1.2486123678774192,-2.512197924218519,-0.3008553981781006,0.9485461711883545,0.09872276335954666,-1.2241032123565674,-0.31178054213523865,1.1578508615493774,-0.2953207492828369,-0.322127103805542,-0.18614041805267334
490,-2.2309451137537684,-1.2497106003449903,-2.9762973877061585,-0.24929043650627136,0.9488933086395264,0.1935349702835083,-0.8002126812934875,0.3601261079311371,0.3517916798591614,-0.07138828933238983,-0.28567010164260864,-0.1849290132522583
491,-2.6387998370477384,-1.1864360412157162,3.052370507739565,-0.1806866079568863,0.9270384907722473,0.3285602927207947,-2.558828830718994,1.4938154220581055,1.016689419746399,-0.5107196569442749,0.2314239740371704,-0.18825581669807434
492,-2.5159861729081934,-1.2104136153946414,3.12809225860801,-0.2064979374408722,0.9357619285583496,0.2858470678329468,1.5361850261688232,1.0116513967514038,-1.4682520627975464,-0.8229515552520752,0.14672720432281494,-0.3471110761165619
493,-1.5144719379584273,-1.1567062833093154,-2.323346511001481,-0.4017190635204315,0.9154828190803528,-0.022650539875030518,2.187659502029419,1.8175078630447388,-0.46428772807121277,0.3265085220336914,0.9447314143180847,0.594717800617218
494,-1.2487382009411838,-1.0156957628685894,-1.969084109133452,-0.4999322295188904,0.8498474359512329,-0.16681495308876038,1.842126488685608,-0.12253910303115845,-1.1729985475540161,0.2120751440525055,-0.20607900619506836,0.301488995552063
495,-0.9508169941541802,-0.8711329841187408,-1.8094973980946978,-0.5241129994392395,0.7650590538978577,-0.37415263056755066,0.6976750493049622,2.869602918624878,-0.5814943909645081,0.5215648412704468,-0.40189987421035767,0.6310038566589355
496,-0.8467627256474581,-0.8377707391121565,-1.8507587824072387,-0.5012653470039368,0.7431533336639404,-0.4432336986064911,-0.09904767572879791,-1.0416399240493774,-1.1982306241989136,-0.48111069202423096,-0.1310318112373352,-1.035846471786499
497,-1.0535979957880606,-0.9025645966007537,-2.0757574170023316,-0.5385603904724121,0.784918487071991,-0.30635881423950195,-1.22158682346344,-1.7350467443466187,-0.03174509480595589,-0.5594620704650879,0.5112698674201965,-0.09409278631210327
