,attitude.roll,attitude.pitch,attitude.yaw,gravity.x,gravity.y,gravity.z,rotationRate.x,rotationRate.y,rotationRate.z,userAcceleration.x,userAcceleration.y,userAcceleration.z
0,0.20571361950551162,0.5097968944310469,-2.8044430748110147,0.17829209566116333,-0.48799997568130493,-0.8544401526451111,-0.3790694773197174,-0.167165607213974,0.08767591416835785,-0.06398849189281464,0.03577524423599243,0.13378280401229858
1,0.10818054250096906,0.022647036084985906,2.513152412871356,0.10794197022914886,-0.022645100951194763,-0.9938992857933044,0.23352055251598358,0.4996820092201233,-0.4167017340660095,0.02918875962495804,-0.10427750647068024,0.19880956411361694
2,0.17259879490651367,0.02964983920928557,2.465764163614532,0.17166762053966522,-0.029645495116710663,-0.9847087860107422,0.46311208605766296,-0.587425708770752,-0.4430229067802429,0.025994732975959778,-0.14427417516708374,-0.022432327270507812
3,0.17513547203605437,0.06802230928448018,2.420956291044951,0.17383858561515808,-0.06796986609697342,-0.9824256896972656,0.654753565788269,-0.2238258272409439,-0.4155614376068115,0.09216788411140442,-0.14170116186141968,-0.19369125366210938
4,0.17081457106107456,0.05986893811973746,2.3613587273825276,0.16968058049678802,-0.05983318015933037,-0.9836810827255249,-0.5936033129692078,0.4827519655227661,-0.7063775658607483,0.17477132380008698,-0.023403510451316833,-0.2217327356338501
5,0.232383103937965,0.041597037295814064,2.303995495807831,0.23009800910949707,-0.0415850430727005,-0.9722785353660583,0.4475787281990051,0.4751044809818268,-0.67667156457901,0.017933592200279236,0.127873495221138,0.19305801391601562
6,0.37287340916304035,0.06747005238602712,2.2327108663697754,0.36346402764320374,-0.06741887331008911,-0.9291655421257019,0.6027244329452515,1.8282175064086914,-0.07601205259561539,-0.07601895928382874,0.10642033815383911,0.044689834117889404
7,0.4871096317739717,0.07499347919830224,2.184004841046327,0.46675804257392883,-0.07492320239543915,-0.881205677986145,0.7139742374420166,1.1460003852844238,-0.5840676426887512,-0.14862754940986633,-0.03211720287799835,0.11464989185333252
8,0.6158361986033879,0.11517891896169126,2.0811053089202547,0.5738139748573303,-0.11492442339658737,-0.8108821511268616,0.867350697517395,1.0453860759735107,-0.7679547667503357,-0.011710703372955322,-0.03572559356689453,0.13842731714248657
9,0.7853032482746062,0.16280428593130822,2.0257890401353915,0.6976902484893799,-0.16208603978157043,-0.6978226900100708,0.8041039705276489,1.1117433309555054,-0.10833937674760818,0.09041094779968262,0.12696030735969543,-0.1383436918258667
10,0.9357484796902562,0.1617511369652665,1.9395236521518993,0.7945348620414734,-0.16104672849178314,-0.5854726433753967,0.031133882701396942,1.8624247312545776,-1.2133420705795288,0.31754088401794434,-0.02450011670589447,0.016609787940979004
11,1.0328351099555317,0.09443643805743175,1.8858348769352897,0.854928731918335,-0.09429613500833511,-0.510103166103363,0.28485456109046936,0.6805276870727539,-1.2488681077957153,-0.04439711570739746,0.18687120079994202,-0.009199202060699463
12,1.2341016329871832,-0.005762119683097451,1.846652275747844,0.9438361525535583,0.005762087646871805,-0.3303636908531189,0.09479739516973495,3.249095916748047,-1.1663399934768677,-0.32519906759262085,0.23357200622558594,0.3683733344078064
13,1.6749912697555882,-0.22227068683549625,1.8151137508161284,0.9701095819473267,0.22044502198696136,0.10144790261983871,-0.17561514675617218,5.026034355163574,-2.793942451477051,-0.3267531394958496,-0.13678103685379028,0.215858593583107
14,2.167955829949081,-0.3957928485641116,1.925608223547615,0.7630069255828857,0.38553985953330994,0.5188255310058594,-0.060122471302747726,2.7448196411132812,-1.853281855583191,0.19664889574050903,0.07313939929008484,-0.20569956302642822
15,2.359748960718678,-0.4885484496668647,2.1086887363585083,0.6221626400947571,0.4693446457386017,0.6266013383865356,-0.6913530230522156,0.5118253827095032,-1.495750904083252,0.3710014224052429,-0.015975534915924072,-0.016234517097473145
16,2.4747100994596813,-0.5803956254961943,2.309310611775029,0.5172511339187622,0.5483548045158386,0.6570833921432495,0.12999604642391205,1.0053879022598267,-1.5337525606155396,0.7259129881858826,0.21775853633880615,0.14937418699264526
17,2.436690361166654,-0.6985906011483981,2.2958403067602995,0.49617454409599304,0.6431390643119812,0.5832520723342896,0.3122953772544861,-1.1604450941085815,0.8517105579376221,0.7182724475860596,-0.3550226092338562,0.30805957317352295
18,2.3417210252072818,-0.654786526626432,2.0032663003908175,0.5689199566841125,0.608989953994751,0.5526853203773499,1.5111860036849976,1.3792310953140259,1.929495930671692,-0.18159091472625732,-0.13073378801345825,-0.13551008701324463
19,2.3922482689222275,-0.5873576410015938,1.699482351810282,0.5670021772384644,0.5541634559631348,0.6094356179237366,1.6387052536010742,2.624683141708374,2.437800645828247,-0.09700095653533936,0.46188884973526,-0.15803474187850952
20,2.485077235837519,-0.6323400963203982,1.4675996734801924,0.49234527349472046,0.5910339951515198,0.6389642357826233,1.9894602298736572,1.5612049102783203,0.35984450578689575,0.007197052240371704,0.658660888671875,-0.14460986852645874
21,2.285674335985186,-0.8714875588810004,1.288297079477127,0.48609644174575806,0.7652872800827026,0.4219541847705841,2.6069791316986084,-2.980849504470825,-1.8733692169189453,0.7400082349777222,0.2756061553955078,0.22820749878883362
22,1.6741003252455917,-0.9591464845304798,0.9178437099107678,0.5711578726768494,0.8187017440795898,0.059213679283857346,1.595974326133728,-3.3978800773620605,1.4236875772476196,0.20876461267471313,-0.3398503065109253,0.46188926696777344
23,1.4434033206607662,-0.8022600910069063,0.8302015412477707,0.6894509196281433,0.718928873538971,-0.08830946683883667,0.6073560118675232,0.5084287524223328,1.4187159538269043,-0.8560616970062256,-0.007396340370178223,0.27390211820602417
24,1.4988447299115875,-0.6639789664845442,0.8687386007759652,0.7855087518692017,0.6162553429603577,-0.056616343557834625,-0.5318241119384766,-0.32184892892837524,1.2908469438552856,-0.46229714155197144,-0.1927628517150879,-0.18624258041381836
25,1.557896703231841,-0.59541514998462,0.9128865253264296,0.8278469443321228,0.5608525276184082,-0.010679506696760654,-0.6333574652671814,0.8337993621826172,1.5521936416625977,0.23373758792877197,-0.3572697043418884,0.1451246738433838
26,1.640440570301362,-0.3157419511475806,1.0707708310065218,0.9482618570327759,0.31052184104919434,0.06614796072244644,-1.4552652835845947,0.8325986266136169,2.4681553840637207,0.24647074937820435,0.3864538371562958,0.13665664196014404
27,1.646040199800234,-0.01485505283832151,1.1914938920570577,0.9970605969429016,0.014854506589472294,0.07516460865736008,-1.8356109857559204,1.4597725868225098,1.231860637664795,0.05390387773513794,-0.008171139284968376,0.0798952654004097
28,2.0104713591005634,0.024795203773822532,1.3281126092625748,0.9046117663383484,-0.024792663753032684,0.4255145490169525,-1.300890564918518,4.819714069366455,-0.3021010160446167,0.3515373468399048,0.18420124053955078,-0.3847735822200775
29,2.3175477971349463,0.09972484853964438,1.425000224716485,0.7302528619766235,-0.09955963492393494,0.6758832335472107,0.062003180384635925,3.761303424835205,0.5050656795501709,-0.42646580934524536,0.3031424283981323,-0.1986953616142273
30,2.543802355224345,0.1086245356508902,1.3709538385757196,0.5595002174377441,-0.10841104388237,0.8217095732688904,-0.02777431719005108,0.32144904136657715,1.2797666788101196,0.08477163314819336,-0.4832790195941925,0.2271949052810669
31,2.6131952528638718,0.14128440803711367,1.3253159006951667,0.4991265535354614,-0.14081484079360962,0.8550109267234802,-0.4681631326675415,-0.2163187712430954,-0.3390551209449768,-0.034374386072158813,-0.08915035426616669,0.16432183980941772
32,2.606783505883836,0.17491080743094503,1.3585910831179286,0.5019002556800842,-0.17402030527591705,0.8472386002540588,-0.762643039226532,-0.5888802409172058,-0.07447692006826401,0.31308692693710327,-0.21112678945064545,0.34334373474121094
33,2.592626376873759,0.2501110647182339,1.416581386621663,0.5055696964263916,-0.24751156568527222,0.8265213370323181,-0.6133860349655151,0.18180473148822784,-0.0572979599237442,0.07630902528762817,0.30847039818763733,-0.19807279109954834
34,2.621348299288766,0.22081856460483784,1.4058805354207502,0.48502203822135925,-0.21902838349342346,0.846628725528717,0.4825146794319153,-0.40694287419319153,-0.08298203349113464,0.03278496861457825,0.10380928218364716,-0.034464478492736816
35,2.6078917556586028,0.16619620365828286,1.3735914868743302,0.5017133951187134,-0.1654321700334549,0.8490676283836365,1.26569402217865,-0.775182843208313,-0.20212016999721527,-0.3425337076187134,0.1705438792705536,-0.47745513916015625
36,2.4580164359748116,0.007619046310912196,1.3942896054671126,0.6315513849258423,-0.0076189725659787655,0.7752965092658997,1.1256550550460815,-0.024351805448532104,-1.1436785459518433,-0.23175591230392456,-0.1222791075706482,0.5127893686294556
37,2.4688690212132474,-0.05919228777581004,1.384642124473282,0.6220272183418274,0.059157729148864746,0.7807576060295105,-0.081178218126297,0.8741779923439026,0.2539772093296051,0.03675574064254761,-0.19380128383636475,0.4580729007720947
38,2.6029639396423074,-0.09218579047316258,1.4012620402470357,0.5107814073562622,0.09205527603626251,0.8547681570053101,0.0660952776670456,1.8226560354232788,-0.8458976149559021,0.5965642929077148,0.09745890647172928,0.6417528986930847
39,2.716270645151173,-0.10364919816256807,1.4168493330472007,0.41039973497390747,0.10346370935440063,0.9060173034667969,0.051616862416267395,0.4873863160610199,0.2315051406621933,0.11937016248703003,0.10794681310653687,-0.4137229919433594
40,2.683636767870394,-0.11743013743056706,1.3519700603689127,0.4390707015991211,0.11716043204069138,0.8907807469367981,0.37441903352737427,-1.4896066188812256,0.11256489157676697,-0.5085897445678711,-0.008960366249084473,-0.44292008876800537
41,2.5570445063337144,-0.1561396625571494,1.3368782899136078,0.5451096892356873,0.15550599992275238,0.8238163590431213,-0.05325193330645561,-0.28430044651031494,-0.38548535108566284,-0.06575489044189453,-0.17946232855319977,-0.015482008457183838
42,2.504966415958797,-0.18052202788890778,1.3568344885543877,0.5848256349563599,0.179543137550354,0.7910393476486206,-0.20914869010448456,-1.076608657836914,-0.029007941484451294,0.09950053691864014,-0.09059964120388031,0.4116736650466919
43,2.388888033295782,-0.10243928812347058,1.4186147081022695,0.6800314784049988,0.10226021707057953,0.7260165214538574,-1.2166614532470703,-1.1729884147644043,0.2385147213935852,0.3785470128059387,0.12291371077299118,0.4980129599571228
44,2.3302343384918065,-0.0029725373742057614,1.4174036475024028,0.7252197265625,0.002972532995045185,0.6885107755661011,-0.4117644429206848,-1.4446359872817993,0.25191187858581543,0.044860661029815674,0.3570128381252289,-0.1226692795753479
45,2.0869138047569984,-0.0035335260458192034,1.389663978481313,0.8697365522384644,0.0035335186403244734,0.4935041069984436,1.205422043800354,-3.145315170288086,-0.6555220484733582,-0.2832801342010498,0.3221195638179779,-0.15979427099227905
46,1.705803154343409,-0.20171355891500423,1.3789029330055182,0.9708097577095032,0.20034843683242798,0.13186809420585632,0.9142078161239624,-2.6356289386749268,-2.413579225540161,-0.6160581111907959,-0.16760310530662537,0.2547743320465088
47,1.4669847018367077,-0.418862194587079,1.3571334147566931,0.9086341857910156,0.4067212641239166,-0.09466710686683655,-1.0409396886825562,-2.0215072631835938,-1.8489203453063965,-0.5402412414550781,-0.5403577089309692,0.07847750186920166
48,1.3291595703648322,-0.7643080632678448,1.3287400231153428,0.7008897662162781,0.6920377016067505,-0.172735795378685,0.49051815271377563,-0.33228132128715515,-3.588063955307007,0.1813429594039917,-0.1974087953567505,-0.2696927785873413
49,1.2555530995399309,-0.8604621690593423,1.1197664388532733,0.619952917098999,0.7581440210342407,-0.20217812061309814,1.3430761098861694,1.5760828256607056,-0.2623600959777832,0.9364129900932312,0.037769615650177,-0.03701864182949066
50,1.5338669493840673,-0.684653510903037,1.1653012682737374,0.774109959602356,0.632404625415802,-0.028600402176380157,0.33257830142974854,2.666471481323242,2.8124516010284424,0.187330961227417,0.15624576807022095,-0.13401252031326294
51,1.7461734757859537,-0.4685269502940055,1.1886736304149692,0.8785483241081238,0.4515724778175354,0.15567663311958313,-0.9474818706512451,0.48697853088378906,2.989504098892212,0.2870247960090637,-0.4440804123878479,-0.17673373222351074
52,1.7673606426080393,-0.3862596349980133,1.401992884032132,0.9084866046905518,0.37672626972198486,0.1809120625257492,-3.7520639896392822,-0.535420835018158,-1.4023096561431885,-0.6340574026107788,0.21471959352493286,0.05858992040157318
53,1.879095719243728,-0.2952011647308852,1.5858481041216874,0.911634087562561,0.2909323275089264,0.2903129756450653,-0.8388964533805847,1.0820215940475464,-0.24996961653232574,-0.08503502607345581,0.20392543077468872,1.3793189525604248
54,2.0394998967948372,-0.1814303408795803,1.7285688587990329,0.877511203289032,0.1804366260766983,0.4443155527114868,-1.6686463356018066,1.2106959819793701,3.6388967037200928,1.1060090065002441,-0.5872512459754944,0.363942414522171
55,2.1367703080517675,0.12413118032894864,1.6066484678281652,0.8375722765922546,-0.12381264567375183,0.5321122407913208,0.22385115921497345,0.3230833411216736,1.4600986242294312,-0.2581806778907776,0.6730985045433044,-0.3146743178367615
56,2.2625900626499837,0.09654443332770812,1.5599844096864657,0.7665168046951294,-0.09639452397823334,0.6349489092826843,0.7473703622817993,1.987056851387024,-1.2208044528961182,-0.2582465410232544,0.07645130157470703,0.0614926815032959
57,2.5929097388708686,0.06666291062177451,1.548792891868032,0.5204055309295654,-0.06661354750394821,0.8513172268867493,-1.7910425662994385,4.626795291900635,2.2415719032287598,0.17986613512039185,-0.4664827585220337,-0.25628530979156494
58,2.994513188885021,0.11293190451608145,1.4657153020119102,0.14561621844768524,-0.11269200593233109,0.982901930809021,2.238461494445801,3.5505433082580566,-0.30322137475013733,-0.30394142866134644,0.21549049019813538,0.06482744216918945
59,-3.1164631643428375,-0.038606484718563774,1.4066576066305387,-0.025108130648732185,0.03859689459204674,0.9989396929740906,-0.9296892881393433,-1.0303778648376465,-0.47850680351257324,-0.06311819702386856,0.16599294543266296,0.7918473482131958
60,-3.1331512528625627,0.11381564691683535,1.3987850123558054,-0.008386688306927681,-0.11357007920742035,0.9934949278831482,-2.940638303756714,-0.9610256552696228,-0.09190727025270462,0.4691258370876312,0.20527535676956177,-0.046030640602111816
61,2.9364712557050603,0.3602826045522556,1.4220948825510278,0.19060879945755005,-0.35253870487213135,0.916179358959198,-2.314934253692627,-3.4300289154052734,-0.6018492579460144,-0.26122650504112244,0.43095365166664124,-0.3749349117279053
62,2.76823068769937,0.40941849521626317,1.5430221130054973,0.3346024453639984,-0.3980759382247925,0.8541529774665833,0.6445945501327515,0.5922491550445557,-1.415869116783142,-0.5460586547851562,0.4294326901435852,-0.7277947068214417
63,2.833105255879853,0.09519948259590158,1.5955136576059297,0.3022429943084717,-0.09505575150251389,0.9484796524047852,3.6703338623046875,0.1476678103208542,-0.9338237047195435,0.3238403797149658,0.0038997530937194824,0.38220882415771484
64,2.7927946495239926,-0.20251718385077924,1.5157711993723009,0.33478376269340515,0.20113570988178253,0.9205780029296875,3.2117502689361572,-0.0016172933392226696,0.3157842755317688,0.0055176615715026855,-0.2144109010696411,0.3433682918548584
65,2.9506460379897117,-0.34044528949903835,1.503352090911278,0.17889566719532013,0.3339068591594696,0.9254741072654724,-0.29534411430358887,1.6273515224456787,-1.1117243766784668,0.4748518764972687,-0.3816821575164795,0.7505664229393005
66,3.0197617710772495,-0.1969503011231503,1.634345264285306,0.11918027698993683,0.19567950069904327,0.9733988046646118,-3.835460901260376,0.15433399379253387,0.21858802437782288,0.6574158072471619,0.15042033791542053,0.7439929842948914
67,2.946434780379279,0.06458669738947746,1.6028742325423042,0.1935170739889145,-0.06454180181026459,0.978971540927887,0.18036183714866638,-0.19175276160240173,0.25908756256103516,-0.2954610586166382,0.5342073440551758,-1.3836348056793213
68,3.0369640922302326,-0.14406073468350097,1.5127023337430603,0.10335592925548553,0.14356295764446259,0.9842293858528137,2.418328285217285,1.1772229671478271,0.6870324015617371,0.16339822113513947,0.16049893200397491,-0.15923237800598145
69,3.014811458934771,-0.3462439589713908,1.3767979267559434,0.11893799155950546,0.3393670618534088,0.9331041574478149,2.643575668334961,-2.474724769592285,1.0221855640411377,-0.38747742772102356,0.08984735608100891,0.5233165621757507
70,2.7525017036287567,-0.4405367653348847,1.3458164602616776,0.3431284725666046,0.426425039768219,0.8369137048721313,-0.3905000686645508,0.7943702340126038,-0.08930955827236176,0.23438617587089539,0.696804940700531,0.31854283809661865
71,3.003053336136708,-0.40400517100587374,1.3751335643968632,0.12697897851467133,0.39310422539711,0.9106841087341309,-0.3730740249156952,2.996948719024658,0.4509570300579071,0.42195597290992737,0.336357444524765,-0.10617971420288086
72,3.0882248815437356,-0.3808076887696244,1.3415608245575248,0.049521252512931824,0.3716704249382019,0.9270431995391846,-0.28644809126853943,-0.3399234414100647,-0.20869553089141846,0.006325922906398773,-0.15926805138587952,-0.22256004810333252
73,3.003781773847858,-0.311181178986093,1.3033429036650221,0.13077732920646667,0.3061833083629608,0.9429472088813782,0.9507258534431458,-0.8630765080451965,0.8877984285354614,-0.3182315230369568,0.15515097975730896,-0.8516384363174438
74,2.917909768790848,-0.4766953416260827,1.2897999525764625,0.1970926821231842,0.45884543657302856,0.8663807511329651,0.9295564889907837,0.7984678745269775,-1.3380454778671265,-0.06223548948764801,-0.36747580766677856,0.6246166229248047
75,3.056479529620437,-0.42048681204162514,1.3984150259014907,0.07760516554117203,0.40820491313934326,0.9095856547355652,-2.4438247680664062,0.5918104648590088,-0.949593186378479,-0.03727618604898453,-0.06221190094947815,1.0252439975738525
76,2.9472505029734664,-0.09886990392968145,1.6941579025487843,0.19217796623706818,0.09870890527963638,0.9763832092285156,-2.366665840148926,-2.9875001907348633,-2.8533849716186523,0.21449926495552063,0.5051119327545166,0.11219406127929688
77,3.029101615110531,-0.028545171744787656,1.6887975922581686,0.11220818758010864,0.02854129485785961,0.9932745099067688,0.0993705540895462,3.5485780239105225,0.8698543906211853,-0.42286190390586853,0.5397875308990479,-0.4756508469581604
78,-3.140827643338896,-0.07272500632920477,1.5996976869837054,-0.0007629878236912191,0.0726609155535698,0.9973561763763428,0.5728232860565186,1.9984432458877563,1.1423225402832031,-0.11038202792406082,-0.023985393345355988,-0.18874740600585938
79,-3.125288117584614,-0.21587409435893476,1.5473036265274356,-0.015925392508506775,0.21420131623744965,0.9766595959663391,2.5478525161743164,-0.6688345074653625,1.7146317958831787,-0.41580677032470703,-0.22167813777923584,0.19155317544937134
80,2.9345882795793243,-0.37847811930581493,1.419361441704849,0.19098341464996338,0.36950671672821045,0.9093897938728333,0.07408314943313599,1.1635677814483643,-0.1744544357061386,-0.15764300525188446,0.3235321342945099,0.4138979911804199
81,3.032284689636534,-0.37093174744007085,1.3745446548209233,0.10167121142148972,0.3624839782714844,0.9264280200004578,-0.008779150433838367,2.3155083656311035,0.7922425270080566,0.3967113792896271,-0.012004733085632324,-0.2688196897506714
82,3.1245495362465907,-0.34693049805159093,1.3547289140652388,0.016026927158236504,0.340012788772583,0.940284252166748,-0.13050436973571777,-1.1257256269454956,0.3494165539741516,0.24898771941661835,0.06133913993835449,-0.30095624923706055
83,3.0617480722514223,-0.3884012040513931,1.2927462279603366,0.07381891459226608,0.37870919704437256,0.9225670099258423,0.616982102394104,0.45925620198249817,0.08560560643672943,-0.2985351085662842,-0.22969192266464233,-0.27934813499450684
84,3.1004792406736152,-0.455319425467737,1.2458286759592077,0.036914415657520294,0.43974921107292175,0.8973620533943176,1.3414920568466187,2.9617905616760254,0.4577175974845886,-0.2150607705116272,-0.1896117627620697,0.25766754150390625
85,-3.071212397041172,-0.5729726522329583,1.2252001236518066,-0.059091221541166306,0.5421323180198669,0.8382126688957214,0.9321273565292358,-1.589539885520935,-0.29557329416275024,-0.5271514654159546,0.1742066740989685,0.306989848613739
86,-3.0060053036018872,-0.6751654458545558,1.4324026119657576,-0.10551594942808151,0.6250264644622803,0.7734391093254089,0.43866291642189026,-0.3557429909706116,-1.6682950258255005,0.1601119190454483,0.07574862241744995,0.22967350482940674
87,-2.880097915515028,-0.5733413467692953,1.6499693700279685,-0.2171848565340042,0.5424421429634094,0.8115337491035461,-0.9595599174499512,-0.19043251872062683,-0.8082301020622253,0.1798161119222641,0.4243852496147156,-0.31333446502685547
88,-3.0507069713472506,-0.42030799729022966,1.6838846527185507,-0.08286114782094955,0.40804165601730347,0.9091957211494446,-1.2385214567184448,-2.6505610942840576,0.3260567784309387,0.35411661863327026,-0.21779492497444153,-0.6891788840293884
89,-3.006871483009867,-0.5142175061233412,1.6068074866986555,-0.11694427579641342,0.4918537139892578,0.8627887964248657,2.1145143508911133,3.623112201690674,1.2672042846679688,-0.13258272409439087,-0.12324699759483337,-0.3480181097984314
90,-2.8330147693653815,-0.6463335576183287,1.5318850572567948,-0.24244610965251923,0.6022635698318481,0.7605909705162048,0.14149223268032074,-0.3084971606731415,0.14909377694129944,-0.4983986020088196,0.15451133251190186,0.7675920724868774
91,-2.881943415031297,-0.7148292659699389,1.4888062255239631,-0.19389253854751587,0.6554884910583496,0.7298907041549683,0.6835700869560242,-0.8840521574020386,1.2271991968154907,0.32902437448501587,0.3463730216026306,0.05195432901382446
92,-3.0955039270962246,-0.7637686063966478,1.3313933248441487,-0.03327510505914688,0.6916481852531433,0.7214679718017578,-0.32478925585746765,0.4850209057331085,0.8581721186637878,0.10047479718923569,-0.057507991790771484,0.018308818340301514
93,3.1214721520162203,-0.6916511740967713,1.2373320788598152,0.015495647676289082,0.6378097534179688,0.7700383067131042,-1.0462849140167236,-0.4652193784713745,0.4252983331680298,-0.1555255651473999,-0.21817761659622192,-0.2873416543006897
94,3.054000426711879,-0.6379288681589959,1.2421369934471689,0.07027563452720642,0.5955328941345215,0.8002515435218811,0.20994006097316742,-1.1019595861434937,-0.45116543769836426,-0.31371432542800903,0.23549139499664307,-0.3338664174079895
95,3.022519281512069,-0.7145187197406321,1.2447301886505482,0.08973664790391922,0.6552539467811584,0.7500596642494202,-0.1749074012041092,0.8359693288803101,0.4618867039680481,-0.23101776838302612,-0.04182010889053345,0.9314740896224976
96,3.1036171231379748,-0.7106216690058073,1.2761077538556391,0.02877689339220524,0.6523050665855408,0.7574102878570557,0.3013073205947876,-0.012006504461169243,-0.8959481120109558,-0.2003161907196045,0.06331700086593628,0.23723405599594116
97,-3.0400338660596913,-0.7212941412852972,1.477221519298272,-0.07613473385572433,0.6603570580482483,0.747082531452179,-0.2626557946205139,-1.0930370092391968,-1.4791730642318726,0.42162424325942993,0.16554021835327148,-0.4600645899772644
98,2.971019848442396,-0.6638525519736764,1.5966046026556848,0.1336967796087265,0.6161558032035828,0.7761942148208618,-1.5971314907073975,-5.229859828948975,-0.8876065611839294,0.007416516542434692,-0.2153226137161255,-0.47753381729125977
99,2.851999984954844,-0.6363485952264702,1.625691621660215,0.2296692281961441,0.5942627191543579,0.7707816958427429,0.4751097559928894,0.8783907890319824,0.5216142535209656,-0.025186151266098022,-0.17905569076538086,-0.4334706664085388
100,2.7037021938655768,-0.6777592852491366,1.512064068669211,0.33031055331230164,0.6270491480827332,0.705481231212616,-2.3856139183044434,-7.879654407501221,0.3759646415710449,0.01807805895805359,0.2937118411064148,1.5956048965454102
101,2.612811377643889,-0.6025880928085574,1.4928211809441263,0.41562777757644653,0.5667766332626343,0.7113490104675293,-0.4774990379810333,1.626585841178894,0.41463062167167664,0.1139131486415863,0.40259885787963867,-0.13316315412521362
102,3.0344397981659084,-0.6200206366438378,1.485398018082716,0.08704131841659546,0.5810519456863403,0.8091985583305359,-0.39984700083732605,2.251117467880249,-0.5132157802581787,0.28566983342170715,0.5061367154121399,-0.41321784257888794
103,3.1196532649436235,-0.6940679844208044,1.445726975343322,0.016862360760569572,0.6396692991256714,0.7684651613235474,0.22683177888393402,0.42947742342948914,0.5552017688751221,-0.05528399348258972,-0.15237993001937866,-0.23814600706100464
104,3.014072423463087,-0.7261346944879398,1.3813486676158888,0.09509461373090744,0.6639843583106995,0.7416751980781555,0.3661186695098877,-0.8431791663169861,0.4140157103538513,-0.21000856161117554,-0.3424816131591797,-0.13690829277038574
105,2.9763487447173294,-0.7437289050525041,1.3002545019600924,0.12105841934680939,0.6770368814468384,0.7259241938591003,0.02206891030073166,1.6768271923065186,0.8424868583679199,-0.4381360411643982,-0.02632582187652588,0.3744480609893799
106,3.1150086119024447,-0.6945805387665772,1.2418596413489862,0.02042270265519619,0.6400632262229919,0.7680507302284241,-0.3298909068107605,1.883661150932312,-0.1810353398323059,-0.8515994548797607,0.16814899444580078,0.46472203731536865
107,-2.9170542182002546,-0.6804601454492655,1.3665252806451824,-0.1730670928955078,0.6291507482528687,0.7577710747718811,0.46986645460128784,1.1826841831207275,-1.2615776062011719,0.2012500762939453,0.20787012577056885,0.002299666404724121
108,-2.7215416327811477,-0.6494677500273544,1.4464297112244242,-0.324779748916626,0.604762613773346,0.7271724343299866,-0.9485426545143127,2.0344276428222656,0.12767650187015533,0.35877642035484314,0.015827476978302002,-0.4279020428657532
109,-2.5285579941901735,-0.5895878982330608,1.376838777981211,-0.4782153069972992,0.5560185313224792,0.6798185706138611,-0.7339710593223572,1.6114264726638794,0.06523038446903229,0.23299136757850647,-0.2669713497161865,-0.21421200037002563
110,-2.5223879485179648,-0.6172541680563386,1.268970203113129,-0.47328928112983704,0.5787981748580933,0.6640707850456238,0.5777091979980469,-0.8375363349914551,0.7821406722068787,-0.12709838151931763,-0.09240901470184326,-0.3113791346549988
111,-2.5314467544494517,-0.7145056911404228,1.4121312052145618,-0.4328441917896271,0.6552441120147705,0.6191129684448242,0.485324889421463,1.0093584060668945,1.1643998622894287,-0.03659239411354065,0.3550402522087097,0.959805428981781
112,-2.4749767041458988,-0.7050829719907103,1.3921635256947118,-0.4708940088748932,0.648097038269043,0.5985224843025208,-0.045183658599853516,0.39345666766166687,0.027530726045370102,0.3847734034061432,0.15013599395751953,0.23279160261154175
113,-2.507338318036695,-0.7046081056771231,1.2982499730567183,-0.451463907957077,0.6477352976799011,0.6136930584907532,-0.9200267791748047,-0.6996146440505981,0.3111996650695801,0.4874136447906494,-0.1038358211517334,-0.21949762105941772
114,-2.654259360550995,-0.6945383835000786,1.1932347684908735,-0.3597959876060486,0.6400308012962341,0.6789018511772156,-0.5243521928787231,-1.7248035669326782,0.7016879320144653,0.028375059366226196,-0.22924888134002686,-0.2705613970756531
115,-2.942433542092988,-0.6917418606851887,1.1343839557917903,-0.15236765146255493,0.6378796100616455,0.7549128532409668,0.46926239132881165,-0.2807078957557678,0.5157997012138367,-0.6292790770530701,0.29049551486968994,-0.17172205448150635
116,-3.011322948581506,-0.7578148292313179,1.1838026708119438,-0.09435269981622696,0.6873359084129333,0.7201855778694153,-0.0484866164624691,-2.810969591140747,0.2545042037963867,-0.26866915822029114,-0.12221121788024902,0.09814339876174927
117,-3.1252824200316374,-0.7985698197411136,1.281613576894142,-0.011379665695130825,0.7163589596748352,0.6976391077041626,0.4688243269920349,0.8336905837059021,-2.319305181503296,0.0962185263633728,0.3065597414970398,0.2332843542098999
118,-2.874438143835147,-0.8287749313189908,1.5628702756884945,-0.1783975064754486,0.737104058265686,0.6518063545227051,-0.09275174140930176,0.8374479413032532,-0.5345401763916016,0.528586745262146,0.10737818479537964,-0.0801665186882019
119,-2.8438264010921386,-0.761191682801223,1.6168023665717812,-0.21241536736488342,0.6897847056388855,0.6921537518501282,-0.9294096827507019,0.7489979267120361,-0.7576712369918823,0.030133873224258423,-0.14763998985290527,-0.2443082332611084
120,-2.6967544003537007,-0.7880983673053908,1.5765926261125984,-0.3034537136554718,0.7090135216712952,0.6365654468536377,0.7037419676780701,2.0802013874053955,1.3766814470291138,0.3637259900569916,-0.37548696994781494,-0.16285640001296997
121,-2.723949610783742,-0.8601803000915147,1.4373930534302004,-0.2645778954029083,0.7579602003097534,0.5962339043617249,-0.24345088005065918,-0.7181190252304077,-1.4089000225067139,-1.472848892211914,0.3726549744606018,0.49319785833358765
122,-2.691519288951005,-0.8296578341703948,1.452210031785803,-0.29370206594467163,0.7377004027366638,0.6078956127166748,-0.6388895511627197,0.24462838470935822,0.592618465423584,0.6931314468383789,0.1651773452758789,0.4842826724052429
123,-2.749659713003519,-0.8255179982717583,1.3882045864132586,-0.25904685258865356,0.7348991632461548,0.6267521381378174,0.05066472664475441,-0.13958019018173218,0.18997932970523834,0.4151900112628937,0.10126727819442749,0.017458736896514893
124,-2.8593826950603547,-0.817862376787414,1.3331320390120265,-0.19041898846626282,0.7296858429908752,0.6567337512969971,-0.7028353214263916,0.08548390120267868,0.978308916091919,0.147053524851799,-0.25835710763931274,-0.23681187629699707
125,-3.022780257645935,-0.7527125817143768,1.0257197010410546,-0.0865098163485527,0.6836209893226624,0.7246917486190796,-0.7853226065635681,-0.599769651889801,1.607242226600647,-0.4043654203414917,0.0034211277961730957,-0.44855350255966187
126,-3.065011878067344,-0.8104704597807839,1.0207083761198614,-0.05272466689348221,0.7246114611625671,0.6871379613876343,0.7827642560005188,-0.8503422141075134,-0.5593945980072021,-0.1261846125125885,-0.30366724729537964,0.574870765209198
127,3.0758771360734083,-0.7551973324618302,0.9587373981425132,0.04781540483236313,0.6854323744773865,0.7265644073486328,-0.21896183490753174,0.14201804995536804,-0.7999370694160461,-1.6519871950149536,0.7819290161132812,0.8612040877342224
128,-3.0391972668497194,-0.8010038728561905,1.234072561131211,-0.07114128768444061,0.7180551290512085,0.6923405528068542,0.759132981300354,-1.1473259925842285,-1.931639552116394,0.3571520447731018,0.30666404962539673,-0.1939428448677063
129,3.076886141699561,-0.771818077368172,1.4899580092430809,0.04633919894695282,0.6974393129348755,0.7151445746421814,-0.8026646375656128,-6.22698450088501,-1.0302379131317139,0.10579092800617218,-0.09566301107406616,-0.4646407961845398
130,2.7598078673239828,-0.7513098858562253,1.4978364100384995,0.27227771282196045,0.6825966238975525,0.6781787276268005,0.3482789397239685,-0.9111854434013367,0.3985130190849304,-0.03601065278053284,-0.3465067148208618,-0.4273701310157776
131,2.636290685786262,-0.8291814776909928,1.3559904719598788,0.3269805908203125,0.737378716468811,0.5910638570785522,1.9596608877182007,-2.6449804306030273,0.9708505868911743,-0.15643304586410522,-0.28136974573135376,-0.17768794298171997
132,1.846296546219094,-0.6867889241406656,1.432636677344113,0.7441248297691345,0.6340574026107788,0.2103556990623474,0.8984354734420776,-1.2243582010269165,1.947668433189392,-0.03758186101913452,0.13086575269699097,0.7537708282470703
133,1.7304314522292448,-0.4712428250530893,1.21974738983146,0.8796759843826294,0.4539940059185028,0.1416323184967041,0.6505609750747681,0.4681968688964844,0.11527608335018158,0.4270257353782654,0.7784431576728821,-0.1533815860748291
134,1.5842286669255325,-0.4998555552887133,1.166723960017662,0.8775725960731506,0.47929877042770386,0.011788562871515751,0.1277257800102234,-0.5501479506492615,0.24250923097133636,0.010107457637786865,-0.26920050382614136,-0.37716031074523926
135,1.4538266293114719,-0.44645036072839944,1.1906540909293177,0.8958221077919006,0.431766539812088,-0.10526455193758011,0.5385589599609375,-1.755993366241455,0.6448610424995422,-0.6267638206481934,-0.10866168141365051,0.05991542339324951
136,1.3214487116371962,-0.4863450353623572,1.0535118722588779,0.8567067384719849,0.46739786863327026,-0.21815790235996246,1.0296274423599243,1.1670924425125122,-0.8820350170135498,0.39503276348114014,0.05990016460418701,0.5420867204666138
137,1.5479598426430945,-0.44545870268481114,0.9161464134271777,0.9021779298782349,0.4308718740940094,-0.020606152713298798,1.744745135307312,4.71469783782959,0.709373950958252,0.6892832517623901,-0.1795443296432495,0.7464820146560669
138,1.8333090385826438,-0.4854018081693311,0.9712837851400508,0.8541858792304993,0.46656379103660583,0.22953160107135773,-3.3492913246154785,0.08565433323383331,-2.2139852046966553,0.25570791959762573,0.15370595455169678,0.11124300956726074
139,1.8358544258613398,-0.4709067774452659,1.3560877547799557,0.86003577709198,0.45369455218315125,0.23345234990119934,-2.3667073249816895,-0.574580729007721,0.7045275568962097,-0.37733912467956543,0.18709835410118103,-0.27573439478874207
140,1.8625487512771979,-0.4256681195660832,1.3703876672572437,0.8722752332687378,0.41292938590049744,0.2619636654853821,1.1645824909210205,0.10621640086174011,0.13415077328681946,-0.4311438202857971,-0.20009982585906982,-0.4955452084541321
141,1.8616877827025482,-0.4564868564780271,1.337699768877029,0.8598970174789429,0.4407974183559418,0.2574393153190613,1.3974180221557617,-0.5906648635864258,-0.25783294439315796,-0.10347294807434082,-0.08865499496459961,-0.42783424258232117
142,1.5439509701488745,-0.42370802596414703,1.4003763058897019,0.9112423062324524,0.41114339232444763,-0.024468502029776573,1.469482660293579,-0.25316324830055237,-0.12881319224834442,-0.1268184781074524,0.24678504467010498,-0.22811025381088257
143,1.4857491664670954,-0.42409374845332776,1.166673474759753,0.9081178903579712,0.4114949703216553,-0.07741960138082504,1.0591049194335938,-0.15411639213562012,-0.6028875708580017,0.1679776906967163,0.4205057621002197,-0.2518192529678345
144,1.512240584109214,-0.4511744258660488,1.057776530722586,0.8983932733535767,0.43602272868156433,-0.05266629159450531,0.6323724985122681,0.25990721583366394,0.11773820966482162,-0.28627169132232666,-0.20602697134017944,-0.3837045431137085
145,1.5646577659899037,-0.40200612716926903,0.9891940041174635,0.9202606678009033,0.391265332698822,-0.005649147089570761,1.178787112236023,1.919853925704956,0.851753294467926,-0.38437187671661377,0.12191835045814514,0.06082499027252197
146,1.6778906937185145,-0.42584742826946875,0.8689134977518218,0.9054716229438782,0.4130926728248596,0.09734334796667099,1.2315460443496704,1.2304078340530396,-0.8291172385215759,-0.019943058490753174,-0.2681189179420471,0.3547288179397583
147,1.6484661008577075,-0.34975844037172216,0.7761500681275356,0.936623215675354,0.34267088770866394,0.07289395481348038,1.1111774444580078,0.48334187269210815,0.6077151298522949,0.02439051866531372,0.2591814696788788,0.6422703266143799
148,1.757845110945192,-0.3781595839360301,0.7964042957282942,0.9131353497505188,0.36921072006225586,0.17282108962535858,-1.850053071975708,1.5774677991867065,-1.0234882831573486,0.42017751932144165,0.06865546107292175,-0.3748779296875
149,1.847217799002442,-0.3834612539668643,1.0757094809738943,0.8921704292297363,0.37413257360458374,0.253094345331192,-1.336449384689331,0.08005547523498535,0.510407567024231,-0.08575868606567383,0.05044323205947876,-0.5386015176773071
150,1.995962882471573,-0.3592142149572119,1.0782169178837249,0.8528258204460144,0.3515387177467346,0.3861457407474518,0.0471905916929245,1.684625506401062,0.008054704405367374,-0.15049433708190918,-0.309607595205307,-0.35718467831611633
151,1.9226251162425083,-0.3798326244531915,1.0440892693749644,0.8718366026878357,0.3707650303840637,0.3200532793998718,1.0385969877243042,-0.07153990119695663,0.047008611261844635,-0.31440263986587524,0.12155979871749878,-0.26008620858192444
152,1.7457675370827854,-0.41507717864075755,0.9180751856056999,0.9011131525039673,0.40326055884361267,0.15929782390594482,-2.745950698852539,-2.295142650604248,-0.12995366752147675,0.19912171363830566,-0.49813976883888245,1.5573617219924927
153,1.7711832623828405,-0.431570255948039,0.8208599904596471,0.8901345729827881,0.41829758882522583,0.18079781532287598,1.137233853340149,1.0882316827774048,0.04531298205256462,0.21551740169525146,0.36931541562080383,-0.666118860244751
154,1.718491864479507,-0.43055049367833065,0.560274844890174,0.8988426327705383,0.41737112402915955,0.13372884690761566,2.7450342178344727,0.2382553070783615,1.8116295337677002,0.29773634672164917,-0.24346670508384705,0.044005513191223145
155,1.673895227430343,-0.20941314467710856,0.3781446663160767,0.972959041595459,0.20788590610027313,0.10066793859004974,1.9001359939575195,-0.10258547961711884,1.8136066198349,-0.5600867867469788,-0.004409953951835632,-0.45442771911621094
156,1.5206845526825659,-0.09920197346624227,0.3136904323981441,0.9938344359397888,0.09903934597969055,-0.04984453693032265,0.14621864259243011,-0.9104729294776917,0.4920743405818939,-0.34423720836639404,0.32401058077812195,0.34658217430114746
157,1.4431063563482045,-0.10009218140874908,0.37346493141948883,0.9868943691253662,0.09992513805627823,-0.12670589983463287,-1.7933377027511597,0.06140817701816559,-1.0685365200042725,-0.185777485370636,-0.10755453258752823,0.517407238483429
158,1.5560951378313526,-0.0800249404765776,0.4366731306510066,0.996691882610321,0.07993955165147781,-0.014653610996901989,1.4726099967956543,0.7033994197845459,1.633496880531311,0.9207121729850769,0.1607220470905304,-0.09301239252090454
159,1.7429737108224754,-0.13597589895465906,0.35914355613585053,0.976120114326477,0.13555726408958435,0.1697465032339096,0.03198007121682167,2.996300458908081,-1.0479553937911987,0.006606936454772949,-0.07742127776145935,0.0081404447555542
160,1.977578050290855,-0.05538945750826266,0.48830267621694495,0.9169906973838806,0.05536114051938057,0.3950490653514862,-2.388498544692993,1.2285352945327759,0.3205324113368988,-0.1876509189605713,0.3610207140445709,-0.4594867527484894
161,1.8885361930515043,0.09295759730590773,0.6265676892153869,0.9458425045013428,-0.09282378107309341,0.3110714554786682,-0.9673793911933899,-0.12868541479110718,1.0613528490066528,-0.5417135953903198,0.2261245846748352,-0.060720592737197876
162,1.8222860542432495,0.01379353026653608,0.6314412283192167,0.968450665473938,-0.013793093152344227,0.24882343411445618,0.8490189909934998,-0.26011207699775696,0.3836403489112854,-0.1918545961380005,-0.36212244629859924,0.48408663272857666
163,1.8556672668812906,0.09461862992455794,0.633953702413992,0.9554052352905273,-0.09447751194238663,0.27977654337882996,-1.7678269147872925,-1.2208335399627686,1.3656871318817139,0.056618690490722656,0.15099608898162842,0.22707459330558777
164,1.8043053338971293,0.2063681972520001,0.5982065231544518,0.9522179365158081,-0.20490652322769165,0.22648294270038605,0.11874254047870636,1.300231695175171,0.15855152904987335,0.3719702959060669,-0.03189462423324585,-0.3424801826477051
165,1.9732315784475174,0.18803046677119836,0.589264141791758,0.9038922190666199,-0.18692444264888763,0.384756863117218,0.043787360191345215,0.8526228070259094,-0.6455860733985901,-0.008399784564971924,-0.06690549850463867,-0.7350987792015076
166,1.7157824742062306,0.33342330790297875,0.7665627037867532,0.9350132346153259,-0.3272797167301178,0.13652192056179047,-3.082171678543091,-2.024988889694214,1.9642595052719116,-0.15777629613876343,-0.02484738826751709,0.32728421688079834
167,1.4385654779256067,0.5591063711411618,1.0554725074702331,0.8403290510177612,-0.5304288268089294,-0.11176961660385132,-2.5447425842285156,-0.11351822316646576,2.924776554107666,-0.35339057445526123,0.2713041305541992,0.6361684203147888
168,1.4449307790316424,0.8197658235385195,1.1805466578623587,0.6769943833351135,-0.7309860587120056,-0.08566311001777649,0.9198877811431885,0.9205946922302246,1.6754921674728394,-0.02172088623046875,-0.20828402042388916,0.2776492238044739
169,1.98147942048119,1.1605950520687744,0.7364193561385405,0.36563363671302795,-0.9170405864715576,0.15921282768249512,2.713510274887085,1.8247487545013428,3.8076322078704834,0.19141897559165955,-0.13314563035964966,-0.2675044536590576
170,2.477026549149107,1.1532954275413156,0.20149221179017798,0.250064879655838,-0.9141051173210144,0.3191852867603302,0.9400922656059265,-0.9991818070411682,-0.6959909200668335,0.3869132399559021,0.38888245820999146,-0.3372822105884552
171,2.2608355340585176,1.174837663911766,0.2823204993476788,0.2974543869495392,-0.9226272106170654,0.24551944434642792,-1.5751463174819946,-0.4910726249217987,0.7004528045654297,-0.07307389378547668,0.3574722409248352,-0.1666468381881714
172,2.4707890112184847,1.336886484588473,-0.033460981511249155,0.14407946169376373,-0.9727675914764404,0.1815601885318756,-0.05474039912223816,-0.6695680022239685,3.977644681930542,0.07781381905078888,0.598347544670105,0.007251963019371033
173,-2.986808789464819,1.4817442023977845,-0.599927251134979,-0.013710620813071728,-0.996037483215332,0.08787060528993607,-0.9525184035301208,3.2637462615966797,-1.6869051456451416,0.3145681619644165,-0.2354077696800232,-1.533534049987793
174,2.715836968284166,1.459380117293658,-0.05950519013771541,0.04592091217637062,-0.99379962682724,0.10126025974750519,1.57961106300354,-0.8923826217651367,0.6294053196907043,0.23088878393173218,-0.322515070438385,-0.49743950366973877
175,2.4799906172445794,1.3891247073359811,0.13397244841372025,0.11100289970636368,-0.9835430383682251,0.14255355298519135,0.7305760979652405,-0.8049020767211914,-1.101962924003601,0.14348317682743073,-0.0949481725692749,-0.646963357925415
176,2.083300959920159,1.3286697410431565,0.4506013599073539,0.20896245539188385,-0.9708302617073059,0.11757306754589081,-1.1297650337219238,-1.0487574338912964,-0.3013301491737366,0.04016779363155365,0.5759022831916809,-0.2879831790924072
177,1.2534310720341115,1.3478822593009787,1.152031648511935,0.2100319117307663,-0.975257396697998,-0.06898873299360275,-2.0885467529296875,0.6446980237960815,-1.0663671493530273,0.019002467393875122,0.4514538049697876,0.7162818312644958
178,1.0775707509348742,1.2208152042373597,1.3447324204289868,0.3020123541355133,-0.9393792152404785,-0.16234329342842102,-0.48108768463134766,-2.7917795181274414,1.1212300062179565,-0.5866345763206482,-0.9063239097595215,0.04707838594913483
179,1.0541272464089317,1.3756862182269183,1.2631526508842696,0.16856801509857178,-0.9810263514518738,-0.09577146917581558,2.699265241622925,1.7976869344711304,0.49561426043510437,0.05466806888580322,-0.624381422996521,-0.18247252702713013
180,1.8100890172144266,1.310380690964264,0.5929876350396738,0.2501458525657654,-0.9662830233573914,0.06102737411856651,1.098713994026184,2.1036088466644287,-3.8583598136901855,0.0826636254787445,0.1226854920387268,-0.1931380033493042
181,2.3079026495802935,1.1133790404011097,0.3507520434107947,0.3269919753074646,-0.8971961140632629,0.29684239625930786,1.2707757949829102,1.225764513015747,1.6771851778030396,0.2756386399269104,0.8430731892585754,-0.5366648435592651
182,2.2475156709783928,1.0681404353653012,0.18041720058307947,0.3755909204483032,-0.8763061761856079,0.30169329047203064,-0.2554880678653717,-2.713888168334961,-0.13892991840839386,-0.09484449028968811,0.7108399271965027,-0.2576717436313629
183,1.8676518758263705,1.1432754436194879,0.24069938212239958,0.3964814245700836,-0.9099964499473572,0.12128138542175293,2.4638805389404297,-3.708075761795044,1.3664177656173706,-0.14840394258499146,-2.7003400325775146,5.419078350067139
184,1.845687643463753,1.1555415439143684,0.3424211682139744,0.388276606798172,-0.9150135517120361,0.10950615257024765,1.4955335855484009,-2.0363118648529053,-0.07258714735507965,0.5941300988197327,-0.03469353914260864,-0.7511993646621704
185,1.3870604293916249,1.1984854704982646,0.5939588253110466,0.3576459288597107,-0.9314892292022705,-0.0664619728922844,-1.9665403366088867,-0.5494862198829651,1.2265375852584839,-0.16207405924797058,-0.10087466239929199,-0.17635118961334229
186,0.9920781041177917,1.222138421018226,1.2238293026446423,0.28600648045539856,-0.9398320913314819,-0.1868589073419571,-2.2438583374023438,2.048269748687744,0.7615594267845154,-0.023311138153076172,0.3826419711112976,0.09448222815990448
187,0.702533636648083,1.1430946641401671,1.6014048426150629,0.26801201701164246,-0.9099214673042297,-0.31656381487846375,0.062285419553518295,-1.5493923425674438,-0.36199432611465454,-0.0021886229515075684,0.4798981547355652,0.27444955706596375
188,0.8042245307877546,1.266420747103788,1.3530251760279428,0.21587014198303223,-0.9540342688560486,-0.2078913152217865,1.1742911338806152,-1.8868255615234375,1.5343390703201294,-0.26350805163383484,-0.8373780846595764,0.6540430188179016
189,0.4497980757078829,1.3006294230451598,1.6902594196894423,0.11604054272174835,-0.9637263417243958,-0.24034607410430908,1.0237184762954712,-1.516096830368042,-1.8055535554885864,0.011873915791511536,-0.21562552452087402,-0.040308862924575806
190,1.5427901350123077,1.173122786928543,0.7356156283696733,0.38712263107299805,-0.9219644665718079,-0.010844666510820389,1.8574336767196655,1.2583527565002441,-0.7683667540550232,0.790764331817627,-0.43771564960479736,-0.5664868950843811
191,1.938269768906062,1.1569947959996338,0.3849634664189275,0.3752482831478119,-0.9155988693237305,0.14445532858371735,1.507633924484253,1.7381596565246582,0.12955772876739502,-0.2216227948665619,0.5700026154518127,-0.08790625631809235
192,2.0356635448997378,1.109608935106201,0.33580468360308463,0.39778780937194824,-0.8955247402191162,0.1995006948709488,-0.6600848436355591,-0.8225178718566895,-0.7368360161781311,-0.25571316480636597,0.48785555362701416,-0.3409648835659027
193,1.8929941683038722,1.1469394100062982,0.4639451950466153,0.39011552929878235,-0.9115094542503357,0.13023242354393005,1.4928710460662842,-0.23727695643901825,1.3545621633529663,-0.5167481899261475,-1.7796831130981445,3.088548183441162
194,1.9107392121943891,1.1620214396492705,0.33716586636702656,0.37473902106285095,-0.9176084995269775,0.1325349360704422,0.41481366753578186,-3.0715548992156982,1.139988660812378,0.5577714443206787,-1.1196993589401245,-0.9472017288208008
195,1.5569426151288026,1.2089431503560886,0.6739456149481897,0.3539738655090332,-0.9352424144744873,-0.004904165398329496,-2.601235866546631,1.214156985282898,0.42022275924682617,0.1668390929698944,-0.3771812319755554,-0.2396026849746704
196,1.0342687715720782,1.1876623295937696,1.3788845490880894,0.3213018774986267,-0.9274976253509521,-0.19108442962169647,-2.3511412143707275,0.1834060549736023,0.44028690457344055,-0.11466735601425171,0.41530585289001465,0.045988619327545166
197,0.7059516392891874,1.0636406814174602,1.6439117767908766,0.3150973320007324,-0.8741295337677002,-0.36960968375205994,-0.6015638113021851,-1.8965673446655273,-1.614653468132019,0.024105548858642578,0.7520134449005127,0.5463979840278625
198,0.8713992741324683,1.0831199997944099,1.341856062784706,0.3585672676563263,-0.8834240436553955,-0.3016476333141327,2.5492022037506104,2.425844192504883,2.034721851348877,-0.1963968575000763,-0.9473711252212524,1.29252290725708
199,1.4697708765006896,1.3744930042016035,0.6876924899599511,0.19405077397823334,-0.9807943105697632,-0.019671034067869186,1.1967825889587402,-1.9928786754608154,-0.4474644958972931,-0.02470874786376953,-0.7566477060317993,-0.1311315894126892
200,1.742134227638191,1.1777938477611967,0.5996308690222699,0.3773561716079712,-0.9237633943557739,0.06529562175273895,-0.4794203042984009,2.2762601375579834,-0.9416648149490356,0.3442777097225189,-0.10780704021453857,-0.4965853691101074
201,2.0625542921430036,1.1776631787376426,0.3833973373166559,0.33769047260284424,-0.9237133264541626,0.18088336288928986,0.14790789783000946,0.8191415071487427,-0.22196964919567108,-0.18871894478797913,0.8366772532463074,-0.4614619016647339
202,1.793748387532157,1.1830182298086929,0.557191936725077,0.3687731623649597,-0.9257515072822571,0.08360867947340012,-1.366883635520935,-1.4594414234161377,0.0719815045595169,-0.2342517077922821,0.38232505321502686,-0.14064598083496094
203,1.8356487193857725,1.218041952418157,0.3578128319520814,0.33343711495399475,-0.9384247064590454,0.0904361754655838,-4.631326198577881,2.115363597869873,-0.05545426160097122,-0.23051661252975464,0.7062165141105652,-0.12202192097902298
204,1.7595929375682275,1.1204568646693278,0.4477418886410542,0.42753660678863525,-0.9002993702888489,0.08169037103652954,-1.593753457069397,-0.15047892928123474,-0.6714197993278503,0.7039483785629272,-0.6154170632362366,-0.37917566299438477
205,1.350661609279926,1.175942531030239,0.887893635094729,0.37539032101631165,-0.9230527877807617,-0.08399766683578491,-1.6598997116088867,-0.6859623789787292,0.7778064608573914,0.010840088129043579,-0.138424813747406,-0.3619709610939026
206,0.8247209152199515,1.1584805773521323,1.3793067721258878,0.29428085684776306,-0.916195273399353,-0.27200159430503845,-1.8086771965026855,0.3373878002166748,0.016027702018618584,-0.06668078899383545,0.5498318672180176,0.3956283628940582
207,0.8512594486180519,1.028770110034938,1.4488490301444783,0.38799384236335754,-0.8566651940345764,-0.3399791419506073,0.4532531797885895,-3.045381784439087,-0.8636491894721985,0.04497435688972473,0.29398196935653687,0.4423808753490448
208,1.1155732204603324,1.2939293698865357,1.1409881637118884,0.24550656974315643,-0.9619165658950806,-0.12017873674631119,3.341548442840576,0.5384036898612976,3.174790382385254,-0.1948627084493637,-1.3001377582550049,0.314423143863678
209,1.587683646715549,1.124244209156909,0.7105663590142852,0.43179649114608765,-0.9019414782524109,0.007292578928172588,-0.8948589563369751,3.258721113204956,-3.5507214069366455,0.4470028579235077,-0.37810295820236206,-0.18615615367889404
210,1.844649835991781,1.157469756414825,0.6806330448292954,0.38669049739837646,-0.9157897233963013,0.10862571001052856,1.4729083776474,0.3911559283733368,0.17918936908245087,-0.25634995102882385,0.933703601360321,-0.7191451787948608
211,1.931398283073392,1.1462621206029333,0.4993619217364382,0.38540515303611755,-0.9112306833267212,0.14533253014087677,-0.205546572804451,-0.7479636073112488,0.5631321668624878,-0.35305655002593994,0.5534883737564087,-0.1410142183303833
212,1.8356838710097436,1.2309177078193954,0.5470291487527797,0.3217458128929138,-0.9427951574325562,0.087277352809906,-3.266037702560425,0.22798952460289001,-0.481414258480072,-0.36515697836875916,0.01077282428741455,-0.07838139683008194
213,1.9340660544777453,1.1820084247411753,0.34698916011284714,0.3543292284011841,-0.9253692030906677,0.1346948742866516,-0.9273669719696045,0.8007360100746155,-0.07788879424333572,-0.1583453118801117,-0.1141510009765625,-0.6783654689788818
214,1.417908666535884,1.148758214801479,0.9268067661138835,0.4048425257205963,-0.9122560024261475,-0.06238223984837532,-1.2963337898254395,-1.014467716217041,-0.006070172879844904,0.3943517506122589,0.006158590316772461,-0.25426816940307617
215,0.9255619201619751,1.1613731572752735,1.2744261888757829,0.318049818277359,-0.9173505902290344,-0.23939983546733856,-1.5293043851852417,-1.5056204795837402,-0.2288096845149994,-0.06838548183441162,0.7851484417915344,0.47186750173568726
216,0.8578492173843589,1.046356201095048,1.3600770937653415,0.37876972556114197,-0.8656044006347656,-0.327509343624115,-0.007705421186983585,-1.6952857971191406,-0.8927068114280701,-0.06335535645484924,0.3660317063331604,0.6547036170959473
217,0.9200225367731548,1.2392597699803563,1.3957812747428238,0.25896966457366943,-0.9455432891845703,-0.19718627631664276,-0.3042190968990326,-1.8407186269760132,1.7033393383026123,-0.17918148636817932,-0.43911540508270264,-0.38475343585014343
218,0.8033157880943347,1.2558924438707826,1.53823736013216,0.2228974550962448,-0.9508261680603027,-0.2150496542453766,2.6507203578948975,3.442812919616699,-2.5507800579071045,0.2202025055885315,-0.40360498428344727,-0.6856003999710083
219,1.6232235686391614,1.1172996752225552,0.775956644196711,0.43750932812690735,-0.8989206552505493,0.02295844629406929,1.6803182363510132,0.9838104248046875,0.46872687339782715,0.5099698305130005,0.08733630180358887,-0.1800476312637329
220,2.119172466447107,1.1023912781024305,0.4184885926144769,0.3852667510509491,-0.8922894597053528,0.2353491187095642,0.4487479031085968,-0.5583484172821045,-0.13123735785484314,-0.2966131567955017,0.7694867253303528,-0.5229619741439819
221,1.8241841859907528,1.1232448149739571,0.5772731936191968,0.4189411699771881,-0.9015094041824341,0.10848641395568848,-1.8499799966812134,-1.9688720703125,0.8593950271606445,-0.22950327396392822,0.15890979766845703,-0.13256476819515228
222,1.5874536644589472,1.2409571185348782,0.8421412985275947,0.32384616136550903,-0.9460944533348083,0.005394913721829653,1.7970819473266602,-1.886357307434082,-0.603629469871521,0.33779019117355347,0.2500647306442261,-1.4015893936157227
223,1.7638029311228645,1.1686276439888428,0.5843182365982144,0.3841474652290344,-0.9202142953872681,0.07507757097482681,-1.0487333536148071,-1.08749258518219,0.4282306134700775,0.23931145668029785,-0.10751104354858398,-0.6317028999328613
224,1.3393980798394693,1.2135341466327239,0.921437278677986,0.3403894603252411,-0.9368577599525452,-0.0802021399140358,-1.8123639822006226,-0.8432395458221436,0.7635385990142822,0.030002355575561523,0.05955380201339722,-0.05274771898984909
225,0.9298995654688257,1.1454463906084393,1.3415570017215868,0.33075520396232605,-0.9108943939208984,-0.24672308564186096,-0.5666237473487854,0.13902324438095093,-0.18904496729373932,-0.10214805603027344,0.4148464798927307,0.4397467374801636
226,0.7965566795194373,1.09276422182592,1.39746121406207,0.3289016783237457,-0.8879019618034363,-0.32164227962493896,-0.08290725946426392,0.445309042930603,0.6487893462181091,-0.20957794785499573,-0.17539143562316895,1.2792381048202515
227,1.1978870395326335,1.3540827519450105,1.0105678547204986,0.2002435028553009,-0.9766093492507935,-0.07833804190158844,2.373371124267578,-1.4507648944854736,1.0781848430633545,0.0405859649181366,-1.0147541761398315,-0.07429558038711548
228,1.719311329362879,1.1018529734146134,0.6330500024856837,0.44696927070617676,-0.892046332359314,0.06687404215335846,-0.1898988038301468,2.405801773071289,-1.1756479740142822,0.774374783039093,-0.14524626731872559,-0.19774866104125977
229,2.0449229505383153,1.1164537681700102,0.45443056335550425,0.3904603123664856,-0.8985497355461121,0.20037183165550232,-0.5774361491203308,1.2285716533660889,-0.1490846872329712,-0.1569550633430481,0.8065851330757141,-0.8189784288406372
230,1.7728608496558371,1.1063160202695432,0.630780644437889,0.4388441741466522,-0.8940544724464417,0.08990174531936646,-1.5506007671356201,-1.0287030935287476,0.34413957595825195,-0.2810377776622772,0.09399044513702393,-0.13641047477722168
231,1.657797937882671,1.2467823979771995,0.8814612883553162,0.31717023253440857,-0.947965145111084,0.027664154767990112,7.080968379974365,6.855771064758301,-1.0414204597473145,0.544554591178894,0.7682929039001465,1.7910919189453125
232,1.669756058694019,1.170257997366735,0.9292676184952077,0.3880065977573395,-0.9208512306213379,0.038522861897945404,-1.6491739749908447,-1.8692630529403687,-0.43275216221809387,0.5407348871231079,-0.4844679832458496,-0.5271855592727661
233,1.19955121311374,1.1844154739704582,1.2673109970813492,0.3511667847633362,-0.9262789487838745,-0.13670791685581207,-1.355310082435608,-2.0004539489746094,0.8889422416687012,0.09315386414527893,-0.005697309970855713,-0.19837509095668793
234,0.8359946090743856,1.061983968972,1.6108579113812367,0.3614404499530792,-0.8733236789703369,-0.3265984058380127,-1.7048858404159546,1.7682381868362427,-0.8078605532646179,0.1464788317680359,0.4386466145515442,0.8459160327911377
235,0.8466754458705006,1.099779783732881,1.590003145519334,0.33992788195610046,-0.891107439994812,-0.300627201795578,1.4557679891586304,3.194122552871704,1.809146523475647,-0.28777337074279785,-0.4512540102005005,1.8028244972229004
236,1.293076553945351,1.2567098642919685,1.2501730775778928,0.29710984230041504,-0.9510790109634399,-0.08470220118761063,0.41002529859542847,-1.6623280048370361,-1.1984729766845703,0.41510939598083496,-1.199952483177185,-0.1577599048614502
237,1.4570250546766765,1.1665749125227078,1.3015498338692646,0.39076054096221924,-0.919408917427063,-0.044650137424468994,0.3801164925098419,1.9724373817443848,1.666574239730835,0.6767290830612183,0.5219479203224182,-0.618771493434906
238,1.8024419876138116,1.153731991007705,0.9572186664812253,0.3942587077617645,-0.9142820239067078,0.0929977148771286,1.4953279495239258,-0.8149175643920898,-0.4103847146034241,-0.14776822924613953,0.7256070971488953,-0.317607045173645
239,1.7820415759263615,1.1459112178751991,0.8758199380860143,0.40305274724960327,-0.9110860824584961,0.08643249422311783,-1.0934611558914185,-0.19485190510749817,1.369516134262085,-0.36385297775268555,0.23289400339126587,-0.004660613834857941
240,1.6740872701886023,1.3157103755845245,1.1705693861911102,0.2509843707084656,-0.9676415920257568,0.026017002761363983,1.2171046733856201,0.36883261799812317,-0.5634666085243225,0.3410108983516693,0.22398912906646729,-0.9613502025604248
241,1.9073219968852684,1.2650200008666312,0.8732402600906112,0.2841479778289795,-0.9536135196685791,0.0994042232632637,-1.1363815069198608,-0.61070317029953,-2.2055890560150146,0.243882417678833,-0.5234220027923584,-0.6509331464767456
242,1.3195052715209152,1.1251510520434174,1.4090927617265652,0.4175022542476654,-0.9023327231407166,-0.10718017816543579,-0.9973604679107666,-0.025278910994529724,0.3966362476348877,0.3246394395828247,-0.11082035303115845,0.005617685616016388
243,1.093995821400518,1.141262705572549,1.640541248023457,0.36999982595443726,-0.9091600775718689,-0.19112375378608704,-0.9700711965560913,-0.4637274742126465,-0.7062948942184448,-0.14220133423805237,0.8192093968391418,0.25888803601264954
244,0.9702198319068219,1.0058046906774585,1.772095162118206,0.44171759486198425,-0.8445931077003479,-0.3025692403316498,-0.8477768301963806,0.2945539653301239,-0.8337056636810303,-0.09575507044792175,0.2871895432472229,0.6602352857589722
245,0.9994201294688514,1.2939873809934899,1.648023814279335,0.22987784445285797,-0.9619324207305908,-0.14779119193553925,3.3470165729522705,0.2720879316329956,3.1688380241394043,-0.20093192160129547,-0.8040282726287842,0.40772461891174316
246,1.6798029630131759,1.2829867963900479,0.8775141503907058,0.2821680009365082,-0.9588679671287537,0.03088059276342392,0.7827268838882446,1.5387986898422241,-3.078434944152832,0.12367001175880432,-0.6010838747024536,0.17132890224456787
247,1.9569443485189904,1.104519616058418,0.9476327366796031,0.41646116971969604,-0.8932483196258545,0.1693161129951477,-0.43943655490875244,2.5945522785186768,1.7113221883773804,0.4828156530857086,0.3250565528869629,-0.28830403089523315
248,1.9069495796700398,1.1363996067581634,0.8306761693771408,0.39730775356292725,-0.9071241021156311,0.13882514834403992,1.023851990699768,-3.6552393436431885,-0.46761617064476013,-0.26536503434181213,0.9843488335609436,-0.3652961254119873
249,1.7641968960985708,1.1375469120664077,0.85380662017595,0.4119952619075775,-0.9076063632965088,0.08068865537643433,0.0416872538626194,-1.270677089691162,0.5679119229316711,-0.09397158026695251,0.1554243564605713,-0.0758516788482666
250,1.9198582792423797,0.9855371095076896,0.43591616992971877,0.5191012620925903,-0.8335689306259155,0.18893513083457947,-1.7968565225601196,4.134706974029541,-0.2731865346431732,0.6772487163543701,0.3342251777648926,-0.44395533204078674
251,1.6806624284175526,1.0889194138520124,0.8730993947024718,0.46064889430999756,-0.8861266374588013,0.05081431567668915,-4.169909954071045,2.919278144836426,1.1944966316223145,0.09657153487205505,-0.36101990938186646,-0.3170497417449951
252,1.2676292910583131,1.1374120906664227,1.4863579169931174,0.4007934629917145,-0.9075497388839722,-0.12537209689617157,-1.2107609510421753,-0.7027763724327087,0.8373084664344788,-0.0970366895198822,0.05555993318557739,-0.25861531496047974
253,0.9197388632175223,1.1473519200536442,1.8152016942071543,0.3268502354621887,-0.9116790294647217,-0.2490188181400299,-1.16194748878479,0.6731778979301453,-0.4711775779724121,-0.10280543565750122,0.8140380382537842,0.38129723072052
254,0.9473471574254069,1.0225192056144596,1.8241965117683066,0.4231608211994171,-0.8534237742424011,-0.3043071925640106,-0.437648206949234,-1.3017804622650146,-0.6847498416900635,0.021846532821655273,0.19558686017990112,0.33796805143356323
255,0.7937442882066654,1.2499482795156331,1.843435645346745,0.22485469281673431,-0.9489682912826538,-0.2211323380470276,2.609360456466675,0.05003754794597626,1.7793583869934082,-0.3572857081890106,-0.6878420114517212,0.5197773575782776
256,1.4568806655724948,1.2966024481845888,1.1543260948198986,0.2690161168575287,-0.9626438021659851,-0.030778400599956512,0.004431764129549265,0.8231747150421143,-3.231900453567505,0.07630550861358643,-0.4129360318183899,-0.04656839370727539
257,1.6938202816243986,1.1207961931799149,1.1523860936514754,0.43167781829833984,-0.9004470705986023,0.05337626487016678,0.8202594518661499,0.8491237759590149,1.8381332159042358,0.352532297372818,0.5026353597640991,-0.554291844367981
258,1.9516908809647093,1.1245589395500626,0.7891200272257873,0.4006447494029999,-0.902077317237854,0.16043834388256073,0.9106574654579163,-0.8410632610321045,-0.19767872989177704,-0.29439777135849,0.8149648308753967,-0.35622382164001465
259,1.8473364551709723,1.1237680842236593,0.7909185749577845,0.4158634543418884,-0.9017357230186462,0.11802706867456436,1.2724016904830933,-4.672623157501221,0.05756484344601631,-0.17912334203720093,0.13933032751083374,-0.1395266056060791
260,1.8044704505179292,1.0521418084272545,0.6950606382627401,0.4822395443916321,-0.8684869408607483,0.11478374898433685,2.15320086479187,2.0591650009155273,-0.3894358277320862,0.5000449419021606,0.15574902296066284,-0.982367992401123
261,1.685519764639313,1.0853474090498152,0.9203696201382059,0.46353840827941895,-0.8844655752182007,0.053413257002830505,-3.2814781665802,2.269519329071045,0.2924196720123291,0.48381882905960083,-0.5954997539520264,-0.3426283597946167
262,1.3531147933210201,1.145612023723372,1.448270826655375,0.40275442600250244,-0.910962700843811,-0.08908375352621078,-1.0706850290298462,-0.5512531399726868,0.5976888537406921,-0.13912832736968994,0.29810869693756104,-0.31741034984588623
263,1.0713278662839518,1.1692091080956695,1.6909027033017408,0.34312915802001953,-0.920441746711731,-0.18721555173397064,-0.906474232673645,0.2270655483007431,-0.45617491006851196,-0.15500351786613464,0.7902994155883789,0.23024533689022064
264,0.9757370240553079,1.0055386440900074,1.7812389824086912,0.4435664415359497,-0.8444505929946899,-0.300253689289093,-1.3058933019638062,-1.6418657302856445,0.546088695526123,0.04202929139137268,-0.5836195945739746,0.39188268780708313
265,0.48529700520677577,1.2856670747992727,2.151277760605631,0.13120967149734497,-0.9596253037452698,-0.24880370497703552,3.3776421546936035,-1.3745509386062622,1.7279367446899414,-0.42062312364578247,-0.4673613905906677,0.13155514001846313
266,1.3682467886687941,1.2071160155426774,1.169928496043591,0.34844449162483215,-0.9345940351486206,-0.07155855000019073,-0.006875344552099705,3.279200553894043,-4.227213382720947,0.21793127059936523,-0.13562703132629395,0.05372106283903122
267,1.718006172381176,1.1239993897548137,1.1230386878895404,0.4274061322212219,-0.9018356800079346,0.06337685883045197,0.46143728494644165,0.8301811218261719,1.4810975790023804,0.02545952796936035,0.797465443611145,-0.4970163106918335
268,1.9059404758344014,1.101446626873197,0.818877156230024,0.42714154720306396,-0.8918626308441162,0.14876602590084076,0.6453961730003357,-0.6428194642066956,-0.27095216512680054,-0.26483383774757385,0.5730454325675964,-0.33640336990356445
269,1.8824668723694695,1.1086686756830404,0.7131615675261146,0.42437344789505005,-0.8951058983802795,0.13672058284282684,0.6850739121437073,1.1742497682571411,-0.15585695207118988,-0.15404877066612244,-1.5475209951400757,3.420103073120117
270,1.8658298206706851,1.0873401054022718,0.7839992497580638,0.44475728273391724,-0.8853936195373535,0.13516297936439514,-0.9021296501159668,-0.2661094069480896,-0.07381198555231094,0.537695050239563,-0.5232824087142944,-0.5666662454605103
271,1.5922600587712405,1.104969009694234,1.1738947385102825,0.4490586519241333,-0.8934502601623535,0.009639955125749111,-2.271275281906128,0.07240045815706253,0.5569702982902527,0.1910627782344818,-0.1983160376548767,-0.306469202041626
272,1.223234238684167,1.1435863076812358,1.5553395066868871,0.38955870270729065,-0.9101252555847168,-0.14112472534179688,-0.9583358764648438,-0.7360344529151917,0.8443465232849121,-0.16583436727523804,0.3085474967956543,-0.037479400634765625
273,1.0299719154461375,1.0889939153545232,1.7690673317573289,0.3972461223602295,-0.8861611485481262,-0.23856648802757263,-1.227150797843933,0.34024885296821594,-1.3570327758789062,0.06425592303276062,0.771232008934021,0.3321486711502075
274,0.9002288498249756,0.9898366099428542,1.8546377730423667,0.4299886226654053,-0.8359363079071045,-0.3410576283931732,0.4373222887516022,-2.6389050483703613,2.24580717086792,0.0012094676494598389,-1.4813549518585205,0.4292076826095581
275,0.9890134418778831,1.421335690521945,1.6239338857538004,0.12440793216228485,-0.9888515472412109,-0.08182553201913834,3.361992120742798,-0.017726955935359,-0.5965192317962646,-0.28549498319625854,-0.20313453674316406,0.012504875659942627
276,1.6361037701535213,1.0876849653318363,1.0285542306791688,0.4635462164878845,-0.8855538964271545,0.030316129326820374,-0.6308698654174805,2.787353038787842,-4.2147040367126465,0.5052037239074707,-0.2053120732307434,-0.13395380973815918
277,1.7680053232737367,1.1433787779996152,1.0644882289325521,0.4064873158931732,-0.9100392460823059,0.08121859282255173,0.21474187076091766,0.3896014094352722,0.4658227264881134,-0.2727135717868805,0.9910940527915955,-0.7328909635543823
278,1.893920436429417,1.089017549691728,0.8287681995325463,0.43937671184539795,-0.8861721158027649,0.14712977409362793,-0.0991235300898552,-1.1425586938858032,-0.07504646480083466,-0.28372180461883545,0.4358852505683899,-0.35098719596862793
279,2.0200799153262965,1.1017232600999725,0.5517671872428607,0.4071965515613556,-0.891987681388855,0.1963386982679367,-1.0177987813949585,-1.5128259658813477,-0.3272654116153717,-0.2674107849597931,-0.5437422394752502,2.007732391357422
280,1.866372059860376,1.090413563484869,0.81407001311037,0.4420784115791321,-0.8868181109428406,0.13461077213287354,0.40694692730903625,-1.4823070764541626,-0.46179908514022827,0.9319754838943481,-0.9187542796134949,-0.545331597328186
281,1.5515669213863013,1.1428961446690804,1.2147211246862542,0.414884477853775,-0.9098390936851501,-0.007978965528309345,-2.5818591117858887,1.0776959657669067,0.6424534320831299,0.055910199880599976,-0.015316545963287354,-0.21985000371932983
282,1.2476855753236984,1.180181770735674,1.531807234328574,0.3610536754131317,-0.9246752262115479,-0.12089714407920837,-0.2876833379268646,-0.496150404214859,0.4370630383491516,-0.10400411486625671,0.43454766273498535,0.04103267192840576
283,1.1436412070482942,1.1402362139023208,1.6724498832399006,0.37987732887268066,-0.9087321162223816,-0.17291341722011566,-1.2911276817321777,0.7431128621101379,-0.6753053665161133,0.10790035128593445,0.5632426738739014,0.37056052684783936
284,0.8259728666978443,1.1216163325551887,1.952287719524375,0.31924718618392944,-0.9008034467697144,-0.29433751106262207,0.30402272939682007,-2.2573280334472656,3.1142451763153076,0.043149083852767944,-1.1152946949005127,0.4521286189556122
285,1.0486564244012206,1.371672632946819,1.6178794447530678,0.17145290970802307,-0.9802402853965759,-0.09865515679121017,3.7735164165496826,-0.43595218658447266,-1.5775493383407593,-0.16542568802833557,-0.23525959253311157,0.1733163595199585
286,1.773299629213278,1.0583576136701953,1.0110855113749322,0.4802855849266052,-0.8715513944625854,0.09861104935407639,-0.6510294675827026,2.6914186477661133,-2.842940092086792,0.735366940498352,-0.36524975299835205,-0.1542292833328247
287,1.906019816784099,1.1313534479517144,1.0769210022428841,0.40175411105155945,-0.9049888253211975,0.13995976746082306,0.4530041515827179,1.5477468967437744,0.23300451040267944,-0.21301817893981934,0.8908134698867798,-0.5251069068908691
288,1.9165259093141565,1.0743228519262538,0.9826970069185125,0.44814246892929077,-0.8792678117752075,0.16141937673091888,-0.47753849625587463,-0.8512879610061646,0.13814151287078857,-0.37538862228393555,0.31286168098449707,-0.2651791572570801
289,1.984663827386229,1.1161633075289472,0.8358879383232671,0.40205806493759155,-0.8984222412109375,0.17659880220890045,-0.6004233956336975,-1.050925374031067,-0.14214332401752472,-0.3165782690048218,-0.919113278388977,2.0464236736297607
290,1.8846700734650326,1.0877230757665606,0.9589578112885182,0.44180989265441895,-0.8855715990066528,0.14341327548027039,-0.8861913681030273,-2.0402867794036865,-0.40386006236076355,0.44762498140335083,-0.9347410798072815,-0.7469594478607178
291,1.5765702355133426,1.1038319782144985,1.355159756015498,0.4501704275608063,-0.8929389715194702,0.0025992717128247023,-2.0212008953094482,0.5522379279136658,0.573138415813446,0.2263891100883484,-0.13864684104919434,-0.31975317001342773
292,1.2497762997844455,1.1333709010326976,1.6624967780544166,0.40196841955184937,-0.9058452844619751,-0.13366328179836273,-0.41915231943130493,-1.2166475057601929,0.5589475035667419,-0.15999454259872437,0.3662182092666626,-0.050052523612976074
293,1.0905097621820417,1.1482943989881806,1.7668009379449527,0.36365261673927307,-0.9120659232139587,-0.18945397436618805,-0.5858907103538513,-0.30314916372299194,-0.5964609384536743,-0.09280908107757568,0.6796591877937317,0.30542072653770447
294,0.9759421150319759,1.0263703185616568,1.8378949759399346,0.42896291613578796,-0.855424702167511,-0.29024016857147217,-0.32342004776000977,-0.5190344452857971,0.2404610514640808,-0.042625635862350464,-0.481214702129364,0.5380734205245972
295,0.7382469636210495,1.3282795001289647,1.939327268062534,0.16161684691905975,-0.9707366228103638,-0.17762432992458344,1.9433099031448364,-2.527407169342041,2.382901191711426,-0.33861878514289856,-0.6007508039474487,0.40220320224761963
296,1.5062260520514912,1.2467060418271214,1.1235071461512627,0.3177834749221802,-0.9479408264160156,-0.020547930151224136,0.9714843034744263,3.1897096633911133,-3.766101121902466,0.07593908905982971,-0.2800256013870239,0.12272077798843384
297,1.75925187317637,1.0729377985067248,1.1001215814925862,0.46908998489379883,-0.8786072134971619,0.08946424722671509,0.07266653329133987,-0.2114444077014923,1.8997873067855835,0.23795649409294128,0.5483002662658691,-0.5116902589797974
298,1.9383288870582405,1.058034543217313,0.8216644090531967,0.4578229486942291,-0.8713929653167725,0.17627429962158203,1.5195070505142212,0.06715177744626999,-0.34920039772987366,-0.3255750238895416,0.544015645980835,-0.36464405059814453
299,1.7496466220389604,1.0575661839995882,0.8741843866522107,0.4831618666648865,-0.8711630702018738,0.08734697103500366,1.5975580215454102,-4.480928421020508,-0.05154719203710556,0.07384493947029114,0.22997355461120605,0.3315831422805786
300,1.7395825871913646,1.0447919900811204,0.8427268259977533,0.4949469566345215,-0.864820122718811,0.08434271067380905,3.3994836807250977,5.532585144042969,0.0049318186938762665,0.312410831451416,-0.08426129817962646,0.13578057289123535
301,1.7200613806181058,1.0407169360765471,0.9395034668044231,0.4999799132347107,-0.8627669215202332,0.0751887634396553,-1.8192051649093628,0.7169347405433655,-0.004870906472206116,0.3259020149707794,-0.22121745347976685,-0.4609919786453247
302,1.3670020766983844,1.0695867654549458,1.3023723006949874,0.4705432057380676,-0.8770020008087158,-0.09724399447441101,-0.9748433232307434,-0.977837324142456,0.48366403579711914,-0.1695483922958374,0.29684770107269287,-0.2335665076971054
303,1.1406785436378208,1.103790640917708,1.4784589164464659,0.4092077612876892,-0.8929203748703003,-0.187729611992836,-0.808129072189331,-0.17322783172130585,0.09979193657636642,-0.16494500637054443,0.5024631023406982,0.20065376162528992
304,0.9704544364832967,0.9793345998169257,1.6320241039283419,0.46007871627807617,-0.8301265239715576,-0.31498774886131287,-1.1587858200073242,-1.360337734222412,0.35587549209594727,-0.016078531742095947,-0.5836459398269653,0.5615240335464478
305,0.7538243570834089,1.2685793037642854,1.6913277369059088,0.20371270179748535,-0.9546789526939392,-0.21700063347816467,4.363988399505615,0.9365139603614807,1.3761640787124634,-0.21033501625061035,-0.5195488929748535,0.3989006280899048
306,1.5722893009196977,1.093373710654594,0.904033318729238,0.459491103887558,-0.8881821632385254,0.0006860088324174285,-0.5841891765594482,3.0373752117156982,-4.566150665283203,0.334271103143692,-0.1299910545349121,0.011444687843322754
307,1.7604013509818774,1.1399248588252957,0.9767277650234645,0.410178005695343,-0.9086021184921265,0.07871738076210022,-0.4166799783706665,0.6956290602684021,0.806560754776001,-0.15006142854690552,0.9345420002937317,-0.6227999925613403
308,1.8426146849747551,1.0815830990616193,0.7323165973165587,0.4526780843734741,-0.8827028870582581,0.12616896629333496,0.46047019958496094,-1.1028401851654053,-0.4325993061065674,-0.37998515367507935,0.5740021467208862,-0.43255019187927246
309,1.8591025702395114,1.123560949782911,0.6699529414753274,0.41462522745132446,-0.9016461968421936,0.12296503782272339,-1.4105368852615356,0.4296287000179291,0.34750449657440186,-0.3193798065185547,-1.3655657768249512,2.6108453273773193
310,1.9154897100999482,1.1031649322266863,0.6505129970673197,0.424258828163147,-0.8926385045051575,0.15232010185718536,-0.5481091737747192,0.425738126039505,-0.2239355444908142,0.013210713863372803,-0.13488847017288208,-1.0006476640701294
311,1.5696057678808704,1.076046544402222,1.0753285013389255,0.47481128573417664,-0.8800875544548035,-0.0005652910913340747,-2.176729917526245,-0.47250521183013916,0.5527084469795227,0.5047876834869385,-0.11570101976394653,-0.3352196216583252
312,1.2110105016194357,1.1039218943626858,1.3642310161810862,0.4212786853313446,-0.8929794430732727,-0.15846748650074005,-0.921103298664093,-1.7613219022750854,0.2636890709400177,-0.055067747831344604,0.3653305768966675,0.016347184777259827
313,0.963541854579445,1.0072293028505874,1.5129877480838125,0.4386984705924988,-0.8453549742698669,-0.3048252463340759,-1.6111621856689453,-0.0721440538764,-0.4310128092765808,0.13469624519348145,0.5306119918823242,0.6903996467590332
314,0.8888277335272826,1.074975440261388,1.5499731079921715,0.36934366822242737,-0.8795784711837769,-0.29987844824790955,2.086623430252075,2.6102399826049805,2.53930401802063,-0.13078776001930237,-0.6470633745193481,1.2482274770736694
315,0.990830522956139,1.2303437758123172,1.4589595256037138,0.27931270003318787,-0.9426036477088928,-0.18298321962356567,-0.772688627243042,0.4742802083492279,-2.0846822261810303,0.16593876481056213,-0.6555256247520447,0.24887067079544067
316,1.56167728060288,1.1139343536684596,1.2247833890586655,0.44111594557762146,-0.8974412083625793,-0.004022668115794659,1.577936053276062,1.3523610830307007,1.6831310987472534,0.5469975471496582,0.3532668948173523,-0.41255754232406616
317,1.862900059585444,1.140487747793261,0.9155065800596991,0.3994808495044708,-0.908837080001831,0.12012600898742676,1.0265244245529175,-0.571098804473877,-0.13189160823822021,-0.3804683983325958,0.721184492111206,-0.44216275215148926
318,1.746566875803718,1.1205439343437662,0.9143671023477424,0.4284874498844147,-0.900337278842926,0.07610081136226654,-1.238398551940918,-1.1821171045303345,0.14125651121139526,-0.3380943834781647,0.348060667514801,-0.14781713485717773
319,1.6685632133172958,1.1416310305655646,0.954463919888936,0.4141250550746918,-0.9093133807182312,0.0406172089278698,-0.5030732154846191,0.5727924108505249,-0.02277989871799946,0.17074432969093323,0.6068994402885437,-2.017911911010742
320,1.6852852694693883,1.093398234742805,0.9576400721990758,0.45646190643310547,-0.8881934285163879,0.05248938128352165,-2.0108706951141357,2.3194096088409424,-0.0873851552605629,0.5824174880981445,-0.48399895429611206,-0.24574196338653564
321,1.4384176503667947,1.1210838113046608,1.3808178110717841,0.43090346455574036,-0.9005721211433411,-0.05737798660993576,-1.0367348194122314,-0.3243853747844696,0.4173962473869324,0.06845566630363464,0.36381369829177856,-0.27137261629104614
322,1.1723814288180212,1.1920029701053598,1.4934022637026116,0.3408359885215759,-0.9291115403175354,-0.1434667408466339,-0.10001859813928604,-0.6207122206687927,0.17151255905628204,-0.16647380590438843,0.6953621506690979,0.2038305401802063
323,1.0726742485287175,1.0742600888549585,1.6227613856792813,0.4184935688972473,-0.8792378902435303,-0.2276046723127365,-1.970126748085022,-0.008536914363503456,-0.5873565077781677,0.15096443891525269,0.03736472129821777,0.42892909049987793
324,0.519093084989064,1.2018892802274235,2.061009391085415,0.17888933420181274,-0.9327220320701599,-0.3130948543548584,2.7823076248168945,-2.7430238723754883,1.7740927934646606,-0.30411821603775024,-0.5483570694923401,0.7079007625579834
325,1.692858834393528,1.2239276750036396,0.8792793314501756,0.33742523193359375,-0.9404418468475342,0.04139275103807449,0.7134396433830261,2.96989107131958,-4.334788799285889,0.17967987060546875,-0.4486267566680908,-0.021159648895263672
326,1.8333753883439807,1.0816446583849564,1.006484738329017,0.45377177000045776,-0.8827317953109741,0.12196704745292664,-0.6708621978759766,1.085938572883606,1.6380137205123901,0.08379542827606201,0.6388657093048096,-0.298358678817749
327,1.8925550408827339,1.0891158935642056,0.8717770510750064,0.43949463963508606,-0.8862176537513733,0.14650219678878784,1.1576708555221558,-0.8647645711898804,-0.5389481782913208,-0.2873186767101288,0.7321648597717285,-0.5119349956512451
328,1.8594557351432663,1.0855141745810226,0.8328206331079504,0.44715896248817444,-0.8845433592796326,0.132785364985466,2.584789514541626,1.4164866209030151,0.28380638360977173,-0.34419262409210205,-2.0871667861938477,4.831799030303955
329,1.8584771098751498,1.0802460869726387,0.8191750316286697,0.4517505168914795,-0.8820737600326538,0.13366791605949402,-0.2754540741443634,-0.8921074867248535,0.2844069302082062,0.47270315885543823,-0.8532471656799316,-0.9400949478149414
330,1.6242631424291467,1.0744676232297126,1.1469825213096938,0.47551998496055603,-0.8793367743492126,0.025448793545365334,-2.271411657333374,0.6808304190635681,0.6305094957351685,0.37408941984176636,-0.20298439264297485,-0.3344697952270508
331,1.2392452132861054,1.1142370343675116,1.5126097355950479,0.4168524146080017,-0.8975746631622314,-0.14350515604019165,-1.203171968460083,-2.016451120376587,0.8699308633804321,-0.1467566192150116,0.2593148350715637,-0.15517042577266693
332,0.9728948939656681,1.0873634919740376,1.7280786621738509,0.38418346643447876,-0.8854044675827026,-0.2616521716117859,-1.188171148300171,0.45551472902297974,-0.9135109186172485,0.011904150247573853,0.6358470916748047,0.4965765178203583
333,0.8079257430733259,1.0120336353821135,1.8448047243069683,0.3832128643989563,-0.8479117155075073,-0.3663247227668762,1.5246670246124268,-2.1719110012054443,3.099306106567383,-0.2548406720161438,-1.5411568880081177,1.104193925857544
334,1.3942226474770876,1.2995909992168484,1.2219022752170454,0.2637275755405426,-0.963448703289032,-0.04705742374062538,3.573857069015503,0.1833828240633011,-2.0999093055725098,0.03470379114151001,-0.4863956570625305,-0.028473611921072006
335,1.7020038719327615,1.0217851320972917,1.115135985530561,0.5173586010932922,-0.8530409336090088,0.06827358901500702,-1.4226157665252686,2.7342135906219482,1.7703335285186768,1.3037779331207275,-0.3437364101409912,-0.38190269470214844
336,1.8259230850079646,1.0969283220606345,1.037568109492867,0.4415602684020996,-0.8898098468780518,0.1151633933186531,2.6507365703582764,-0.3831455707550049,-0.5280493497848511,-0.3781905770301819,0.8948149085044861,-0.3774162828922272
337,1.891424711103761,1.0927626476156334,0.9161001340323236,0.43658947944641113,-0.8879011869430542,0.14498566091060638,-2.079442024230957,-2.8216185569763184,0.1908291131258011,-0.4868215024471283,0.4051132798194885,-0.28159764409065247
338,1.8225193532295443,1.1316322335049303,0.9565907757538559,0.4117831587791443,-0.9051073789596558,0.10590160638093948,1.8414976596832275,-3.281611919403076,-0.28256046772003174,0.6801204681396484,0.6991596221923828,-0.9941004514694214
339,1.8203924794938802,1.070850372851571,0.9913407985105502,0.46452298760414124,-0.8776084780693054,0.11841238290071487,-2.246185779571533,0.5437097549438477,-2.0018792152404785,0.4283144474029541,-0.24298161268234253,-0.6161540746688843
340,1.410232391193044,1.1046399446683899,1.4195952114679413,0.44367459416389465,-0.8933024406433105,-0.07185670733451843,-1.4368312358856201,-0.7749662399291992,1.011432409286499,-0.07558685541152954,0.1171947717666626,-0.19689631462097168
341,1.0985354412275623,1.0823317418544633,1.6966793231988784,0.41790518164634705,-0.8830544352531433,-0.21347157657146454,-1.261407494544983,-0.3058619797229767,-0.34415385127067566,-0.18385064601898193,0.5076119303703308,0.27662771940231323
342,0.8860091208094377,1.0256629069638636,1.7683110388615553,0.4016311466693878,-0.8550581336021423,-0.3279759883880615,0.8834283947944641,-2.3151979446411133,1.0807323455810547,-0.11732932925224304,-0.5008837580680847,1.1020848751068115
343,1.3061735627504534,1.2345352300929728,1.3785428173295413,0.31847476959228516,-0.94399493932724,-0.08629951626062393,3.3076014518737793,-1.4225449562072754,-0.9713405966758728,0.13083556294441223,-0.5268914103507996,0.030315034091472626
344,1.6492203630377023,1.0181875860453087,1.1998916303057843,0.5232961177825928,-0.851158082485199,0.04112333431839943,-1.0886911153793335,3.2700002193450928,0.7124665379524231,1.0491983890533447,-0.3953781723976135,-0.5078287124633789
345,1.7866756463679228,1.074718226615341,1.064979649619436,0.4649316072463989,-0.8794560432434082,0.10195793956518173,3.065369129180908,1.4708880186080933,-0.035667162388563156,-0.3095971941947937,0.5915533304214478,0.35922372341156006
346,1.9088835031723457,1.0629603970626904,0.9023124413062589,0.4587591588497162,-0.8737989068031311,0.1612933725118637,-1.3510698080062866,-1.5858240127563477,-0.28719356656074524,-0.3908117711544037,0.6149488091468811,-0.42269158363342285
347,1.7537102796357515,1.0725040199234743,1.0014861659605698,0.46995335817337036,-0.8783999681472778,0.0869327113032341,-2.5468411445617676,0.040877390652894974,0.40906697511672974,-0.09426677227020264,-0.2928341031074524,0.3774533271789551
348,1.794148402938596,1.0649325272253938,0.9502799073297166,0.4725269377231598,-0.8747562170028687,0.10733060538768768,-0.7189074158668518,0.738571286201477,-0.48386746644973755,0.14345508813858032,-0.12237507104873657,-0.5748140811920166
349,1.5840390231893293,1.0756849800886064,1.225008441254208,0.4750879406929016,-0.8799158334732056,0.006291813217103481,-1.5094196796417236,-0.8866029381752014,0.3958013951778412,0.06324213743209839,0.08027899265289307,-0.38287878036499023
350,1.2470768241900414,1.1260185037008217,1.4697609058755725,0.4079090654850006,-0.9027062654495239,-0.13686266541481018,-0.9605360627174377,-0.9064765572547913,0.7068800330162048,-0.17754718661308289,0.4636194705963135,0.08600510656833649
351,1.0425397580977802,1.0371479149678273,1.7048895135912498,0.4393382966518402,-0.8609569668769836,-0.2563879191875458,-1.7011412382125854,0.5144830346107483,-0.7259129285812378,0.24584227800369263,0.3258923292160034,0.5569403171539307
352,0.7459744805569297,1.1209445103949731,1.8516998069634623,0.29511529207229614,-0.9005115628242493,-0.3193524181842804,2.8629791736602783,-1.4119973182678223,2.244016647338867,0.03668707609176636,-0.432145357131958,0.9263623356819153
353,1.3691272391068545,1.2851177287014035,1.2383141164491684,0.2760974168777466,-0.9594706296920776,-0.05644764378666878,1.860516905784607,-1.1653120517730713,-2.808600902557373,-0.030125737190246582,-0.11290180683135986,-0.0026343464851379395
354,1.6128348932040517,1.0185949657374156,1.0744940312737152,0.5240992903709412,-0.8513718247413635,0.022045370191335678,0.31195229291915894,1.201931357383728,2.048171281814575,1.0255374908447266,-0.12996667623519897,-0.4231531620025635
355,1.9484105170181523,1.0669475552780516,0.8347957108942627,0.4487849771976471,-0.8757308721542358,0.17801007628440857,1.6042401790618896,-0.05603174865245819,-0.5704690217971802,-0.3677607774734497,0.9139388799667358,-0.722809910774231
356,1.9680027019630602,1.058785606215939,0.7281770794415714,0.45178765058517456,-0.87176114320755,0.18952676653862,-1.014962077140808,-1.1274968385696411,0.6122108697891235,-0.36945122480392456,0.35860806703567505,-0.24735760688781738
357,1.7592841833779869,1.0396150564072897,0.8178928398685373,0.49758049845695496,-0.8622093200683594,0.09491458535194397,-1.4023878574371338,2.547347068786621,-0.5665820837020874,0.21415045857429504,0.2870445251464844,-0.9440815448760986
358,1.8002264363859055,1.0325301907853646,0.9406566728989485,0.4992150664329529,-0.8585988283157349,0.11658784002065659,-2.3743460178375244,0.6618044376373291,0.1031707376241684,0.2362738847732544,-0.1591930389404297,-0.55335533618927
359,1.4311193628504624,1.0780336425667407,1.2606665250402262,0.4684545397758484,-0.8810293078422546,-0.06586117297410965,-1.0789703130722046,-1.4580246210098267,0.7282305359840393,-0.16025754809379578,0.19211030006408691,-0.17568546533584595
360,1.1022964775788435,1.1140077340249976,1.543405666780017,0.39354145526885986,-0.8974735736846924,-0.1991634964942932,-1.2663458585739136,-0.0837107002735138,0.23801662027835846,-0.18811240792274475,0.5280736684799194,0.23085597157478333
361,0.9473510056325674,1.0048921766829215,1.710767322336201,0.4353087842464447,-0.8441041707992554,-0.3130406141281128,-0.521464467048645,-0.952113926410675,0.2915075123310089,0.1058136522769928,-0.6194425821304321,0.5729740858078003
362,1.0254515321938298,1.2401261391748586,1.6000873306754213,0.2775820195674896,-0.9458249807357788,-0.16841410100460052,2.4612224102020264,-0.4647905230522156,1.1987544298171997,-0.1923311948776245,-0.8744875192642212,0.22816753387451172
363,1.5472912826434047,1.1008412850296394,0.9616773555508428,0.4527209997177124,-0.8915886282920837,-0.0106431869789958,0.7906603813171387,1.0495892763137817,-4.090225696563721,0.2110973298549652,-0.1401190161705017,0.055122554302215576
364,1.8108641420516411,1.0324464719888686,0.8847691720172689,0.49801620841026306,-0.8585559129714966,0.12190867960453033,-0.5161373615264893,2.546584129333496,0.8264173269271851,-0.13174423575401306,0.5575762987136841,-0.33212900161743164
365,1.9152985129729203,1.0168796464536027,0.7544065244097858,0.49511483311653137,-0.850470781326294,0.17765241861343384,0.6345130801200867,-1.1582037210464478,0.19531677663326263,-0.29517900943756104,0.48497718572616577,-0.420633465051651
366,1.9507304002969692,1.0478080015059388,0.6153028956103469,0.46385350823402405,-0.8663304448127747,0.18523353338241577,5.371740341186523,-2.5449302196502686,-0.6423498392105103,0.06054532527923584,-1.505968689918518,2.483086109161377
367,1.8607711229305073,1.0392421310766198,0.7638785465508382,0.48571205139160156,-0.8620203137397766,0.14492934942245483,0.8068082928657532,2.419705867767334,-0.6129205226898193,0.9152278304100037,-0.34449201822280884,-0.4257369041442871
368,1.7940311968675717,1.056494495527737,0.94182506456908,0.47972074151039124,-0.8706364035606384,0.10890549421310425,-2.224940061569214,0.8949820399284363,0.21711967885494232,0.14732393622398376,-0.04841572046279907,-0.19723856449127197
369,1.3809168778334573,1.1124202191249073,1.40255479320506,0.4345395863056183,-0.8967722654342651,-0.08351626247167587,-0.6153128743171692,-1.28476881980896,0.6691309213638306,-0.2842405140399933,0.5066202282905579,-0.37285882234573364
370,1.2281997237373783,1.1479970465346825,1.523112448138019,0.3864697217941284,-0.9119439125061035,-0.1378387212753296,-0.8877431154251099,0.7309221625328064,-0.15138575434684753,-0.14055907726287842,0.424776554107666,0.1557983160018921
371,1.0888390966434844,1.0509519168651278,1.6947997214000534,0.4401605427265167,-0.8678964972496033,-0.23024846613407135,-0.8850131034851074,-2.0178520679473877,0.26164698600769043,0.10941526293754578,-0.8360372185707092,0.11167240142822266
372,0.7243687112067396,1.239064524848344,1.6998682146979667,0.21581660211086273,-0.9454797506332397,-0.24390824139118195,4.853440761566162,-4.939115524291992,-0.43853139877319336,-0.13036736845970154,-0.027496933937072754,0.42528945207595825
373,1.7405438598568244,1.0460339471614608,0.6539358935094658,0.4938066303730011,-0.8654429912567139,0.08463694155216217,0.6182360053062439,2.813276529312134,-4.265542030334473,0.5752851366996765,-0.15602606534957886,-0.07369637489318848
374,2.045311154485893,0.9555092387946159,0.5612813302813068,0.513421356678009,-0.8166077733039856,0.26372337341308594,0.07987472414970398,4.130941867828369,-0.44818565249443054,-0.1360563039779663,0.5925478339195251,-0.12962916493415833
375,1.8915726889611344,1.0167214369158297,0.8319458324113076,0.4993181824684143,-0.8503875732421875,0.16589908301830292,-0.5834895968437195,-2.657165050506592,-0.012078270316123962,-0.3069201111793518,0.4313201904296875,-0.7728936672210693
376,1.9999524946268536,1.0046687096588207,0.678105511330843,0.48772865533828735,-0.8439843058586121,0.22318468987941742,1.7228455543518066,-2.0589983463287354,-0.5178065896034241,0.26987025141716003,-1.7051490545272827,2.572561264038086
377,1.93262544709589,1.0031859916268357,0.7688842661035997,0.5028082728385925,-0.8431881070137024,0.19030919671058655,-0.9236052632331848,-0.7637439966201782,-0.09265412390232086,0.5506889820098877,-0.6473666429519653,-0.7128006219863892
378,1.619649367889667,1.0609142013930182,1.217241038130481,0.4874923527240753,-0.8728020191192627,0.02383444830775261,-2.3462884426116943,0.5138240456581116,0.2333298921585083,0.13228920102119446,-0.010422587394714355,-0.3204042911529541
379,1.2739286398271998,1.0874625638285482,1.5506565245697943,0.4444049894809723,-0.885450541973114,-0.1359468251466751,-0.7346705794334412,-1.1161303520202637,0.7178766131401062,-0.2348407506942749,0.322950541973114,-0.10660690069198608
380,1.0428314317369194,1.0988262483057982,1.7486935996512456,0.39273521304130554,-0.890674352645874,-0.22903788089752197,-1.1053085327148438,0.33816996216773987,-0.2764025032520294,-0.04413291811943054,0.37932175397872925,0.2877384424209595
381,1.0211221817052578,1.0282870988460633,1.8414367710448716,0.44023481011390686,-0.8564159274101257,-0.2697129249572754,0.23233865201473236,-0.7850280404090881,1.047210693359375,-0.025928229093551636,-0.7989490628242493,0.2712846100330353
382,0.9634878802205812,1.2813076075096477,1.684111266214076,0.23441752791404724,-0.958389937877655,-0.16290144622325897,3.1766364574432373,-0.3664000630378723,0.41215354204177856,-0.22898544371128082,-0.30674660205841064,0.4392533600330353
383,1.6849730514099255,1.106584299932124,0.8968052809104085,0.44480305910110474,-0.8941746354103088,0.05100800096988678,0.9000559449195862,1.2322161197662354,-4.256767272949219,0.2100583016872406,-0.11089116334915161,0.019060365855693817
384,2.142445469227247,0.9703588528474434,0.6979853850924392,0.47517356276512146,-0.8250885009765625,0.3056780695915222,-0.4170120060443878,2.7833075523376465,-0.15699486434459686,-0.025069832801818848,0.589111328125,-0.4168994426727295
385,1.897821492425252,1.01684632742421,0.9270959322632728,0.4981711208820343,-0.85045325756073,0.16898183524608612,0.5632438659667969,-1.617802619934082,0.07761570811271667,-0.3597586452960968,0.3468979597091675,-0.55037522315979
386,1.9481720596872998,1.0172826977397351,0.8051505690909587,0.488690048456192,-0.8506827354431152,0.1937035322189331,1.0521939992904663,-0.4166905879974365,0.1033986359834671,0.1818574070930481,-1.8871407508850098,2.8581457138061523
387,1.9024854362876231,1.0069395578667288,0.8210821424010775,0.5053188800811768,-0.8452001810073853,0.17403851449489594,1.686914086341858,-1.1450115442276,-0.32121196389198303,1.0141513347625732,-1.0546562671661377,0.44803178310394287
388,1.6810587206171423,1.0560630765660708,1.0972140171514824,0.48931312561035156,-0.8704240918159485,0.05417255684733391,-1.6224184036254883,0.7114920616149902,0.39271751046180725,0.18788719177246094,0.07147383689880371,-0.3923531770706177
389,1.4325450959359693,1.0946919155073347,1.3122330267856666,0.45394718647003174,-0.8887870907783508,-0.06316167861223221,-0.5087184309959412,-1.6846660375595093,0.669306755065918,-0.20171943306922913,0.3072899580001831,-0.2067967653274536
390,1.0985080001777576,1.1136586350103217,1.5582685644614345,0.3930632174015045,-0.8973195552825928,-0.20079557597637177,-1.604867696762085,-0.07331128418445587,0.07402198016643524,-0.1038023829460144,0.33411771059036255,0.25200408697128296
391,0.9388795726476596,1.0170419306988563,1.815279680364205,0.4243342876434326,-0.8505561351776123,-0.31063583493232727,-0.4829099774360657,-0.5632079839706421,1.640218734741211,0.03509259223937988,-1.2481682300567627,0.35735824704170227
392,1.0792544857442208,1.238968386423941,1.4986747591656386,0.287202388048172,-0.9454484581947327,-0.15375962853431702,4.695257663726807,-0.3678772449493408,-0.1533539742231369,-0.16198879480361938,-0.40361160039901733,0.38032209873199463
393,1.7881354667181817,1.0270839736701787,0.7027815971675009,0.5051464438438416,-0.8557941317558289,0.11155005544424057,0.18911391496658325,0.6360080242156982,-3.0205981731414795,0.3604845404624939,-0.34954339265823364,-0.1210714653134346
394,1.944693504273939,1.033985311577278,0.7697934382184534,0.47606608271598816,-0.8593438863754272,0.18678615987300873,0.6018001437187195,2.331801414489746,0.5723662972450256,-0.17458295822143555,0.653167188167572,-0.9758028984069824
395,2.047524722270262,1.011048940196249,0.631009206550579,0.4717693328857422,-0.847389280796051,0.24364979565143585,-0.34135475754737854,-1.2146649360656738,0.11888828128576279,-0.4484386742115021,0.5120163559913635,-0.4721958637237549
396,1.8731550741442164,1.035197587820258,0.7389778064749412,0.48720496892929077,-0.8599632382392883,0.15197023749351501,-1.6227681636810303,0.022384576499462128,0.5175626873970032,0.04171052575111389,-1.130042314529419,1.0198285579681396
397,1.8752171990491924,1.0536208749546547,0.7264859570438679,0.4716935157775879,-0.869219183921814,0.1481998860836029,-0.8009753823280334,-0.31349629163742065,-0.004134932532906532,0.10353231430053711,-0.28736650943756104,-0.8123692274093628
398,1.7418542730966429,1.0657415662260203,0.8511097504385788,0.47679340839385986,-0.8751479983329773,0.08236422389745712,-0.792881965637207,-0.9754979014396667,0.1829652190208435,0.21449071168899536,0.08063822984695435,-0.41914093494415283
399,1.4314862630745682,1.117402659399282,1.0660821909902551,0.4337751269340515,-0.8989657759666443,-0.0608232207596302,-1.1646498441696167,-1.3251286745071411,0.8626391887664795,-0.22660663723945618,0.35524946451187134,-0.09242080897092819
400,1.0459725094989842,1.1051973382945381,1.433000885426677,0.3885340094566345,-0.8935527801513672,-0.22495529055595398,-1.674101710319519,0.9048565626144409,-0.10479630529880524,0.05174309015274048,0.2981395721435547,0.4388834834098816
401,0.8863528690960659,1.0977637220085357,1.6586022368163196,0.35297635197639465,-0.8901907801628113,-0.2880418002605438,1.369901180267334,-1.2347816228866577,2.658705711364746,-0.03097018599510193,-0.9217446446418762,0.6678788661956787
402,1.0818187597680935,1.2707634497284617,1.4251420581388972,0.260917067527771,-0.9553267955780029,-0.1388275921344757,0.8472983241081238,-1.0749623775482178,-1.3391385078430176,-0.057471632957458496,-0.01526951789855957,-0.05102229118347168
403,1.4309038045280777,1.0115379097224644,1.0844676928224588,0.5253746509552002,-0.8476487994194031,-0.0739792063832283,1.076588749885559,1.7520759105682373,-0.24368825554847717,1.0502631664276123,-0.41544318199157715,-0.4688522219657898
404,2.0830133013926178,1.0065506940811735,0.5944127033694724,0.4661453664302826,-0.8449922800064087,0.2621009349822998,1.9601409435272217,1.835932970046997,-0.07503124326467514,-0.2897994816303253,0.5676178932189941,-0.5069739818572998
405,2.1010773726545486,0.996263615285277,0.5267573070196242,0.4688091576099396,-0.8394463658332825,0.2748602628707886,-0.32452693581581116,-0.8448508381843567,-0.08134101331233978,-0.4667491614818573,0.6696158647537231,-0.6941260099411011
406,1.812133291866033,1.0508042997619194,0.7969157502102163,0.4824734032154083,-0.8678231239318848,0.11875320225954056,-1.9334150552749634,-0.5925022959709167,0.1544220745563507,0.3016299605369568,-1.2718405723571777,0.8145811557769775
407,1.856760555557832,1.0432223594845578,0.7429984455240219,0.48299410939216614,-0.8640309572219849,0.14201132953166962,-0.43255507946014404,0.6947628855705261,-0.255397766828537,0.03745269775390625,-0.20084941387176514,-0.816693902015686
408,1.6597512317273182,1.0455652109357014,1.002337890069746,0.49943074584007263,-0.865208089351654,0.044544368982315063,-1.5925849676132202,-0.684407651424408,0.19061219692230225,0.12276169657707214,0.1562541127204895,-0.3599282503128052
409,1.2858867281914836,1.0888483320721907,1.2553478358790926,0.4448208510875702,-0.8860936760902405,-0.13027799129486084,-0.9972012639045715,-1.8397057056427002,1.144124984741211,-0.2340664565563202,0.21875053644180298,-0.05780184268951416
410,1.0116762620853486,1.0757508999462484,1.5249099950686582,0.4027286469936371,-0.8799471259117126,-0.2519971430301666,-1.1141926050186157,0.965059220790863,-0.5057459473609924,0.04337728023529053,0.2762026786804199,0.3747846186161041
411,0.9661571268022532,1.116383698093935,1.6165996236039017,0.3611147701740265,-0.898518979549408,-0.24951913952827454,1.3328794240951538,-1.6113494634628296,2.1472325325012207,-0.10485866665840149,-0.5736337304115295,0.6126173138618469
412,1.3214453632346392,1.2416923606091184,1.1247076901877067,0.3131999373435974,-0.9463323354721069,-0.07975657284259796,2.187981128692627,-0.5891201496124268,-2.3513808250427246,0.07245072722434998,-0.10377764701843262,-0.010636456310749054
413,1.621067250409719,1.0046917823304427,0.8983927939939197,0.5356707572937012,-0.8439967036247253,0.026951368898153305,0.39853957295417786,3.045970916748047,1.2383424043655396,0.7283978462219238,0.07097125053405762,-0.21374952793121338
414,1.8208328065898214,1.0394767657354882,0.90359250079266,0.49091577529907227,-0.8621392250061035,0.12537045776844025,1.0849553346633911,-0.8897427320480347,-0.48422086238861084,-0.28013086318969727,0.6833367347717285,-0.7059826850891113
415,1.8838872841271987,1.0300629757213926,0.7787574481530934,0.48973995447158813,-0.857331395149231,0.15854793787002563,-1.2305032014846802,-0.44300413131713867,0.3752090632915497,-0.3829742670059204,0.3504650592803955,-0.1620270162820816
416,1.6998376051429245,1.097171174311957,1.0541642107879738,0.45232298970222473,-0.8899206519126892,0.05869448557496071,1.1778730154037476,-0.44813913106918335,0.3529888987541199,0.3291406035423279,0.34153515100479126,-1.102410912513733
417,1.7445777717560351,1.0712567699787807,0.9918465977311586,0.47180625796318054,-0.8778032064437866,0.0828266441822052,-0.6686599254608154,-0.48197636008262634,-0.7534529566764832,0.24941563606262207,-0.1481214165687561,-0.5042743682861328
418,1.567635864365493,1.0683933841044198,1.1665166319622968,0.48153042793273926,-0.8764280080795288,-0.0015218639746308327,-1.0501056909561157,-0.2847402095794678,0.2392917424440384,0.022299468517303467,0.3161558508872986,-0.23552340269088745
419,1.2547490920353799,1.116730127776639,1.4006785855422836,0.41689902544021606,-0.89867103099823,-0.13632942736148834,-1.5150134563446045,-1.4146702289581299,1.1532918214797974,-0.19697409868240356,0.289265513420105,-0.02533745765686035
420,0.8802030157685082,0.9986776436983424,1.7908963700297824,0.41735929250717163,-0.8407557606697083,-0.3448781967163086,-2.3675811290740967,0.2693704664707184,-0.9109630584716797,0.27911287546157837,-0.03525131940841675,0.5192098617553711
421,0.9141193987224827,1.1599057334446443,1.6710406222706842,0.3163555860519409,-0.9167654514312744,-0.24384495615959167,3.1574745178222656,1.8993380069732666,0.19835923612117767,-0.09316527843475342,-0.3599221706390381,0.5808200240135193
422,1.366257782279938,1.1291777409194996,1.1206179149031783,0.41849416494369507,-0.9040610790252686,-0.08681220561265945,-0.3170836567878723,-0.46912649273872375,-3.918721914291382,0.23314771056175232,-0.0900644063949585,0.05006902664899826
423,1.6708365268206273,1.0366265071520373,0.9666869461292029,0.5065808892250061,-0.8606916069984436,0.05084820091724396,2.2430994510650635,2.155491828918457,0.1164688766002655,-0.06715840101242065,0.5711256265640259,-0.20682358741760254
424,1.9368295088934708,0.9900480056643071,0.8030801466509049,0.5123040080070496,-0.8360522985458374,0.1963694989681244,0.5130830407142639,0.2651504874229431,0.3058294653892517,-0.39127135276794434,0.30034685134887695,-0.4753763675689697
425,1.812757129348705,1.0568321984923377,0.9131183784835828,0.4773121178150177,-0.8708024621009827,0.11779868602752686,-1.1941558122634888,-0.15275883674621582,0.15588638186454773,-0.3966693580150604,0.025373876094818115,0.9825278520584106
426,1.7966630953533744,1.0552928771829628,0.9060216319373179,0.4804515540599823,-0.8700446486473083,0.11040186882019043,1.072018027305603,0.40788978338241577,-0.18332558870315552,0.11468696594238281,0.10336685180664062,-0.5348708629608154
427,1.7594188982277774,1.0504249169414626,1.0411566036659026,0.4883836805820465,-0.8676345944404602,0.09322845935821533,-2.0442395210266113,1.554302453994751,-0.23446425795555115,0.4219861924648285,-0.1817886233329773,-0.45570099353790283
428,1.5160238059012536,1.0594915817205401,1.326893702754888,0.48858168721199036,-0.8721067905426025,-0.026787644252181053,-0.8395388126373291,-1.0812933444976807,0.14102159440517426,-0.07967668771743774,0.3598540425300598,-0.2313910722732544
429,1.226932575076138,1.1002078961807682,1.5211941370728825,0.42686763405799866,-0.8913016319274902,-0.15285706520080566,-1.5795174837112427,-0.6687089800834656,0.9672020077705383,-0.23024293780326843,0.24684679508209229,0.08315487205982208
430,0.9209188739067374,0.98753474067795,1.8703469493195983,0.4384833872318268,-0.8346707820892334,-0.3332522213459015,-1.653956413269043,0.3266846537590027,-0.7993043065071106,0.18488392233848572,-0.21810942888259888,0.5176546573638916
431,0.801105994638682,1.1349350473753874,1.8464111539683428,0.3031865656375885,-0.9065067768096924,-0.29380831122398376,3.6905009746551514,-0.27115851640701294,1.1179414987564087,-0.1388799548149109,-0.6564204692840576,0.6729434728622437
432,1.5287687675582746,1.1511918351022143,1.0134959390074278,0.40703922510147095,-0.9132501482963562,-0.01711694523692131,1.0008368492126465,-1.011110782623291,-3.8784587383270264,0.18060719966888428,-0.05229538679122925,0.04487264156341553
433,1.737936827295427,1.0062512820397813,0.9304934015931077,0.5275753140449524,-0.8448321223258972,0.0890096127986908,0.18831077218055725,3.231295585632324,0.6771271228790283,0.010861396789550781,0.5258930325508118,-0.14113368093967438
434,1.9634327496154997,0.998093480105832,0.8315351543098242,0.5006685256958008,-0.8404393792152405,0.20734694600105286,0.742117702960968,-2.4586565494537354,-0.24324823915958405,-0.22411829233169556,0.4932103753089905,-0.869776725769043
435,1.7903780227520731,1.0620841685328788,0.9121820704722354,0.47535794973373413,-0.873372495174408,0.1060905009508133,0.12038692086935043,2.7814319133758545,1.1357306241989136,-0.28881925344467163,-0.18540430068969727,0.9100532531738281
436,1.7855745514090913,1.0867688630336145,0.9387324978042982,0.45465585589408875,-0.8851279616355896,0.0991799384355545,1.694728136062622,0.7581748962402344,-0.271807998418808,0.17464712262153625,0.09853732585906982,-0.5071847438812256
437,1.741609332855935,1.063415604896677,1.0377161811537496,0.47881847620010376,-0.8740201592445374,0.08259326219558716,-1.788455843925476,1.5463173389434814,0.03864698112010956,0.47867053747177124,-0.06181657314300537,-0.3988926410675049
438,1.4557103191625305,1.0939890391663982,1.3922005296578783,0.45590898394584656,-0.8884647488594055,-0.05270162597298622,-1.2379474639892578,-0.755699634552002,0.36854422092437744,-0.07009050250053406,0.307852566242218,-0.2093222737312317
439,1.0809311023267363,1.1480638112990702,1.6997803570117642,0.3620067834854126,-0.9119713306427002,-0.19302745163440704,-1.5578994750976562,-0.5575251579284668,1.1310312747955322,-0.1582561433315277,0.36276161670684814,0.20213696360588074
440,0.8837689054688008,1.0063862442611893,1.9714825925398534,0.41356319189071655,-0.8449043035507202,-0.33926692605018616,-1.444551706314087,0.6235561370849609,-1.2044546604156494,0.06800413131713867,-0.11386632919311523,0.41664430499076843
441,0.7204414816586024,1.1201079547974582,2.0357187197354722,0.2873627245426178,-0.9001474976539612,-0.32734858989715576,2.683973550796509,-1.2027655839920044,0.30770596861839294,-0.1731659471988678,-0.2706441283226013,0.5057696104049683
442,1.6471124146230274,1.134364340053204,1.0432904278766164,0.4214782118797302,-0.9062656760215759,0.03222816064953804,3.1619606018066406,0.5318607687950134,-3.7697787284851074,0.2532348930835724,-0.19663959741592407,0.10670316219329834
443,1.801672311698864,1.0357922958446724,0.964506236924997,0.49631622433662415,-0.8602665662765503,0.11666784435510635,-1.7620970010757446,2.209099292755127,1.1172467470169067,-0.03112161159515381,0.45862483978271484,-0.22669900953769684
444,1.9082227018355575,1.0476624278388023,0.969429742583686,0.47142493724823,-0.8662577271461487,0.1653965413570404,1.77205228805542,-0.7263064384460449,-0.4805186986923218,-0.17516031861305237,0.5518962144851685,-0.6018284559249878
445,1.8723425166619356,1.0669715980126553,0.9700699338507979,0.46099501848220825,-0.875742495059967,0.14338383078575134,0.21718725562095642,0.04190116375684738,0.14320752024650574,-0.4006311893463135,-0.20914226770401,1.5465424060821533
446,1.8398273503251574,1.0720579211021017,0.9924916962079449,0.46111246943473816,-0.8781867027282715,0.1271357238292694,0.6201161742210388,-1.23185396194458,-0.06308964639902115,0.35352376103401184,0.2767462730407715,-0.7543177604675293
447,1.7471814932329968,1.069225236127841,1.1172693539769623,0.4733439087867737,-0.8768282532691956,0.08436760306358337,-1.3847615718841553,0.3323096036911011,-0.5215139389038086,0.2562856078147888,-0.08131688833236694,-0.3979356288909912
448,1.4269232679429886,1.0856937381065739,1.4441008949084988,0.4614812135696411,-0.884627103805542,-0.06685665249824524,-1.5492122173309326,-1.33039391040802,0.548613965511322,-0.09575861692428589,0.18926894664764404,-0.24845093488693237
449,1.049260305166922,1.1288809781637736,1.715803931974845,0.3708147704601288,-0.9039341807365417,-0.21307134628295898,-1.0189533233642578,-0.14665600657463074,0.6600940227508545,-0.17139765620231628,0.40211838483810425,0.22338628768920898
450,0.9480808641398318,1.0254507326750415,1.8995655289377897,0.4213498830795288,-0.854948103427887,-0.30253612995147705,-1.2182185649871826,0.37752169370651245,-1.0875734090805054,0.2511965036392212,0.09220695495605469,0.43324291706085205
451,0.9051017902503515,1.1822656017310436,1.8396331194040954,0.29794448614120483,-0.9254666566848755,-0.2339669018983841,3.225688934326172,-1.218520998954773,0.4055599868297577,-0.19911333918571472,-0.07242757081985474,0.5844307541847229
452,1.7037749507221152,1.1493203614936023,0.9331571481556156,0.4054959714412689,-0.9124860763549805,0.05424240231513977,2.3936750888824463,0.930460512638092,-3.44657301902771,0.2348848581314087,-0.24638843536376953,0.2614314556121826
453,1.812965034247085,1.0395344660366956,1.0438686451308457,0.4918384552001953,-0.8621684908866882,0.12149221450090408,-2.5581958293914795,2.209188222885132,1.424060344696045,0.1329326331615448,0.425736665725708,-0.34010493755340576
454,1.9683600057463482,1.052004962072544,0.9634109463454531,0.4571593701839447,-0.8684191107749939,0.19197234511375427,1.9357187747955322,-0.16253337264060974,-0.3474361300468445,-0.16124576330184937,0.574397623538971,-0.5872207880020142
455,1.8510264995441719,1.0591811622447567,0.9949057169909106,0.47048863768577576,-0.8719548583030701,0.13540829718112946,0.9589391350746155,-0.42778855562210083,0.16200651228427887,-0.5566244125366211,-0.23615378141403198,2.025923013687134
456,1.9064568406271576,1.0502133496470558,0.9373988038126271,0.46962836384773254,-0.8675293922424316,0.16383542120456696,0.28031572699546814,-1.2317323684692383,0.3014706075191498,0.8276281356811523,-0.5979704856872559,-0.45643794536590576
457,1.7523991302735766,1.0331778464531884,1.0914257020929348,0.5036704540252686,-0.8589306473731995,0.09248694032430649,-2.130758285522461,-1.4190404415130615,-0.18846267461776733,0.4397345781326294,-0.2529771327972412,-0.438510537147522
458,1.2970256032936658,1.0682214902361515,1.503692930580679,0.46374496817588806,-0.8763452172279358,-0.13022975623607635,-1.541519045829773,-0.3978903889656067,0.7215355634689331,-0.24177533388137817,0.2730889916419983,-0.07068270444869995
459,1.0048728756938927,1.0401980459618512,1.7756771565097376,0.42715317010879517,-0.8625044822692871,-0.2713414132595062,-1.2948994636535645,-1.0323702096939087,-0.4939628541469574,-0.12887436151504517,0.4492201805114746,0.28238874673843384
460,0.9144589590118019,1.0174362717017065,1.7884988053878152,0.41635701060295105,-0.8507634401321411,-0.32070013880729675,1.9744362831115723,0.13182096183300018,2.5467529296875,-0.04312703013420105,-1.3517054319381714,0.7317108511924744
461,1.2751199587293536,1.2296337762201435,1.3762205028172196,0.32006365060806274,-0.942366361618042,-0.09749304503202438,2.2195448875427246,-1.281572699546814,-0.523759663105011,-0.030482381582260132,-0.425675630569458,0.308491587638855
462,1.7162762978037678,0.9953516999609899,0.918938611353719,0.5384592413902283,-0.8389503955841064,0.07889238744974136,0.7022210955619812,1.906626582145691,-2.1191365718841553,0.669563889503479,-0.35509568452835083,-0.13856947422027588
463,1.929585339044454,1.0347830702315117,0.9080985340830161,0.47819167375564575,-0.8597515821456909,0.17933188378810883,-0.09366957098245621,2.289562702178955,0.6814139485359192,-0.28490862250328064,0.5098218321800232,-0.2608596086502075
464,2.0308554790172537,1.0122293617057192,0.7721632670734742,0.47486844658851624,-0.8480154275894165,0.235307976603508,-0.01278483122587204,-0.7262734174728394,0.2006402611732483,-0.49600183963775635,0.49454551935195923,-0.4651815593242645
465,1.8518168905309391,1.0249063791472226,0.8623341481255324,0.4988129138946533,-0.8546655774116516,0.14398713409900665,1.6213139295578003,1.1289374828338623,-0.17666281759738922,0.2207610309123993,-1.8414708375930786,3.5406746864318848
466,1.863030288215193,1.0242957196551636,0.8126295492924324,0.49766701459884644,-0.854348361492157,0.14972178637981415,-0.1380549818277359,-0.22391054034233093,0.25968340039253235,0.12705838680267334,-0.6558750867843628,-1.2438380718231201
467,1.6913746946857382,1.035650090101766,1.0343935193106504,0.5062642097473145,-0.8601940870285034,0.061342090368270874,-2.19661808013916,-0.5169776082038879,0.3441937565803528,0.34900617599487305,-0.12267041206359863,-0.34840571880340576
468,1.2676602414826685,1.089191800156708,1.4376995627730664,0.44208207726478577,-0.8862528204917908,-0.13827255368232727,-1.363348364830017,-0.35035863518714905,0.8220547437667847,-0.24893635511398315,0.34149885177612305,0.0012180954217910767
469,0.9958874199197043,1.0497377082424204,1.6934788944683212,0.41777342557907104,-0.8672927021980286,-0.270682156085968,-1.0595353841781616,-0.7601502537727356,-0.46976083517074585,0.024960339069366455,0.29377585649490356,0.3721683621406555
470,0.9882533380574606,1.0822412024476673,1.7023745895946296,0.3919389843940735,-0.8830119371414185,-0.25821295380592346,2.28700590133667,0.1650109887123108,3.229464292526245,-0.03499007225036621,-1.4505910873413086,0.5819128751754761
471,1.3623790539860383,1.2095861303831972,1.2025725629859205,0.345758855342865,-0.9354698061943054,-0.0731239765882492,3.0899288654327393,-0.29380035400390625,-1.8817145824432373,0.03601604700088501,-0.12226945161819458,0.2565193772315979
472,1.8424485346254682,0.9629191064981111,0.816177591063837,0.5501824617385864,-0.8208622336387634,0.15324656665325165,-0.6215378046035767,2.547412872314453,0.5574060678482056,0.9169653654098511,-0.2725825905799866,-0.32113897800445557
473,1.8708403371054718,1.0532025483131349,0.9402608777950309,0.47268497943878174,-0.8690122961997986,0.14624139666557312,2.317883253097534,0.8168258666992188,-0.05191292241215706,-0.46919071674346924,0.7065977454185486,-0.6398173570632935
474,1.9382693606088373,1.0280017015475025,0.8178629425997771,0.4820462763309479,-0.8562685251235962,0.18556800484657288,-1.2265546321868896,-0.7542440891265869,-0.2917247712612152,-0.36824631690979004,0.5476596355438232,-0.3136350214481354
475,1.7793330839416897,1.0471327470933809,0.9514156819023499,0.4892227351665497,-0.8659930229187012,0.10352598875761032,-0.502984344959259,-0.513282299041748,0.2272331565618515,-0.14560991525650024,-0.07321614027023315,-0.5198467969894409
476,1.8766163831575324,1.0426326534828423,0.8632295244011997,0.48056507110595703,-0.8637339472770691,0.15172630548477173,-0.06112241744995117,0.5825507640838623,-0.3557083010673523,0.053462058305740356,0.05938214063644409,-0.607536792755127
477,1.6215579733488126,1.0501385425485945,1.1207286262177216,0.49681007862091064,-0.867492139339447,0.02524058148264885,-2.055767774581909,-1.6444365978240967,0.3004645109176636,0.07943809032440186,-0.011505603790283203,-0.3533198833465576
478,1.1786538685856998,1.1020279767712242,1.4945986181618895,0.41749387979507446,-0.8921254277229309,-0.17265942692756653,-1.4513095617294312,-0.30195021629333496,0.870484471321106,-0.2218761444091797,0.39050787687301636,0.13820503652095795
479,0.9602627578141314,1.025661134694538,1.746916913459192,0.4248564839363098,-0.8550571799278259,-0.2972777783870697,-1.0877468585968018,-0.30747637152671814,-0.6583893299102783,0.19858711957931519,0.3012089729309082,0.6165221929550171
480,0.9851846498068668,1.152364325611953,1.6781199041908785,0.33862337470054626,-0.9137271642684937,-0.22458131611347198,3.1996536254882812,1.5888671875,1.6501411199569702,0.04458588361740112,-0.4502559304237366,0.5386682748794556
481,1.299170665730759,1.2143131758217682,1.2501535220375184,0.3361857533454895,-0.9371299147605896,-0.09363079071044922,1.1336113214492798,-0.1401059478521347,-2.923253059387207,-0.026020348072052002,0.0525321364402771,0.20019817352294922
482,1.704993080290042,0.9954445273919837,1.0230179682037421,0.5392378568649292,-0.839000940322876,0.07280151546001434,0.8831904530525208,1.4864166975021362,1.2699675559997559,0.6880875825881958,0.21804451942443848,-0.3934040069580078
483,2.0082876257324394,0.9794595841640921,0.763323830975513,0.5049672722816467,-0.8301962018013,0.23618300259113312,2.150763988494873,1.2533718347549438,-0.08860104531049728,-0.29958397150039673,0.44053250551223755,-0.5808027982711792
484,1.9319896776161656,0.993032950323132,0.7965761140493605,0.5109118819236755,-0.83768630027771,0.19300507009029388,-1.6334185600280762,-0.5019249320030212,-0.09702205657958984,-0.32460200786590576,0.4357696771621704,-0.3966946303844452
485,1.7800743691644512,1.0101740603582698,0.8642477514219402,0.5201117992401123,-0.8469244241714478,0.110465407371521,-1.7736459970474243,-0.2862071692943573,0.7721689343452454,-0.07469260692596436,0.33195561170578003,-0.646262526512146
486,1.8345036883675987,1.010199251522221,0.831246171362993,0.5133113861083984,-0.8469377756118774,0.13859161734580994,-1.7713756561279297,1.7962003946304321,0.08739513158798218,0.1469058394432068,-0.06411862373352051,-0.4800375699996948
487,1.5679254449603066,1.0634061322474073,1.1840295883016674,0.4858960509300232,-0.8740155696868896,-0.0013949539279565215,-1.7728537321090698,-0.8465315699577332,0.4430212080478668,0.04628473520278931,0.11936163902282715,-0.28568387031555176
488,1.2742936952628423,1.1068399467758026,1.4478971807333691,0.4279632568359375,-0.8942890763282776,-0.13074634969234467,-1.0218396186828613,-0.4614141285419464,0.5463421940803528,-0.157958984375,0.4137134552001953,0.06295156478881836
489,1.0095021855682689,1.0403929921314525,1.712451387124974,0.42826229333877563,-0.8626031279563904,-0.2692715525627136,-1.613312005996704,0.018677864223718643,-0.6865447759628296,0.14414063096046448,0.30609989166259766,0.5477902889251709
490,0.9427992920370057,1.133494370744023,1.7816775081092828,0.34269624948501587,-0.9058975577354431,-0.24881511926651,2.9104506969451904,-1.6556543111801147,1.7205479145050049,0.05160611867904663,-0.3322768807411194,0.2270408272743225
491,1.5473729588091363,1.2494606831806176,1.0623713865688884,0.31574785709381104,-0.9488144516944885,-0.007397231180220842,2.3177201747894287,-0.463733434677124,-2.194962739944458,-0.10398635268211365,0.1540297269821167,0.07087379693984985
492,1.8056815899939356,0.9468832464954094,0.8607221178314262,0.5681734681129456,-0.8115985989570618,0.1359652578830719,0.054264675825834274,1.8009257316589355,0.04224547743797302,0.8458585143089294,-0.32122910022735596,-0.2139223963022232
493,1.968966929962438,1.0343822311643276,0.9007857635531108,0.47107797861099243,-0.8595467805862427,0.1981535255908966,0.4413101077079773,0.4845592677593231,-0.14386190474033356,-0.3402644097805023,0.8003122210502625,-0.9022245407104492
494,1.9329680648716803,1.0068067857287206,0.8526177185292791,0.49988511204719543,-0.8451291918754578,0.1893986314535141,-1.1450058221817017,-1.5287576913833618,0.09918031096458435,-0.39951273798942566,0.2911282181739807,-0.3647221028804779
495,1.7253117797738957,1.001553958361242,0.9142337355452455,0.5325724482536316,-0.8423095941543579,0.08295188099145889,-3.7126576900482178,0.777053952217102,0.6016800999641418,0.08463025093078613,-0.18526297807693481,0.4453531503677368
496,1.731588725566255,1.001292704642196,0.9530128081953777,0.5322584509849548,-0.8421687483787537,0.08632838726043701,-0.5556538701057434,0.23740984499454498,-0.2624780237674713,0.4342789053916931,-0.36194801330566406,-0.11487758904695511
497,1.4852336868583034,1.0474703159699048,1.2825776059655205,0.49793583154678345,-0.8661617636680603,-0.042708978056907654,-1.9570232629776,-0.4489181339740753,0.4470961093902588,-0.08382749557495117,0.16088515520095825,-0.22775304317474365
498,1.2340189168828095,1.0948550936758945,1.5322205694001938,0.43243691325187683,-0.888861894607544,-0.15140272676944733,-0.6690763831138611,-0.2051575630903244,0.6179613471031189,-0.1410856544971466,0.4739144444465637,0.05247999727725983
499,1.0647964786397548,1.0557997875721623,1.6857669881525426,0.43081286549568176,-0.870294451713562,-0.23872146010398865,-1.0055080652236938,-0.43613696098327637,-0.3874281644821167,0.12594982981681824,0.3419893980026245,0.42033153772354126
500,0.8678149022660432,1.1688459557535509,1.81618550405933,0.298464298248291,-0.9202997088432312,-0.252918004989624,2.0517592430114746,-2.0516560077667236,2.0442495346069336,-0.022615909576416016,-0.4875829815864563,0.398730993270874
501,1.3200167674803147,1.2981517836305445,1.1495256991348155,0.2608557343482971,-0.9630621671676636,-0.0668240636587143,2.4802756309509277,-1.6569756269454956,-3.036487340927124,0.014885812997817993,-0.10589224100112915,0.205328106880188
