,attitude.roll,attitude.pitch,attitude.yaw,gravity.x,gravity.y,gravity.z,rotationRate.x,rotationRate.y,rotationRate.z,userAcceleration.x,userAcceleration.y,userAcceleration.z
0,0.9735931124609405,1.001831711243683,1.6801679259747595,0.4455068111419678,-0.8424592614173889,-0.30296194553375244,-0.5051971673965454,0.6024767756462097,-0.45678597688674927,0.11813756823539734,0.1717134714126587,0.5686479806900024
1,0.18728168342665646,0.5295286193046022,2.707231953697737,0.1606893688440323,-0.5051265954971313,-0.8479540348052979,-0.22266602516174316,0.2950277328491211,0.07958925515413284,0.15460297465324402,0.08789026737213135,0.04465514421463013
2,0.16480459755696986,0.5255505816403889,2.722409214948303,0.14191938936710358,-0.5016893744468689,-0.8533267974853516,-0.12707847356796265,0.11579280346632004,0.055806051939725876,0.0014216750860214233,0.0969347357749939,0.5319156646728516
3,0.21349499523001225,0.5241663280581532,2.7144261262813356,0.18343056738376617,-0.5004914402961731,-0.8460860252380371,-0.33882176876068115,0.36158591508865356,0.026388056576251984,0.07065878808498383,-0.0690581202507019,0.3734145164489746
4,0.2396502198238194,0.4565114873040693,2.673780857987666,0.21305589377880096,-0.44081953167915344,-0.871943473815918,-0.7483646869659424,0.22259773313999176,-0.7040590047836304,0.06573742628097534,-0.12198564410209656,-0.13431262969970703
5,0.2399399401633496,0.432979639515667,2.6864509767569356,0.21571438014507294,-0.41957733035087585,-0.8817154765129089,-0.17277973890304565,0.11535540223121643,-0.3414049744606018,0.04424962401390076,-0.11341214179992676,-0.35058432817459106
6,0.43864639343945916,0.4917895151884049,2.533576722108255,0.3743811845779419,-0.4722040891647339,-0.7980363368988037,1.7248554229736328,1.7278296947479248,-2.3103511333465576,-0.12160411477088928,0.4133204221725464,0.206071674823761
7,0.7770615621461291,0.3962627541793029,2.224948813701812,0.6468523144721985,-0.38597339391708374,-0.657728374004364,0.21122939884662628,2.87026047706604,-3.1783041954040527,-0.24427974224090576,0.41432422399520874,0.6764814257621765
8,1.0268369904075407,0.1704176209444643,2.04275288180568,0.8432711362838745,-0.1695939302444458,-0.51003098487854,0.3607785701751709,1.682369589805603,-4.16759729385376,-0.2991427779197693,0.7763901948928833,0.2805846333503723
9,1.2108985056846144,-0.2800325665805828,1.7703711982255312,0.8994749188423157,0.27638694643974304,-0.3384599983692169,0.5808542966842651,1.197798490524292,-5.728097438812256,0.6154329180717468,0.36104899644851685,-0.36500072479248047
10,1.0344109450066235,-0.7361277238591727,1.457043686908176,0.6369987726211548,0.6714233160018921,-0.37871283292770386,1.5073812007904053,-1.4271697998046875,-3.813253164291382,1.6664527654647827,-0.1564849615097046,-0.5672100186347961
11,0.6092119088304306,-0.68741396083248,1.2133994660353074,0.4422638416290283,0.6345405578613281,-0.63384610414505,1.296393871307373,-2.7476413249969482,1.943211317062378,0.8112456798553467,-0.3777657747268677,0.628078281879425
12,0.754712373871215,-0.5657902126240261,1.269634813909415,0.5783200860023499,0.5360830426216125,-0.6149479150772095,0.899785578250885,3.350938081741333,0.3497243821620941,0.025302410125732422,-0.03602200746536255,0.4622379541397095
13,0.8979933836742819,-0.4178451265365169,1.2911855180924403,0.7147923707962036,0.40579190850257874,-0.5695655941963196,1.230028510093689,-0.220978245139122,1.55214524269104,-0.08844953775405884,-0.09745752811431885,0.05906742811203003
14,0.8949065641926689,-0.24278487836505852,1.2799442274041457,0.7572705745697021,0.24040676653385162,-0.6072445511817932,1.1142736673355103,0.4702160954475403,0.9098255634307861,-0.08846259117126465,-0.3053481876850128,0.4302578568458557
15,0.9061347009146582,-0.10869171705608588,1.3204529165749848,0.7824805974960327,0.10847783088684082,-0.6131530404090881,0.8682534098625183,-0.7781360149383545,1.3921645879745483,0.3327842950820923,-0.05325627326965332,-0.16454166173934937
16,0.8652564119320006,0.013983309016384674,1.286857917346623,0.7611871361732483,-0.013982852920889854,-0.6483815312385559,-0.00010004732757806778,-2.0067272186279297,0.13765425980091095,-0.06357061862945557,0.0734616219997406,-0.2981669306755066
17,0.5651917402981967,0.03989417517296122,1.3809232736147063,0.5351516008377075,-0.03988359495997429,-0.8438140153884888,0.12909576296806335,-1.8180198669433594,-0.3985178768634796,-0.390421986579895,0.7691926956176758,0.13609611988067627
18,0.37602012572880844,0.05719711802833756,1.2912928566000386,0.3666210472583771,-0.05716593563556671,-0.9286124110221863,0.5484826564788818,-1.0957162380218506,-1.0280455350875854,0.04927247762680054,0.406912624835968,0.5395896434783936
19,0.46013499690638493,0.031607927085013206,1.336688331630789,0.44384726881980896,-0.03160266578197479,-0.8955450057983398,-1.7080347537994385,3.4099278450012207,1.3364927768707275,0.34262123703956604,0.287004292011261,0.08762264251708984
20,0.8511324724148895,0.016165903147614884,1.5136586269717764,0.7519291043281555,-0.016165198758244514,-0.6590458154678345,-0.2662426233291626,3.9608683586120605,1.5492703914642334,0.30698513984680176,0.40849918127059937,-0.588192343711853
21,1.1213299986205159,0.07482564228711966,1.6513906303105215,0.8981589078903198,-0.07475584000349045,-0.4332691729068756,-1.533668041229248,2.48637056350708,0.6481971144676208,-0.07957065105438232,0.031893908977508545,0.20009958744049072
22,1.2103616335710767,0.03497086119064623,1.8105194346265305,0.9351714253425598,-0.034963734447956085,-0.35246536135673523,-1.3415577411651611,-0.5634622573852539,0.08613204210996628,-0.6021331548690796,-0.009897109121084213,0.2854030430316925
23,1.18894268871698,-0.019959046149620945,1.901221906458555,0.9277907013893127,0.01995772123336792,-0.3725670278072357,-0.7263150215148926,0.22455541789531708,-0.3858506381511688,-0.35380083322525024,-0.17613142728805542,0.2175072431564331
24,1.2709143790417856,-0.002458467856680438,1.9257568466286699,0.9553685784339905,0.0024584652855992317,-0.2954065501689911,0.20233064889907837,-0.06539293378591537,0.71552973985672,0.6832271218299866,-0.14912596344947815,0.2514917552471161
25,1.2213523503243107,0.0274748792706075,1.9613115396196088,0.9392087459564209,-0.027471423149108887,-0.34224626421928406,-0.4746762812137604,-0.19513489305973053,0.34576770663261414,0.5529941320419312,0.05740916356444359,-0.2630546987056732
26,1.1693399936053006,0.07344668401198308,2.0804529773242337,0.9180111885070801,-0.07338067144155502,-0.3897058069705963,-0.5926002264022827,0.4766930043697357,1.198892593383789,-0.22144752740859985,0.22799798846244812,0.2080194056034088
27,1.322772887208522,0.18823368542393693,2.081640411800041,0.952276349067688,-0.1871240735054016,-0.24115212261676788,1.106014609336853,1.7642468214035034,0.6824033856391907,-0.7177640199661255,0.2331598401069641,0.22183454036712646
28,1.3251109927648212,0.19032592917125826,2.033307779798039,0.9524556398391724,-0.1891789436340332,-0.23882916569709778,0.5037524104118347,-1.0949053764343262,-0.06336499750614166,-0.017565011978149414,0.21267753839492798,0.03158429265022278
29,1.422658205636159,0.19354120684222645,2.029457272245603,0.9705814123153687,-0.19233518838882446,-0.14484116435050964,-1.2213575839996338,1.6466693878173828,0.7291312217712402,0.9146724939346313,-0.48538389801979065,0.35896772146224976
30,1.6221185081058875,0.22973886205678867,2.126460391229963,0.972443699836731,-0.22772325575351715,0.04995179548859596,-0.7239174842834473,0.47200292348861694,0.3301960825920105,0.152754545211792,0.49382132291793823,-0.29052186012268066
31,1.6270718082498146,0.2383764614801646,2.1226870610950095,0.9701843857765198,-0.23612530529499054,0.054655302315950394,0.248066708445549,-0.133235901594162,-0.08621250838041306,-0.4239960312843323,0.16497355699539185,-0.04864335060119629
32,1.6213954279214946,0.23140815234584192,2.073025705297597,0.9720985293388367,-0.22934836149215698,0.04922933131456375,0.4263617694377899,-0.2555837631225586,-0.03125513345003128,-0.7462380528450012,0.03527189791202545,-0.03487087041139603
33,1.5286011238667399,0.23643105760432484,2.0764025054616937,0.9713148474693298,-0.23423446714878082,-0.041009169071912766,-1.1310838460922241,-1.127837061882019,0.5975699424743652,0.5586991906166077,-0.5659974813461304,0.6809933185577393
34,1.5277397895954912,0.30740837739024734,2.0802140983329034,0.952237606048584,-0.3025895357131958,-0.04102540761232376,0.8866913914680481,1.0746738910675049,0.39462122321128845,0.7478508353233337,-0.1823652684688568,-0.04387449845671654
35,1.5958873405524134,0.3204988150037017,2.044387321849134,0.9487794637680054,-0.3150400221347809,0.02381083555519581,0.2763395607471466,-0.4822613000869751,-0.1258632242679596,-0.0429416298866272,0.20964762568473816,-0.33414411544799805
36,1.5815576440940773,0.29869841971074157,1.9955838434057955,0.955665111541748,-0.29427650570869446,0.010284611955285072,0.4759555459022522,-0.28651654720306396,-0.17077971994876862,-0.569205641746521,0.31000831723213196,-0.0563662052154541
37,1.532665521501837,0.26913923880957746,1.9257165320564162,0.9632993936538696,-0.2659017741680145,-0.03674919530749321,0.15883617103099823,-0.8895393013954163,-0.4711821675300598,-0.43961775302886963,0.020601511001586914,0.25485825538635254
38,1.5047788808124873,0.22133600845005563,1.9229875602663629,0.9734798669815063,-0.21953323483467102,-0.06436018645763397,-0.624203622341156,0.30044832825660706,-0.23261287808418274,0.7257541418075562,-0.421549528837204,0.5244889259338379
39,1.5584013756397008,0.19694359314318552,1.9947632284941272,0.9805939793586731,-0.1956729292869568,-0.012155037373304367,-0.33595776557922363,1.0860728025436401,0.06155300512909889,0.2845275402069092,-0.1469784379005432,-0.29414987564086914
40,1.6191398304896198,0.20852336617243214,2.004150780731469,0.977194607257843,-0.2070154845714569,0.04727784916758537,0.18920910358428955,0.27893128991127014,-0.06466498970985413,0.03910171985626221,0.3683619201183319,-0.02246701717376709
41,1.6376562020170724,0.19026478355672005,1.9592563368388538,0.9797602891921997,-0.1891189068555832,0.06560443341732025,0.16664162278175354,0.27091479301452637,-0.14251358807086945,-0.4706507921218872,0.0478072464466095,0.047463178634643555
42,1.6352230881721,0.17897128314517202,1.9749191080608866,0.9819859266281128,-0.17801737785339355,0.06335385143756866,-0.00023023877292871475,-0.4197007119655609,-0.058012597262859344,-0.5187747478485107,-0.03494955599308014,-0.0901939794421196
43,1.563467716596184,0.19389947755439854,2.0180878796303086,0.9812340140342712,-0.1926867514848709,-0.007191210053861141,-0.8752090334892273,-0.5751011371612549,0.5379357933998108,0.591535210609436,-0.2578900158405304,0.41141176223754883
44,1.5698608824121858,0.2427691220025417,2.0078712078788805,0.9706756472587585,-0.24039146304130554,-0.0009080133750103414,0.9990696907043457,0.5701361298561096,0.2576454281806946,0.586834728717804,-0.14452672004699707,-0.1075667142868042
45,1.629817698233479,0.24535209970113808,1.9263369852775918,0.9683628678321838,-0.2428978979587555,0.05722056329250336,0.7979414463043213,-0.13055044412612915,-0.07944945991039276,-0.06598854064941406,0.025444865226745605,-0.28474438190460205
46,1.6139000377761894,0.21703052521839752,1.8145855749508137,0.9756343364715576,-0.21533076465129852,0.04207952320575714,1.080122947692871,-0.487011581659317,-0.13025641441345215,-0.43342840671539307,0.07925286889076233,-0.04043149575591087
47,1.5737648681462855,0.2006998357765884,1.7355118050547185,0.9799228310585022,-0.19935517013072968,0.002908949973061681,0.34489065408706665,-0.39109542965888977,-0.2018665224313736,-0.4934728145599365,0.06532198190689087,0.25800108909606934
48,1.5221902556749773,0.18191484346137435,1.7217565819476157,0.9823375940322876,-0.18091315031051636,-0.047785207629203796,-0.1924176812171936,-0.12364684045314789,0.11127933859825134,0.4043506383895874,-0.23494985699653625,0.4419502019882202
49,1.5913577199566928,0.2656223550027573,1.832132642748652,0.9647253155708313,-0.26250985264778137,0.019838891923427582,-1.267648696899414,0.8029851913452148,0.696864664554596,0.6696282625198364,-0.23169174790382385,-0.16511774063110352
50,1.6422146113845064,0.4995068910855833,1.978142669995918,0.8755812048912048,-0.4789927303791046,0.06263904273509979,-0.6043990254402161,0.9149538278579712,5.268482208251953,0.40965133905410767,0.5321086049079895,-0.1848008632659912
51,1.8381895327837796,0.9519892977794358,1.8654129669780533,0.5594499707221985,-0.8145710229873657,0.1532633751630783,-0.06402115523815155,0.563387930393219,1.845106601715088,-0.20868098735809326,0.5055501461029053,-0.2917673587799072
52,1.8055227736827264,1.0436332247511142,1.8261047773921575,0.48928821086883545,-0.8642377257347107,0.11700568348169327,0.06729958951473236,-0.6520566940307617,-0.19895115494728088,-0.10585001111030579,0.2725933790206909,0.14745964109897614
53,1.6237119048216644,0.995108752048925,1.844023909553429,0.5436497330665588,-0.8388181924819946,0.028794419020414352,0.05165037885308266,-2.8251404762268066,-0.9264423251152039,0.017293930053710938,-0.14483964443206787,0.10604751110076904
54,1.587324463155458,0.9931138354788284,1.7573047478029686,0.5460094809532166,-0.8377304673194885,0.009025340899825096,0.733503520488739,-0.108364038169384,0.20270629227161407,0.09960514307022095,-0.349494993686676,0.39534783363342285
55,1.700103029798904,1.0048570216048887,1.6198871925027891,0.531732439994812,-0.8440853357315063,0.06914235651493073,0.793975830078125,-0.4896334111690521,0.369883269071579,0.1733609437942505,-0.030792593955993652,-0.29707813262939453
56,1.7601681570205092,0.9999122674849477,1.4674294199078728,0.5307158827781677,-0.8414235711097717,0.10172151774168015,0.4828176200389862,-1.1080496311187744,-0.3345378041267395,-0.15557843446731567,0.18462419509887695,-0.26605868339538574
57,1.555940133098858,0.9813919531796027,1.5350575040200687,0.5558047890663147,-0.8312718868255615,-0.008257751353085041,-0.636497437953949,-1.0016697645187378,-0.47063949704170227,-0.20804166793823242,0.49333542585372925,0.25746428966522217
58,1.5337646967860306,0.9433925596899134,1.5563192950029696,0.586642324924469,-0.8095543384552002,-0.02173425815999508,-0.410476416349411,0.5021787881851196,0.07520472258329391,-0.0002776980400085449,0.06822139024734497,0.31632041931152344
59,1.621378769345804,1.0761632947736592,1.5605888278680793,0.47410157322883606,-0.8801429867744446,0.02400168962776661,-0.09971810132265091,1.0772569179534912,2.2442731857299805,0.28776973485946655,-0.5747673511505127,0.37564122676849365
60,1.8065823334335072,1.3948859915465148,1.3938927757410113,0.170162633061409,-0.9845676422119141,0.040882408618927,0.592636227607727,0.34578490257263184,4.170517444610596,-0.030773580074310303,0.1884554624557495,-0.22414052486419678
61,-2.628666761888609,1.3083790920886453,-0.5508662609493635,-0.1273030787706375,-0.9657657146453857,0.22603273391723633,1.3339554071426392,-1.6450307369232178,0.967768669128418,0.4838399291038513,0.3129793405532837,0.00576356053352356
62,-2.788429417784687,1.3222735264021293,-0.49568442597608914,-0.08507378399372101,-0.9692768454551697,0.23079156875610352,-0.7255081534385681,-0.7158025503158569,0.24065294861793518,-0.1004120483994484,0.29190874099731445,-0.03529609739780426
63,-2.6825571497338263,1.3413286524519534,-0.7548997606293281,-0.10078329592943192,-0.9737876057624817,0.20391236245632172,-0.2584345042705536,-1.968026041984558,0.6496192216873169,0.02746482938528061,0.17547839879989624,-0.0394836962223053
64,-2.511145983378777,1.3360149263190813,-1.1694797008885656,-0.13713692128658295,-0.972565233707428,0.1879105120897293,-0.2715334892272949,-2.745424270629883,0.9211191534996033,0.06522224843502045,-0.10920661687850952,-0.05299234390258789
65,-2.525891867692224,1.3155813895768498,-1.4977511839486353,-0.14579960703849792,-0.9676090478897095,0.2060951143503189,-0.19025811553001404,-3.3873355388641357,0.4123789668083191,0.1635303646326065,-0.25471144914627075,-0.1718543916940689
66,-2.518297278804838,1.3377064875911815,-1.869853331851283,-0.1348291039466858,-0.9729573130607605,0.18755030632019043,-0.7472318410873413,-3.1131181716918945,0.7635350823402405,-0.1455358862876892,-0.11708474159240723,-0.29246973991394043
67,-2.444669347130448,1.332339493380118,-2.2215036977248834,-0.15160979330539703,-0.9717036485671997,0.18112556636333466,-0.38866791129112244,-1.8738449811935425,0.5960226058959961,-0.10838472843170166,0.1480189561843872,0.021053314208984375
68,-2.3844148820809923,1.30068662539392,-2.4910429194730836,-0.1832829862833023,-0.9637416005134583,0.19393093883991241,0.12104474753141403,-1.9812098741531372,0.6285890340805054,0.016763851046562195,0.19298982620239258,-0.04469993710517883
69,-2.4351267448246166,1.2525841113277463,-2.6184240314183422,-0.20309852063655853,-0.9497962594032288,0.23798686265945435,-0.21543468534946442,-1.5805445909500122,0.533477783203125,-0.08098959922790527,-0.24057215452194214,-0.07775430381298065
70,-2.481368572484146,1.2329957778738796,-2.733812703995589,-0.20325317978858948,-0.9434858560562134,0.2617676556110382,-0.042160049080848694,-1.2391413450241089,0.30003243684768677,0.06252142786979675,0.06674647331237793,-0.16046467423439026
71,-2.519506370263184,1.2403301356394814,-2.7966862119556173,-0.18908730149269104,-0.9458912014961243,0.2636968195438385,-0.48403677344322205,-0.6355728507041931,-0.015347287058830261,0.17005959153175354,0.06687808036804199,-0.1354771852493286
72,-2.5122083443597587,1.2794348241061868,-2.8802384275712805,-0.16909293830394745,-0.9578536748886108,0.23221559822559357,-0.3483990728855133,-0.6175342202186584,-0.1033318042755127,0.11539727449417114,-0.03773653507232666,0.1052020788192749
73,-2.4705076859876995,1.3203854426190755,-2.9282422158858803,-0.15409250557422638,-0.9688106775283813,0.1940658688545227,-0.24909937381744385,0.05779925733804703,-0.1924704760313034,0.23038645088672638,-0.0778965950012207,0.2128554880619049
74,-2.6072778962882537,1.3138936655793159,-2.7811469867258656,-0.12939369678497314,-0.9671816229820251,0.2186710089445114,0.27200937271118164,0.14899155497550964,-0.2128615826368332,0.040282368659973145,0.011294782161712646,-0.013119816780090332
75,-2.689432050142386,1.3012941339649005,-2.66506137367836,-0.11632808297872543,-0.963903546333313,0.23949488997459412,0.24572809040546417,0.4987001121044159,-0.1970110386610031,0.16660580039024353,0.03601658344268799,-0.003990769386291504
76,-2.722041888595407,1.292654563138566,-2.566408706381308,-0.1118457242846489,-0.9615673422813416,0.2507561445236206,0.14921730756759644,0.8625556230545044,-0.17402704060077667,0.16371037065982819,-0.002849102020263672,0.024527639150619507
77,-2.7016540535839626,1.2850116541097456,-2.4803054707105052,-0.12006095051765442,-0.9594407677650452,0.2550659477710724,0.21592216193675995,1.2030781507492065,-0.20535719394683838,0.1718035191297531,0.007384002208709717,0.006195038557052612
78,-2.6710648476838807,1.272828490476856,-2.367879503692168,-0.13309559226036072,-0.9559350609779358,0.2616746425628662,0.3192995488643646,1.4306987524032593,-0.2624240219593048,0.18421253561973572,-0.026578307151794434,-0.001588582992553711
79,-2.648584595223919,1.2554494003502723,-2.2331570045488394,-0.14678522944450378,-0.9506888389587402,0.27321168780326843,0.36217400431632996,1.572921872138977,-0.2790549099445343,0.18178890645503998,0.005757927894592285,0.009793013334274292
80,-2.620901695237821,1.2406405385509218,-2.1088421081649242,-0.16127799451351166,-0.9459918737411499,0.2812270522117615,0.31216299533843994,1.6355044841766357,-0.34397202730178833,0.14347101747989655,-0.04505115747451782,-0.019874602556228638
81,-2.6009746271156677,1.2367475500655882,-1.9734238180908803,-0.16874393820762634,-0.944722592830658,0.2811133861541748,0.2377731204032898,1.289113163948059,-0.35823962092399597,0.05302131175994873,0.07153844833374023,-0.0816504955291748
82,-2.621003943250074,1.2366676350674524,-1.8390895356205748,-0.16311772167682648,-0.9446964263916016,0.28450247645378113,0.23375782370567322,0.8737284541130066,-0.33231326937675476,-0.09986753761768341,-0.04886460304260254,-0.20797961950302124
83,-2.5854295381138064,1.243523219956966,-1.7739223174998977,-0.1697099655866623,-0.9469224810600281,0.2730135917663574,-0.14884862303733826,0.9918636083602905,-0.03730866685509682,-0.1572096049785614,-0.12200146913528442,-0.07524442672729492
84,-2.4828089306945182,1.2540358271310514,-1.8035384498685758,-0.19068029522895813,-0.9502494931221008,0.24630673229694366,-0.05324944853782654,0.5465492010116577,-0.0030763079412281513,0.0019443482160568237,0.23395615816116333,-0.11903311312198639
85,-2.434984425786234,1.2557585273051606,-1.8054652522713985,-0.20117402076721191,-0.9507846832275391,0.23566384613513947,-0.11360173672437668,0.4185057580471039,-0.08475659787654877,-0.061261892318725586,-0.16905784606933594,0.07764482498168945
86,-2.372057218853175,1.2772352474241577,-1.8429950912076778,-0.2013389766216278,-0.9572194814682007,0.20783007144927979,-0.1328536719083786,0.155634805560112,-0.08978971838951111,0.024825334548950195,-0.017893314361572266,0.08957895636558533
87,-2.4101716995080906,1.288812769232733,-1.7987005325545888,-0.18585869669914246,-0.9605053663253784,0.20708957314491272,0.14981424808502197,0.05956553295254707,-0.2239307463169098,0.041861534118652344,0.028712153434753418,0.08426165580749512
88,-2.510619474592992,1.2871207094844093,-1.684825740320955,-0.1651134490966797,-0.9600331783294678,0.22599509358406067,0.1984710991382599,0.20334352552890778,-0.14998577535152435,-0.05943484604358673,0.002513706684112549,0.10435770452022552
89,-2.5770888515326553,1.2638972212577753,-1.5869022679033833,-0.16162465512752533,-0.9532749652862549,0.25523385405540466,0.6606703996658325,0.4275881052017212,-0.04926228150725365,-0.04150034487247467,-0.13318133354187012,0.0028837621212005615
90,-2.5940021087997276,1.2383630390870326,-1.5238686998276687,-0.1699049025774002,-0.9452510476112366,0.27862629294395447,0.30216506123542786,0.2716078758239746,0.009647367522120476,0.1670057624578476,0.19482392072677612,-0.1765449345111847
91,-2.5842026494330654,1.2358812327766844,-1.51006325258986,-0.1738673746585846,-0.9444382190704346,0.27893778681755066,-0.8730754256248474,0.5740026235580444,0.06649074703454971,0.14225119352340698,-0.3836866021156311,0.05228465795516968
92,-2.0140380863221754,1.2763883698218808,-2.0910262043288403,-0.26213279366493225,-0.9569740891456604,0.12444671988487244,-1.5663480758666992,-0.5665948390960693,1.5724749565124512,0.10894984006881714,0.2543526887893677,0.013111233711242676
93,-1.5955702779858705,1.2971512388644408,-2.5608116499741436,-0.27016010880470276,-0.9627922177314758,0.006694302894175053,-0.32011404633522034,-1.0904909372329712,-1.5271601676940918,-0.02401408553123474,0.6794975399971008,-0.33954954147338867
94,-1.417567878062253,1.3339731666017505,-2.9330070470868073,-0.23186688125133514,-0.9720882177352905,-0.03580929711461067,-1.2162235975265503,-1.9412380456924438,0.5141123533248901,-0.15320393443107605,-0.0032383203506469727,-0.19719243049621582
95,-1.2245810921105196,1.2952910402659543,2.8843809750452816,-0.25589197874069214,-0.9622878432273865,-0.09231182932853699,-1.4363813400268555,-2.8189473152160645,-0.12265223264694214,0.19117939472198486,-0.0079728364944458,-0.111362524330616
96,-1.2348578053826778,1.2975987562283953,2.629794224853573,-0.2547297775745392,-0.9629130959510803,-0.0889449417591095,-0.1921403855085373,-2.30788516998291,-0.26177752017974854,-0.006256550550460815,0.03469043970108032,0.05609273910522461
97,-1.4025577031919614,1.3271394691415221,2.564534862713288,-0.23784653842449188,-0.9704622626304626,-0.04039682820439339,0.07744150608778,-2.4744174480438232,-0.41158902645111084,-0.09981518983840942,0.12161588668823242,-0.1818474531173706
98,-1.609742717130817,1.3649180893348063,2.512156900473871,-0.20427164435386658,-0.9788818359375,0.007959667593240738,-0.2002396285533905,-2.223930597305298,-0.28691646456718445,-0.14706198871135712,0.09887701272964478,-0.18076550960540771
99,-1.7763266004212663,1.389201682943725,2.4771355874378953,-0.17679671943187714,-0.9835569262504578,0.03685753419995308,0.0006247032433748245,-2.3003740310668945,-0.2551714777946472,-0.012274935841560364,-0.020166099071502686,-0.1385115385055542
100,-1.9992064576207877,1.4165334091277513,2.500863925757628,-0.13976621627807617,-0.9881250262260437,0.06383097171783447,-0.06718305498361588,-1.5704177618026733,-0.20354753732681274,0.08004330098628998,0.0477258563041687,-0.22490274906158447
101,-2.092192091774717,1.4615827790199962,2.4398831140754846,-0.09451375156641006,-0.9940420985221863,0.054290276020765305,-0.7871828079223633,-1.5752424001693726,-0.4979279339313507,0.29113849997520447,-0.12720423936843872,0.2928471565246582
102,-2.757224095731128,1.5052232479243988,2.9872536666141,-0.024570902809500694,-0.9978508353233337,0.06074582785367966,0.3645576536655426,-1.627302885055542,-0.6096936464309692,-0.09695009142160416,0.17071765661239624,-0.08470213413238525
103,3.0604812032623165,1.5172389736920888,-2.927551674343448,0.004337265621870756,-0.9985661506652832,0.05335559695959091,-0.26543956995010376,-1.1499276161193848,0.06536424160003662,-0.05113597214221954,0.0317387580871582,0.03726625442504883
104,-3.025276362733412,1.4724914297024658,3.07034365164143,-0.01139039732515812,-0.9951719641685486,0.0974840447306633,0.7569879293441772,-0.9105134606361389,0.5824929475784302,-0.07799558341503143,0.24993270635604858,-0.05326414108276367
105,-2.8568848211531095,1.3874616156951047,2.765578260709269,-0.05120636150240898,-0.9832412004470825,0.17496973276138306,0.10266632586717606,-0.7158254384994507,-0.1561713069677353,-0.23076079785823822,-0.5725600719451904,-0.15714754164218903
106,-3.084854227413403,1.4237663230252073,2.874661209684262,-0.008307701908051968,-0.9892105460166931,0.1462639421224594,-0.4295051693916321,-1.3721367120742798,-0.7652549147605896,0.04936910420656204,-0.04914987087249756,0.228980153799057
107,2.6443824726595095,1.4328067056799425,-2.9330144578500184,0.0656094178557396,-0.9904945492744446,0.12089766561985016,-0.12127867341041565,-0.722672164440155,-0.6283407211303711,-0.080105260014534,0.33921873569488525,-0.014986500144004822
108,2.3983794756207,1.399075300858604,-2.6773617120627877,0.11562652140855789,-0.9852921366691589,0.1258178949356079,0.412733256816864,0.35801318287849426,-0.2843376696109772,0.053013622760772705,-0.043501317501068115,0.025503531098365784
109,2.574177589631662,1.3634881706868787,-2.7515006277664664,0.11062224954366684,-0.9785885214805603,0.17357201874256134,-0.3831814229488373,0.9765781164169312,0.26133039593696594,0.30699557065963745,-0.1876712441444397,-0.20582914352416992
110,2.6986765593710484,1.363203779316394,-2.782303888807028,0.08833148330450058,-0.9785299301147461,0.18621668219566345,0.17342257499694824,1.2880799770355225,-0.05393974483013153,0.04153606295585632,0.01573091745376587,-0.13128508627414703
111,2.8980895555023145,1.390980979734407,-2.8385076850322326,0.04312089458107948,-0.9838767051696777,0.17357167601585388,-0.11323443800210953,1.6544195413589478,0.40646180510520935,0.04661603644490242,0.286382257938385,-0.020663395524024963
112,-2.8695819660695006,1.4102764631516094,3.0919240979137825,-0.04294157400727272,-0.9871443510055542,0.1539543718099594,-0.07670566439628601,1.9418491125106812,0.9636058807373047,0.06880521774291992,-0.038322508335113525,0.2372046560049057
113,-2.1472890702058955,1.3290833838412393,2.5568209887494544,-0.2006794661283493,-0.9709293842315674,0.13047519326210022,0.4013824462890625,1.6615550518035889,1.1835970878601074,0.2855183780193329,-0.11975347995758057,-0.052380695939064026
114,-1.9948730400320847,1.292297216198858,2.637895406771696,-0.25056031346321106,-0.9614691138267517,0.11312077194452286,0.4072984457015991,1.9001364707946777,-0.4262569844722748,0.48690375685691833,-0.11056745052337646,-0.5888898372650146
115,-2.076134329025987,1.3608720201403004,2.9250231266132336,-0.18233996629714966,-0.978046715259552,0.10088030248880386,0.10980109870433807,2.0588839054107666,-1.1373567581176758,0.18415576219558716,0.106617271900177,-0.19273817539215088
116,-2.6257856186668893,1.4417023288964226,-2.598248407111721,-0.06349717080593109,-0.9916789531707764,0.11198645085096359,0.4444262683391571,2.300213098526001,-1.5634597539901733,0.1220298781991005,0.11690783500671387,-0.10777498036623001
117,2.7288270215294093,1.4333625636047267,-1.4740449821525166,0.054957468062639236,-0.9905708432197571,0.12549565732479095,-0.045215122401714325,1.595481038093567,-1.0389986038208008,-0.14248189330101013,0.09988480806350708,-0.11280035972595215
118,2.5325956368845204,1.417743370012999,-1.092181617428611,0.08721133321523666,-0.9883102178573608,0.12504726648330688,-0.17053209245204926,2.3221330642700195,-0.1417447179555893,-0.046882376074790955,0.22448593378067017,-0.1222091019153595
119,2.8830542185057952,1.4683856252977308,-1.2009400787995967,0.026137249544262886,-0.9947606325149536,0.0988335832953453,-1.5778928995132446,1.9491349458694458,0.8141310811042786,0.7731181383132935,-0.6030328869819641,0.4332098960876465
120,-3.053310714163507,1.4695084342822187,-1.376456887346469,-0.008914927020668983,-0.9948747754096985,0.10071998089551926,-0.3390035927295685,1.1548256874084473,0.23162895441055298,-0.033199310302734375,0.43242067098617554,-0.04832138121128082
121,-2.195203028298941,1.5133941039019132,-2.123337286110916,-0.04654562100768089,-0.9983529448509216,0.033539969474077225,-0.4014509916305542,1.3047527074813843,0.3547472655773163,-0.08751809597015381,0.35838407278060913,0.284498929977417
122,-1.48355412485772,1.4563499991679525,-2.7299424862419204,-0.1137615293264389,-0.9934581518173218,-0.009950063191354275,-0.4474024474620819,0.552467405796051,0.8680263757705688,0.2093883603811264,-0.47175168991088867,0.45239394903182983
123,-1.760905775184253,1.429708766485749,-2.355601487265917,-0.13808587193489075,-0.9900636672973633,0.026572324335575104,0.1262085735797882,0.5883313417434692,-0.1346759796142578,0.5334716439247131,-0.43396270275115967,-0.05925667658448219
124,-1.8712833834142923,1.4827369574341638,-2.2025683417466633,-0.08400526642799377,-0.9961252808570862,0.026030711829662323,-0.3497469425201416,0.4042856991291046,-0.6268268823623657,0.10815992951393127,0.22677713632583618,-0.15061867237091064
125,-1.0474922053398767,1.511919643267353,-2.9867159681369575,-0.05096672475337982,-0.9982672929763794,-0.029405631124973297,-0.31849566102027893,0.5068508982658386,-0.3357245624065399,0.046831581741571426,0.6284400820732117,0.2162952423095703
126,-0.015942201104237642,1.5023134958148465,2.3405992568398086,-0.00109084602445364,-0.997655987739563,-0.06841925531625748,-0.4845122694969177,0.8137490153312683,-0.5131891965866089,-0.07575240731239319,0.05003952980041504,0.1993701457977295
127,0.876068655568063,1.4899453874151707,1.5417584857901299,0.06204485520720482,-0.9967333674430847,-0.05170293152332306,0.6099904775619507,1.2603760957717896,-0.37523403763771057,0.004407167434692383,-0.6232923269271851,0.46834415197372437
128,2.5179344553217153,1.5097691616376767,0.07756467246493928,0.03561849147081375,-0.998138427734375,0.04950821027159691,0.4092099666595459,1.7302013635635376,0.7198764085769653,0.5451615452766418,-0.211334228515625,-0.3447505235671997
129,2.997392644749193,1.5101543402873574,-0.3837411517174027,0.008708653971552849,-0.9981618523597717,0.05997370183467865,0.016514664515852928,-0.4594533443450928,0.03230831027030945,-0.025249198079109192,0.4760367274284363,-0.05756283551454544
130,-3.1036547803900607,1.5103982978306159,-0.6096166427607123,-0.0022894281428307295,-0.9981765747070312,0.06031781807541847,-0.2651301622390747,-0.6212250590324402,0.31698012351989746,-0.14701780676841736,0.671394407749176,-0.0870511531829834
131,-2.1357319024376733,1.5176470768492356,-1.6390580587448724,-0.04487117752432823,-0.9985879063606262,0.02844144031405449,0.05784580484032631,-0.07258770614862442,0.910413384437561,-0.15713992714881897,-0.683769941329956,0.7138071060180664
132,-2.2038970343059257,1.4310086750871116,-1.53837471230901,-0.11233001202344894,-0.9902455806732178,0.08243613690137863,1.5895767211914062,0.8104374408721924,0.08760220557451248,0.06325775384902954,-0.9235117435455322,-0.06566667556762695
133,-2.4017201155341765,1.4175887755452905,-1.2967068929268732,-0.10288811475038528,-0.9882866740226746,0.1127101480960846,-0.5026026368141174,-0.18747729063034058,-0.3566751480102539,0.3024883270263672,0.26372307538986206,-0.3959895372390747
134,-1.9051226162435602,1.4933534620118176,-1.889557693626464,-0.07308089733123779,-0.9970027804374695,0.025385813787579536,-1.3184080123901367,-1.4167907238006592,0.032025206834077835,0.2364262342453003,0.806359589099884,0.11780261993408203
135,-0.4116152375799004,1.4827815049559523,2.8458887196192113,-0.03516819328069687,-0.9961292147636414,-0.08055882900953293,-0.3748560845851898,0.3434928357601166,-0.367191880941391,0.06840184330940247,0.22606396675109863,0.583595335483551
136,0.4797676763179578,1.492223469649737,2.067913676969813,0.036230236291885376,-0.9969147443771362,-0.06963127106428146,-0.28091302514076233,1.4449012279510498,-0.6334325075149536,-0.07961097359657288,-0.32831108570098877,0.5491539239883423
137,1.4347942265200475,1.4926051198820875,1.2816708873777016,0.07739081233739853,-0.9969446063041687,-0.010590690188109875,0.5944913625717163,1.510937213897705,-0.26305100321769714,0.26178157329559326,-0.19136404991149902,-0.19990432262420654
138,1.1311303204896248,1.4866378146418877,1.6975677212133613,0.07606437057256699,-0.9964607357978821,-0.03577859327197075,-0.5006074905395508,0.7653579711914062,-0.3603043258190155,-0.012252114713191986,-0.5389243364334106,0.38729530572891235
139,0.9875686812730453,1.4902667716710363,1.9927743477065343,0.06714537739753723,-0.9967592358589172,-0.04430193826556206,0.0761997252702713,0.7834105491638184,0.5615699291229248,-0.5735387802124023,0.8898866772651672,-0.06801801919937134
140,0.23876023772979174,1.481512433350326,2.74835565179642,0.021087532863020897,-0.9960168600082397,-0.0866362601518631,-0.49527910351753235,-0.4068649709224701,0.45569196343421936,-0.32163989543914795,1.1279901266098022,0.004849135875701904
141,-3.118388793443804,1.5271557656283146,-0.3705504430881686,-0.001012252876535058,-0.9990478754043579,0.04361650347709656,-0.4543711245059967,-2.108074903488159,0.02978361025452614,-0.24125152826309204,-2.7830872535705566,0.7427757978439331
142,-0.5842631754221708,1.443068517837003,-3.1197636530096164,-0.07026126980781555,-0.9918538928031921,-0.10625062882900238,-0.4973706007003784,-2.4190378189086914,-0.03902744501829147,0.35151126980781555,0.6022665500640869,0.4660986661911011
143,-0.9257206206740518,1.502732168423587,-2.845279743642695,-0.05434487387537956,-0.9976845383644104,-0.04089251905679703,0.9344305396080017,0.8349665999412537,0.1289585530757904,0.31740638613700867,0.9424629807472229,0.09728896617889404
144,-2.8992635830922198,1.4413982352535812,-0.6427336013085715,-0.030964601784944534,-0.9916397333145142,0.1252680867910385,1.4709618091583252,3.0318825244903564,-1.536729335784912,0.8113601207733154,-1.884596347808838,-0.05916701257228851
145,2.4619787025995814,1.4848428533359965,0.4232801204307565,0.053955476731061935,-0.9963082671165466,0.06677467375993729,0.24652814865112305,1.4833765029907227,-0.8542270064353943,-0.5024722814559937,0.16584861278533936,-0.08204876631498337
146,2.2458747155987213,1.4864237075170348,0.6146844251730038,0.0657893568277359,-0.9964427351951599,0.052667904645204544,-0.6846611499786377,-0.49807974696159363,0.8984741568565369,-0.5465022325515747,0.9241464734077454,0.22421813011169434
147,3.0945993561654297,1.4567024625512228,-0.2924561900341979,0.005348043981939554,-0.9934983253479004,0.1137206181883812,2.193147897720337,-3.1390812397003174,-0.5697765350341797,-0.3682173192501068,-0.25880569219589233,-0.6952331066131592
148,2.8520169859786244,1.4564499246972826,-0.1901966940300685,0.03257999196648598,-0.9934695959091187,0.1093469113111496,-2.0648839473724365,-0.14715731143951416,0.8489507436752319,0.3008855879306793,-0.22146570682525635,-0.07463312894105911
149,0.9147505487171125,1.4865102965782133,1.5220141341662,0.06671026349067688,-0.9964500069618225,-0.05135277658700943,0.24934209883213043,-0.8316434025764465,-1.309985876083374,0.04126092046499252,1.1957603693008423,0.5206215381622314
150,2.122721021917792,1.4687923245484105,0.4170539698727793,0.08670805394649506,-0.9948021173477173,0.053391050547361374,1.1198843717575073,2.0235352516174316,-0.09559926390647888,0.33380889892578125,0.5473228693008423,-0.19088804721832275
151,2.2355809348478437,1.4126628685430962,0.5225120688300128,0.12394187599420547,-0.9875229597091675,0.09714566171169281,-1.3161981105804443,1.5454901456832886,-0.3683493137359619,0.056935831904411316,-0.6873124837875366,0.45822861790657043
152,2.194600238372563,1.3511282487975873,0.6815130408212079,0.17686563730239868,-0.9759698510169983,0.12728442251682281,-0.5358405113220215,-1.0248186588287354,0.43729567527770996,-0.5785227417945862,0.6178156137466431,-0.6500505208969116
153,2.1302132722426466,1.4082299926409947,0.6671162382773849,0.1371796578168869,-0.9868151545524597,0.08589334040880203,0.507480263710022,-0.39023876190185547,0.023699764162302017,-0.4018891453742981,0.9705035090446472,-0.2006394863128662
154,2.4620495614833824,1.3431599090915658,0.10438279183900255,0.14182281494140625,-0.9742025136947632,0.17554372549057007,-1.655822515487671,-1.863013505935669,0.770169198513031,0.36383819580078125,-2.1213021278381348,0.8621606826782227
155,1.578385511780732,1.5238636691394807,0.782312182680044,0.04691551998257637,-0.9988988637924194,0.00035605739685706794,-0.40092459321022034,-1.444050908088684,-0.1730339676141739,0.48804235458374023,1.028760313987732,0.6156412363052368
156,1.6329450370807692,1.4719872541734509,0.69378587229721,0.09845789521932602,-0.9951223731040955,0.006126921158283949,0.6836292743682861,1.1393492221832275,-0.8392853736877441,-0.09069114923477173,1.0621085166931152,0.07633161544799805
157,2.3425472540730667,1.3629149411237262,0.22761328242691573,0.14791545271873474,-0.9784703850746155,0.1439322829246521,2.121497631072998,2.6394307613372803,-1.4890358448028564,1.2934449911117554,-1.4570915699005127,-0.4035910367965698
158,2.0201926127411483,1.3072674151242765,0.7398538443939735,0.23462505638599396,-0.9654767513275146,0.11316217482089996,0.06405256688594818,1.5970648527145386,-0.7865642309188843,-0.39511698484420776,-0.04496026039123535,0.11915290355682373
159,1.8163707783087721,1.309487983329033,0.9282425925083249,0.2505941390991211,-0.9660528302192688,0.06280718743801117,-1.6046887636184692,-0.7334960103034973,0.4624525010585785,-0.9028920531272888,0.7389714121818542,0.09679973870515823
160,1.6455140375502395,1.393251739050731,1.0274504276248695,0.17611967027187347,-0.9842802882194519,0.01318380143493414,1.711479902267456,-1.1638484001159668,-0.03540968522429466,-0.27455413341522217,0.38940131664276123,0.0770719051361084
161,1.916175897169313,1.4061043684195738,0.5529024085341031,0.15426667034626007,-0.9864689111709595,0.055505335330963135,-1.1675461530685425,-0.6771547794342041,1.4412143230438232,0.21302762627601624,-0.7217830419540405,0.11635434627532959
162,1.1886604149474806,1.506721189361073,1.133723196046761,0.05941321700811386,-0.9979478716850281,-0.023877667263150215,-0.6888043880462646,-1.2027724981307983,-0.47127828001976013,0.47760459780693054,1.2790758609771729,0.13088756799697876
163,1.737899559234424,1.4728586581916803,0.6454270710001593,0.09641897678375244,-0.9952079653739929,0.016263583675026894,0.5874390006065369,2.1019413471221924,-0.20912039279937744,0.27784860134124756,1.0188286304473877,-0.15688860416412354
164,2.138368363453944,1.3670294374105778,0.4818209724242009,0.1706310659646988,-0.9793112874031067,0.10878556221723557,-1.9264620542526245,1.0671294927597046,-0.13257691264152527,0.6401752233505249,-1.5825629234313965,0.17173205316066742
165,2.194381988400039,1.3404167269365237,0.5889999464126119,0.18537020683288574,-0.9735797643661499,0.13334347307682037,0.06544741988182068,0.9898565411567688,-0.06294514983892441,-0.9012210369110107,0.3265613317489624,-0.5582244396209717
166,1.5864915259445584,1.4276343523419566,1.1780239987776382,0.14265576004981995,-0.9897698163986206,0.00223919446580112,-0.4192509055137634,-0.7748379707336426,0.5526843070983887,-0.42541638016700745,1.1443718671798706,0.18185806274414062
167,2.458567226635124,1.3434501917690669,0.11938923287007833,0.14225511252880096,-0.9742679595947266,0.1748298555612564,2.5412869453430176,-2.9557254314422607,-0.05972668528556824,-0.08170823752880096,-2.4766902923583984,-0.10643994808197021
168,2.2464665360886547,1.451822126910454,0.11379224390144743,0.09261476248502731,-0.9929308891296387,0.0742330551147461,-0.2818447947502136,-1.8749198913574219,0.6769503355026245,0.4555724859237671,0.3793445825576782,-0.09564114362001419
169,1.6532792013762996,1.4638902060255672,0.602032274710557,0.10634048283100128,-0.9942910075187683,0.008791214786469936,0.3432179391384125,0.38260459899902344,-0.23728932440280914,0.13683883845806122,1.0833868980407715,0.2920815944671631
170,2.347066556820833,1.3601918115310234,0.047435142550541105,0.14916448295116425,-0.977904736995697,0.14646592736244202,2.319331407546997,2.403186082839966,-1.7623800039291382,0.8651635050773621,-0.781891405582428,-0.33054792881011963
171,2.1850534517341362,1.3230784468484813,0.4278236673659892,0.20037201046943665,-0.9694744944572449,0.14131726324558258,-0.5836136937141418,0.9276776313781738,-0.30591315031051636,-0.052849993109703064,-0.24234813451766968,0.06852163374423981
172,2.0953688577987197,1.3373263153460455,0.581358338824547,0.20024646818637848,-0.9728694558143616,0.11587248742580414,-1.6157499551773071,0.6976504921913147,0.4742964506149292,-0.8787590265274048,0.6305995583534241,0.16931426525115967
173,1.7733321171453955,1.424454780136217,0.8514221452038452,0.1428401917219162,-0.989311158657074,0.02933243289589882,1.0137853622436523,-1.2990654706954956,0.2433350831270218,-0.4373653531074524,1.0302350521087646,0.21137487888336182
174,2.457591784057848,1.2809564188506861,-0.15370626823471897,0.1805959939956665,-0.958289623260498,0.22150862216949463,0.3832433521747589,-4.656029224395752,0.9495068192481995,0.2689584493637085,-2.6672749519348145,0.6754029989242554
175,1.8463225946356139,1.4426866123485735,0.3570014468273441,0.12294059246778488,-0.9918051958084106,0.034757379442453384,-1.2564384937286377,-0.20420905947685242,0.007582108955830336,0.292205274105072,0.7831870317459106,-0.12135100364685059
176,1.394229405144602,1.4258789036887383,0.8029589780455745,0.14216594398021698,-0.9895178079605103,-0.025365952402353287,0.5837053060531616,1.6362583637237549,0.08359979093074799,0.12680071592330933,1.0039831399917603,0.201330304145813
177,2.2255903227053433,1.3099731035434716,0.18843820527160496,0.20454095304012299,-0.9661779999732971,0.1570458561182022,-0.264796644449234,2.2573046684265137,-1.5873475074768066,0.7420075535774231,-2.14400577545166,-0.22270439565181732
178,2.1271970193474328,1.3347227527010548,0.40819423736319554,0.19860772788524628,-0.9722638130187988,0.12352342903614044,1.5056953430175781,1.0219894647598267,-0.2700234353542328,-0.7628929615020752,0.40970277786254883,-0.06077921390533447
179,1.9057206226781824,1.389386021627311,0.6400734810125958,0.17039182782173157,-0.9835902452468872,0.05930253118276596,-1.6335724592208862,-0.8467054963111877,1.0032942295074463,-0.509503185749054,0.906350314617157,0.10808634012937546
180,2.422292452510484,1.3441604605484887,-0.04581371372058061,0.14804613590240479,-0.9744278192520142,0.1690351366996765,5.045897483825684,-2.5151641368865967,-0.6423605680465698,-0.016378045082092285,-1.8289626836776733,-0.14517033100128174
181,2.2083492636911397,1.4070455256038492,-0.010916335076003291,0.13099513947963715,-0.9866227507591248,0.0970342829823494,-1.1168204545974731,-1.3694907426834106,0.9182058572769165,0.43809664249420166,0.2427874207496643,-0.3995397090911865
182,1.5485485385407645,1.4353168631425974,0.5094099987563128,0.1350322812795639,-0.9908366799354553,-0.0030046654865145683,0.27300605177879333,-0.13440287113189697,-0.2811107933521271,-0.008384332060813904,0.9752727150917053,0.12557852268218994
183,2.0865479792477677,1.3766912640836104,0.045133290161650165,0.1677982062101364,-0.9812206625938416,0.09513057768344879,2.800964593887329,1.644046425819397,-1.1903233528137207,0.9635952711105347,-0.9104418754577637,-0.2625042200088501
184,2.246224188781169,1.3719135902133048,0.15529431876950386,0.1541943997144699,-0.9802879095077515,0.12352931499481201,-1.0503783226013184,2.5309059619903564,-0.09699531644582748,0.1594957560300827,0.20578241348266602,0.011617764830589294
185,2.1649407351310446,1.3410734386447447,0.28495402669575426,0.18868499994277954,-0.9737295508384705,0.12747082114219666,-0.839212954044342,-1.5649892091751099,-0.2728115916252136,-0.7745004296302795,0.664571225643158,-0.25977981090545654
186,1.9569094832696947,1.3993571112747485,0.4179083452785887,0.1580410748720169,-0.9853402376174927,0.06424662470817566,1.1910208463668823,-0.16857174038887024,0.18530909717082977,-0.4849758744239807,0.673801600933075,0.019722461700439453
187,2.2254907164143063,1.3423738876928837,-0.09467991792285682,0.1796208620071411,-0.9740248322486877,0.13788385689258575,-2.378331422805786,-0.872965395450592,0.875137448310852,0.12027536332607269,-1.00487220287323,0.4797309637069702
188,1.505248838489983,1.4331770985998054,0.5451791926398405,0.13689053058624268,-0.990545392036438,-0.008985702879726887,-1.214493989944458,-0.978663980960846,-0.5610554814338684,0.3275412321090698,1.066503643989563,0.23109257221221924
189,1.3981049871902123,1.3925768256329003,0.7004831883020779,0.1746404767036438,-0.9841609001159668,-0.030462320894002914,0.027484597638249397,1.638503074645996,-0.2005538046360016,0.19857420027256012,0.9535060524940491,0.1332607865333557
190,2.186495442861873,1.2875871800917436,0.13304542867138977,0.22812515497207642,-0.9601636528968811,0.16138394176959991,-2.084609270095825,2.313087224960327,0.10445134341716766,0.2941526770591736,-1.8043627738952637,0.021614670753479004
191,1.942347843995891,1.327977438659954,0.512145157183167,0.2240329384803772,-0.9706640839576721,0.08729425072669983,0.8880091309547424,0.2846064865589142,-0.6639515161514282,-0.588290810585022,0.6375953555107117,-0.150923490524292
192,1.9367269152649735,1.3559636037352054,0.5274518647084917,0.1990695744752884,-0.9770120978355408,0.07628124952316284,-0.2631818652153015,0.6431873440742493,1.0477434396743774,-0.626315712928772,0.8623422980308533,-0.06279253959655762
193,2.342326775054088,1.31465542629562,-0.048326474080762995,0.18161170184612274,-0.967374861240387,0.17664320766925812,2.0949127674102783,-4.380532264709473,-0.11173354089260101,0.22956688702106476,-2.1164872646331787,-0.3930891752243042
194,1.9243649336450301,1.4203819740501762,0.1456254282520912,0.14057926833629608,-0.9887090921401978,0.05188470333814621,-1.493571162223816,-1.9867134094238281,0.6023358106613159,0.4920806288719177,0.0983738899230957,0.11689270287752151
195,1.1620012708760652,1.3774559838937952,0.7436395389983006,0.1763063222169876,-0.9813678860664368,-0.07637578994035721,0.24694941937923431,-0.5954575538635254,-0.18385262787342072,-0.012518450617790222,0.8912341594696045,0.3773096203804016
196,1.5724159975588232,1.4036975514866845,0.41449066991849864,0.16632190346717834,-0.9860714673995972,0.00026938694645650685,1.4360343217849731,1.1398524045944214,-0.2804395854473114,0.38528329133987427,0.44562041759490967,-0.28335046768188477
197,1.9270812760566203,1.3804720798751964,0.28590969414426953,0.177296444773674,-0.9819429516792297,0.06598395109176636,-1.7654539346694946,0.6114439368247986,0.13278445601463318,0.3979598879814148,-0.5945340394973755,-0.02051270753145218
198,1.925789195080716,1.348973036978208,0.3716705086443478,0.20629115402698517,-0.9754979610443115,0.07647151499986649,-0.5244515538215637,-0.06590166687965393,-0.26508060097694397,-0.641441285610199,0.5437352061271667,-0.37070679664611816
199,1.3915760435529065,1.4049926705497504,0.8251178226964366,0.1624012440443039,-0.9862860441207886,-0.029421275481581688,0.044850751757621765,-1.2699756622314453,0.7152761220932007,-0.4258442521095276,0.9759253859519958,0.055864810943603516
200,2.338463063341508,1.3223017653870968,-0.2667883500084483,0.17696548998355865,-0.9692837595939636,0.17079849541187286,3.609464406967163,-2.897373914718628,-0.6118383407592773,0.49686264991760254,-2.2692110538482666,-0.48139119148254395
201,1.6084882345275144,1.4097570832323265,0.2869104280870896,0.16023045778274536,-0.9870612025260925,0.006042253226041794,-2.23700213432312,-1.810369610786438,0.21015186607837677,0.5025350451469421,0.14775151014328003,0.0662691593170166
202,1.012847828178601,1.3335650902127658,0.7385104061500435,0.1993708610534668,-0.9719923734664917,-0.12442642450332642,0.3506178557872772,-0.15760046243667603,-0.3368585407733917,-0.16833452880382538,0.9090041518211365,0.45021677017211914
203,1.4735776558189813,1.3561446086952356,0.3840842158388565,0.21200136840343475,-0.9770506620407104,-0.020675670355558395,1.6341530084609985,1.3707093000411987,-0.3032097816467285,0.44749876856803894,0.02023303508758545,-0.3028717041015625
204,1.9652143892405884,1.3351289638490313,0.1331470737938024,0.21556414663791656,-0.972358763217926,0.08972402662038803,-1.3431380987167358,1.2938141822814941,0.431905061006546,0.25613075494766235,-0.3865736126899719,0.05682133883237839
205,2.0248761474912382,1.34500620751475,0.16392682617426704,0.2011897712945938,-0.9746175408363342,0.09820009022951126,-0.6117864847183228,-0.5373605489730835,0.13245704770088196,-0.6410701870918274,0.5725942850112915,-0.35674500465393066
206,1.5455576821726111,1.4237123033163759,0.5443268532201014,0.14650781452655792,-0.989202618598938,-0.0036984437610954046,-0.31000930070877075,-0.6861289739608765,0.7478870749473572,-0.3867269456386566,1.1540892124176025,0.1487179398536682
207,2.3016940501643433,1.3172596019528096,-0.4113472430221003,0.18676146864891052,-0.9680313467979431,0.16743828356266022,-0.7637869119644165,-2.965688943862915,0.5246739983558655,0.5959534049034119,-2.6076979637145996,0.618938684463501
208,1.5937358372137058,1.4279920502304966,0.21842902179127732,0.14228127896785736,-0.9898207783699036,0.0032644355669617653,-0.4617624282836914,-1.1023825407028198,0.2217520922422409,0.44434285163879395,0.5348648428916931,-0.1015462875366211
209,1.2742693811947103,1.385893731962192,0.4776281343630893,0.175827756524086,-0.9829541444778442,-0.05372152104973793,0.19388002157211304,1.0795743465423584,-0.16364192962646484,-0.1311194747686386,1.0649089813232422,0.26961809396743774
210,2.0607790467124953,1.343005110043424,-0.1133099215505905,0.19925528764724731,-0.9741675853729248,0.10627598315477371,2.9678232669830322,2.5758376121520996,-1.702940821647644,0.8695008158683777,-1.0801841020584106,-0.4361405372619629
211,1.8404041826712059,1.3525275573442568,0.21398205806963919,0.20871801674365997,-0.976273775100708,0.05767630413174629,-0.8500019907951355,0.553778350353241,-0.0389043353497982,0.006049424409866333,0.014680087566375732,0.4665546417236328
212,2.00390206761519,1.3575138437852214,0.17792911426475522,0.19212520122528076,-0.97734135389328,0.08883588761091232,-0.23375722765922546,0.22447419166564941,0.1877293437719345,-0.6947039365768433,0.8105170726776123,-0.29563820362091064
213,1.8091145348971314,1.4092184055023258,0.3050885082625034,0.15632906556129456,-0.9869746565818787,0.03797778859734535,0.20322026312351227,-0.38971561193466187,0.36008110642433167,-0.49461641907691956,0.7046107649803162,0.006684780120849609
214,2.126899575716765,1.3549273442015994,-0.21451269927485045,0.18192102015018463,-0.9767906069755554,0.11307016015052795,-1.9078816175460815,-0.9207046627998352,0.49863943457603455,0.30428504943847656,-1.2958686351776123,0.43456780910491943
215,1.6979756778273738,1.3832330068601464,0.10618110409836748,0.18495914340019226,-0.9824615120887756,0.0236506350338459,-0.37280192971229553,-1.5248279571533203,-0.29712820053100586,0.28807854652404785,0.7229858636856079,0.2179570198059082
216,1.5500355465016855,1.3717240314548003,0.20837882693072748,0.19771724939346313,-0.9802504777908325,-0.004105354193598032,-0.012776482850313187,0.6978868842124939,0.14741748571395874,0.08135077357292175,0.98798668384552,0.0950934886932373
217,2.1133728617469822,1.3137899759733183,-0.13923533046543515,0.2176801860332489,-0.9671552777290344,0.13124752044677734,-0.5559114217758179,2.3731939792633057,-0.9867866039276123,1.1020982265472412,-2.2675552368164062,-0.41483211517333984
218,1.8436603181812117,1.3721769800163968,0.27755712113212017,0.19001543521881104,-0.9803399443626404,0.05317467078566551,0.15496613085269928,1.2399290800094604,-0.07229448109865189,-0.2974525988101959,0.14434152841567993,0.2852194309234619
219,1.7523930680069275,1.3749144315675121,0.4296200081589665,0.19143204391002655,-0.9808763861656189,0.0351506806910038,-0.6892698407173157,-0.492340624332428,0.17568348348140717,-0.6095991134643555,0.8096268177032471,-0.010889165103435516
220,1.6901188026325842,1.4252018283717443,0.3671993934555289,0.14405041933059692,-0.9894198179244995,0.017270496115088463,1.6844555139541626,-2.180647373199463,0.10365690290927887,-0.04911021888256073,0.28812575340270996,-0.061581969261169434
221,2.0449453922988003,1.3821811638052917,-0.19474823168318742,0.16681422293186188,-0.9822648167610168,0.08560848981142044,-1.147093653678894,-0.17203935980796814,0.9188607931137085,0.02218112349510193,-0.3646589517593384,-0.33995723724365234
222,2.2233416292982846,1.4240422840098372,-0.3766791710968005,0.11618468910455704,-0.9892509579658508,0.08879164606332779,-0.16820868849754333,-0.359778493642807,0.4876735210418701,0.13122135400772095,0.8483054637908936,0.031752824783325195
223,1.814399243387826,1.4563554300742036,0.0689878037575962,0.11081937700510025,-0.9934588074684143,0.02754291146993637,0.24733787775039673,1.0468822717666626,-0.3021746873855591,0.24213163554668427,1.229420781135559,-0.017212633043527603
224,2.3888023005181633,1.324347121018423,-0.32510576482494297,0.1667916178703308,-0.9697847962379456,0.1780398041009903,-2.204850673675537,1.091417908668518,0.08878187090158463,0.2936728596687317,-2.044070243835449,-0.010681375861167908
225,2.1944196480801654,1.329181465648555,-0.04395789969728921,0.19423219561576843,-0.9709528684616089,0.1397293210029602,0.1340835839509964,1.5791280269622803,-0.2630058825016022,-0.5176575183868408,0.19078630208969116,0.027247652411460876
226,2.113230771111531,1.3796737141568134,0.08900281293064378,0.16269318759441376,-0.981791615486145,0.09806228429079056,-0.9391586184501648,-0.5621733665466309,0.6923691034317017,-0.43214815855026245,1.0451613664627075,-0.12952589988708496
227,2.008952236114045,1.4187508523014807,0.04559586928652394,0.1371525526046753,-0.9884633421897888,0.06426004320383072,1.847456932067871,-3.6076865196228027,-0.9652673006057739,-0.2803105115890503,0.1959371566772461,-0.40985631942749023
228,2.2049650070426026,1.3435726145606997,-0.43364188427927053,0.18147219717502594,-0.9742955565452576,0.13347625732421875,-1.0383988618850708,0.007627625018358231,1.0686955451965332,0.10424862802028656,-0.5455102920532227,-0.004463210701942444
229,2.1967965271375895,1.4259500812681398,-0.4427545510226246,0.11697003245353699,-0.9895281195640564,0.08457008004188538,-1.318410873413086,-0.6229352951049805,0.02070774883031845,0.308322936296463,0.9370684027671814,0.09948145598173141
230,1.978085887210738,1.415059119555359,-0.21688737704610342,0.1424199938774109,-0.9878974556922913,0.06144177168607712,0.6955453157424927,1.2319526672363281,0.063202865421772,0.11398866772651672,0.907025933265686,-0.019831061363220215
231,2.468263841022515,1.2991870670536143,-0.45595267327337585,0.16729827225208282,-0.9633404016494751,0.20972929894924164,-1.9438132047653198,1.1782304048538208,-0.3970072865486145,0.7369832992553711,-2.2142717838287354,-0.5787783861160278
232,1.988411612105448,1.361916313482234,0.03830922960158206,0.18954269587993622,-0.978263795375824,0.08410299569368362,0.04128611087799072,1.2630980014801025,0.11328770965337753,-0.5680674910545349,0.024360716342926025,0.354556679725647
233,2.0848833055313136,1.399677788485648,0.01679957381528574,0.14827412366867065,-0.9853948950767517,0.08373584598302841,-0.7933052182197571,-0.3383444547653198,0.5817289352416992,-0.30861347913742065,0.8948187232017517,-0.09084641933441162
234,2.050411967645431,1.4479879250008767,0.021147992862549665,0.10867961496114731,-0.992468535900116,0.056526701897382736,0.8776773810386658,-0.32201525568962097,0.09465000033378601,-0.16474036872386932,0.6509156823158264,-0.18233537673950195
235,2.451418053088588,1.3516965108764392,-0.6028856522703769,0.13838151097297668,-0.9760934710502625,0.16760723292827606,-1.8973561525344849,-0.6551253795623779,0.8429220914840698,0.0400547981262207,-1.2501027584075928,0.531657338142395
236,2.1592589585669133,1.4429265589088522,-0.36888811391704435,0.10607293993234634,-0.9918357729911804,0.07078579813241959,-0.41300058364868164,-1.1361865997314453,-0.3434833288192749,0.25560617446899414,0.7897025346755981,0.053176648914813995
237,1.8494215510813878,1.4073890761219288,-0.092068280354266,0.1564081311225891,-0.9866787195205688,0.044743120670318604,0.18867509067058563,1.2264342308044434,-0.36697620153427124,-0.13969974219799042,1.1000514030456543,0.15842771530151367
238,2.449775462196435,1.3065570748365731,-0.46969715508100623,0.16661317646503448,-0.965291440486908,0.20112751424312592,1.3087897300720215,3.5073893070220947,-1.2986602783203125,0.6871923804283142,-1.6827187538146973,-0.022553935647010803
239,1.9912646331370822,1.383017268941277,0.1039330300687465,0.17041797935962677,-0.9824212789535522,0.0761997327208519,0.5249162912368774,1.3854361772537231,-1.1486800909042358,-0.08327500522136688,0.1136009693145752,0.4358851909637451
240,2.29059003447447,1.3016824867353627,-0.10354855576102341,0.19992375373840332,-0.9640069007873535,0.17527374625205994,-0.2863509953022003,0.559410035610199,0.07732149213552475,-0.4423706829547882,0.6258112788200378,-0.4084586203098297
241,2.245346322436047,1.3492289419872845,-0.08698478998525011,0.17162907123565674,-0.9755542278289795,0.13724951446056366,0.3695836663246155,-0.46760451793670654,0.2760421931743622,-0.269056499004364,0.966963529586792,-0.11315597593784332
242,2.330757705916843,1.294226335638696,-0.378476234676069,0.1979287564754486,-0.9619976878166199,0.18810711801052094,-2.180605888366699,-1.4910614490509033,0.8188773393630981,0.055489182472229004,-2.1367568969726562,0.9593843221664429
243,1.8293250413195847,1.4651338673454763,0.04260372102377006,0.10196047276258469,-0.9944229125976562,0.026963114738464355,-0.4530916213989258,-0.9088395237922668,-0.1684972494840622,0.5725237727165222,0.780830442905426,0.45101845264434814
244,1.9936722669705416,1.3935293706963465,-0.1829258276811924,0.16080696880817413,-0.984329342842102,0.07236739248037338,0.4072181284427643,0.1677548587322235,-0.43437331914901733,-0.18601447343826294,0.8771210312843323,-0.10410571098327637
245,2.428677001392451,1.3157040169408678,-0.49559387509381964,0.165037602186203,-0.9676399827003479,0.19088073074817657,1.9066977500915527,2.068127155303955,-0.9255056381225586,0.8860640525817871,-1.3818320035934448,-0.34954166412353516
246,1.95855509786785,1.3988375723477458,0.026256216187030352,0.1584087312221527,-0.9852514863014221,0.06470004469156265,-0.051764681935310364,0.6325523257255554,-0.6018590927124023,-0.058158501982688904,-0.0017937421798706055,0.6314973831176758
247,2.331225329352702,1.3402472510058328,-0.2510192137801334,0.16556578874588013,-0.9735410809516907,0.15749749541282654,0.20069999992847443,0.1415332704782486,0.17735369503498077,-0.4460681676864624,0.6548613905906677,-0.2863427400588989
248,2.315456632252188,1.391403223359661,-0.3117394941902965,0.13120420277118683,-0.9839521646499634,0.12092722207307816,-0.04314674437046051,-0.7876068949699402,0.6379346251487732,-0.32215267419815063,1.0598952770233154,-0.08786143362522125
249,2.427911092998676,1.2937673647779009,-0.6273104535032328,0.17903809249401093,-0.9618722796440125,0.20675326883792877,-2.1455254554748535,-1.5091829299926758,0.6464536786079407,0.2122735232114792,-2.2058217525482178,0.6338534355163574
250,2.124293664608337,1.4570148766038027,-0.4057374661922205,0.09658486396074295,-0.9935338497161865,0.059682447463274,-0.5454747080802917,-1.1258060932159424,0.12794944643974304,0.5453981757164001,0.6033666133880615,0.3270057439804077
251,1.996044707751655,1.4026190442610533,-0.3039810009275043,0.15247805416584015,-0.9858915209770203,0.06905463337898254,0.2777261435985565,0.32870933413505554,-0.3872257471084595,-0.13247376680374146,0.907598614692688,-0.07294559478759766
252,2.378525676847265,1.3504650636662014,-0.5632117775845297,0.15105067193508148,-0.9758251309394836,0.157952219247818,1.7202672958374023,1.3273258209228516,-0.07155454158782959,0.6049002408981323,-0.17360413074493408,-0.3593529462814331
253,2.2026242964234277,1.3533079221537954,-0.2765396556448608,0.1741212010383606,-0.9764424562454224,0.12744247913360596,-1.3368141651153564,0.5637572407722473,-0.052568938583135605,0.300762802362442,-0.5802895426750183,0.7516316175460815
254,2.530339809575541,1.328894484352957,-0.42937423916096384,0.1374761313199997,-0.9708841443061829,0.19617438316345215,0.29428404569625854,0.14824077486991882,0.4314292371273041,-0.3464452624320984,0.5185068249702454,-0.39313483238220215
255,2.6226025702032434,1.3841187264882477,-0.6492980763080008,0.0920562744140625,-0.9826262593269348,0.16115684807300568,0.12863896787166595,-1.8703036308288574,0.7016196846961975,0.040329016745090485,0.9264585375785828,-0.21041224896907806
256,2.602715741055439,1.3007274846554129,-0.9959914563912188,0.13691334426403046,-0.9637525081634521,0.22898882627487183,1.9337483644485474,-3.5119333267211914,-0.3757338523864746,0.6844062209129333,-2.4229815006256104,0.6015012264251709
257,2.4227009759487084,1.4242297560657968,-0.9114460595332087,0.09617594629526138,-0.9892783164978027,0.10990168899297714,-0.7201160192489624,-0.40853366255760193,-0.05138992518186569,0.23100297152996063,0.4011131525039673,0.08283208310604095
258,2.3156363129949455,1.4234232345050208,-0.8680596814570993,0.10795656591653824,-0.9891602396965027,0.09953641146421432,0.3412226140499115,-0.7441783547401428,-0.21520422399044037,-0.08514465391635895,0.7721801996231079,-0.07202480733394623
259,2.2818597945184327,1.3578070068117487,-0.7938770684299662,0.16015809774398804,-0.9774034023284912,0.137956902384758,0.4702419638633728,1.0014104843139648,-0.4435536861419678,0.07076841592788696,0.4474656581878662,-0.2862265110015869
260,2.38559236870967,1.355288110872132,-0.6333480427701692,0.14670096337795258,-0.9768678545951843,0.1555902361869812,-2.065101385116577,3.0570991039276123,0.8041476607322693,0.2766541838645935,-1.4546356201171875,0.376697301864624
261,2.6087716045743328,1.431068729518141,-0.6502352725937478,0.07074621319770813,-0.9902539849281311,0.11996722966432571,0.26421305537223816,1.1961302757263184,-0.07852992415428162,0.0002987086772918701,0.36500978469848633,0.005856752395629883
262,2.7493775061659336,1.4469778385325323,-0.6392047299491805,0.04720740392804146,-0.9923442602157593,0.11412493884563446,-0.2997095584869385,1.9379762411117554,0.3566618263721466,-0.22248512506484985,0.8340189456939697,-0.19388268887996674
263,2.937950577505925,1.4630711738168376,-0.8537430087203757,0.0217440128326416,-0.9942032694816589,0.10529553890228271,0.7853193879127502,-1.8073608875274658,-0.22255729138851166,-0.3643343448638916,0.16998451948165894,-0.3302711248397827
264,2.5226332338622743,1.4086134954842244,-0.5893743169310959,0.09368457645177841,-0.9868771433830261,0.13151679933071136,-2.6660876274108887,1.4650182723999023,0.6222293376922607,-0.0747789517045021,-0.9670870304107666,-0.18318308889865875
265,1.4387672592199383,1.5019811314005034,0.33632804836458313,0.06816237419843674,-0.997633159160614,-0.009052073583006859,0.7345977425575256,-1.6191589832305908,-0.773801863193512,0.3360429108142853,0.865461528301239,0.329334020614624
266,2.033068180372342,1.4120140940856216,-0.2643238535534365,0.1415199637413025,-0.9874205589294434,0.07051677256822586,0.4056772291660309,1.5996724367141724,-0.638356626033783,-0.035913869738578796,0.7807098031044006,-0.035604722797870636
267,2.445655433696279,1.3031006984051805,-0.5185471962726832,0.16957823932170868,-0.9643830060958862,0.20299851894378662,0.6659301519393921,2.039611577987671,-1.8588577508926392,0.4990161061286926,-1.7217435836791992,0.009937852621078491
268,2.0124359377832963,1.3678145722323352,0.012483119202891893,0.1822485476732254,-0.9794698357582092,0.08616439253091812,0.8028466105461121,0.6412648558616638,-0.4241267144680023,-0.2937139868736267,-0.026587843894958496,0.16729938983917236
269,2.034554400917891,1.3561597376849293,-0.03734942007575881,0.1904962956905365,-0.9770538806915283,0.09527445584535599,-0.4189022183418274,-0.977635383605957,0.42448222637176514,-0.5847071409225464,0.5973998308181763,0.016953960061073303
270,2.004843892408884,1.4293249878317524,-0.08335094426059442,0.12792523205280304,-0.990009605884552,0.05929706245660782,0.11004248261451721,-0.4224364161491394,1.0586066246032715,-0.43642738461494446,0.8817484974861145,0.05953836441040039
271,2.530997029605909,1.3623769341606489,-0.7649329550592275,0.11863552033901215,-0.9783591628074646,0.1695263385772705,-1.8301054239273071,-1.0625998973846436,0.5144020915031433,0.45977944135665894,-2.616657257080078,0.3588550090789795
272,2.0654774556819464,1.4840327222022789,-0.49990058904067075,0.07626675814390182,-0.9962384104728699,0.041139520704746246,-0.5908058881759644,-2.558467388153076,-0.4515465497970581,0.4159970283508301,0.4680401682853699,0.42770206928253174
273,1.5744375912360424,1.4349431469401563,-0.10438306413060755,0.13543516397476196,-0.9907861351966858,0.000493157422170043,0.45079025626182556,0.0742485374212265,-0.5877914428710938,-0.16567811369895935,0.9483972191810608,0.06685912609100342
274,2.0526174746774437,1.3730793285038287,-0.5068398855227919,0.1740676760673523,-0.980517566204071,0.09102482348680496,1.2888550758361816,0.7386746406555176,0.25341668725013733,0.3341720700263977,0.5229523777961731,-0.3038543462753296
275,2.19265383487399,1.3757415991060573,-0.44403228505919007,0.15753675997257233,-0.9810370802879333,0.11290926486253738,-1.8974379301071167,0.7345595359802246,0.8001601696014404,0.362620085477829,-0.5923576951026917,-0.09404945373535156
276,2.12404971895005,1.382326221857907,-0.3190836269685394,0.15940669178962708,-0.9822919964790344,0.09844806045293808,0.018794972449541092,0.8847536444664001,0.27456459403038025,-0.3453502655029297,0.43564581871032715,0.2248857170343399
277,2.339781927667958,1.3916166510420558,-0.549612405406831,0.12807370722293854,-0.9839902520179749,0.12393718957901001,0.5875401496887207,-0.9207608699798584,0.4616073966026306,-0.48149779438972473,1.0356717109680176,-0.26209020614624023
278,2.6710062980015232,1.2968372965451904,-1.0750866666676397,0.12266750633716583,-0.9627073407173157,0.24113741517066956,2.9043517112731934,-2.614893913269043,-0.495963990688324,0.17989903688430786,-2.314148187637329,-0.14636504650115967
279,2.5346443932598386,1.3739574651851405,-1.1499114679662095,0.11154583841562271,-0.9806897044181824,0.16063950955867767,-1.1593670845031738,-0.7253155708312988,0.923355221748352,0.6006733775138855,-0.18383044004440308,0.49754834175109863
280,2.142508170357493,1.4218764269448612,-0.7786911066655633,0.12477535754442215,-0.9889318943023682,0.08027876168489456,-0.039265505969524384,-0.2842915654182434,-0.5128895044326782,0.08779480308294296,0.7510626912117004,-0.026903517544269562
281,2.158920507195389,1.3635429938454917,-0.7433610409243973,0.17119938135147095,-0.9785997867584229,0.11416298896074295,0.5453532934188843,1.844963788986206,-0.492080420255661,-0.04168279469013214,0.9325335621833801,-0.15014314651489258
282,2.392094431611872,1.2734384882781116,-0.7584006114050149,0.19960929453372955,-0.9561139941215515,0.21448153257369995,-2.952817440032959,1.1389137506484985,0.4320182204246521,0.32356879115104675,-1.1886919736862183,0.08665060997009277
283,2.1282939188668974,1.3266716987882585,-0.3427961466430187,0.20510825514793396,-0.9703492522239685,0.12787863612174988,0.34093669056892395,1.4076645374298096,0.14482729136943817,-0.42817652225494385,0.014584481716156006,0.16841650009155273
284,2.110991714464635,1.364863448265587,-0.27574474977552116,0.17536425590515137,-0.9788706302642822,0.10516510903835297,-0.05142246559262276,-1.4444139003753662,0.42267024517059326,-0.5543620586395264,0.8350565433502197,-0.12239229679107666
285,2.3161689009316526,1.3154429873522535,-0.6647613528763733,0.18561004102230072,-0.9675741195678711,0.1713162213563919,2.959029197692871,-2.412205457687378,0.18945921957492828,-0.2272970825433731,-1.1274118423461914,-0.45116233825683594
286,2.2842357698272604,1.36792182193244,-0.8222078624574746,0.15234607458114624,-0.9794914722442627,0.13185961544513702,-0.8956496119499207,-0.6172093152999878,0.5350269675254822,0.43356090784072876,-0.023728013038635254,0.06816790997982025
287,1.8781608521325706,1.4144551219205221,-0.4487519219764508,0.14840832352638245,-0.98780357837677,0.04710837081074715,0.0002244831994175911,-0.17240621149539948,-0.3768143355846405,0.11666737496852875,0.598292350769043,0.41434788703918457
288,2.09004538573123,1.3575770567624743,-0.594960742456717,0.18371601402759552,-0.9773547649383545,0.1050056740641594,0.7347477078437805,1.0265309810638428,-0.25993087887763977,-0.1235048770904541,0.795119047164917,-0.2661384344100952
289,2.401212160104587,1.228420003715259,-0.7810222362978855,0.22647033631801605,-0.94195955991745,0.24783699214458466,-1.2444404363632202,1.8128715753555298,-0.5470203757286072,0.5538183450698853,-1.8565938472747803,0.07012555003166199
290,2.229435714067822,1.291736174869174,-0.49406126284516133,0.21783481538295746,-0.9613147377967834,0.16858826577663422,0.056785762310028076,1.0271986722946167,-0.33516043424606323,-0.33644136786460876,-0.12413442134857178,0.2514556646347046
291,2.2357531108733526,1.3192392204090078,-0.46467373152449887,0.19587986171245575,-0.9685260057449341,0.15358510613441467,-0.18561722338199615,-0.9037967324256897,0.49834904074668884,-0.5041989684104919,0.7201892137527466,-0.09164977073669434
292,2.4396145758769463,1.3260037195896903,-0.7688267082754943,0.1564958095550537,-0.9701876044273376,0.185054212808609,1.913692593574524,-1.1069773435592651,0.11623996496200562,-0.3326127827167511,0.26352256536483765,-0.3636735677719116
293,2.4618737156162243,1.3162975448731682,-1.0188951602256797,0.15825043618679047,-0.9677895903587341,0.1958068460226059,-1.5609333515167236,-1.9009592533111572,1.3303669691085815,0.3710007071495056,-0.7699118852615356,0.0805450975894928
294,2.2148241882153337,1.4174667197286357,-0.8565613302265672,0.12213508784770966,-0.9882680177688599,0.09170188009738922,0.18017429113388062,-0.3306370973587036,-0.38964495062828064,0.22321709990501404,0.5196554064750671,0.12128030508756638
295,2.2045518043158854,1.3698694966996428,-0.8401780318683564,0.16082167625427246,-0.979882001876831,0.11818503588438034,0.5253676772117615,0.7756179571151733,-0.4000617265701294,-0.09673479199409485,0.804192304611206,-0.15985679626464844
296,2.465002358212726,1.244769725416553,-0.94591988132033,0.20054051280021667,-0.947322428226471,0.24972748756408691,0.12887385487556458,1.8650904893875122,-1.0555198192596436,0.5956172943115234,-1.5405621528625488,-0.2859671115875244
297,2.151376491082778,1.3288326195882554,-0.5401529509256321,0.20034818351268768,-0.9708693027496338,0.13142800331115723,0.2521933913230896,0.6097829341888428,-0.5735328197479248,-0.24063138663768768,-0.059449851512908936,0.2960469722747803
298,2.1719809574054834,1.3305897924388657,-0.518385840945786,0.1961909681558609,-0.9712888598442078,0.13456293940544128,-0.5271632075309753,-0.41982218623161316,0.37629324197769165,-0.359505832195282,0.5035917162895203,-0.07126951217651367
299,2.3456584333479498,1.368807591061064,-0.7744697771896445,0.14334559440612793,-0.9796695113182068,0.1403563767671585,0.8495291471481323,-1.1087294816970825,0.593053936958313,-0.26590418815612793,0.677667498588562,-0.1565612405538559
300,2.50357010825495,1.2753685799292251,-1.1504207056938767,0.17341062426567078,-0.9566776752471924,0.23387262225151062,-1.108864665031433,-1.5473889112472534,1.2101768255233765,-0.03734801709651947,-1.7346827983856201,0.0185839980840683
301,2.164410712847232,1.4401319898037956,-0.9294317253291274,0.1080033928155899,-0.9914755821228027,0.07288102805614471,-0.36916548013687134,-0.42145830392837524,-0.2677171528339386,0.6788618564605713,0.6350606679916382,0.5388896465301514
302,2.0630649288353067,1.3841974822297598,-0.8154273319756459,0.16348940134048462,-0.9826409220695496,0.08768030256032944,0.3358383774757385,0.4913911819458008,-0.5805699825286865,-0.22016052901744843,0.7007806897163391,-0.07265044003725052
303,2.2563893215525255,1.3055427037864205,-0.8821999402975891,0.20291844010353088,-0.9650260210037231,0.16597793996334076,1.381163239479065,1.694051742553711,-1.0074256658554077,0.32010704278945923,-0.3730933666229248,-0.29067277908325195
304,2.131673441443597,1.3050556815916934,-0.5842224962947643,0.22238728404045105,-0.9648982286453247,0.13969749212265015,-0.07847240567207336,1.340263843536377,-0.6641154885292053,0.21224409341812134,-0.3275212049484253,0.03402376174926758
305,2.107618205712647,1.2921109510963975,-0.4358360868537458,0.2363969385623932,-0.9614179134368896,0.14068402349948883,-1.0372941493988037,0.9161046147346497,0.3265220820903778,-0.4081041216850281,0.23450452089309692,0.10956011712551117
306,2.0258429934053255,1.3566446342911613,-0.3192818627702587,0.19089320302009583,-0.9771570563316345,0.09340301156044006,0.14987021684646606,-0.24362492561340332,0.5244260430335999,-0.23924824595451355,0.8836358189582825,-0.02714931219816208
307,2.322048542808052,1.2681740605959326,-0.6816426328925899,0.21780645847320557,-0.954558253288269,0.20341776311397552,2.4185287952423096,-1.203758716583252,-0.7064631581306458,-0.04149116575717926,-1.161545753479004,-0.3485746383666992
308,2.103112881895385,1.361077749446291,-0.58654134450226,0.17937922477722168,-0.9780895709991455,0.10566029697656631,-2.2988626956939697,-0.6079100370407104,0.7881196737289429,0.4125854969024658,-0.38014107942581177,0.4281836748123169
309,1.4030939532718172,1.3683442887981772,0.08856735239865969,0.19825084507465363,-0.9795764684677124,-0.03356236591935158,-0.3125966489315033,-0.17072583734989166,-0.7150028347969055,-0.015465855598449707,0.6109394431114197,0.20296549797058105
310,1.6165741371064541,1.3626293949334622,-0.1323566615272742,0.20644958317279816,-0.9784113764762878,0.009457416832447052,0.9970589280128479,0.5541070103645325,0.2251402735710144,-0.18540775775909424,0.9853543043136597,-0.10995185375213623
311,2.3502858460998706,1.3157608731048458,-0.7854752567321727,0.17943982779979706,-0.9676543474197388,0.17733176052570343,-0.8830569386482239,0.26803576946258545,-0.4257509708404541,0.8121220469474792,-2.417782783508301,0.007711529731750488
312,1.7201985429747049,1.4392968814836942,-0.08051061148031821,0.12966053187847137,-0.9913663864135742,0.019516998901963234,0.2892570495605469,1.6958049535751343,0.018765410408377647,0.06046402454376221,0.2743864059448242,0.3814992904663086
313,2.1483057964060164,1.4251057182676052,-0.3810893165858787,0.12163186073303223,-0.9894058704376221,0.07925710827112198,0.01871582306921482,-0.031024349853396416,0.649527907371521,-0.24866124987602234,0.8544266819953918,-0.28393852710723877
314,2.683685189172197,1.5123519638812857,-1.0753842947199537,0.025822091847658157,-0.9982926249504089,0.05239391326904297,0.33491939306259155,-2.6917221546173096,1.5421671867370605,-0.36941951513290405,0.051683127880096436,-0.21107006072998047
315,-3.016220277135786,1.3505531459387485,-2.050665086103383,-0.027318036183714867,-0.9758443236351013,0.2167523354291916,-1.1948058605194092,-0.4742741584777832,1.5555442571640015,0.2836656868457794,-1.1412363052368164,1.009688138961792
316,-2.3435051099188544,1.417546510799989,-2.7150621668551906,-0.10930132865905762,-0.9882802367210388,0.10656200349330902,0.13693413138389587,-1.2392735481262207,-0.6019238829612732,0.10505939275026321,0.7250356078147888,-0.3042854070663452
317,-2.7009215769444697,1.3716906837224128,-2.258394131358263,-0.08436790853738785,-0.9802438616752625,0.178896963596344,1.5862722396850586,0.6783414483070374,-0.36595290899276733,0.36038413643836975,0.9124032855033875,-0.8302640914916992
318,-3.123627155479402,1.3055736333465573,-1.8769014501069343,-0.004708949942141771,-0.9650341272354126,0.2620825171470642,-2.1825802326202393,1.4028539657592773,-0.2442256212234497,0.8054596781730652,-1.999199390411377,1.825213074684143
319,3.0673858515274497,1.3365118277458432,-1.7180510975862473,0.017211101949214935,-0.9726806879043579,0.23150840401649475,0.16213780641555786,0.5300540328025818,-0.04329415410757065,-0.32583537697792053,0.4523254632949829,0.3289010524749756
320,-2.921951801113886,1.4028856041859603,-1.9650744608058963,-0.03641252592206001,-0.9859361052513123,0.16310760378837585,-0.3645251393318176,-0.4413414001464844,0.10779906064271927,0.007848057895898819,0.9740495681762695,0.017251238226890564
321,-3.0631796960890774,1.33545342151304,-1.9063510237454977,-0.018265387043356895,-0.9724344611167908,0.23246076703071594,2.0441555976867676,-2.8524229526519775,-1.3346140384674072,-0.9848169088363647,-0.5721670985221863,-0.526787519454956
322,-2.783737612615415,1.3051376423774714,-2.3124030595420533,-0.0919608324766159,-0.9649198055267334,0.2459135353565216,-1.2600144147872925,0.10952740907669067,1.286759853363037,0.5169485807418823,-0.024399280548095703,0.36329370737075806
323,-2.5751553776507157,1.3072710009130972,-2.4779945462916992,-0.13978415727615356,-0.965477705001831,0.21980245411396027,0.09486241638660431,0.5974029898643494,0.0017135050147771835,0.02604512870311737,0.6142356991767883,-0.41566431522369385
324,-2.461125237538406,1.2485286351119858,-2.3949762085711495,-0.19926537573337555,-0.9485196471214294,0.24617843329906464,1.005356788635254,4.216404438018799,0.5462293028831482,0.46884241700172424,0.6481809020042419,-0.43599772453308105
325,-2.423996528633502,1.2890636126139634,-2.223723117173332,-0.1828192174434662,-0.9605751633644104,0.2094571888446808,-2.972424030303955,1.6126196384429932,-0.0783541351556778,0.1733740270137787,-1.5543172359466553,0.4909974932670593
326,-2.377391238480619,1.3661536946115092,-2.1797189531191763,-0.14061862230300903,-0.979133665561676,0.14670996367931366,0.4686775207519531,0.5572182536125183,-0.7839685082435608,-0.013022109866142273,0.38947296142578125,0.14393950998783112
327,-2.249067369988201,1.433173992122266,-2.3216766852174366,-0.1068226546049118,-0.9905449748039246,0.08607831597328186,-0.6839302182197571,-1.4493176937103271,-0.18812784552574158,-0.2024272084236145,0.9637811183929443,-0.030139684677124023
328,-2.3892135466348727,1.4064193486763856,-2.3484377883497287,-0.11182664334774017,-0.9865204691886902,0.11946650594472885,0.09255851805210114,-3.153968095779419,1.3856908082962036,-0.41609692573547363,-1.226553201675415,-0.15823912620544434
329,-1.9051075604989114,1.3243631193541798,-2.9742622394267966,-0.2304406613111496,-0.969788670539856,0.08004335314035416,-0.10192117094993591,0.3121547996997833,1.1237021684646606,-0.07059995830059052,-0.6174305081367493,-0.02190733700990677
330,-1.5668248937710034,1.1570696065321373,3.0841122716438236,-0.4020211100578308,-0.915628969669342,-0.0015966083155944943,0.13100098073482513,1.1878896951675415,1.8029800653457642,0.4203622341156006,0.3203378915786743,0.11731928586959839
331,-1.6298850977884467,0.8510009359794812,-3.048938929032507,-0.6580803990364075,-0.7519406080245972,0.03893048316240311,2.554095506668091,2.3882224559783936,3.081669569015503,1.0935357809066772,0.47958648204803467,-0.17999792098999023
332,-1.5326747804547527,0.6095532768495426,-2.7758464676220997,-0.8193082809448242,-0.5725012421607971,-0.031248437240719795,1.2119320631027222,1.6655899286270142,1.2123899459838867,-0.7166415452957153,-0.5692224502563477,0.20643460750579834
333,-1.545740750645337,0.46350125106846496,-2.615472374148465,-0.8942118883132935,-0.4470826983451843,-0.022409683093428612,1.191016674041748,0.6522407531738281,0.9653912782669067,-0.36303603649139404,0.29679885506629944,0.33671021461486816
334,-1.544452989601338,0.37857052149657516,-2.405784720464768,-0.9288714528083801,-0.3695925772190094,-0.024475235491991043,-0.12690827250480652,1.2566601037979126,0.9615589380264282,0.7196124792098999,0.3076419532299042,0.10281389951705933
335,-1.2142186876266023,0.24591262657894636,-2.504058484136846,-0.9089049100875854,-0.2434415966272354,-0.3385676443576813,-2.5808703899383545,3.800302267074585,1.0539294481277466,0.549209475517273,0.04104900360107422,-0.18352705240249634
336,-1.3575152577527492,0.17201816454029326,-2.6440506841438522,-0.9629175066947937,-0.17117106914520264,-0.2085438370704651,1.2005878686904907,0.2540547549724579,0.9293277859687805,-1.0259132385253906,-0.48922932147979736,0.2658863365650177
337,-1.4033005326282313,0.10554862815915637,-2.6817778907529553,-0.9805182814598083,-0.10535275936126709,-0.16578595340251923,-0.5437430143356323,-0.3632518947124481,0.015808530151844025,0.4012334942817688,-0.2308746725320816,0.07922284305095673
338,-1.416551573300361,0.11441019372950587,-2.6493378139433914,-0.9816677570343018,-0.11416076123714447,-0.15262944996356964,0.9770380854606628,-0.16805918514728546,0.2009880095720291,0.8727657794952393,-0.25810790061950684,-0.009891867637634277
339,-1.5114464921970234,0.21182658944047653,-2.5574941810382996,-0.9759273529052734,-0.2102460116147995,-0.05798923224210739,0.8593789935112,0.8087972402572632,-0.5627396702766418,-1.7815039157867432,-1.0195361375808716,0.7621060609817505
340,-1.5354636508870951,0.23182833797883506,-2.4561389796457287,-0.9726403951644897,-0.22975733876228333,-0.03438029810786247,1.0745983123779297,-0.3416118323802948,-0.6326136589050293,0.1829218864440918,0.07880213856697083,0.09422528743743896
341,-1.5041272706266786,0.28070780812045,-2.4776625236910617,-0.9587249159812927,-0.27703583240509033,-0.06401215493679047,-0.4987497925758362,0.23030836880207062,-0.004903249442577362,0.900634765625,0.8151522874832153,0.16147005558013916
342,-1.5400606601951732,0.21715483647552228,-2.5192795557168286,-0.9760532975196838,-0.2154521495103836,-0.03000909835100174,-1.2908546924591064,-1.7916781902313232,1.5038750171661377,0.13787269592285156,0.1733684092760086,-0.44731634855270386
343,-1.564357485332919,0.1483799841088522,-2.8201469319805574,-0.988991379737854,-0.1478361189365387,-0.006368046626448631,-1.9981533288955688,0.9095919728279114,-0.03817921504378319,-1.0902475118637085,-0.2718568742275238,0.20938622951507568
344,-1.4695715480726306,0.13667900861223914,-2.850714517457929,-0.9856029152870178,-0.13625384867191315,-0.10010959208011627,-0.44369927048683167,-0.331171452999115,-0.6407462358474731,0.857245922088623,0.04668475687503815,-0.04507780075073242
345,-1.4702365991664759,0.14815152936648143,-2.8421781722753754,-0.9840490818023682,-0.1476101577281952,-0.09929061681032181,1.5554509162902832,0.9338390231132507,0.3586213290691376,0.9471380710601807,-0.08574250340461731,-0.11775034666061401
346,-1.5456734622831716,0.23729539253162782,-2.7393099324680787,-0.9716704487800598,-0.23507466912269592,-0.024416282773017883,1.5770339965820312,-1.2395817041397095,-0.9668475985527039,-1.9541106224060059,-0.9580710530281067,0.07469397783279419
347,-1.5078490527359136,0.2612861768221355,-2.6274606104779927,-0.9641451835632324,-0.2583232820034027,-0.06077059730887413,0.6862652897834778,0.26928427815437317,-0.030459964647889137,-0.0769314169883728,0.2531048059463501,0.20812475681304932
348,-1.4957701429617114,0.23229978529386608,-2.5564596954630616,-0.97040194272995,-0.2302161455154419,-0.07294246554374695,0.015208065509796143,0.19838345050811768,0.37403300404548645,0.8501474261283875,0.4415045976638794,0.12259453535079956
349,-1.5182137041655852,0.19752021210922818,-2.6007463664727415,-0.9792011380195618,-0.19623836874961853,-0.05153647065162659,-1.1710352897644043,-1.5157462358474731,0.3204026520252228,0.36849844455718994,0.14638788998126984,-0.5194779634475708
350,-1.576249192341923,0.23579619044651373,-2.8463706992420885,-0.9723142385482788,-0.23361721634864807,0.005301951430737972,-1.5305824279785156,0.9102602601051331,-0.15772797167301178,-0.898657500743866,-0.37798556685447693,0.06494951248168945
351,-1.5066530377629248,0.24252348432486406,-2.934306046916196,-0.9687387943267822,-0.24015302956104279,-0.06222345307469368,-0.9323984384536743,0.30996963381767273,-0.19842471182346344,0.6001322269439697,-0.03911334276199341,0.2383708953857422
352,-1.5290223506124305,0.24989429588695727,-2.9392110536997196,-0.9680933952331543,-0.24730153381824493,-0.040464650839567184,1.093854308128357,-0.35568296909332275,0.16082735359668732,0.8505548238754272,-0.058240488171577454,-0.10012984275817871
353,-1.5870435017871258,0.2707821919332133,-2.80017600551431,-0.9634349346160889,-0.26748520135879517,0.01565447263419628,1.406684160232544,-0.21135185658931732,-0.6256383061408997,-1.7265675067901611,-0.47886791825294495,-0.555846095085144
354,-1.5069075636831197,0.2608112570757506,-2.680178236622333,-0.9642099142074585,-0.25786444544792175,-0.06168613210320473,1.6232059001922607,1.1407710313796997,0.17078904807567596,0.0730355978012085,0.17870187759399414,0.23279821872711182
355,-1.5123821122341545,0.307507374534445,-2.6076578565004116,-0.9514655470848083,-0.30268388986587524,-0.05564241483807564,-0.47443482279777527,-0.10348446667194366,-0.7296978235244751,0.8055151104927063,0.45823195576667786,0.10611849278211594
356,-1.4548459184933504,0.37513933982747083,-2.777278689319443,-0.9242088198661804,-0.36640217900276184,-0.10764523595571518,-1.892691969871521,-1.0846153497695923,-1.2346128225326538,0.20999068021774292,0.20302632451057434,-0.34534239768981934
357,-1.549470259784895,0.42283214639098304,-3.071089019500461,-0.9117231369018555,-0.41034480929374695,-0.019446415826678276,-1.8912140130996704,1.1862691640853882,0.18339966237545013,-1.0848894119262695,-0.6994879245758057,0.39438533782958984
358,-1.4557122935398599,0.37005341601521197,-3.124411520185816,-0.9261409640312195,-0.3616652190685272,-0.10705708712339401,-0.9376632571220398,-1.02640962600708,1.4287265539169312,0.432992160320282,-0.2233872413635254,0.03589010238647461
359,-1.4682344879440257,0.18696894521674456,3.106159745688951,-0.9774090051651001,-0.18588152527809143,-0.10059784352779388,-0.3227161765098572,0.8889927864074707,1.9075121879577637,0.699683666229248,-0.807038426399231,-0.4753603935241699
360,-1.3425243719278843,0.28327424040930504,3.074856608105927,-0.9352381229400635,-0.27950090169906616,-0.21727575361728668,2.5036685466766357,2.2783639430999756,-3.591031789779663,-0.6140018701553345,0.04002949595451355,0.23898902535438538
361,-1.2383166848516765,0.4006669221744025,-2.9073566617216065,-0.8703742027282715,-0.3900325298309326,-0.3005382716655731,1.989751935005188,3.326249599456787,2.4901814460754395,-0.36998212337493896,0.5713832974433899,0.254868745803833
362,-1.1059431933310846,0.14873102048787462,-2.6040455666353766,-0.8840188980102539,-0.14818328619003296,-0.443342387676239,0.02394413948059082,0.9213311076164246,3.6273040771484375,0.44853293895721436,1.0863394737243652,0.15168583393096924
363,-0.9796153531631422,-0.17145403276838006,-2.5233064091121737,-0.8181092739105225,0.17061524093151093,-0.5491700768470764,-1.3133785724639893,2.6283388137817383,1.1032140254974365,0.27286696434020996,0.12900635600090027,-0.061959683895111084
364,-0.9032004670390865,-0.24316847287921928,-2.6926932101675294,-0.7622084021568298,0.2407790869474411,-0.600885808467865,-1.8493205308914185,0.6767748594284058,-1.268222689628601,-0.30395370721817017,-0.1542617529630661,-0.485784113407135
365,-0.7688941474437646,-0.134450599736575,-2.7746511921042467,-0.6890655755996704,0.13404588401317596,-0.7121940851211548,-0.4489806294441223,1.2927767038345337,-1.9624371528625488,0.2599121332168579,-0.7282689213752747,-0.2985786199569702
366,-0.6643458052893408,-0.054900417001981144,-2.984562631104511,-0.6156153082847595,0.05487284064292908,-0.7861340641975403,0.6414093971252441,0.6234729290008545,-0.755396842956543,0.18624824285507202,-0.695482611656189,0.41418588161468506
367,-0.6985245523767126,0.06959631359360437,-2.931757136148686,-0.6415316462516785,-0.06954014301300049,-0.7639380097389221,1.3568222522735596,0.25875943899154663,-0.2455282360315323,-0.19349020719528198,-0.2969454526901245,0.04729372262954712
368,-0.614581943346804,0.11157713265123542,-2.9240967088406093,-0.5730314254760742,-0.11134576797485352,-0.8119341731071472,-0.2259756326675415,2.0772674083709717,0.3222818672657013,0.0767393708229065,0.07107783108949661,-0.14735537767410278
369,-0.523695915961307,0.05819678115059861,-2.8980847754336403,-0.4992375075817108,-0.05816393718123436,-0.8645107746124268,-0.2500609755516052,0.2679733633995056,0.34986430406570435,0.032532185316085815,0.24162036180496216,0.42871975898742676
370,-0.5762709423496273,-0.04747131107903913,-2.951347193559767,-0.5442870855331421,0.04745348170399666,-0.8375558257102966,-1.357062578201294,-2.0349442958831787,-0.05582122877240181,-0.04969179630279541,0.25828686356544495,-0.19274812936782837
371,-0.7016659036729335,-0.09107391684179189,-3.0834839306383555,-0.6428158283233643,0.09094806760549545,-0.760602593421936,-1.5909391641616821,-0.02272983454167843,-0.9528795480728149,0.04488492012023926,-0.06244464963674545,-0.692705512046814
372,-0.7262036472759436,-0.17819408457724484,3.0702907405131654,-0.6535211801528931,0.17725254595279694,-0.7358611822128296,-0.9762534499168396,0.9466649293899536,-0.6004124879837036,-0.024915099143981934,-0.14838291704654694,0.2087005376815796
373,-0.6904109203147979,-0.09305285553245086,2.900615225458093,-0.6340988278388977,0.09291862696409225,-0.7676488757133484,0.10144739598035812,-1.3460880517959595,-1.65029776096344,0.3604629635810852,-0.28298211097717285,0.1491338610649109
374,-0.8200378453036148,0.039366330571058254,2.828716190852806,-0.7306051850318909,-0.03935616463422775,-0.6816650032997131,1.517945647239685,-1.2012124061584473,0.14323967695236206,-0.03077787160873413,-0.49755483865737915,-1.051672339439392
375,-0.9270134510721038,0.04671273517184349,3.0289873179838898,-0.798958420753479,-0.04669575020670891,-0.599570631980896,1.3213729858398438,-1.4023878574371338,2.080760955810547,0.130196213722229,0.05160907655954361,-0.1451345682144165
376,-1.141529779844658,0.01715966547868654,-3.083194314426698,-0.9091374278068542,-0.01715882308781147,-0.4161427319049835,2.047565221786499,-3.3645410537719727,0.3016684055328369,0.39679306745529175,0.300102561712265,0.09772235155105591
377,-1.452306442792407,-0.13154400004018446,-3.057026296961934,-0.9844094514846802,0.13116495311260223,-0.11719152331352234,-1.7829817533493042,-1.9273357391357422,2.0321686267852783,0.7755471467971802,0.4573360085487366,0.57819002866745
378,-1.4478625422536209,-0.12419712587032275,3.079223833391236,-0.9848086833953857,0.12387808412313461,-0.12167984992265701,-2.1212310791015625,-0.03509185463190079,0.4907439649105072,-0.758584201335907,-0.2455211579799652,-0.2898496985435486
379,-1.4989984523497561,-0.181222012398426,2.9184540852886705,-0.9810900092124939,0.1802317053079605,-0.0705614686012268,-0.42775270342826843,0.20292618870735168,-0.21631371974945068,0.48508787155151367,-0.1650644838809967,0.054768629372119904
380,-1.5194563518152624,-0.09164016144404688,2.934582850619015,-0.9944918751716614,0.09151194989681244,-0.05110209435224533,0.8982735872268677,-1.0598640441894531,-1.0102072954177856,0.8469852209091187,-0.34839367866516113,-0.2560115456581116
381,-1.6206485154643575,-0.07899587446369721,3.1049111339648516,-0.995642900466919,0.07891374081373215,0.049676138907670975,2.4771149158477783,-1.1130484342575073,0.5030755996704102,-1.692925214767456,0.17482465505599976,0.008124109357595444
382,-1.6465043688137322,-0.13893423263376384,-2.964268643712715,-0.9875271916389465,0.13848769664764404,0.07490692287683487,1.44698166847229,0.017917444929480553,0.08550167083740234,0.2025235891342163,0.14044296741485596,0.15765225887298584
383,-1.584759582268815,-0.176977193005149,-2.902662772965916,-0.9842843413352966,0.17605479061603546,0.013744707219302654,0.35290536284446716,1.186185359954834,0.7094362378120422,0.9802408218383789,-0.006728038191795349,0.019549965858459473
384,-1.4960289485618052,-0.23541480299428366,-2.970543396315591,-0.969700813293457,0.23324637115001678,-0.0726373940706253,-2.306805372238159,1.176448941230774,0.3500506579875946,0.3538409471511841,0.2730860114097595,0.018865413963794708
385,-1.3213779422032044,-0.16307078533702815,-3.01766322244508,-0.9562000632286072,0.16234901547431946,-0.2435656487941742,0.8837703466415405,1.2071365118026733,-1.5746181011199951,-1.2905497550964355,-0.06841591000556946,-0.3983563184738159
386,-1.1614208431366961,-0.06935241938199291,-2.9031410849605734,-0.9151643514633179,0.06929683685302734,-0.3970796763896942,2.292863607406616,0.7598505020141602,-0.026141364127397537,0.14189469814300537,-0.22064876556396484,0.21794146299362183
387,-1.196278729946955,-0.13623795723443108,-2.7151650225966355,-0.9220603704452515,0.13581690192222595,-0.36243385076522827,0.6180449724197388,1.055625557899475,2.2825605869293213,0.31729358434677124,-0.7700179815292358,-0.11046651005744934
388,-1.2077569317061256,-0.17629449020455037,-2.658562501620185,-0.9203323125839233,0.17538270354270935,-0.3496129512786865,2.104459285736084,-0.9716086983680725,-1.4462647438049316,-0.24459987878799438,-0.48693668842315674,-0.1268121898174286
389,-1.2388427380458897,0.2670836280571789,-2.5979129541335313,-0.9118878245353699,-0.2639195919036865,-0.31433606147766113,1.507302165031433,-0.9381848573684692,-4.398460865020752,-0.2281116247177124,0.20616507530212402,-0.21428942680358887
390,-1.0515754188188675,0.4985029474484875,-2.8619039977636187,-0.7625446915626526,-0.478111207485199,-0.4358154833316803,-4.183526039123535,2.4229061603546143,-1.0486029386520386,-0.5112131237983704,0.8784408569335938,0.08437508344650269
391,-0.9108483844981088,0.33571324470059305,-3.0505358086813197,-0.7459214925765991,-0.32944267988204956,-0.5788511037826538,-0.5302672982215881,-2.2785425186157227,1.6106971502304077,-0.2924238443374634,0.5161949992179871,0.2932828664779663
392,-1.1840463397529222,0.054667463992679875,-2.9255246617496025,-0.9247562289237976,-0.054640237241983414,-0.3766169846057892,2.279057025909424,-0.07644397765398026,3.459453821182251,-1.0124232769012451,0.7815384268760681,-0.4763492941856384
393,-1.341747492028236,-0.11454338956550189,-2.6784308256423692,-0.9675009250640869,0.11429308354854584,-0.2255634367465973,0.15356460213661194,-2.617950201034546,0.8084384202957153,0.8654502630233765,-0.7126054763793945,0.4269031882286072
394,-1.4427443596747536,-0.22908399932712484,-2.7419852017408806,-0.965901255607605,0.22708554565906525,-0.12436605989933014,0.367584764957428,-0.7038753032684326,1.3254139423370361,1.2206162214279175,-0.5903820395469666,0.033362627029418945
395,-1.4813863735470276,-0.23511468485849205,-2.6379713347542886,-0.9686030745506287,0.23295451700687408,-0.08683426678180695,1.6078449487686157,0.4084797203540802,0.19568994641304016,-1.9745426177978516,-0.11579754948616028,1.064266562461853
396,-1.5394499237825319,-0.28967304523051624,-2.449087940511196,-0.9578666687011719,0.2856388986110687,-0.030035512521862984,0.34918081760406494,-2.188821315765381,0.8847329616546631,0.5622977018356323,0.12799638509750366,-0.22709029912948608
397,-1.6556379311122655,-0.45181811349375395,-2.471585264226852,-0.8964188694953918,0.4366019368171692,0.07623662054538727,-0.09349247813224792,0.08355580270290375,2.6144628524780273,1.068446397781372,-0.1272910237312317,-0.2609900236129761
398,-1.4940933320755148,-0.7470120547641831,-2.54064826975812,-0.7315650582313538,0.6794494986534119,-0.05622353404760361,-2.990424871444702,5.513250827789307,3.1721534729003906,-0.18919605016708374,-0.7600311636924744,-0.2655995488166809
399,-1.4187554070384392,-0.7283338610768384,-2.8840581220659542,-0.7376751899719238,0.665627121925354,-0.1130291000008583,-0.4499303102493286,2.265190839767456,-0.5396467447280884,-0.3467515707015991,0.014594316482543945,0.2810436189174652
400,-1.3851793980139389,-0.6452403633669106,-2.98357971651579,-0.785231351852417,0.6013904809951782,-0.1474495232105255,0.13977816700935364,0.3003675937652588,-0.856363832950592,0.7968279123306274,-0.5731921792030334,-0.0041465312242507935
401,-1.445172110359627,-0.6425264708271208,-2.9054428156074574,-0.7942755222320557,0.5992199778556824,-0.10030847042798996,0.7486023902893066,-1.9200533628463745,1.0396220684051514,-0.19333434104919434,-0.7611157298088074,-0.04963964223861694
402,-1.4610462573888134,-0.6122448031683815,-2.7458576304030307,-0.8134362697601318,0.574705958366394,-0.08963486552238464,1.2653268575668335,0.22863604128360748,-0.4255119264125824,-0.8181402087211609,0.3027353882789612,0.25589460134506226
403,-1.5282809902283203,-0.5197549696577011,-2.6511716802338734,-0.8671565651893616,0.4966674745082855,-0.03688967972993851,-0.11883518099784851,-0.25540634989738464,-0.6542080044746399,0.8404690027236938,0.026022285223007202,-0.01581418141722679
404,-1.4650020840842302,-0.5371033251479105,-2.653232617960825,-0.854390561580658,0.5116493105888367,-0.09072834998369217,-0.8760933876037598,0.15940724313259125,0.9684019088745117,1.1119589805603027,-0.29173964262008667,0.05158954858779907
405,-1.5724027244429517,-0.6594912776215616,-2.8028647417797203,-0.7903030514717102,0.6127148866653442,0.0012695420300588012,-2.6851227283477783,0.29913994669914246,-0.13478684425354004,-2.3996078968048096,1.9413316249847412,-0.8800079822540283
406,-1.4278838974339545,-0.6470306103519996,-2.86658146992255,-0.7897433042526245,0.6028198599815369,-0.11363884061574936,-0.6540390253067017,1.5626580715179443,-0.1314743012189865,-0.05478489398956299,-0.5157226920127869,0.32736867666244507
407,-1.4079289266766057,-0.6080190465735992,-2.9860724102243323,-0.8099193572998047,0.57124263048172,-0.13308830559253693,-0.29995930194854736,-0.0876619815826416,-0.3186602294445038,0.7949352264404297,-0.6093591451644897,0.009659945964813232
408,-1.4765581681589137,-0.614184466791498,-2.8589783731638208,-0.8136175870895386,0.5762922167778015,-0.07690160721540451,1.0856491327285767,-2.6361751556396484,0.3861815333366394,-0.6560022830963135,-0.38618290424346924,-0.3914211392402649
409,-1.5450978077984714,-0.6180861599160403,-2.64100142430144,-0.8147197961807251,0.5794764757156372,-0.020941702648997307,1.5031871795654297,-1.469962477684021,0.32252976298332214,-0.2828448414802551,0.2421940565109253,0.12294673919677734
410,-1.6092549298590655,-0.6178900521686826,-2.6058865949475956,-0.814500093460083,0.5793166160583496,0.031339988112449646,-0.05191243812441826,1.2693949937820435,-0.01750444620847702,0.9601908922195435,-0.09549087285995483,-0.12339627742767334
411,-1.5414705091592793,-0.6836853360864917,-2.644606750788646,-0.7749167680740356,0.6316543817520142,-0.022731585428118706,-1.0367133617401123,0.5918868780136108,0.3821876049041748,0.8679344058036804,-0.47010964155197144,0.05367642641067505
412,-1.6575028014504163,-0.6330237758121059,-3.0140056234587966,-0.8032135367393494,0.5915853381156921,0.06981886923313141,-2.1343581676483154,2.5061066150665283,0.222523495554924,-1.7509856224060059,1.2461068630218506,0.3742271661758423
413,-1.5128311133288754,-0.6507314282403504,-3.013250354827174,-0.794304609298706,0.6057685017585754,-0.04609367251396179,0.36993423104286194,0.9398099780082703,-0.01808839663863182,0.24683457612991333,-0.6305336356163025,0.0500914491713047
414,-1.476995743161975,-0.6311319142618601,-3.042390601622085,-0.8038109540939331,0.5900589823722839,-0.07561984658241272,0.4870007336139679,-1.0890971422195435,-0.06828228384256363,0.7123192548751831,-0.7987992167472839,0.10439795255661011
415,-1.6084348095895895,-0.6543670877166223,-2.8943443909084934,-0.7928714156150818,0.60865718126297,0.029856577515602112,2.116290807723999,-3.823302745819092,0.09260238707065582,-1.7249507904052734,0.884476363658905,-0.5327709913253784
416,-1.6258659480720938,-0.6788663113220719,-2.6004389477037892,-0.7771051526069641,0.6279110908508301,0.0428382009267807,1.1228342056274414,-1.6881513595581055,0.08168858289718628,0.2675989866256714,0.10455650091171265,-0.018302086740732193
417,-1.5862870443744013,-0.6811657611999569,-2.554057069619977,-0.7767460346221924,0.6296990513801575,0.012033315375447273,0.24622759222984314,0.5636252760887146,0.46095210313796997,1.0438053607940674,-0.09774714708328247,-0.05796229839324951
418,-1.5798561736616388,-0.7413072548057867,-2.609246527943152,-0.7375560998916626,0.6752526760101318,0.006682328414171934,-1.9002411365509033,0.41402965784072876,0.5753123164176941,-0.10373717546463013,0.1376134753227234,-0.18952834606170654
419,-1.5632799633528953,-0.7061724901328513,-2.8477715138183006,-0.7608296275138855,0.6489263772964478,-0.0057187797501683235,-0.683530330657959,1.6984413862228394,-0.48737019300460815,-0.6658060550689697,0.07574397325515747,-0.42152732610702515
420,-1.459575574357166,-0.6721278566210238,-2.9739864951794277,-0.7776638865470886,0.6226524114608765,-0.08685076981782913,-1.0150399208068848,2.0946242809295654,-0.734688937664032,0.49841272830963135,-0.644213080406189,0.30317461490631104
421,-1.4742095300755766,-0.6604855075570285,-2.9837811564551884,-0.7860137224197388,0.6135003566741943,-0.07615551352500916,1.3081036806106567,-2.070965528488159,0.3429429233074188,0.575915515422821,-1.0282952785491943,-0.01004134863615036
422,-1.6065370840693927,-0.6200032222505726,-2.807119913711208,-0.8133567571640015,0.5810377597808838,0.029082370921969414,2.0244555473327637,-1.3570605516433716,-0.32116279006004333,-1.825894832611084,0.9054581522941589,0.25288474559783936
423,-1.5745924816123158,-0.6200312939172021,-2.6371969757112037,-0.813854455947876,0.5810606479644775,0.0030895324889570475,0.3232845067977905,-1.1063416004180908,0.06317445635795593,0.5315515995025635,0.08480238914489746,-0.0033489465713500977
424,-1.4976266986472735,-0.6550753663220213,-2.580411130294489,-0.7908802032470703,0.6092190146446228,-0.05797190219163895,0.23183873295783997,0.8484412431716919,0.8260725736618042,1.2558612823486328,-0.3315548300743103,0.09471511840820312
425,-1.5304703352969944,-0.7135774608864633,-2.670036686997448,-0.755410373210907,0.6545426249504089,-0.030479196459054947,-2.0726892948150635,0.9820303916931152,-1.1318129301071167,-0.8452670574188232,0.9773848056793213,-0.24430108070373535
426,-1.4878236620911354,-0.7044815245164896,-2.8890206712215347,-0.7593262195587158,0.6476388573646545,-0.06314829736948013,-0.684088945388794,1.3114584684371948,0.1106855645775795,-0.30822449922561646,-0.16936737298965454,-0.3985368609428406
427,-1.3990897499821775,-0.6998841914377806,-3.0175100092657403,-0.7536682486534119,0.6441290974617004,-0.13069678843021393,-0.5718140006065369,1.2534252405166626,-0.2807205617427826,0.6139741539955139,-0.6485695242881775,0.46419286727905273
428,-1.4375118886372373,-0.7085713195479804,-2.9652853376556396,-0.7525581121444702,0.6507496237754822,-0.1009024977684021,1.4003658294677734,-1.9474973678588867,0.44043561816215515,0.35251837968826294,-1.041115164756775,-0.012271955609321594
429,-1.5562350417530766,-0.6989582203396224,-2.734692772596478,-0.7654317021369934,0.6434205174446106,-0.011146456934511662,1.7963120937347412,-0.69289630651474,0.0011168988421559334,-1.2848154306411743,0.7137724161148071,0.22287744283676147
430,-1.6249334373964688,-0.7018841848821502,-2.6196332280393086,-0.7625083327293396,0.6456576585769653,0.04132037237286568,0.4518585503101349,-0.7831791639328003,-0.005836323369294405,0.7215842008590698,0.008730769157409668,-0.1947779655456543
431,-1.5087552434884597,-0.7373435136044555,-2.550148514349485,-0.7388328909873962,0.6723238229751587,-0.04589689522981644,0.28315821290016174,0.7606872320175171,0.9411147832870483,1.1087212562561035,-0.5461031794548035,0.11884915828704834
432,-1.5710662335942935,-0.746933448997233,-2.6587205418781137,-0.7337756752967834,0.6793918013572693,0.00019805105694103986,-2.833613872528076,0.015387733466923237,-1.0783917903900146,-1.4392285346984863,1.0475521087646484,-0.6711574792861938
433,-1.4866935731838584,-0.700094538823926,-2.801105185152291,-0.7620781660079956,0.6442899703979492,-0.06424441188573837,-0.43579918146133423,1.2529600858688354,-0.13561613857746124,-0.2910987138748169,0.12643146514892578,0.028462529182434082
434,-1.3981267701533884,-0.6841368707055854,-2.929422714783886,-0.7634408473968506,0.6320043802261353,-0.1331488937139511,-1.0395082235336304,0.7287729978561401,-0.19325824081897736,0.7227761745452881,-0.6973425149917603,0.35446232557296753
435,-1.464910074466204,-0.6948372529569067,-2.894853236955912,-0.7638557553291321,0.6402604579925537,-0.08118546009063721,1.1701630353927612,-2.261990785598755,0.3729065954685211,0.03318864107131958,-0.8044145107269287,-0.1321018934249878
436,-1.5505778221723492,-0.6978209392346655,-2.650331679165356,-0.7660876512527466,0.6425495147705078,-0.015491257421672344,2.0270206928253174,-0.019598744809627533,-0.012752970680594444,-1.125910758972168,0.3842144012451172,0.22841238975524902
437,-1.5371059035912644,-0.6897156189041791,-2.5072894064686917,-0.7709892988204956,0.6363178491592407,-0.025984786450862885,0.7785338759422302,-0.804418683052063,0.31440162658691406,0.7443474531173706,-0.014857828617095947,0.017058372497558594
438,-1.4497688248654903,-0.7190493984820647,-2.4901235249501155,-0.7469282746315002,0.6586697101593018,-0.0908428430557251,-0.3132972717285156,1.0524110794067383,0.4217052459716797,1.0275068283081055,-0.43064236640930176,0.1136852502822876
439,-1.4914255036273967,-0.7231402022742051,-2.64687353059845,-0.7473713159561157,0.6617422103881836,-0.059444356709718704,-3.168846368789673,1.209564208984375,-0.5604021549224854,-1.4593242406845093,1.109269142150879,-0.5478096604347229
440,-1.3708064418509087,-0.6857560781266292,-2.7925631422064643,-0.7585148811340332,0.6332583427429199,-0.15375058352947235,-0.7716581225395203,1.46452796459198,-0.10317958891391754,-0.3370051980018616,-0.3623995780944824,0.20714110136032104
441,-1.3341741655684527,-0.6599409118636262,-2.9135032662665674,-0.768014669418335,0.6130701899528503,-0.18519869446754456,-0.5886284112930298,-0.6018536686897278,-0.2899884581565857,0.728036642074585,-0.6044336557388306,0.13074004650115967
442,-1.4237687600369513,-0.6755786211735642,-2.806441288126972,-0.7719259858131409,0.6253489255905151,-0.11431934684515,1.453425407409668,-2.253129005432129,0.734054684638977,-0.06674277782440186,-0.7353190183639526,-0.1810755729675293
443,-1.4829344500255652,-0.6806958945122524,-2.5924472785196513,-0.7741373777389526,0.6293339729309082,-0.0681927278637886,1.6757855415344238,-0.17426331341266632,0.07534325867891312,-0.9209158420562744,0.3098903298377991,0.295426607131958
444,-1.5355040736025336,-0.6822974710904993,-2.4504993233674157,-0.7756429314613342,0.630577802658081,-0.02738555707037449,0.5865539908409119,-0.497870534658432,0.10047483444213867,0.6611561179161072,-0.09339207410812378,-0.15352261066436768
445,-1.4365545511430953,-0.6958581100780498,-2.4355103029476264,-0.7605987787246704,0.6410442590713501,-0.1027219220995903,-0.45437371730804443,0.6242534518241882,0.6735517978668213,1.0299774408340454,-0.4191967844963074,0.0945432186126709
446,-1.521619263582825,-0.7038435491307102,-2.6543716288231916,-0.7614388465881348,0.6471526026725769,-0.03747554123401642,-3.6044998168945312,1.5147737264633179,-0.5024580955505371,-1.6435446739196777,1.4981262683868408,-0.4344483017921448
447,-1.4232831310589924,-0.7049319374703074,-2.7891384827228145,-0.7533836960792542,0.6479820013046265,-0.11194721609354019,-0.4606736898422241,1.3120824098587036,0.15530027449131012,-0.12834537029266357,-0.30723804235458374,-0.09807472676038742
448,-1.3704042036040116,-0.7095906372155654,-2.8998432606794298,-0.7434474229812622,0.6515232920646667,-0.1510077714920044,-0.3277488946914673,-0.5500698089599609,-0.1018356904387474,0.753579318523407,-0.7080418467521667,0.1323157697916031
449,-1.476114693952325,-0.7286707244718051,-2.8024440775641506,-0.7427185773849487,0.6658784747123718,-0.07053270190954208,0.8149781227111816,-2.7658145427703857,0.29574185609817505,-1.0431090593338013,-0.2514040470123291,-0.6199732422828674
450,-1.5031195748488553,-0.6978963219370167,-2.5702138758272417,-0.7644416093826294,0.6426072716712952,-0.05181405320763588,1.0267564058303833,-1.5722006559371948,-0.1408330500125885,-0.22304606437683105,0.21020638942718506,-0.1291247010231018
451,-1.5262604968121063,-0.6701144795968895,-2.5187778187347507,-0.7829734683036804,0.6210756897926331,-0.034893445670604706,0.4548804461956024,1.329945683479309,-0.022400494664907455,0.9723960757255554,-0.027066349983215332,-0.0007663369178771973
452,-1.4108118346201355,-0.730992562522606,-2.484437489172674,-0.7350045442581177,0.667608916759491,-0.1186029389500618,-0.7466429471969604,0.4668610692024231,0.4414163827896118,0.9332314729690552,-0.504461944103241,0.1861078143119812
453,-1.5100705841453286,-0.730839852399694,-2.745835094468068,-0.7432417273521423,0.6674952507019043,-0.04518946632742882,-1.467767357826233,1.861625075340271,-0.1609373241662979,-1.6768022775650024,1.2726445198059082,0.030571579933166504
454,-1.4174490212401556,-0.7334814526897739,-2.843970768466573,-0.7341310381889343,0.669459879398346,-0.11346783488988876,-0.9420569539070129,1.7612699270248413,-0.20329570770263672,0.0273897647857666,-0.589076578617096,0.21080362796783447
455,-1.3815400418514971,-0.7264610107027649,-2.9191549153993157,-0.7341822385787964,0.6642283201217651,-0.14063167572021484,0.6464630961418152,-0.9416301250457764,0.2821607291698456,0.6289881467819214,-0.8065012693405151,0.23868465423583984
456,-1.4848493736448733,-0.7259079829109286,-2.770138974817344,-0.7451363205909729,0.6638147830963135,-0.06420035660266876,1.5317494869232178,-3.5019936561584473,-0.28821560740470886,-1.4806174039840698,0.6786686778068542,-0.8891993165016174
457,-1.4529957287087771,-0.7190067941752696,-2.4924648187147986,-0.747245192527771,0.6586376428604126,-0.08843538165092468,0.7661187648773193,-1.4933048486709595,0.003546525724232197,0.24982398748397827,0.08815789222717285,-0.06663964688777924
458,-1.4732257276298961,-0.709445861659816,-2.4447437881100638,-0.7551144361495972,0.6514134407043457,-0.07391165941953659,0.4029626250267029,1.2287824153900146,0.21240296959877014,1.0139491558074951,-0.3546299934387207,0.06355094909667969
459,-1.4512426528949938,-0.7493948697925668,-2.4483237497467787,-0.7268756628036499,0.681195855140686,-0.08731706440448761,-0.7540960311889648,-0.12358462810516357,-0.39760345220565796,0.3131487965583801,-0.07896190881729126,-0.16489547491073608
460,-1.5085625283617952,-0.7351850438481435,-2.664885263606306,-0.7402706742286682,0.6707243919372559,-0.04612942785024643,0.32831478118896484,1.9458394050598145,0.007352238520979881,-1.146142840385437,0.6792663931846619,-0.10970860719680786
461,-1.3848471452549849,-0.7665887372276761,-2.7099911091115847,-0.7078642249107361,0.6936821937561035,-0.1331651508808136,-1.1617438793182373,1.591790795326233,-0.12445186078548431,0.36565548181533813,-0.7050806283950806,0.2855241596698761
462,-1.4317135561296932,-0.7886819685972701,-2.7449943747599153,-0.6979754567146301,0.7094249725341797,-0.09770718961954117,0.9170526266098022,-1.5209349393844604,0.3326711654663086,0.6457293033599854,-0.9191417098045349,0.03629051148891449
463,-1.5959435616859858,-0.8196073337963622,-2.646826081059827,-0.6822925806045532,0.7308778762817383,0.01716138981282711,1.9676251411437988,-2.208306312561035,0.2059973180294037,-2.0372204780578613,1.3119993209838867,0.36443042755126953
464,-1.566184489283442,-0.8430769104377679,-2.396325177731197,-0.6651612520217896,0.7466933131217957,-0.003067637560889125,0.5486000180244446,-1.6232157945632935,0.12298376113176346,0.3345796465873718,-0.16151881217956543,0.0018926863558590412
465,-1.5071760757875243,-0.834753213525187,-2.355481947205019,-0.6700024008750916,0.7411308288574219,-0.04268332198262215,0.31208232045173645,0.7651636004447937,0.3524607717990875,0.8969005942344666,-0.36310964822769165,-0.12905436754226685
466,-1.5114117271450487,-0.8495807759971143,-2.4228826600068403,-0.6591342091560364,0.7510036826133728,-0.03918850049376488,-2.7142605781555176,0.6660336256027222,-0.9866817593574524,-0.7452237010002136,0.703998327255249,-0.3664969205856323
467,-1.508055089990091,-0.7946457958946227,-2.6501380874534983,-0.6991592049598694,0.7136155366897583,-0.0439237616956234,0.5744875073432922,0.5555368065834045,0.23814880847930908,-0.3378280997276306,0.1845167875289917,-0.3533235788345337
468,-1.3879052227926492,-0.819268288350427,-2.691193911560376,-0.6713689565658569,0.7306464314460754,-0.12417501956224442,-0.9669294953346252,0.7960253357887268,-0.27504175901412964,0.6310095191001892,-0.7972358465194702,0.2740926146507263
469,-1.488336006631284,-0.8319749479053227,-2.7124788854244097,-0.6711286902427673,0.7392627596855164,-0.055467262864112854,0.3895348310470581,-1.8681714534759521,0.30015087127685547,0.2727828025817871,-0.9100239276885986,-0.04733120650053024
470,-1.5959796958128323,-0.84339426757945,-2.5602315174288295,-0.6647205948829651,0.7469043731689453,0.01674344390630722,1.9044570922851562,-0.1469036489725113,-0.0614357627928257,-1.1107310056686401,0.3404063582420349,0.5656235218048096
471,-1.6221672696945106,-0.8533961815582142,-2.4447963760274654,-0.6565604209899902,0.7535175085067749,0.033757828176021576,0.8548245429992676,-0.8755542039871216,0.3885536789894104,0.58456951379776,-0.19303178787231445,-0.053075436502695084
472,-1.5488721404673014,-0.9025320947406943,-2.342220800517557,-0.6194756031036377,0.7848984003067017,-0.013583674095571041,0.5219919681549072,-0.17586030066013336,0.44433531165122986,0.9715264439582825,-0.7720962762832642,-0.04800081253051758
473,-1.5860638998649592,-0.8944944774298766,-2.427664387243522,-0.6258402466773987,0.7798927426338196,0.009555804543197155,-2.711895704269409,1.2212567329406738,-1.1880043745040894,-1.031950831413269,1.2155754566192627,-0.4261665344238281
474,-1.476009718098226,-0.8405916488250469,-2.5732371979575945,-0.6640280485153198,0.7450379133224487,-0.06313014775514603,-0.08450303971767426,1.8205039501190186,-0.018465988337993622,-0.3514138460159302,0.22923582792282104,0.15211939811706543
475,-1.3755832446461431,-0.8227977536155774,-2.6713187801085687,-0.6672540307044983,0.7330516576766968,-0.1319369524717331,-0.6589468121528625,0.015556830912828445,-0.3523157835006714,0.5138421654701233,-0.686649739742279,0.21169467270374298
476,-1.4620692697780449,-0.821719293081644,-2.611493000346506,-0.676941990852356,0.7323176860809326,-0.07389331609010696,0.5480493903160095,-2.0866293907165527,0.09394044429063797,-0.06436043977737427,-0.6926143765449524,-0.19295239448547363
477,-1.5074060278935992,-0.802040199197698,-2.455390774943341,-0.6938453316688538,0.7187759876251221,-0.04404207319021225,1.8791325092315674,-0.2708292007446289,-0.04507999122142792,-0.8079246878623962,0.36287379264831543,0.21072906255722046
478,-1.5324243297154077,-0.7935723068797715,-2.3311813374150443,-0.7007868885993958,0.7128630876541138,-0.026903798803687096,0.5122423768043518,-0.637452244758606,0.01652192696928978,0.5743374228477478,-0.14871519804000854,0.04507702589035034
479,-1.4326573240305236,-0.8062940703742267,-2.2700593099671997,-0.6855838894844055,0.7217269539833069,-0.09531291574239731,0.002697321120649576,0.6112517714500427,0.5095220804214478,0.9412603378295898,-0.5930039882659912,0.06062968820333481
480,-1.4663266345558645,-0.810102159408343,-2.3879352471340507,-0.6856657862663269,0.7243576049804688,-0.07189302891492844,-2.1882758140563965,0.7539434432983398,-0.6990826725959778,-0.6304047703742981,1.2606582641601562,-0.508459746837616
481,-1.370399619440588,-0.8212858439572102,-2.4480460324275892,-0.6676463484764099,0.7320224642753601,-0.13561438024044037,-1.1455881595611572,2.7023892402648926,0.28174257278442383,-0.7607593536376953,-0.2529270648956299,0.37781715393066406
482,-1.3745430472016087,-0.80855726501409,-2.6924867488292694,-0.6772870421409607,0.7232916355133057,-0.1346530020236969,-0.9174768328666687,0.52852463722229,-0.539103090763092,0.48237133026123047,-0.5850012302398682,0.1795749068260193
483,-1.43272626609647,-0.823628854423673,-2.636189149016534,-0.6730965971946716,0.7336167097091675,-0.09352957457304001,0.4337116777896881,-2.072195529937744,1.00029456615448,-0.36350929737091064,-0.6068618893623352,-0.2869635820388794
484,-1.4795478114894982,-0.8200903915037489,-2.4653424542682973,-0.6793171167373657,0.7312074899673462,-0.06215929239988327,0.7437217235565186,-0.9603878855705261,-0.20612986385822296,-0.6243022084236145,0.48868685960769653,-0.0016682110726833344
485,-1.5393784565781037,-0.8087422075112224,-2.366894806159594,-0.6900681257247925,0.7234193682670593,-0.02168760634958744,0.6887177228927612,-0.08212678134441376,-0.10344839841127396,0.64635169506073,-0.1027224063873291,-0.024073539301753044
486,-1.431981712216673,-0.8399660374378639,-2.3097339847220386,-0.6610674262046814,0.7446204423904419,-0.09235982596874237,-0.35667145252227783,0.6814122796058655,0.3887662887573242,0.9339708685874939,-0.5910102128982544,0.09020835161209106
487,-1.572925334398847,-0.8351608507617096,-2.5854298851490545,-0.6710569262504578,0.7414044737815857,0.0014286874793469906,-1.9130752086639404,1.7718406915664673,-0.34678924083709717,-1.484201192855835,1.5641984939575195,-0.11548817157745361
488,-1.4203644068073753,-0.8318632415563206,-2.628868252280354,-0.6658936142921448,0.7391875386238098,-0.10093417763710022,-1.0349136590957642,2.214899778366089,-0.0930694043636322,-0.24517822265625,-0.42011094093322754,0.38767731189727783
489,-1.3877154711201525,-0.8084278007868718,-2.7091540895980812,-0.6790940761566162,0.7232022285461426,-0.12573711574077606,0.3710789680480957,-0.9811083078384399,-0.013474885374307632,0.4984757900238037,-0.7621273994445801,0.19356238842010498
490,-1.5418435195168458,-0.8149679819862179,-2.6251331459311564,-0.6856040358543396,0.7277036309242249,-0.019855709746479988,1.3462882041931152,-3.0179481506347656,-0.3859981596469879,-1.3763923645019531,0.7507966160774231,-0.34621793031692505
491,-1.5262477341043936,-0.8008956850591773,-2.413941621738998,-0.6953731179237366,0.7179798483848572,-0.03099840320646763,0.4685327112674713,-1.0975892543792725,-0.1644047498703003,0.22691315412521362,0.06851905584335327,-0.15059643983840942
492,-1.4732284262040114,-0.7996938371948618,-2.3378771060135626,-0.6936115622520447,0.7171427607536316,-0.06788977980613708,0.42832788825035095,1.2540161609649658,0.25750428438186646,0.9008870720863342,-0.29407769441604614,0.09501989185810089
493,-1.409021908370046,-0.835760506700762,-2.387144964649248,-0.6618573665618896,0.7418067455291748,-0.1080155298113823,-1.4860326051712036,-0.04380844533443451,-0.18289096653461456,0.5160902142524719,-0.07667618989944458,-0.14569233357906342
494,-1.4814236175751254,-0.7994786952164681,-2.6244190715953413,-0.6942986249923706,0.7169927954673767,-0.06221709027886391,0.05783812329173088,1.728627324104309,-0.02154720388352871,-0.6456519961357117,0.38551580905914307,-0.5534445643424988
495,-1.3663809770922335,-0.8129899865567197,-2.7290770560549844,-0.6730196475982666,0.7263455390930176,-0.13952435553073883,-0.7639526724815369,1.7434533834457397,-0.6783504486083984,0.4062654376029968,-0.6820797324180603,0.28944194316864014
496,-1.3715758900513242,-0.7846918361629356,-2.723884850926981,-0.6936103105545044,0.7066071629524231,-0.14003893733024597,1.1492514610290527,-1.5286734104156494,0.30029430985450745,0.45197218656539917,-0.9006837606430054,0.030251935124397278
