,attitude.roll,attitude.pitch,attitude.yaw,gravity.x,gravity.y,gravity.z,rotationRate.x,rotationRate.y,rotationRate.z,userAcceleration.x,userAcceleration.y,userAcceleration.z
0,-1.4436651054914782,-0.690523699914688,2.9012768824147934,-0.7646910548210144,0.6369410157203674,-0.09774326533079147,0.29401665925979614,-1.7550781965255737,-0.35350728034973145,0.09869074821472168,-0.3869563341140747,-0.15260767936706543
1,0.32724917372185724,0.2506559104536766,2.2535883421849574,0.3113943934440613,-0.24803942441940308,-0.917338490486145,0.35004299879074097,-0.019889526069164276,0.39384424686431885,-0.012810438871383667,-0.04027538001537323,0.2232925295829773
2,0.3488782673324009,0.26116609628808246,2.275249585884688,0.3302517831325531,-0.2582072913646698,-0.907889187335968,-0.13245442509651184,0.6433966755867004,0.3956930637359619,-0.0465756356716156,-0.1410999894142151,0.24440652132034302
3,0.4070153275531394,0.33900892138387356,2.296074897306436,0.3733391761779785,-0.33255258202552795,-0.8660407662391663,1.194718360900879,0.1759592592716217,0.36020198464393616,0.1419501006603241,-0.14822131395339966,-0.15933454036712646
4,0.5295253744239101,0.3706018888893902,2.426285039952252,0.47083067893981934,-0.3621765375137329,-0.8044542670249939,-0.21075691282749176,3.3392562866210938,2.2218782901763916,-0.06264284253120422,-0.0779632031917572,-0.1849408745765686
5,0.7567759911433695,0.3900797354467595,2.494813957773649,0.6350041627883911,-0.380262166261673,-0.6724361181259155,-0.1424318552017212,1.0226534605026245,0.2328711450099945,0.11607921123504639,-0.18092557787895203,0.06229817867279053
6,0.8816036223079677,0.4237958258606821,2.5491938289814815,0.7034856081008911,-0.411223441362381,-0.5796579122543335,-0.20165559649467468,2.280696392059326,0.297711044549942,0.3071345090866089,0.2677450478076935,0.16275733709335327
7,1.0316640512906563,0.4750460267909816,2.5115144618109726,0.7631324529647827,-0.45737937092781067,-0.45654451847076416,1.6129674911499023,1.090530276298523,0.05368431285023689,0.11357653141021729,0.11381250619888306,0.05661168694496155
8,1.1972272810492859,0.45559028720254974,2.3766510897689628,0.8360670208930969,-0.4399924576282501,-0.32771721482276917,0.18877974152565002,1.3057465553283691,-0.8764115571975708,-0.13790112733840942,0.05696636438369751,-0.027553141117095947
9,1.2851863513469042,0.27958743501894623,2.5660796077130703,0.9222322702407837,-0.2759591341018677,-0.27080249786376953,-4.460122585296631,0.3804081678390503,-1.256913661956787,-0.14928317070007324,0.7148934602737427,-0.4981336295604706
10,1.17380164213352,-0.19690537878364256,3.019073707479549,0.9044066667556763,0.19563545286655426,-0.37917718291282654,-6.918150424957275,-0.030343154445290565,-5.896945476531982,1.0909851789474487,0.42384088039398193,0.005397915840148926
11,1.5482799276705834,-0.6260330681923781,-2.8381070332074856,0.8101527690887451,0.5859347581863403,-0.018244806677103043,-2.4174442291259766,3.2015907764434814,-0.5471120476722717,0.9027225375175476,-1.2134678363800049,-0.5395860075950623
12,1.7368658478493417,-0.5381507257652103,-2.9059281588531114,0.8468446731567383,0.5125489830970764,0.14194238185882568,2.025186061859131,1.2002005577087402,2.633882761001587,-0.08677387237548828,-0.8605561852455139,-0.7194111347198486
13,1.6450865125945788,-0.456111286931279,-3.092183532659333,0.8952959775924683,0.4404602646827698,0.06663433462381363,1.032867431640625,-0.7558953762054443,1.146589994430542,-0.4348924160003662,-0.1712188720703125,-0.009642831981182098
14,1.540656043923989,-0.345384850346764,3.012371929567101,0.9405179023742676,0.3385588228702545,-0.02835606224834919,1.3904674053192139,-0.5168021321296692,-0.11321768909692764,-0.07787752151489258,0.6481813192367554,-0.6767678260803223
15,1.4591391269801726,-0.34739098977975236,2.821486277880563,0.934408962726593,0.3404458165168762,-0.1047692522406578,1.9773684740066528,0.5337054133415222,0.4738021492958069,0.255868136882782,0.14890354871749878,-0.13242864608764648
16,1.5573904105890117,-0.3890301541041215,2.7442976890562205,0.9251943230628967,0.37929120659828186,-0.012403820641338825,1.0502934455871582,-0.11173020303249359,0.28387728333473206,-0.28600358963012695,-0.42694440484046936,-0.30211031436920166
17,1.4809697385383538,-0.35272765196388817,2.7240816358931315,0.9346504807472229,0.3454588055610657,-0.08418300747871399,-0.8192765712738037,-0.8814430832862854,0.007448500022292137,-0.6888008117675781,-0.24838238954544067,0.056839220225811005
18,1.267256301672825,-0.44124767424426925,2.8760768868891153,0.8628825545310974,0.42706796526908875,-0.2702714502811432,-3.0657260417938232,-5.413664817810059,-4.621725082397461,0.8696919083595276,0.12868762016296387,0.1264115571975708
19,0.8844740642824853,-1.1326419137648664,2.8569763295016077,0.328206866979599,0.9055362343788147,-0.26885783672332764,-2.902506113052368,2.083407163619995,-4.677054405212402,-0.1367395520210266,-0.08127164840698242,-0.5047780275344849
20,1.366414447076897,-1.4268687326542089,3.038945914446332,0.14044521749019623,0.9896602630615234,-0.02911093272268772,-2.357477903366089,3.15544056892395,-1.6791937351226807,-0.21104766428470612,-0.6413480043411255,0.03638935089111328
21,1.337744283454498,-1.4746160577255172,2.831008440218349,0.09343530237674713,0.9953782558441162,-0.022178275510668755,1.287833333015442,0.8977611064910889,0.022392038255929947,-0.16066554188728333,-0.802873432636261,0.0069499630481004715
22,0.6453191208003067,-1.4320627926855938,2.183262593067293,0.08317402750253677,0.9903919100761414,-0.1104796901345253,0.8720771670341492,2.282344341278076,-0.1788024753332138,-0.2837202847003937,1.5990855693817139,0.3329681158065796
23,2.0727729778755157,-1.4667161475839217,-2.857818377949075,0.09107552468776703,0.9945885539054871,0.04998879134654999,-0.45455631613731384,-2.867638349533081,0.6530908942222595,-0.10123787075281143,0.40398627519607544,-0.9761972427368164
24,1.5504557336440608,-1.529763859576281,3.122838585074216,0.041012778878211975,0.9991582632064819,-0.0008343393565155566,0.44178199768066406,0.5112148523330688,-0.8798899054527283,-0.05138877034187317,-0.9050115346908569,0.16884887218475342
25,1.1402513159014522,-1.533879904468199,2.6559132485145405,0.03354288637638092,0.9993186593055725,-0.015405604615807533,-0.23649191856384277,0.7150648236274719,0.6202161312103271,0.013454172760248184,-0.34113067388534546,0.44364356994628906
26,2.0304283797617506,-1.534505942589946,-2.7744793612180203,0.0325179286301136,0.9993415474891663,0.016096068546175957,-0.6073957681655884,-1.5508882999420166,1.4829214811325073,0.5535264015197754,1.022951602935791,-0.2491741180419922
27,2.687832040425288,-1.5056393349093014,-1.8660319105586571,0.02854158729314804,0.9978780150413513,0.05852263793349266,-0.581846296787262,-3.161206007003784,0.1654670089483261,0.08197781443595886,-1.005599021911621,-0.10167455673217773
28,2.3517315513430703,-1.473646019413357,-2.237247073801235,0.06889308243989944,0.9952846169471741,0.06828088313341141,0.3679419457912445,1.1228396892547607,-0.1404910385608673,-0.033630043268203735,-0.5975185036659241,-0.09444975852966309
29,1.7650804872330055,-1.4822516699759984,-3.006910986467545,0.08676647394895554,0.9960824847221375,0.017072703689336777,0.31122785806655884,2.1014254093170166,0.5206565856933594,-0.27715039253234863,1.0353049039840698,0.6112995147705078
30,1.9500027174780385,-1.476612622100249,-2.8303067670110886,0.08736208081245422,0.9955679774284363,0.034813158214092255,1.5585391521453857,-2.6989777088165283,-0.3422622084617615,0.11348934471607208,0.5056220293045044,-0.33425164222717285
31,1.2473238049712323,-1.4545325979182155,2.719331756500159,0.10998540371656418,0.9932489991188049,-0.03687235713005066,-0.048650313168764114,-0.15363138914108276,1.2084338665008545,0.3570556044578552,-0.4635096788406372,-0.26572465896606445
32,1.0614959205473564,-1.4264624632007061,2.809883999589704,0.12557853758335114,0.9896019101142883,-0.07012815028429031,0.5426671504974365,-1.9171942472457886,-0.33873844146728516,0.11728036403656006,-0.9152153730392456,0.3143755793571472
33,0.713360056822969,-1.5092786800946196,2.3835390778611836,0.04022978991270065,0.9981083869934082,-0.04648757353425026,-1.1235921382904053,1.0629204511642456,-2.361455202102661,0.14876553416252136,1.5015864372253418,0.04662490263581276
34,2.5775840492090323,-1.5101816223232511,-1.7977484595141142,0.03238431364297867,0.9981634616851807,0.0511966235935688,0.598131000995636,-0.63004469871521,0.7122525572776794,-0.17937225103378296,-0.11184144020080566,-0.22475004196166992
35,2.9606463454913547,-1.5264304989138682,-1.5728585006889888,0.007980908267199993,0.9990159869194031,0.04362407326698303,0.18018943071365356,1.1707671880722046,0.11181642860174179,0.12542670965194702,-1.1328967809677124,-0.3197014331817627
36,1.3122745148006871,-1.5446696799177757,2.8898112719448386,0.02525310032069683,0.9996587038040161,-0.006677913945168257,0.5623424053192139,4.109597682952881,-0.5572142601013184,-0.2597043812274933,-0.31083130836486816,0.38463813066482544
37,-2.4602856936333772,-1.5339144389739368,-1.0110651602487917,-0.023222967982292175,0.9993199110031128,0.028641147539019585,-0.8746167421340942,-4.4097795486450195,0.6862562298774719,-0.44360440969467163,1.3889703750610352,-1.2355960607528687
38,-0.11437928654072102,-1.4661059377338774,1.568652715897827,-0.011926382780075073,0.9945249557495117,-0.10381537675857544,0.9241271018981934,0.7276719212532043,0.3342530429363251,0.5136353969573975,-0.48782652616500854,0.07180239260196686
39,0.6579120286527155,-1.4844462397122644,2.4336522050045324,0.052734363824129105,0.9962741732597351,-0.0682411640882492,-1.595107913017273,-2.735114812850952,-0.17876216769218445,-0.011215213686227798,-0.8639346957206726,0.03247452527284622
40,0.6209080081425474,-1.468862384764447,2.440649700002772,0.05919959396123886,0.9948092103004456,-0.0827641412615776,0.3666469156742096,0.6500109434127808,0.5516969561576843,-0.10787516832351685,-0.1283542513847351,0.3085942268371582
41,2.0979363258281767,-1.4951949131451978,-2.3519865062916847,0.06527841836214066,0.997143566608429,0.03799736499786377,0.11812350898981094,-1.2332767248153687,1.9710876941680908,0.46119558811187744,0.9436067342758179,-0.07603751868009567
42,2.1264817330484624,-1.4280409821444806,-2.329571071317167,0.12086506187915802,0.9898277521133423,0.07505178451538086,0.07780404388904572,-1.313207983970642,-1.0332483053207397,-0.2714387774467468,-0.5044609308242798,0.15723276138305664
43,3.089695338838123,-1.538778698806503,-1.313347904658924,0.0016605147393420339,0.9994874596595764,0.03196742758154869,0.5526747107505798,0.5611851215362549,-1.643354892730713,0.1319149136543274,-0.38588589429855347,0.1865842342376709
44,-1.8334906560752111,-1.414257555854119,0.022446259073438203,-0.15055187046527863,0.9877728223800659,0.04048469662666321,-0.7029290795326233,0.08751528710126877,-0.3572048246860504,-0.5785741209983826,0.7929736375808716,0.5248229503631592
45,-2.3463814010846336,-1.367918587590573,-0.34253604673564764,-0.14386487007141113,0.9794908165931702,0.141068696975708,-0.49809595942497253,0.6905890703201294,0.7933928370475769,-0.28229784965515137,0.18266421556472778,-0.1893627792596817
46,-2.718196384409633,-1.343201354460226,-0.9838036061304257,-0.09270452708005905,0.9742118716239929,0.20571185648441315,-2.218472719192505,-1.823889136314392,0.817650556564331,0.08138247579336166,-0.5836172699928284,-0.613670825958252
47,-3.059303978795003,-1.3524551934853648,-1.1439391419283698,-0.01780444011092186,0.9762580990791321,0.21587704122066498,0.6545330286026001,0.6248496770858765,0.3015576899051666,0.26342517137527466,-0.6925668120384216,0.31293153762817383
48,-2.7551512026243716,-1.3437353168619526,-0.8777426278411447,-0.08484445512294769,0.9743322134017944,0.20851367712020874,0.3842245042324066,-4.40381383895874,-0.22904004156589508,0.3796442747116089,1.4709038734436035,0.2746557891368866
49,-3.111555276926954,-1.3429892524376008,-1.0522185882220563,-0.0067826793529093266,0.9741640090942383,0.22574006021022797,-0.016334977000951767,-0.3197082579135895,0.050687532871961594,-0.3178022801876068,-0.3342561721801758,-0.22474825382232666
50,-3.0022584224583833,-1.3281557510135058,-0.9070916450296489,-0.03336918726563454,0.9707069396972656,0.23793838918209076,-0.10441761463880539,0.32385173439979553,-0.4018525779247284,-0.24002254009246826,-0.4858741760253906,-0.21434831619262695
51,-2.2630157526405767,-1.3290708830357474,-0.3832694447605924,-0.1842808872461319,0.9709264039993286,0.15278252959251404,0.6752758622169495,4.360502243041992,-0.8106338381767273,-0.1546778380870819,-0.4117070436477661,0.3147314786911011
52,-2.1348585842091183,-1.258741143816076,-0.43575898399918256,-0.25945550203323364,0.9517046213150024,0.16413751244544983,-0.7890611290931702,-0.8933174014091492,-0.36958804726600647,-0.43886294960975647,0.8440411686897278,-0.07430900633335114
53,-1.9987954450930183,-1.202058378446952,-0.3764136626009245,-0.32792598009109497,0.9327830076217651,0.1496003270149231,0.3941597044467926,1.98332679271698,0.4235546588897705,0.5469964742660522,-0.3304118514060974,-0.19026495516300201
54,-1.9961695208987995,-1.23280330419218,-0.2430376571805081,-0.30204400420188904,0.9434220790863037,0.13683585822582245,1.2778496742248535,-2.592817544937134,-0.17507174611091614,0.2907067835330963,-0.47999751567840576,-0.27535510063171387
55,-1.1723835334623816,-1.2614298706199898,0.6909641794955551,-0.2806093990802765,0.9525266289710999,-0.11811510473489761,3.384247064590454,0.9859045743942261,0.7377759218215942,0.5187533497810364,0.9001191258430481,0.5484739542007446
56,-0.11609374595896901,-1.2795301501469076,1.3875978466280807,-0.033263254910707474,0.9578810334205627,-0.285232275724411,-1.6541486978530884,-0.18348181247711182,0.43103405833244324,0.03617769479751587,0.19731611013412476,-1.273346185684204
57,-0.38323237086599526,-1.4212063858011006,1.169317082657864,-0.055726308375597,0.9888322949409485,-0.1382218897342682,-1.3186001777648926,1.4151277542114258,0.025962693616747856,-0.048384420573711395,-0.44285762310028076,0.1876450926065445
58,-1.2260740976275626,-1.4388185594939202,0.14435267227347623,-0.12385354936122894,0.991303563117981,-0.04447072371840477,0.19426068663597107,1.933754801750183,-1.8202375173568726,-0.30764976143836975,-0.8346415758132935,0.09429061412811279
59,-0.899878748719688,-1.2324593356325049,0.4049364486128963,-0.25997599959373474,0.9433079361915588,-0.20635563135147095,2.1512527465820312,1.1815682649612427,-0.1776847392320633,-0.18143028020858765,0.5945186018943787,0.36690860986709595
60,-0.7919605455551223,-1.167948739383295,0.45925237965425303,-0.2790270745754242,0.9199483394622803,-0.2753887176513672,0.22272495925426483,-0.35148727893829346,-0.18297025561332703,0.2875262200832367,0.3066751956939697,0.2604656219482422
61,-0.7402148506220977,-1.2525069949703822,0.6567781694241168,-0.21106278896331787,0.9497721195220947,-0.23105263710021973,-0.5667962431907654,-1.1687334775924683,1.4983763694763184,0.30409562587738037,-0.2883036732673645,-0.07453513145446777
62,-0.5958050486489688,-1.278861460117161,0.8322510027848847,-0.16150958836078644,0.9576888084411621,-0.23821613192558289,1.470746397972107,-0.8300312757492065,-0.2261330485343933,0.11489400267601013,-0.3063673973083496,-0.05836892127990723
63,-0.47086637255460534,-1.2315839546699134,1.1491628944882624,-0.1509522646665573,0.9430170655250549,-0.2965335547924042,-0.2524460554122925,-1.306146264076233,1.3250912427902222,0.471646249294281,0.8257664442062378,0.18430522084236145
64,0.13281541435851235,-1.292858145979935,1.7475044727468465,0.036334019154310226,0.9616231918334961,-0.2719573378562927,-0.3480336666107178,1.5096979141235352,2.9812071323394775,0.02882099151611328,0.0976419448852539,-0.015258848667144775
65,1.0831369080839077,-1.1063189739767372,2.6205188011319307,0.3957380950450897,0.8940557837486267,-0.20989370346069336,-0.13697879016399384,1.135391354560852,3.5278148651123047,-0.3522963523864746,0.009218573570251465,-0.11212775111198425
66,1.4235706659832097,-0.7501255579638603,2.770256081123531,0.7236886024475098,0.6817306280136108,-0.1073220744729042,-0.3926805853843689,1.3876304626464844,2.9832608699798584,-0.6383004784584045,0.10342556238174438,0.3947213292121887
67,1.576527104245263,-0.5697564720803343,2.8120055620760236,0.8420186042785645,0.5394269824028015,0.004825474228709936,1.0662199258804321,-0.5536378026008606,2.7948720455169678,0.8865885138511658,0.144944965839386,0.022747159004211426
68,1.563455728052378,-0.3172755596721031,2.7129412358521146,0.9500633478164673,0.3119792640209198,-0.006974159274250269,0.2779611647129059,-0.8677764534950256,2.1852378845214844,-0.2591301202774048,-0.3428172767162323,-0.11971956491470337
69,1.4707946594886296,0.05684711966973023,2.770110457942466,0.9933968186378479,-0.05681650713086128,-0.09967382252216339,-1.685770034790039,1.2212109565734863,3.7224559783935547,-0.8427466750144958,0.07289927452802658,0.6615024209022522
70,1.391000973815548,0.08804446833503285,2.992204494807869,0.9800692796707153,-0.08793076127767563,-0.17813554406166077,-2.6950135231018066,-1.1076120138168335,-4.141700267791748,0.3131282329559326,-0.023656748235225677,0.27194660902023315
71,1.3197089598994662,-0.08316832170097681,3.108380201765379,0.9652946591377258,0.0830724760890007,-0.2475985735654831,-0.18846748769283295,-1.2807092666625977,0.535182774066925,0.03623110055923462,0.2448083758354187,-0.13565638661384583
72,1.1751620330903254,-0.05306251828302092,3.130795815010498,0.921453595161438,0.0530376210808754,-0.3848511576652527,0.5772511959075928,-1.829493761062622,0.14968375861644745,-0.5941067934036255,-0.0919017568230629,0.24164742231369019
73,0.9859063794464064,-0.0412981928271681,3.120401820680539,0.8330618739128113,0.04128645360469818,-0.551636815071106,-0.42067745327949524,-3.3312361240386963,0.06029645353555679,-0.8676994442939758,0.10824967920780182,-0.03733712434768677
74,0.8950046696309655,-0.1877265126324932,3.08606243026739,0.7665045261383057,0.18662583827972412,-0.614525556564331,0.8353540897369385,-0.579639196395874,-0.3228750228881836,0.9955651164054871,0.18867935240268707,-0.9323952198028564
75,0.7895858123720989,-0.18545736848675135,3.00818773389267,0.6978855729103088,0.18439607322216034,-0.6920649409294128,0.25030744075775146,0.2993406355381012,-0.44794678688049316,0.006612718105316162,-0.25127536058425903,0.15985357761383057
76,0.9737413518040049,-0.1447059742276258,3.008943183205626,0.8183514475822449,0.14420148730278015,-0.5563333630561829,1.0873339176177979,3.6323277950286865,1.5674899816513062,-0.008887946605682373,-0.22452375292778015,0.35314738750457764
77,1.3307172383588013,0.0646172514859342,2.996095402384117,0.9692920446395874,-0.0645722970366478,-0.23728320002555847,-0.10988479107618332,2.46258807182312,0.8309401273727417,-0.6490253210067749,-0.1007566899061203,0.02663564682006836
78,1.2664058719179745,0.16971750185444187,3.0299224750042444,0.9403228759765625,-0.1689039170742035,-0.29540562629699707,0.02166997827589512,-2.1262357234954834,1.0030066967010498,0.5935059189796448,-0.1609758585691452,-0.2719772160053253
79,1.0750891002128986,0.21546989944212255,3.105597262093919,0.8592919111251831,-0.21380648016929626,-0.4646548330783844,-1.381460189819336,-1.931383728981018,0.389448344707489,-0.18154233694076538,0.36880528926849365,0.2935580313205719
80,0.8530493452765012,0.1589451063640408,-3.1014046153115395,0.7437940835952759,-0.15827669203281403,-0.6493988633155823,-1.3708399534225464,-1.5585285425186157,-0.6393423080444336,-0.2261090874671936,0.00503268837928772,0.17239385843276978
81,0.7067231116120769,0.05120316424841638,-3.0442117166470424,0.6484941840171814,-0.05118079483509064,-0.7594970464706421,-0.9388718008995056,-0.8714492917060852,-0.24756655097007751,0.6059002876281738,0.22421546280384064,0.11069339513778687
82,0.7066776492510833,0.02401776881216233,-3.0563681921686965,0.6491233706474304,-0.024015460163354874,-0.7603039741516113,1.001739263534546,-0.314207524061203,-0.383367121219635,0.04321366548538208,-0.09747502207756042,-0.7511553764343262
83,0.6452418543585341,0.20862638043484605,-3.072976228521171,0.588351309299469,-0.2071162611246109,-0.7816300988197327,1.7836475372314453,-0.26482826471328735,2.3576855659484863,-0.114352285861969,-0.016013026237487793,0.23428207635879517
84,0.6381964467271729,0.4571325657824614,-2.969507695247531,0.5345775485038757,-0.4413769245147705,-0.7207033038139343,0.11758139729499817,0.7657176852226257,1.9202195405960083,-0.11322134733200073,0.241502046585083,0.5669863224029541
85,0.6422603434527685,0.5635840315591489,-2.819865722499143,0.5063680410385132,-0.5342193841934204,-0.6769055128097534,-0.0015486115589737892,0.640966534614563,1.5158560276031494,0.21212255954742432,-0.6169952154159546,0.23244750499725342
86,0.749051813390675,0.8145821853009426,-2.6928048589139815,0.4672454297542572,-0.7274389863014221,-0.5025079846382141,0.6200223565101624,1.6121573448181152,2.3846354484558105,0.2070557177066803,-0.31194400787353516,-0.5930578112602234
87,0.716605550989024,0.8093729806699355,-2.710834950078646,0.4531807601451874,-0.7238547205924988,-0.5202515721321106,-0.8071362972259521,-1.2048910856246948,-1.4625883102416992,-0.268061101436615,0.7065664529800415,0.08668828010559082
88,0.6974036906873031,0.6193437266447765,-2.796639673355566,0.5229417085647583,-0.5805009007453918,-0.6241399049758911,-0.3240123391151428,-0.5483682155609131,-1.1072262525558472,0.06768018007278442,0.11303269863128662,0.3848058581352234
89,0.7025696814234428,0.5335880350375801,-2.8427849908994243,0.5563538074493408,-0.508625864982605,-0.6570922136306763,1.5403406620025635,1.4958053827285767,-0.48070764541625977,0.2541930675506592,-0.9383498430252075,-0.6604584455490112
90,0.68641062129984,0.5664132966801351,-3.025764059455302,0.5347903966903687,-0.5366089344024658,-0.652725100517273,0.48558560013771057,-1.4444749355316162,-0.8290790915489197,-0.17585790157318115,0.08644413948059082,0.17660510540008545
91,0.7710173138815158,0.5639452733644519,-3.0471499220575438,0.588957667350769,-0.53452467918396,-0.606145441532135,-0.2567348778247833,3.2246742248535156,0.36481475830078125,-0.43994033336639404,0.5544373989105225,0.7022299766540527
92,1.2436996455832618,0.5708525581146309,-2.936518503633901,0.7968267202377319,-0.5403496026992798,-0.2703506648540497,-1.5708330869674683,5.182764053344727,0.7823383808135986,-0.12614190578460693,0.2603965997695923,0.37481236457824707
93,1.577191045841868,0.25755009921019045,-2.734609788510057,0.9669972062110901,-0.25471222400665283,0.0061837597750127316,-1.024764895439148,0.4564264118671417,0.558501124382019,1.8093090057373047,-1.5709255933761597,-0.5544778108596802
94,1.3628897090745413,0.3129654965829555,-2.806967731178691,0.9309359192848206,-0.3078814446926117,-0.19638551771640778,-0.14723654091358185,0.9649069309234619,0.4128548502922058,-0.7530947327613831,0.1636553406715393,0.7575733065605164
95,1.5011115452088748,0.31815645199492437,-2.834426427362768,0.9475086331367493,-0.3128160536289215,-0.066134013235569,0.4695133566856384,-0.3551907241344452,-0.023186704143881798,-0.6507250666618347,0.3869432508945465,0.09230279177427292
96,1.4913141081777264,0.31591137155907517,-2.8181990380897517,0.9475129246711731,-0.31068286299705505,-0.07546941936016083,-0.8714557886123657,-0.12279696762561798,-0.5451357364654541,1.1738402843475342,-0.38205087184906006,0.28625428676605225
97,1.55286998016721,0.36393993248917783,-2.8612490240688064,0.9343514442443848,-0.35595884919166565,-0.016751302406191826,1.2238225936889648,0.06567129492759705,0.9059145450592041,0.11215728521347046,-0.15643125772476196,-0.20408916473388672
98,1.5952265695355292,0.4100730836158991,-2.9173958454868574,0.9168180227279663,-0.3986763656139374,0.02240254357457161,-0.11115863174200058,0.16675888001918793,0.2698168158531189,-0.6499723196029663,0.08237692713737488,-0.09837603569030762
99,1.6205278797295515,0.45629433248748924,-2.877890984167214,0.8965815901756287,-0.4406245946884155,0.044625189155340195,-0.9320464134216309,-0.4518093168735504,0.5036817193031311,-0.7117061614990234,0.16199913620948792,-0.021889571100473404
100,1.4725605461674194,0.49983016336577746,-2.6755039017263287,0.8734325766563416,-0.47927647829055786,-0.08607940375804901,-0.27633726596832275,0.9421136379241943,1.5537179708480835,1.0909228324890137,-0.8812124133110046,-0.1663314700126648
101,1.7133651149215352,0.7739081550303519,-2.902794272836663,0.7079285979270935,-0.6989356279373169,0.10161794722080231,2.176102876663208,0.2406269907951355,2.6009485721588135,0.3172484040260315,0.049399495124816895,-0.08043885231018066
102,1.8092205151728775,0.792296323432471,-3.066242284006519,0.6823474764823914,-0.7119676470756531,0.16584262251853943,0.6251941323280334,-0.5373703837394714,-0.06929631531238556,-0.6055653691291809,0.7854235172271729,-0.3217264413833618
103,1.7098442963896376,0.8054237494640779,-3.0895738097749557,0.6861189603805542,-0.7211242914199829,0.09602309763431549,-0.1984417736530304,-2.228173017501831,1.034065842628479,-0.028358399868011475,0.4422699809074402,0.1828618049621582
104,1.6365349808430103,0.8024652989186317,3.0398688596717567,0.69343501329422,-0.7190715074539185,0.04565126448869705,2.7559797763824463,1.0824248790740967,-0.4442411959171295,0.45202702283859253,-0.728422999382019,-0.06370246410369873
105,1.588060215070428,0.7811500834797492,2.8726477010656013,0.7099984884262085,-0.7040965557098389,0.012258552014827728,0.19549411535263062,-3.6152536869049072,-0.17993520200252533,-0.4145883321762085,0.15909838676452637,-0.015447616577148438
106,1.3053188599913021,0.7405712442291881,2.8407031709169255,0.7122263312339783,-0.6747096180915833,-0.1936509609222412,0.466406911611557,0.6984320282936096,0.5369236469268799,-0.816764235496521,0.5474970936775208,0.4890916049480438
107,1.4456233819538142,0.8405550764515007,2.9149612427711435,0.6618306040763855,-0.7450134754180908,-0.08327868580818176,-1.1778264045715332,3.820782423019409,-1.027550458908081,1.5654795169830322,-1.2543609142303467,0.7040672302246094
108,1.753293433646664,0.7072747483149449,2.827925868903796,0.7475124001502991,-0.6497645974159241,0.13795378804206848,2.8242013454437256,0.28986459970474243,-0.7457329630851746,-0.05783039331436157,-0.25598180294036865,-1.232771873474121
109,1.5992692427989508,0.6728258392827324,2.9005796352354527,0.7817466259002686,-0.6231984496116638,0.022264624014496803,0.7985404133796692,-0.4228161871433258,-0.2816917598247528,-0.4332360029220581,0.4867238998413086,-0.026781203225255013
110,1.6084460282571955,0.6684192844864952,2.9112610921204674,0.7842460870742798,-0.619746208190918,0.029540590941905975,-0.9472985863685608,-0.11241450160741806,0.2680908143520355,-0.26607292890548706,0.6003676056861877,0.0524296760559082
111,1.6173182321032047,0.6793032640656219,2.7874727807584088,0.7771688103675842,-0.6282511353492737,0.036181479692459106,1.797603726387024,0.9736365079879761,0.054557062685489655,0.3532174825668335,-0.9106281995773315,-0.4691953659057617
112,1.4438087137194617,0.6759627513618041,2.8254121871380975,0.773823618888855,-0.6256486773490906,-0.09879765659570694,-0.10706844925880432,0.1441192477941513,-0.17549975216388702,-0.422566294670105,0.2193833589553833,0.20850837230682373
113,1.5967149769262032,0.6850130796310554,2.8014070553392316,0.7741504907608032,-0.6326831579208374,0.020069429650902748,-0.480517715215683,1.0217812061309814,0.3871099054813385,-1.0525472164154053,0.3319019675254822,-0.006885888054966927
114,1.4638115807370244,0.7401020647532971,2.9773629141699285,0.7341780066490173,-0.6743632555007935,-0.07884689420461655,-2.234973192214966,-1.354478359222412,0.83895343542099,0.3934006690979004,-0.7335956692695618,0.40901654958724976
115,1.6806551205065718,0.7477784169930122,3.0041945467916658,0.7287814021110535,-0.6800115704536438,0.0803866982460022,0.38025444746017456,0.13704150915145874,-0.5082384943962097,0.2343686819076538,-0.0188257098197937,-0.3051180839538574
116,1.6373573217105368,0.7066882266986102,3.0332639359561937,0.7588323950767517,-0.6493186950683594,0.0505833625793457,-0.21089786291122437,-0.22471250593662262,-0.05860479548573494,-0.604001522064209,0.3633537292480469,0.1668238639831543
117,1.5482713668536632,0.7108120453821268,3.0396407315535,0.7576400637626648,-0.652449369430542,-0.01706869900226593,-0.5966426730155945,-2.0469882488250732,0.4262169897556305,-0.4755355715751648,0.7191150188446045,0.007272601127624512
118,1.5045113554543155,0.7460371108356806,3.0005125870234832,0.7327716946601868,-0.6787338256835938,-0.04864301532506943,2.228268623352051,0.6345760226249695,-1.155521035194397,0.7456828951835632,-0.22158050537109375,-0.4668293595314026
119,1.326571430330201,0.7271232771546341,2.912521312276473,0.7249197959899902,-0.6647232174873352,-0.18064948916435242,0.2706131041049957,-2.2262866497039795,-0.1551344096660614,-0.16657018661499023,0.11453711986541748,0.3911597728729248
120,1.4720431081237566,0.7279749972183794,2.8047304965644946,0.7428861856460571,-0.6653593182563782,-0.07360181957483292,0.7290785908699036,-0.5073015093803406,0.22648313641548157,-0.5697447061538696,0.3357998728752136,-0.09618271142244339
121,1.4645533392758108,0.7892476827908919,2.7738341930721537,0.7004079222679138,-0.7098235487937927,-0.0746946781873703,-0.25390827655792236,-0.9071990847587585,0.3353293240070343,0.05548197031021118,0.0003203749656677246,0.013979971408843994
122,1.5357117403023426,0.7708590689695646,2.8137396952881795,0.7168708443641663,-0.6967517137527466,-0.025161443278193474,0.4544282853603363,3.8048412799835205,0.4204281270503998,0.43948590755462646,-0.3148602247238159,-0.5197451710700989
123,1.4930688492074198,0.7847513092237594,2.815583953585835,0.7054280042648315,-0.7066492438316345,-0.05494182929396629,0.4483810365200043,0.7440054416656494,0.08848999440670013,-0.3508899211883545,0.5412744283676147,0.3056284785270691
124,1.5424135756277895,0.7729411734017905,2.741101237842268,0.7155718207359314,-0.6982437372207642,-0.020315352827310562,0.010197769850492477,-0.8395474553108215,0.011849731206893921,-0.4358019232749939,0.42378389835357666,0.09656351804733276
125,1.5481674564359929,0.8073540192476589,2.691473948774084,0.6912355422973633,-0.7224602699279785,-0.015644550323486328,0.8035119771957397,0.3578469753265381,0.13000454008579254,1.4683866500854492,-0.7364935874938965,0.19342470169067383
126,1.638469660591946,0.7314365840669697,2.5659603669345508,0.7425121068954468,-0.6679394245147705,0.050325118005275726,1.3162444829940796,-1.3327057361602783,-0.7647148966789246,0.19953501224517822,-0.3802325129508972,-0.1468369960784912
127,1.6277721500591342,0.6830818982786547,2.474210743132865,0.7743725180625916,-0.6311864256858826,0.04416831582784653,0.4999442398548126,3.3790619373321533,-0.05967245623469353,-0.6468853950500488,0.44380855560302734,0.08788120746612549
128,1.8074067397338527,0.6936202267996632,2.465446771600503,0.7475123405456543,-0.6393250823020935,0.18024547398090363,-1.0327882766723633,-0.18840764462947845,0.11915671080350876,-0.4928279519081116,0.3388795852661133,-0.0846034437417984
129,1.481789422763399,0.7759650630545569,2.6108529841332553,0.710919976234436,-0.7004052400588989,-0.06344442069530487,-0.30898287892341614,-1.498435139656067,0.5508326292037964,0.9335044026374817,-1.379001498222351,1.0849287509918213
130,1.8902461812924578,0.7440535437361762,2.591999951478897,0.69850754737854,-0.6772757768630981,0.23105159401893616,-1.0118563175201416,0.15391063690185547,-0.7624184489250183,0.533151388168335,0.16670143604278564,-1.4583771228790283
131,1.7049040515218092,0.7429141400422521,2.6469088018792375,0.7298874855041504,-0.6764370203018188,0.09847460687160492,1.229609727859497,-0.5069335103034973,0.14203867316246033,-0.5344223976135254,0.5153042674064636,-0.03075612336397171
132,1.870733636563743,0.7220112184197905,2.477513492769175,0.7169729471206665,-0.6608954071998596,0.22173647582530975,0.6891507506370544,0.8227456212043762,0.2809586226940155,-0.23633641004562378,0.3388891816139221,-0.0004687458276748657
133,1.8172127536876357,0.766126082385573,2.4660688398916446,0.6988347172737122,-0.6933488845825195,0.1757766306400299,0.7473303079605103,-0.6224199533462524,-1.6492670774459839,1.3333766460418701,-1.2015790939331055,0.77800452709198
134,1.67063279575205,0.7358515075906139,2.5102081688196645,0.7375686168670654,-0.6712185740470886,0.07388187944889069,-0.5261107087135315,-1.4690512418746948,0.2545556128025055,-0.26247090101242065,0.04908716678619385,0.034180887043476105
135,1.7202883898042831,0.7338043253065766,2.47717742249927,0.7343494892120361,-0.6696996688842773,0.11060457676649094,0.4409922957420349,0.7268120050430298,-0.006244051270186901,-0.8370411396026611,0.24695491790771484,-0.08142971992492676
136,1.7348938245491934,0.7735671781043706,2.485447231063638,0.7058120369911194,-0.698691725730896,0.11687292903661728,-1.0935732126235962,-0.4987550973892212,0.8074005842208862,-0.32800447940826416,0.3660043478012085,0.12230861186981201
137,1.697742083902784,0.7142542363267124,2.64841785135668,0.7495018243789673,-0.6550540924072266,0.0956604927778244,1.0651720762252808,7.350359916687012,-1.4894458055496216,0.8098548054695129,-1.3477686643600464,0.3365752696990967
138,1.8840380837198696,0.6814263548382927,2.6974538081645703,0.7388817667961121,-0.6299014687538147,0.23932796716690063,-0.7451025247573853,0.3239273130893707,-0.3014459013938904,-0.14984673261642456,0.0978732705116272,0.1814788579940796
139,1.9126819933621884,0.669304042962628,2.776426731151149,0.7388644814491272,-0.6204403042793274,0.2629322409629822,-0.37196826934814453,0.9777794480323792,-0.24865400791168213,-0.5735354423522949,0.3979213237762451,-0.14257082343101501
140,1.9115056955814786,0.6966269202450583,2.823081400942199,0.7229215502738953,-0.6416341662406921,0.2563011646270752,-0.5134657621383667,-0.11747772991657257,0.6961507797241211,0.8998201489448547,-0.42539775371551514,0.3523566722869873
141,1.944242885747956,0.6988494728529084,2.7034730399982965,0.7128154635429382,-0.6433373093605042,0.27930501103401184,-0.3706584572792053,-2.463594436645508,0.9011606574058533,0.04331856966018677,-0.11859512329101562,-0.2838064134120941
142,1.847919918241452,0.6937147952760135,2.7923916217788705,0.7395406365394592,-0.6393977999687195,0.21035689115524292,0.28883418440818787,0.9697546362876892,-0.18526259064674377,-0.8698660135269165,0.30854153633117676,-0.1687920242547989
143,1.8598887319960662,0.7331973380838989,2.8385120528837677,0.7122046947479248,-0.6692488193511963,0.21182723343372345,-1.551994800567627,0.22075951099395752,0.5179089307785034,-0.7252203822135925,0.350355327129364,0.043650656938552856
144,1.89777387414866,0.7650350121084446,2.964718852065265,0.683138906955719,-0.6925622820854187,0.23168744146823883,0.6290232539176941,1.816245198249817,0.48094215989112854,0.8237123489379883,-1.1970710754394531,0.25840964913368225
145,2.0550440950861955,0.80418439662321,2.9483242459933927,0.6139410734176636,-0.7202650904655457,0.3229464590549469,-0.38350915908813477,0.5047941207885742,-0.4013172388076782,0.19143301248550415,0.6434981822967529,-0.3213748037815094
146,2.053016582242222,0.7696749363739167,2.9885702476424796,0.6362459063529968,-0.6959018111228943,0.33303409814834595,0.30760759115219116,-0.09529545158147812,-0.15831004083156586,-0.4141847491264343,0.5383091568946838,-0.28669312596321106
147,1.990161097794885,0.7860830287008453,2.9123982104777166,0.6453918218612671,-0.7075908780097961,0.2877226769924164,0.6292575597763062,-2.367366313934326,0.4609396457672119,0.7492004036903381,0.14817321300506592,0.46444401144981384
148,2.100261459254133,0.7308351159703708,2.6932393232819254,0.6426624059677124,-0.6674917340278625,0.3760852515697479,0.7765762209892273,-0.9390432834625244,0.018382493406534195,0.3439709544181824,-0.3224222660064697,-0.5353869795799255
149,2.0011292086686754,0.7266377941293202,2.643668805002689,0.6792684197425842,-0.6643604636192322,0.3118005096912384,0.44701728224754333,-0.08552545309066772,0.1676819920539856,-0.5415579080581665,0.3129658102989197,0.0358099639415741
150,2.0451114391412224,0.7452779180497002,2.600167636692213,0.6537708044052124,-0.6781761050224304,0.33565011620521545,-0.27706119418144226,-0.14559118449687958,0.41830751299858093,-0.6623920202255249,0.25889503955841064,-0.34807074069976807
151,1.9985229453675224,0.7776707500873938,2.702187630901106,0.6483569741249084,-0.7016215920448303,0.29556798934936523,0.5268895626068115,1.2269648313522339,-0.30035164952278137,0.7072033882141113,-1.0935138463974,0.8005318641662598
152,2.1410450949419064,0.813644424336358,2.6024802669267624,0.5781710743904114,-0.7267951965332031,0.3707924485206604,0.31342893838882446,0.30035367608070374,0.7359710335731506,0.2957913279533386,0.5143928527832031,-0.2863655090332031
153,2.155028681328532,0.7965512330041566,2.591413830421753,0.5832079648971558,-0.7149490714073181,0.38563716411590576,0.1822056621313095,0.0708925873041153,-0.4263044595718384,-0.2856159210205078,0.5339035987854004,-0.31747621297836304
154,2.077663687427422,0.7650182101835649,2.612485629960282,0.6306717991828918,-0.6925501227378845,0.3501824736595154,-0.07366535067558289,-1.549910306930542,-0.1625405102968216,-0.056239187717437744,0.09405452013015747,-0.1094140112400055
155,1.9609571624826156,0.7569097516304791,2.5484987995382014,0.6723290085792542,-0.6866782307624817,0.27649056911468506,2.1507773399353027,-1.3497425317764282,1.2153922319412231,0.5214271545410156,-0.3887155055999756,0.7340379953384399
156,2.0361293235211124,0.779331004827978,2.3439069250660642,0.6357439756393433,-0.7028036713600159,0.3192124664783478,-0.18075598776340485,-0.9298084378242493,-0.13322199881076813,-0.17611879110336304,0.22058022022247314,-0.06393292546272278
157,1.9983591612646467,0.7440397836575292,2.369023240422979,0.6695065498352051,-0.6772656440734863,0.30507710576057434,0.32558223605155945,0.5564475059509277,-0.1301560252904892,-0.5560269951820374,0.029545366764068604,-0.05487874150276184
158,2.039257862295842,0.7416417085206061,2.358378743209589,0.6579204797744751,-0.6754993796348572,0.3329288065433502,-0.8358123302459717,0.07280101627111435,-0.015744928270578384,-0.016440927982330322,-0.10718506574630737,-0.28144571185112
159,1.9608819127810329,0.7866789568516923,2.504839721336668,0.6531482338905334,-0.7080118656158447,0.26854515075683594,-0.6740116477012634,0.13889487087726593,-0.191809743642807,0.24904286861419678,-0.4920308589935303,0.46718788146972656
160,1.9532839513098306,0.8156737828672999,2.585761632186603,0.6358519792556763,-0.7281875610351562,0.25580328702926636,-0.41804200410842896,0.591456949710846,-0.0016626648139208555,-0.209536612033844,0.050529420375823975,0.28493764996528625
161,2.038662732686733,0.8007923549649052,2.6272950881999524,0.6213257908821106,-0.7179079055786133,0.313946396112442,-0.28242307901382446,1.4508370161056519,-0.3823176920413971,-0.12401145696640015,0.15249353647232056,-0.14382615685462952
162,2.0740233461210384,0.7846851409690396,2.6967039991851744,0.6198891401290894,-0.7066023945808411,0.3412489891052246,-0.5276690721511841,0.5053555369377136,-0.5317143797874451,-0.2018897533416748,0.260511577129364,-0.12365856766700745
163,2.0671246541786004,0.7530546453008153,2.781057366278892,0.641567051410675,-0.6838706135749817,0.3474371135234833,0.04774993658065796,0.33832502365112305,-0.1395650953054428,-0.003337681293487549,-0.22211986780166626,-0.07999637722969055
164,2.0652420524166075,0.7479752687141857,2.728983992043802,0.6452694535255432,-0.680155873298645,0.34787270426750183,0.37038782238960266,-1.1924413442611694,0.1721101850271225,0.3304690718650818,-0.08728492259979248,-0.07763946056365967
165,2.0228169582458695,0.7425442755754442,2.6089327243954266,0.6627563238143921,-0.6761645674705505,0.321801096200943,0.675167441368103,-0.9793806076049805,0.37249132990837097,0.2990357279777527,0.26101863384246826,0.3411017954349518
166,1.9907851315924103,0.7158409471826583,2.5495755991139966,0.6889672875404358,-0.6562522053718567,0.3076646029949188,0.4345279037952423,-0.9492194652557373,0.019546551629900932,0.04543834924697876,-0.21285796165466309,-0.026506155729293823
167,1.9425303294388678,0.7177219719170138,2.5014402959984814,0.7018543481826782,-0.6576703190803528,0.2736245095729828,0.3078523874282837,-0.17253485321998596,0.1430353820323944,-0.6036335229873657,0.3176587224006653,-0.040363311767578125
168,1.9927259481982644,0.7037312562360786,2.4426607314574724,0.6955681443214417,-0.6470670104026794,0.3122328817844391,0.13341374695301056,0.062815822660923,0.03845841810107231,-0.18252187967300415,-0.0036898255348205566,-0.2890242338180542
169,1.9773217183890088,0.7455995960044028,2.428905086388777,0.6748050451278687,-0.6784124374389648,0.2905079126358032,0.2487626075744629,-0.20333291590213776,0.5888501405715942,0.6119381189346313,-0.5703821182250977,0.4433330297470093
170,1.975594632023784,0.7835648121513196,2.37289484466638,0.651150107383728,-0.7058092355728149,0.27899229526519775,0.24315333366394043,-0.17012354731559753,0.0264890119433403,-0.017910480499267578,0.025999724864959717,0.41136106848716736
171,2.0560103683593622,0.7675704531527221,2.324356946623464,0.636540412902832,-0.6943889856338501,0.33561983704566956,0.6924393773078918,0.6932761073112488,0.36421579122543335,-0.16038984060287476,0.23923450708389282,-0.2705715596675873
172,2.1108197691525032,0.7500473593490439,2.205991197976772,0.6275395750999451,-0.6816734075546265,0.376185804605484,0.8409751653671265,-1.0713952779769897,0.21170587837696075,-0.1544560194015503,0.3539603352546692,-0.2678484320640564
173,2.0383808207452163,0.7694141402619584,2.0043917740333,0.6412139534950256,-0.69571453332901,0.323768675327301,0.736451268196106,-2.584839105606079,1.1082093715667725,0.6835541129112244,0.11801677942276001,0.40421295166015625
174,2.0657526340719987,0.7691678306305991,1.7958385442913003,0.6322635412216187,-0.6955375671386719,0.3412778079509735,1.3567445278167725,0.3025248944759369,0.6288878321647644,0.6013943552970886,-1.0446662902832031,-0.04545566439628601
175,2.0521499966964956,0.8022919984559477,1.7193633065761373,0.6160805225372314,-0.7189510464668274,0.3217989504337311,-0.39110565185546875,-0.19861797988414764,-0.29619380831718445,-0.5134803652763367,0.4902064800262451,-0.1500612199306488
176,2.0055119794536873,0.805015804849338,1.7908536163655522,0.6286343336105347,-0.7208415865898132,0.2919006645679474,-0.7008004188537598,0.20904293656349182,-0.017284300178289413,-0.4882383346557617,0.22158938646316528,-0.13607794046401978
177,1.9220647125328678,0.8236305344199139,1.9186558100615543,0.6380663514137268,-0.7336178421974182,0.23382997512817383,-0.06988121569156647,1.0511118173599243,-0.6665133237838745,0.49351024627685547,-0.8834323287010193,0.9082598686218262
178,2.063875254201417,0.8194455422833159,1.9316041753181081,0.6013117432594299,-0.7307674288749695,0.3231146037578583,-0.20111609995365143,1.1332457065582275,-0.03003949113190174,0.07471352815628052,0.22998929023742676,-0.06638553738594055
179,2.1493607988308567,0.7886496304845177,1.9954040761950873,0.5900962352752686,-0.7094022035598755,0.3854028582572937,-0.1312921643257141,1.0228668451309204,-0.7864558696746826,-0.19429844617843628,0.43161582946777344,-0.3928338885307312
180,2.088679240042982,0.7632376554498644,2.0658581015233515,0.627846360206604,-0.6912645697593689,0.3577180504798889,-0.1479654163122177,-1.284071683883667,-0.06903358548879623,0.040274977684020996,0.16486692428588867,-0.06801462173461914
181,2.0077159092893457,0.7624955168071219,1.9727609027724036,0.6551848649978638,-0.6907281279563904,0.30598628520965576,1.3128159046173096,-0.07888951152563095,0.7488454580307007,0.7114990949630737,-0.21604067087173462,0.6764355897903442
182,1.9839320369584874,0.7526770590241243,1.9587941621856935,0.6684556007385254,-0.6835950613021851,0.2930271029472351,-0.21466130018234253,-0.8675042986869812,-0.13537444174289703,-0.2818131446838379,-0.10032516717910767,-0.0032170116901397705
183,1.9830401403773794,0.7499497436800915,1.9846930673441707,0.6704226136207581,-0.6816020011901855,0.2931768298149109,0.10260684788227081,0.7744238376617432,0.07225333899259567,-0.555874764919281,0.2643654942512512,-0.16179853677749634
184,1.972406962119302,0.7891102595947103,2.0691531871970525,0.6484234929084778,-0.7097267508506775,0.2753809690475464,-1.6232147216796875,-0.38533830642700195,0.09961990267038345,-0.25004708766937256,0.08590173721313477,-0.08698073029518127
185,1.9086935503008415,0.7777197384377311,2.224373486801048,0.672225296497345,-0.7016565203666687,0.23620164394378662,-0.1584981232881546,1.104815125465393,0.046659212559461594,0.19456541538238525,-0.8833501935005188,0.4773451089859009
186,2.058897894891758,0.8070109498303305,2.223260744432273,0.6108916401863098,-0.7222229838371277,0.3243541717529297,0.3464469909667969,1.7605971097946167,0.5520243644714355,-0.10118699073791504,0.4683929681777954,-0.1369914710521698
187,2.156048782507691,0.7782979975012659,2.225481475036799,0.593595027923584,-0.7020684480667114,0.39337629079818726,-0.42201048135757446,-0.11524652689695358,-0.7592121362686157,-0.2264379858970642,0.48608022928237915,-0.41309070587158203
188,2.0011305456617223,0.7481011392114695,2.3027602913967335,0.6661533117294312,-0.6802481412887573,0.30578142404556274,0.2697165310382843,-1.780482530593872,0.05141626298427582,0.36967432498931885,-0.5923653244972229,0.22755897045135498
189,1.9587461094834497,0.7581641799484238,2.122015156526061,0.6721406579017639,-0.6875896453857422,0.27467718720436096,1.185612678527832,-1.461638331413269,1.1097251176834106,0.23920577764511108,0.1350231170654297,0.19916915893554688
190,1.9260539584586354,0.7545982260254035,2.0633880748272655,0.6830539703369141,-0.6849960088729858,0.25341179966926575,0.10747897624969482,-0.768700897693634,-0.3119800388813019,-0.1759587526321411,0.10630649328231812,-0.19040825963020325
191,1.9089111586205163,0.7227895066197352,2.066778252185236,0.7075019478797913,-0.6614792943000793,0.2487698793411255,0.4238795042037964,0.6079466938972473,-0.0886908769607544,-0.7584662437438965,0.3130599856376648,0.0194338858127594
192,1.995543333171594,0.7094580817884859,2.0399474762713066,0.6912977695465088,-0.6514226794242859,0.31265902519226074,-0.04520270228385925,0.864036500453949,-0.21185080707073212,-0.032316505908966064,-0.38759392499923706,-0.22737768292427063
193,1.9874942036779801,0.7388171869049666,2.123338912046749,0.6760070323944092,-0.6734139919281006,0.2992126941680908,-0.8690603971481323,-0.5350183844566345,0.11788877844810486,1.1177704334259033,-1.061220407485962,0.28835752606391907
194,1.9151854890425106,0.7561108017338194,2.2008790633336295,0.6847918629646301,-0.6860972046852112,0.24562318623065948,-0.6277862787246704,-0.13432587683200836,-0.32565879821777344,-0.4910815358161926,0.4768992066383362,0.43215692043304443
195,1.9323402823819509,0.7486875716627011,2.253183219996052,0.6852228045463562,-0.6806778907775879,0.2591283619403839,0.050056055188179016,1.0041924715042114,-0.15828196704387665,-0.5259209871292114,0.5222153663635254,-0.19539237022399902
196,2.053774594220427,0.7333473258432072,2.2208977044960925,0.6579574942588806,-0.6693602204322815,0.3450343608856201,0.4140302836894989,0.9138638377189636,-0.45020583271980286,-0.13229221105575562,0.25477898120880127,-0.2849757969379425
197,2.0670268218181085,0.6929666866500953,2.188997788164939,0.6765573024749756,-0.6388224363327026,0.3663003146648407,0.375091016292572,-1.2164324522018433,0.3631689250469208,0.6859456896781921,-0.3366108536720276,-0.2587564289569855
198,1.9226492261453676,0.7128781645345937,2.135723328365814,0.7101374864578247,-0.6540137529373169,0.26071256399154663,0.6363992094993591,-1.8497257232666016,0.5387638211250305,0.43453121185302734,0.00012868642807006836,0.40064913034439087
199,1.8288738565102898,0.7071216881499337,2.1248415510748546,0.7350578308105469,-0.6496482491493225,0.19402886927127838,-0.2449979931116104,0.03931229189038277,-0.5498735904693604,-0.4688529372215271,0.269353449344635,0.2133045494556427
200,1.8287942360344316,0.652184037650324,2.188988555628107,0.7684558629989624,-0.6069236397743225,0.20277929306030273,-0.18311622738838196,0.2638830244541168,-0.3402535021305084,-0.8978502750396729,0.048024654388427734,-0.20473238825798035
201,1.9210289593940664,0.6731895789316887,2.1538893808107584,0.7343740463256836,-0.623482882976532,0.2682610750198364,0.41776570677757263,1.5335570573806763,0.519218385219574,0.10603433847427368,-0.3712833523750305,0.030719637870788574
202,2.0039403796453743,0.7518428166406681,2.1836723898504347,0.6629765629768372,-0.6829859614372253,0.3065814971923828,-2.5271692276000977,0.5766588449478149,-0.5387857556343079,0.7983729243278503,-0.07182049751281738,-0.0445728600025177
203,1.8771034574515628,0.7671357886547089,2.3955244610561155,0.6863927245140076,-0.6940761208534241,0.21707890927791595,-0.4983372092247009,-0.18796028196811676,0.351322740316391,-0.13327693939208984,0.07437103986740112,0.47296929359436035
204,1.9075587328962782,0.7471190639842796,2.463462202058812,0.6924400925636292,-0.679527997970581,0.24242211878299713,0.010026334784924984,1.1551463603973389,-0.20079724490642548,-0.38099294900894165,0.32282328605651855,-0.011220932006835938
205,2.031970399968053,0.7267501602007317,2.4511963381737343,0.6692636013031006,-0.6644444465637207,0.332565039396286,0.06135451793670654,1.2499405145645142,-0.6171965599060059,-0.40336406230926514,0.6239477396011353,-0.3221128582954407
206,2.054013555882533,0.6677907162486683,2.481792985029559,0.6952909231185913,-0.6192528009414673,0.36482396721839905,0.550818681716919,-0.15559008717536926,-0.21329158544540405,0.4536195993423462,-0.7394508123397827,0.20944058895111084
207,2.012941625293884,0.6807133010250367,2.3882077661767784,0.7023925185203552,-0.6293475031852722,0.3325153887271881,0.26240164041519165,-1.8783460855484009,0.498649001121521,0.5425873398780823,-0.570664644241333,0.3944896161556244
208,1.9254885009686493,0.7060379532756993,2.348811364955064,0.7135728001594543,-0.6488239765167236,0.26427528262138367,-0.12736022472381592,-0.43931716680526733,-0.024708647280931473,-0.018534958362579346,0.33519482612609863,0.20511555671691895
209,1.8944987730360223,0.6798515844481327,2.38565333530237,0.7372773289680481,-0.6286776065826416,0.24735914170742035,-0.35214024782180786,0.1905355006456375,-0.6737418174743652,-0.6082948446273804,0.5073702931404114,-0.04948319494724274
210,1.911904524760381,0.6442777970287534,2.428259195779604,0.7534683346748352,-0.6006211638450623,0.2674693763256073,0.14467968046665192,0.3590039908885956,0.22263957560062408,-0.7535597681999207,0.15140235424041748,-0.1592693030834198
211,2.048729880897571,0.6588757849149609,2.3775687137303647,0.7020829916000366,-0.6122283339500427,0.3636699616909027,0.5185229182243347,1.3971227407455444,0.7549485564231873,0.6940351128578186,-1.055816650390625,-0.17261472344398499
212,2.002603288023088,0.7406695565796626,2.505778591724748,0.6702747941017151,-0.6747822165489197,0.30886924266815186,-1.8564178943634033,-0.0006990516558289528,-0.958132803440094,0.4860818386077881,-0.582419753074646,0.6755056977272034
213,1.9561460282512637,0.7615888416980388,2.6004853803053245,0.6706663370132446,-0.690072238445282,0.27204185724258423,-0.5704167485237122,0.5913156270980835,-0.3173012435436249,-0.3489806056022644,0.32778286933898926,0.5222086906433105
214,2.056063433122517,0.7426050375493256,2.659167107618953,0.6516568064689636,-0.6762093305587769,0.3436342477798462,-0.28692397475242615,1.760743260383606,-0.35906434059143066,-0.26380884647369385,0.6507423520088196,-0.3634859025478363
215,2.1071977956001584,0.7061544025632449,2.7235126874490425,0.65400230884552,-0.6489126086235046,0.388836145401001,0.0745149776339531,-0.035393133759498596,-0.40254005789756775,-0.15600121021270752,0.14973658323287964,-0.306682825088501
216,2.1401060720895084,0.6708664756688489,2.6436789839444033,0.6597386598587036,-0.6216649413108826,0.4222295582294464,0.9141167998313904,-0.8695288896560669,0.7300270199775696,0.5995386838912964,-0.6462794542312622,-0.20828604698181152
217,2.023959138246733,0.6964261601959687,2.588963556996177,0.6897097826004028,-0.6414801478385925,0.3358623683452606,0.4264173209667206,-1.641486644744873,0.5980003476142883,0.2323787808418274,-0.2014610767364502,0.6290271282196045
218,1.956294723397683,0.7267839940442004,2.540540900620807,0.6924706697463989,-0.6644697189331055,0.28100624680519104,-0.16451406478881836,-0.34490540623664856,-0.0968848243355751,-0.15584957599639893,0.35991954803466797,0.10591089725494385
219,1.9155299232695815,0.693726995127308,2.6079392074144407,0.7236323356628418,-0.6394071578979492,0.25983595848083496,-0.3938027024269104,0.5167392492294312,-0.6645277738571167,-0.6698756814002991,0.3676786422729492,-0.13665175437927246
220,1.9799345203275385,0.6757539720702976,2.6271824519452593,0.7158380746841431,-0.6254857778549194,0.3103923797607422,0.20599333941936493,0.9297434687614441,0.3659731447696686,-0.26379644870758057,-0.12312567234039307,-0.1491680145263672
221,2.110659454820204,0.7317526236711968,2.575565923352677,0.6381914615631104,-0.6681746244430542,0.38243213295936584,-0.626292884349823,0.29462766647338867,0.8716433048248291,0.7311170101165771,-0.5734940767288208,-0.28564560413360596
222,2.0129198600889606,0.7870505473444435,2.707302048083737,0.6380579471588135,-0.708274245262146,0.302042156457901,-0.4456976354122162,-0.13313572108745575,0.17672638595104218,-0.19916945695877075,-0.25206810235977173,0.6371209621429443
223,2.0115338275442243,0.7827457638062754,2.744810041275065,0.6412280201911926,-0.7052287459373474,0.3024556040763855,-0.0075773810967803,1.0641452074050903,-0.6257231831550598,-0.3156664967536926,0.40160930156707764,0.25331535935401917
224,2.1104356858066207,0.7349660198825612,2.7837805304013945,0.636431872844696,-0.6705619692802429,0.3811841905117035,0.06583715975284576,0.5943487882614136,-0.45493191480636597,-0.30926817655563354,0.5184623003005981,-0.6417126655578613
225,2.148310333293034,0.6807975902630546,2.8056055282368493,0.6510472893714905,-0.6294130086898804,0.42423614859580994,0.3594990372657776,0.4874151647090912,-0.4673890471458435,0.057723283767700195,-0.2722896933555603,-0.07308563590049744
226,2.1657881513706494,0.6744210230356725,2.7233534384366944,0.646844208240509,-0.6244451999664307,0.4377903938293457,0.22546349465847015,-1.5410616397857666,0.42673808336257935,0.6570954918861389,-0.33090752363204956,-0.012985765933990479
227,2.061212166434137,0.6910374332383868,2.6687402055299083,0.6797618269920349,-0.6373369693756104,0.36294007301330566,0.11565545201301575,-0.7412098050117493,0.2153087854385376,0.09341621398925781,0.19945549964904785,0.29045653343200684
228,2.0382639139803236,0.6854430696760491,2.6513676620680133,0.6910833716392517,-0.633016049861908,0.3488479256629944,-0.03518232703208923,-0.20356842875480652,-0.3835733234882355,-0.2977268695831299,0.4071553349494934,-0.14248791337013245
229,2.006557003082283,0.6460448346398644,2.701140277476044,0.7238535284996033,-0.6020330190658569,0.33703482151031494,-0.08370186388492584,0.41103988885879517,-0.2969004511833191,-0.716880202293396,0.28986865282058716,-0.1336199939250946
230,2.106946207559602,0.6511353645815952,2.6494463599173774,0.6837878823280334,-0.6060898900032043,0.40631231665611267,0.47265973687171936,1.6529136896133423,0.34004849195480347,0.2638746500015259,-0.6167343258857727,0.26206859946250916
231,2.2194903563666695,0.7330073943151773,2.6394526383579704,0.5922090411186218,-0.6691076755523682,0.44898074865341187,-2.847781181335449,-0.12751227617263794,-0.6391295194625854,0.5888366103172302,-0.11301213502883911,-0.24408572912216187
232,2.0322421921121565,0.76017962747091,2.849480446856592,0.6489145159721375,-0.689051628112793,0.3226732909679413,0.43997669219970703,-0.38004758954048157,0.7130177021026611,-0.26976412534713745,-0.1129046082496643,0.8686108589172363
233,1.9945532561190327,0.7785205145320756,2.839439567312075,0.648981511592865,-0.7022268772125244,0.2927466928958893,0.06383714824914932,0.24132028222084045,0.23574554920196533,-0.3311256766319275,0.34089869260787964,0.135125070810318
234,2.097438053710449,0.7751155126311531,2.7637972360842835,0.6175471544265747,-0.699798583984375,0.3590509593486786,0.36690255999565125,0.5468822121620178,-0.30513736605644226,-0.4335414171218872,0.7069244384765625,-0.415874719619751
235,2.1305539043080732,0.7243651970249199,2.7370639459700876,0.6346229910850525,-0.6626601815223694,0.39766231179237366,0.6218125224113464,-0.2781248390674591,-0.3945944607257843,0.503972589969635,-0.7124619483947754,0.18598639965057373
236,2.152646138363843,0.6964894856350908,2.6356750242156264,0.6408708691596985,-0.6415287256240845,0.42157477140426636,-0.25830963253974915,-1.7977327108383179,0.3802092671394348,0.40678226947784424,-0.33556777238845825,0.06209823489189148
237,2.0407761164602953,0.7266832324556025,2.6112546558807326,0.6663491725921631,-0.6643943786621094,0.33846569061279297,0.08460439741611481,-0.271709680557251,0.27183759212493896,0.07898163795471191,0.2728538513183594,0.32628345489501953
238,2.036137056298389,0.7145997381311003,2.615011223387221,0.6750375628471375,-0.655315101146698,0.33894863724708557,-0.2513679563999176,0.06768310070037842,-0.4987451136112213,-0.4111216068267822,0.33102017641067505,-0.18120339512825012
239,2.0509788068179096,0.6709190569866463,2.6653154368102943,0.6946735978126526,-0.6217061281204224,0.36181575059890747,-0.05408501625061035,1.053159236907959,-0.2654006779193878,-0.6930102109909058,0.06283760070800781,-0.06515422463417053
240,2.202956451330223,0.6549854142105471,2.633541389132018,0.639801025390625,-0.6091476678848267,0.46860846877098083,0.3015700876712799,1.52290678024292,-0.008709607645869255,0.3475341796875,-0.6855301260948181,-0.07621341943740845
241,2.203708895272002,0.7253714451735551,2.6841483187430457,0.6033226251602173,-0.663413405418396,0.4425885081291199,-1.6747597455978394,-1.2016897201538086,-0.7665985822677612,0.7091621160507202,-0.4117056131362915,0.2785724401473999
242,2.070483902693228,0.7145051036836823,2.822750717387265,0.6630546450614929,-0.6552436351776123,0.36195945739746094,-0.39802083373069763,0.6132301688194275,-0.7021466493606567,-0.5385581254959106,0.20375126600265503,0.5429325103759766
243,2.1192043522709483,0.7014400913805635,2.860461351118281,0.6518901586532593,-0.6453184485435486,0.3982507586479187,0.09692946076393127,1.16132652759552,0.21444536745548248,-0.46327608823776245,0.36480075120925903,-0.1484338343143463
244,2.275697263629271,0.6832381603483343,2.8464608378380434,0.5907043218612671,-0.6313076019287109,0.5025127530097961,-0.16331206262111664,0.9078717231750488,-0.7970177531242371,-0.09024661779403687,0.4455166459083557,-0.5528514981269836
245,2.2506075742838916,0.6308263885654807,2.876322207566085,0.6280173063278198,-0.5898122787475586,0.5076573491096497,0.6149811148643494,-0.6642253994941711,0.6124891042709351,0.4360238313674927,-0.8788614273071289,0.12112689018249512
246,2.152446371908763,0.6633876710764278,2.832655516917666,0.6583443880081177,-0.6157895922660828,0.4328807294368744,0.2167450487613678,-1.7677768468856812,0.7182931900024414,0.30509549379348755,-0.26223164796829224,0.361186683177948
247,2.068473762455415,0.6908045265654338,2.8259302429540893,0.6772388815879822,-0.6371574401855469,0.36793750524520874,-0.36042383313179016,-0.3058632016181946,-0.23849622905254364,-0.027275502681732178,0.3604698181152344,0.17500066757202148
248,2.0240979060014035,0.6629814371961272,2.8639410004352865,0.7085611820220947,-0.6154694557189941,0.3451639413833618,-0.20517726242542267,-0.10050179809331894,-0.4903534948825836,-0.5218852758407593,0.3441377282142639,-0.2741037905216217
249,2.054076931212588,0.6457819633096383,2.852480733951137,0.7071667313575745,-0.6018231511116028,0.3711124360561371,0.2464432716369629,0.7482795119285583,0.16460758447647095,-0.45786863565444946,0.05058407783508301,-0.04199552536010742
250,2.1854443001251473,0.6666925521602303,2.8022419300260326,0.642038106918335,-0.6183901429176331,0.4531889855861664,-0.0991368368268013,0.537373423576355,1.2729798555374146,0.4684506058692932,-0.8580806851387024,-0.21260377764701843
251,2.1328542099868413,0.7473478852395199,2.861903830333386,0.6206533908843994,-0.6796958446502686,0.3908999562263489,-0.5812004804611206,-0.6378905773162842,-0.3098357021808624,0.2908760905265808,-0.33646315336227417,0.4802243113517761
252,2.0671300852737855,0.7464421603345366,2.8805773949879043,0.6455274224281311,-0.6790311932563782,0.3495863974094391,-0.08748820424079895,-0.2559967637062073,-0.31885457038879395,-0.3393598794937134,0.2820128798484802,0.2401200234889984
253,2.108270170783724,0.7392452808765666,2.843368937272961,0.6347848176956177,-0.6737303733825684,0.37833237648010254,0.5351017713546753,0.6692259311676025,0.1560526192188263,-0.39757174253463745,0.5187621712684631,-0.2597716450691223
254,2.192845473012665,0.7043450908744521,2.777922125697408,0.6192960739135742,-0.6475349068641663,0.4440396726131439,0.4640321135520935,0.14667411148548126,-0.43905720114707947,-0.03441137075424194,0.11066961288452148,-0.22620505094528198
255,2.2139569066891367,0.6594692560757185,2.729268707736154,0.6324155330657959,-0.6126974821090698,0.4739752411842346,0.3774917423725128,-0.8370345830917358,0.704677402973175,0.4742739200592041,-0.6034585237503052,-0.14095211029052734
256,2.1144177159029827,0.6933358292507666,2.6646877618629734,0.6582430005073547,-0.6391063928604126,0.3978176712989807,0.16040611267089844,-0.9571451544761658,0.5927804112434387,0.179296612739563,0.15616577863693237,0.43082600831985474
257,2.0343549086710837,0.7150918732874341,2.6793195956029137,0.6753522157669067,-0.6556867957115173,0.337600976228714,-0.26781517267227173,-0.27255740761756897,-0.19635295867919922,-0.27068907022476196,0.28788888454437256,0.038162022829055786
258,2.0054971450732815,0.6838218715553853,2.7496355430628157,0.7030709981918335,-0.6317601799964905,0.32645195722579956,-0.2828359603881836,0.7163147330284119,-0.5286561250686646,-0.6396552324295044,0.22847026586532593,0.00022360682487487793
259,2.122267062958736,0.6771689745006638,2.7537601928653643,0.6638150215148926,-0.6265891790390015,0.4083329439163208,-0.11982296407222748,1.8539012670516968,-0.27585479617118835,0.05604887008666992,-0.049054741859436035,-0.1011582612991333
260,2.18798213063902,0.7184454997535784,2.837193773666566,0.613940417766571,-0.6582151651382446,0.43569451570510864,-1.6542567014694214,0.2621189057826996,-0.0031528654508292675,0.6636626124382019,-0.5066712498664856,0.027119815349578857
261,2.076974123750297,0.7568869041952039,2.9667863866230713,0.6358171105384827,-0.6866616010665894,0.35246604681015015,-0.09316980093717575,-0.3067355155944824,0.3612613081932068,-0.26162582635879517,-0.01428133249282837,0.6453672647476196
262,2.055388242965735,0.7472056890079045,2.9909607419011395,0.6491287350654602,-0.6795915365219116,0.3417412042617798,0.1130627691745758,0.45350492000579834,-0.24044528603553772,-0.3237655758857727,0.3111681342124939,0.10071787238121033
263,2.133895890528133,0.7387024707932647,2.9488366861166933,0.6251918077468872,-0.6733291745185852,0.39466848969459534,0.3954349458217621,0.4732069969177246,-0.019701778888702393,-0.39841562509536743,0.5762680172920227,-0.33796679973602295
264,2.188354995376664,0.6931768931454846,2.931079237576127,0.6271409392356873,-0.6389841437339783,0.4454142153263092,0.4573465883731842,0.23273886740207672,-0.4451797902584076,-0.11761939525604248,-0.166542649269104,-0.15076690912246704
265,2.2225148465240308,0.6521198089489726,2.846190981598897,0.6318991780281067,-0.6068726181983948,0.4820882976055145,0.2684144675731659,-0.8946300148963928,0.10726043581962585,0.6153694987297058,-0.2692108154296875,-0.17735505104064941
266,2.051643497542794,0.6694991625046611,2.81110450978075,0.6952147483825684,-0.6205933690071106,0.36268526315689087,0.4069907069206238,-2.4402732849121094,0.542508065700531,0.2983613610267639,-0.06618958711624146,0.6134804487228394
267,1.9308741404205112,0.6747781312278331,2.765689455757632,0.7307694554328918,-0.6247240900993347,0.27512863278388977,0.3160814046859741,-0.3996179699897766,-0.33676543831825256,-0.35203105211257935,0.4365374445915222,0.29460394382476807
268,1.945571884478706,0.6173190734303723,2.743669379521265,0.7588339447975159,-0.5788511037826538,0.29850050806999207,0.21724963188171387,0.18796537816524506,-0.5135018229484558,-0.6376180648803711,0.2875455617904663,-0.22568559646606445
269,1.9966133709788845,0.6140456867535988,2.6909858468225076,0.7443379759788513,-0.576178789138794,0.33760783076286316,0.6806454658508301,0.4756660461425781,0.6572008728981018,-0.4039906859397888,0.023993730545043945,-0.175010085105896
270,2.154234091490465,0.6551393130278009,2.590619401792283,0.6617861390113831,-0.6092697381973267,0.43684038519859314,-0.3965778946876526,0.4968484342098236,0.8640731573104858,0.9096554517745972,-0.9249251484870911,-0.30970409512519836
271,2.071706631684824,0.7095561967265819,2.736951766508609,0.6654477715492249,-0.6514971256256104,0.3643227219581604,-0.18398813903331757,-0.07204465568065643,0.2998620271682739,-0.019558429718017578,-0.4066236615180969,0.6725120544433594
272,2.072149518203163,0.7086336342053708,2.7841779947962766,0.6658129096031189,-0.6507969498634338,0.36490598320961,-0.19691365957260132,0.695102334022522,-0.5798870921134949,-0.26876401901245117,0.3575688600540161,0.22861504554748535
273,2.1365748653545316,0.6734236633371643,2.8010103809349167,0.6598814725875854,-0.6236658692359924,0.41904371976852417,-0.17142827808856964,1.03345787525177,-0.5485422611236572,-0.4057005047798157,0.6076288223266602,-0.24365907907485962
274,2.207461749285773,0.6230242712670145,2.820607310952568,0.6530097126960754,-0.5834938883781433,0.4828181266784668,0.30206191539764404,0.25773853063583374,-0.45828789472579956,0.007634878158569336,-0.032656073570251465,-0.287139356136322
275,2.2116145767877944,0.5960659850743715,2.721625330217049,0.6633700728416443,-0.5613912343978882,0.49475228786468506,1.0053352117538452,-1.613469123840332,0.6286220550537109,0.6728725433349609,-0.42815643548965454,0.050474703311920166
276,2.1070936786478836,0.621755589139638,2.58144850723165,0.6987370848655701,-0.5824630856513977,0.41533470153808594,0.6441963315010071,-1.617693543434143,0.7110319137573242,0.30477237701416016,0.34982770681381226,0.3474978804588318
277,2.039964351412343,0.6255982170697363,2.5139914772858623,0.723021924495697,-0.5855823159217834,0.36651405692100525,0.24544289708137512,-0.4659181237220764,-0.14070247113704681,-0.4155726432800293,0.44785648584365845,0.14480793476104736
278,2.014852354072891,0.5852279411528074,2.536352873310016,0.7527421712875366,-0.55238938331604,0.3581133186817169,-0.05429685860872269,-0.011207385919988155,-0.4305969476699829,-0.8079485297203064,0.049825966358184814,-0.20985892415046692
279,2.1084207252101326,0.5859436989945429,2.4982998887101995,0.7156504988670349,-0.5529859066009521,0.42667442560195923,0.431560218334198,1.6803271770477295,0.23338519036769867,-0.07630723714828491,-0.42585015296936035,-0.04132890701293945
280,2.205081434701608,0.6490950971559112,2.5775013589573024,0.6416831016540527,-0.6044657826423645,0.47208523750305176,-1.6671216487884521,0.13113035261631012,0.04646763205528259,0.6934916377067566,-0.5992239117622375,0.2839421033859253
281,2.131572617566553,0.6982411123541826,2.7074826309426614,0.6486591696739197,-0.6428714394569397,0.4073784053325653,-0.9132586121559143,0.5294449925422668,-0.33834248781204224,-0.071327805519104,0.23192179203033447,0.5511481165885925
282,2.161958589354175,0.6773801294817764,2.849725331966723,0.6469789743423462,-0.6267537474632263,0.43427836894989014,-0.4768276512622833,1.4624264240264893,-0.5910809636116028,-0.34390902519226074,0.4679707884788513,-0.10018724203109741
283,2.267614806797413,0.6487247548982704,2.9259782688369875,0.6110985279083252,-0.6041707396507263,0.5114065408706665,-0.02457929402589798,1.1241974830627441,-0.5808063745498657,-0.11404341459274292,0.37304574251174927,-0.5338215827941895
284,2.2939041003958973,0.6155725751609795,2.937361823916892,0.6121305823326111,-0.5774260759353638,0.5402550101280212,0.2785095274448395,-0.39899158477783203,0.022311506792902946,0.26918667554855347,-0.2219666838645935,-0.09317249059677124
285,2.2402549196811985,0.6227651785652583,2.831699785351614,0.6369468569755554,-0.5832834839820862,0.5040627717971802,0.7738445401191711,-1.7794344425201416,1.2139906883239746,0.3983162045478821,-0.5876454710960388,0.5827751159667969
286,2.2302357656675085,0.6698826240250105,2.563451500170508,0.6195400357246399,-0.6208939552307129,0.4802718162536621,0.9770956039428711,-1.3934656381607056,1.362407922744751,0.24372601509094238,0.6147904396057129,0.2284073829650879
287,2.204434276204938,0.6570576104994699,2.4452424679515667,0.6380892395973206,-0.6107897162437439,0.46880510449409485,0.5611414909362793,-0.7074121832847595,-0.0037252046167850494,-0.3763856887817383,0.2379717230796814,-0.15662550926208496
288,2.188751383471429,0.6346988303581013,2.3697494331661257,0.6563313603401184,-0.5929350256919861,0.46653759479522705,0.7788386940956116,-0.2462170124053955,0.5927321314811707,-0.5550587177276611,-0.051687777042388916,-0.15901196002960205
289,2.243977974319226,0.636796958641342,2.2753567611122665,0.628604531288147,-0.5946232080459595,0.5012781620025635,-0.16424959897994995,0.10127824544906616,0.29733407497406006,0.3054470419883728,-0.5203518271446228,-0.4146539568901062
290,2.220581545512267,0.7065816748262939,2.3077278478736174,0.6055886149406433,-0.6492376327514648,0.46016591787338257,-0.7885971069335938,0.1747698336839676,-0.09138008207082748,0.3965933322906494,-0.4477165937423706,0.5882806777954102
291,2.1702993902431027,0.7337158918629593,2.3869747931885303,0.6131778359413147,-0.6696339845657349,0.4190503656864166,-0.2678329646587372,0.16683879494667053,-0.1702343076467514,0.006862998008728027,0.22770899534225464,0.5502642393112183
292,2.218135206197687,0.7330527547876783,2.4087283350514594,0.5927923321723938,-0.6691413521766663,0.44815921783447266,0.09008225798606873,0.8668034076690674,0.11709078401327133,-0.15762704610824585,0.4768350124359131,-0.11255753040313721
293,2.219281855615545,0.7196925458282969,2.3684002847366266,0.5993503332138062,-0.6591535210609436,0.45419812202453613,0.3747306764125824,-1.0809425115585327,-0.018142176792025566,-0.27227818965911865,0.30290651321411133,-0.21475720405578613
294,2.152792808383292,0.6878720046729885,2.3178977850070144,0.6454037427902222,-0.6348945498466492,0.42469221353530884,0.8228134512901306,-1.1986205577850342,0.3738597333431244,0.030789673328399658,-0.5279169678688049,0.0942135751247406
295,2.0951853915508676,0.7092729320518332,2.200873656481179,0.6568708419799805,-0.6512821912765503,0.3799370229244232,0.4410386085510254,-0.933184802532196,0.3948324918746948,0.28680896759033203,-0.3977137804031372,0.4890357255935669
296,2.0939717804366915,0.7154487049018685,2.1900484777435807,0.6538347601890564,-0.6559561491012573,0.377122700214386,0.010877560824155807,-0.004717826843261719,-0.32601839303970337,0.030064105987548828,0.5644950270652771,-0.1189592182636261
297,2.1205397663721546,0.6782943941403411,2.1564664557008557,0.6639174818992615,-0.6274659037590027,0.4068169593811035,0.724909782409668,-0.049735479056835175,0.3080404996871948,-0.25345611572265625,0.07497572898864746,-0.3251519501209259
298,2.1416175874129997,0.6864003608476821,2.1048867425736346,0.6508943438529968,-0.6337568759918213,0.4179573655128479,0.06591306626796722,-0.0487239696085453,-0.23908618092536926,-0.20916783809661865,0.20294040441513062,-0.08560571074485779
299,2.149870200931552,0.6773787597382579,2.1742164849979324,0.6521821022033691,-0.6267526745796204,0.42642638087272644,-0.564146876335144,0.4158440828323364,0.07269355654716492,0.2628416419029236,-0.45669758319854736,-0.3513989746570587
300,2.124765268434593,0.7084337527020986,2.332641299148032,0.6458110213279724,-0.6506451964378357,0.39948540925979614,-1.665981650352478,1.2335655689239502,-1.2761340141296387,0.29063600301742554,-0.4389084577560425,0.32884708046913147
301,2.113219899331502,0.7144033430140375,2.543612580409149,0.6470422148704529,-0.655166745185852,0.38999098539352417,-1.1317071914672852,1.0106406211853027,-0.521286129951477,-0.2673882246017456,0.07589733600616455,0.26689982414245605
302,2.1832786412699976,0.7119455710892038,2.661120899246169,0.6194707155227661,-0.6533079743385315,0.4352526366710663,-0.2902633547782898,1.6823395490646362,-0.0818648412823677,-0.3298283815383911,0.347079336643219,-0.06130540370941162
303,2.305539964891719,0.7041280495026271,2.6636642121432303,0.5655367970466614,-0.6473695039749146,0.5109606385231018,-0.1854710727930069,1.1056710481643677,-0.6246947050094604,-0.07591277360916138,0.5620271563529968,-0.33684271574020386
304,2.276761205972724,0.6813296055526472,2.7028400369011396,0.5910851359367371,-0.6298263072967529,0.5039217472076416,0.3048141300678253,-1.0559871196746826,0.36473193764686584,0.29131531715393066,-0.5258285403251648,0.13116425275802612
305,2.2284301298950933,0.7052639391383314,2.5525279140822383,0.6026349067687988,-0.6482348442077637,0.4654272496700287,1.1486893892288208,-1.543535590171814,0.9294103384017944,0.3687395453453064,0.16070133447647095,0.5245628952980042
306,2.1836305897027977,0.7026236346276775,2.399323476390952,0.6242724061012268,-0.6462221145629883,0.4389546811580658,1.010893702507019,-1.2253262996673584,0.5714700222015381,-0.17274951934814453,0.1266602873802185,0.08390301465988159
307,2.164596654541524,0.6841465233056129,2.3082404052916057,0.6423013806343079,-0.6320118308067322,0.4336008131504059,0.49168887734413147,-0.4774666428565979,0.1390666961669922,-0.5727825164794922,0.19274187088012695,-0.24700114130973816
308,2.1569120275806144,0.6644768965621684,2.315456020992223,0.6558456420898438,-0.6166474223136902,0.4354451596736908,-0.5831437110900879,-0.10836011171340942,-0.601344108581543,-0.27172088623046875,-0.19913321733474731,-0.4705404043197632
309,2.1250598496796878,0.694853990922016,2.4213783371887003,0.6531466841697693,-0.6402732729911804,0.404289186000824,-1.011462688446045,0.7550591826438904,-0.03463897109031677,0.240759015083313,-0.20877158641815186,0.3951494097709656
310,2.102590995919905,0.6940229083202789,2.6041939416062436,0.6625232696533203,-0.6396346688270569,0.38978254795074463,-0.7705473303794861,0.7362987995147705,-0.30185219645500183,-0.2503986358642578,-0.10671848058700562,0.4169800281524658
311,2.1618549585471163,0.6932433034335619,2.715876023335202,0.6386876702308655,-0.6390352249145508,0.42861688137054443,-0.732982873916626,2.051018476486206,-0.6465456485748291,-0.2510074973106384,0.29285889863967896,0.09294387698173523
312,2.276978919480135,0.681076268876612,2.7996890108141335,0.5910965800285339,-0.6296295523643494,0.5041537880897522,-0.2848950922489166,1.0559214353561401,-0.45456740260124207,-0.1457841992378235,0.3942018747329712,-0.376956582069397
313,2.2687427939095413,0.6559940696130467,2.8790248342855365,0.607140064239502,-0.6099472641944885,0.5092594027519226,-0.2237628847360611,-0.4412723481655121,-0.28726914525032043,0.28830665349960327,-0.3178786039352417,-0.09148901700973511
314,2.1733900114587263,0.6659762853447294,2.8450367544768262,0.6478190422058105,-0.6178271174430847,0.44566789269447327,0.654956042766571,-1.749084711074829,0.6934424042701721,0.3894886374473572,-0.3943493962287903,0.4972030520439148
315,2.1537936047416832,0.6890916015816648,2.705872437255268,0.6443312168121338,-0.6358363032341003,0.42491114139556885,0.6926969289779663,-0.5454483032226562,0.42218488454818726,0.04391646385192871,0.4776790142059326,0.05627477169036865
316,2.1340389258151196,0.6605537117239547,2.666016979518007,0.667673647403717,-0.6135541796684265,0.42161980271339417,0.20340435206890106,-0.309122234582901,-0.2669036090373993,-0.47710657119750977,0.211134135723114,-0.24989736080169678
317,2.133505868138949,0.6331397142000874,2.67941037124942,0.6818720698356628,-0.5916787981987,0.43007752299308777,-0.0173516646027565,0.6298007369041443,-0.37328431010246277,-0.42561596632003784,-0.06559354066848755,-0.08956241607666016
318,2.1826274609374194,0.6443641958441612,2.731528928957361,0.6544538140296936,-0.6006902456283569,0.45919620990753174,-0.8435651063919067,0.1513635814189911,0.3370136618614197,0.5091966390609741,-0.6094689965248108,-0.35923606157302856
319,2.1215421995129047,0.6912119977063665,2.912317238051944,0.6565473079681396,-0.6374714374542236,0.40320664644241333,-1.0863945484161377,0.6522628664970398,-0.6181791424751282,0.005684018135070801,-0.3408762216567993,0.5504218935966492
320,2.137433163995435,0.687543040278667,3.0051270922181645,0.6520264148712158,-0.6346403360366821,0.41484129428863525,-0.36076393723487854,1.2740122079849243,-0.5898929834365845,-0.20573735237121582,0.16146528720855713,0.43757569789886475
321,2.2397865476057675,0.6716000163131298,3.061594242114097,0.6140875220298767,-0.6222392916679382,0.4855049252510071,0.0622074231505394,1.0750057697296143,-0.004419976845383644,-0.27178698778152466,0.48462021350860596,-0.2571265697479248
322,2.308346260250123,0.6457257085334607,3.0621737688826185,0.5911056399345398,-0.6017782092094421,0.5370826125144958,0.11935457587242126,-0.2623562812805176,-0.21494832634925842,0.15950489044189453,0.06578260660171509,-0.3693578243255615
323,2.2360611473301484,0.6383700407787585,3.022716935352115,0.6318164467811584,-0.5958872437477112,0.49570778012275696,0.7200613021850586,-1.6268171072006226,0.7778698205947876,0.4813274145126343,-0.5482776761054993,0.35051408410072327
324,2.187232543129156,0.6725045618015008,2.8237194297010837,0.6382836699485779,-0.6229471564292908,0.4522511065006256,0.7269576787948608,-0.9795309901237488,0.7287704348564148,0.1292182207107544,0.390342116355896,0.28343623876571655
325,2.1520475743308523,0.6647014581511055,2.761048941279775,0.6578402519226074,-0.6168241500854492,0.43217357993125916,0.2575852870941162,-0.6766382455825806,-0.043731506913900375,-0.2609134316444397,0.12913811206817627,-0.17736706137657166
326,2.1188393332072915,0.6569622634455414,2.713291334291406,0.675881028175354,-0.6107142567634583,0.41256847977638245,0.34142160415649414,-0.2871066927909851,0.2957419157028198,-0.5980765223503113,0.18104207515716553,-0.19247585535049438
327,2.1594761525063992,0.6504783825268123,2.7080842693029443,0.661841869354248,-0.6055671572685242,0.4418756067752838,-0.44704121351242065,0.9544535875320435,-0.30064821243286133,-0.01903480291366577,-0.4814842939376831,-0.19858938455581665
328,2.1246366885267176,0.7071954544133258,2.82628778501226,0.6465471386909485,-0.6497043371200562,0.3998258113861084,-1.5707054138183594,-0.34509262442588806,-0.487261563539505,0.5602245330810547,-0.5196375250816345,0.46868911385536194
329,2.068736914690907,0.6991924080109909,2.9724826178217776,0.6724228262901306,-0.643599808216095,0.3655501902103424,-0.04799125716090202,0.624069094657898,-0.06643408536911011,-0.23896640539169312,0.03041011095046997,0.49657142162323
330,2.1772858599258433,0.6924053941201564,3.0161515207957104,0.6324374079704285,-0.6383904814720154,0.43872585892677307,-0.21572919189929962,1.5342440605163574,-0.0765438824892044,-0.2924259305000305,0.43279361724853516,-0.22749844193458557
331,2.279394446668514,0.6693110557076584,3.0528394864344777,0.5954606533050537,-0.6204458475112915,0.5103657841682434,-0.057317472994327545,0.5326937437057495,-0.647805392742157,-0.08833491802215576,0.20684123039245605,-0.4899343252182007
332,2.2073124464587752,0.6520509233646337,3.0713021597185355,0.639188289642334,-0.6068178415298462,0.4724513292312622,0.3681838810443878,-1.0400972366333008,0.6667537093162537,0.29083484411239624,-0.47532016038894653,0.14581948518753052
333,2.135373765258813,0.7040082255814037,2.9518606887037793,0.6439635753631592,-0.6472781896591187,0.40785086154937744,0.5909661650657654,-0.7395437955856323,1.1711406707763672,0.19745200872421265,0.09655779600143433,0.5695052146911621
334,2.1412628058508076,0.7191667991259851,2.8897539242957495,0.6332190036773682,-0.6587580442428589,0.40629032254219055,0.1558879017829895,-0.21903768181800842,-0.3523910939693451,-0.1273748278617859,0.09830266237258911,-0.03400629758834839
335,2.1381487752646553,0.6870320182822698,2.9003887396723544,0.6520029306411743,-0.6342453360557556,0.4154820740222931,0.1755862534046173,0.20314659178256989,-0.10615576058626175,-0.575602114200592,0.32838284969329834,-0.2565464377403259
336,2.1774667791475135,0.6774026319295979,2.8920327485119453,0.6401553750038147,-0.6267712712287903,0.4442514181137085,0.08139527589082718,0.338968962430954,-0.054452765733003616,-0.15733659267425537,-0.11210525035858154,-0.19744038581848145
337,2.1740031446945034,0.738033523533914,2.9105840406987524,0.6092349886894226,-0.6728344559669495,0.4196745455265045,-1.5308723449707031,-0.36031559109687805,0.051529593765735626,0.6217830777168274,-0.3763751983642578,0.18489402532577515
338,2.0529056950976523,0.7681942253627224,3.0634330835369727,0.6371954083442688,-0.694837749004364,0.3334411084651947,-0.7176727652549744,0.33747392892837524,-0.1254122257232666,-0.20003104209899902,-0.22232240438461304,0.5303590297698975
339,2.123981106740685,0.7753615553964913,3.11859393579118,0.6076536774635315,-0.6999743580818176,0.3752235472202301,-0.22727519273757935,1.7801034450531006,-0.0844653844833374,-0.2076292634010315,0.2960132360458374,0.06274932622909546
340,2.2426246639602074,0.7606264463187952,-3.1106803713016835,0.566980242729187,-0.6893754005432129,0.450882226228714,-0.3121950924396515,0.7347761988639832,-0.6967857480049133,-0.1819095015525818,0.5982804894447327,-0.48159828782081604
341,2.241611065228423,0.7395220611874659,-3.0714067062128443,0.5787062644958496,-0.6739348769187927,0.45925039052963257,0.20926077663898468,-0.3231142461299896,-0.0069177644327282906,0.030424654483795166,-0.09060674905776978,-0.31871694326400757
342,2.2061784805290925,0.7386622619161564,-3.111084380935532,0.5950781106948853,-0.6732994318008423,0.4388050436973572,0.03508530184626579,-0.698371410369873,0.031536977738142014,0.44071894884109497,-0.39505988359451294,0.1940685212612152
343,2.126227996900163,0.7607738663262344,-3.128349499272204,0.6154201626777649,-0.6894821524620056,0.38193202018737793,0.205741748213768,-0.8043322563171387,0.44489139318466187,0.26928436756134033,0.22187674045562744,0.4728805422782898
344,2.14345605092638,0.7503855834605708,3.094791035486783,0.6147361397743225,-0.6819208264350891,0.39633727073669434,0.3832818865776062,-0.17789721488952637,0.0018364572897553444,-0.31453484296798706,0.20184892416000366,-0.13515260815620422
345,2.1963941028299985,0.7476769946081291,3.010258642706483,0.5943989157676697,-0.6799371838569641,0.4293901026248932,0.8428992033004761,-0.0343501903116703,0.6286991834640503,-0.4768298864364624,0.3504081964492798,-0.37926486134529114
346,2.223077651732302,0.7338148709764863,2.9440945841391386,0.5901648998260498,-0.6697075366973877,0.45077407360076904,0.2682235538959503,-0.08790593594312668,0.036772917956113815,0.2653038501739502,-0.1753699779510498,-0.07679641246795654
347,2.2016115519010904,0.7904704754791124,2.896928859587402,0.5681183934211731,-0.7106843590736389,0.4149332642555237,-0.8224446177482605,-1.4386426210403442,0.198262020945549,0.6401947140693665,-0.16599416732788086,0.23565584421157837
348,2.051938107079573,0.7726055067506346,2.995757225371038,0.6347939968109131,-0.6980034112930298,0.33140242099761963,-0.18413615226745605,-0.24436844885349274,-0.42197278141975403,-0.21136265993118286,-0.10799628496170044,0.480517715215683
349,2.1021846277499168,0.7623687225963083,2.9382943742660084,0.6234758496284485,-0.6906364560127258,0.36646878719329834,0.5565230846405029,0.4484500586986542,0.39244747161865234,-0.2898576855659485,0.28685832023620605,-0.0016769170761108398
350,2.23410327058449,0.7669181294946764,2.8118381797581455,0.5673728585243225,-0.6939194202423096,0.4433550238609314,0.792303740978241,0.18925948441028595,0.45238739252090454,-0.16531908512115479,0.46735697984695435,-0.35425904393196106
351,2.2329821973084467,0.7334796826026856,2.760851124963203,0.5858482718467712,-0.6694585680961609,0.45673516392707825,0.5480957627296448,-0.8033118844032288,-0.06189584359526634,0.04264599084854126,-0.1987665295600891,0.01563119888305664
352,2.1823793211510027,0.7265846690361257,2.6306343533912133,0.6119654774665833,-0.664320707321167,0.42915773391723633,0.6453758478164673,-1.877225399017334,0.631973922252655,0.461047887802124,-0.520097017288208,0.40311765670776367
353,2.154497842024451,0.7519571990927262,2.5600805763041516,0.6094275116920471,-0.6830695271492004,0.4025096595287323,0.24941658973693848,-0.6419205069541931,0.4438212513923645,0.3772057294845581,0.35764533281326294,0.1640491485595703
354,2.139363209983837,0.7442550016717044,2.4652809289305013,0.6198645830154419,-0.6774239540100098,0.39606156945228577,0.5607271194458008,-0.7054479122161865,0.2076881378889084,-0.3086004853248596,0.3035377860069275,-0.08829182386398315
355,2.13802611090893,0.718214862451561,2.4121045918826285,0.635059118270874,-0.6580415368080139,0.40457531809806824,0.637844979763031,0.04177827760577202,-0.009989258833229542,-0.4784124493598938,0.17780166864395142,-0.24548721313476562
356,2.1734513028447906,0.7290649945706201,2.3507607971557865,0.6144130825996399,-0.6661726236343384,0.42274171113967896,-0.6900523900985718,-0.6950666904449463,0.40821731090545654,0.38491547107696533,-0.5910905003547668,-0.42387083172798157
357,2.0578043167391007,0.7909114231662553,2.510812458955984,0.6214418411254883,-0.7109944820404053,0.3290851414203644,-0.7747623920440674,0.08054332435131073,-0.5312594175338745,0.3157529830932617,-0.4353830814361572,0.665086030960083
358,2.0456876809973803,0.7820223949660855,2.6336680389112717,0.6309791803359985,-0.7047157287597656,0.32440832257270813,-0.5007725358009338,1.004167914390564,-0.4204449951648712,-0.1346108317375183,0.1366310715675354,0.28968164324760437
359,2.1735638655616425,0.781938409652739,2.652882396504449,0.5845052003860474,-0.7046561241149902,0.40226078033447266,0.3171411454677582,1.0595316886901855,0.26838386058807373,-0.3194751739501953,0.541890561580658,-0.4104089140892029
360,2.2443075050656454,0.7614705262118572,2.6098702368777857,0.5657660365104675,-0.6899865865707397,0.4514729082584381,0.24134951829910278,-0.0016519706696271896,-0.5060884356498718,-0.11491447687149048,0.4611656069755554,-0.24041318893432617
361,2.175726179039708,0.7334475928020054,2.6036472663229104,0.6110422611236572,-0.6694347262382507,0.4224737286567688,0.4105983078479767,-1.273056149482727,0.22872905433177948,0.3651844263076782,-0.5143877267837524,-0.025577515363693237
362,2.1036037897908066,0.752657572381054,2.5256151198163224,0.6287028193473816,-0.6835808753967285,0.3707425892353058,0.48115256428718567,-0.5900871157646179,0.49990114569664,0.1537678837776184,0.11981439590454102,0.5046694278717041
363,2.114432864703315,0.7364246751273046,2.536145311082264,0.6340652704238892,-0.6716433167457581,0.3832187056541443,-0.2379615157842636,0.4699561297893524,-0.6927409172058105,-0.15715181827545166,0.06103235483169556,-0.10946083068847656
364,2.100086275574136,0.7075547316139941,2.593672658003607,0.6559659242630005,-0.649977445602417,0.3837161660194397,0.15085193514823914,0.13682617247104645,0.22286677360534668,-0.5181790590286255,0.13543587923049927,-0.2728152573108673
365,2.1662003508324776,0.7246442120055749,2.544941190014205,0.6198945045471191,-0.6628690958023071,0.41992324590682983,0.2997615933418274,0.2954390347003937,0.36656245589256287,-0.14964914321899414,0.07954084873199463,-0.33606088161468506
366,2.1573218340116735,0.7639954869437879,2.5848430153350623,0.601395845413208,-0.6918120384216309,0.3996486961841583,-0.956943690776825,-0.4254699647426605,0.12882256507873535,0.7537371516227722,-0.6957153677940369,0.20163914561271667
367,2.01078663798524,0.7464611242251362,2.7543309804777816,0.6641780734062195,-0.6790451407432556,0.31267425417900085,0.07307369261980057,0.15342684090137482,-0.11978782713413239,-0.37027859687805176,-0.3320479989051819,0.4509214162826538
368,2.089067041015534,0.7439858411995963,2.776054871662929,0.6391509175300598,-0.6772259473800659,0.36448726058006287,-0.33884793519973755,1.7830219268798828,-0.30184251070022583,-0.29559940099716187,0.3754834532737732,0.01693663001060486
369,2.2346812257953315,0.7198961133494071,2.795689556716314,0.5921797156333923,-0.6593065857887268,0.4632910192012787,0.016902972012758255,0.7532575130462646,-0.6785855293273926,-0.27343881130218506,0.6400803923606873,-0.5419041514396667
370,2.1834741888305493,0.6720935238785111,2.927101191440517,0.6401882767677307,-0.6226255893707275,0.4499962329864502,-0.3033182919025421,-0.18940815329551697,-0.4352644085884094,0.31884193420410156,-0.7786653637886047,0.02702409029006958
371,2.102026592295337,0.707242885060669,2.8826891936257013,0.6553950309753418,-0.6497403979301453,0.38509100675582886,0.08430571854114532,-1.4345955848693848,0.5140523314476013,0.4490360617637634,-0.38924580812454224,0.661418080329895
372,2.0814142571697376,0.7589837842923832,2.8191168620767697,0.6329881548881531,-0.6881844997406006,0.35458114743232727,0.07062140107154846,-0.17404352128505707,0.35237810015678406,0.12332886457443237,0.6295756101608276,0.05003613233566284
373,2.0521820617211817,0.721865271102219,2.84350519906184,0.6652749180793762,-0.6607858538627625,0.34752196073532104,0.05034835264086723,-0.10795316845178604,-0.36801499128341675,-0.4843972325325012,0.2701455354690552,-0.20376893877983093
374,2.0473946507510643,0.7087094717479603,2.8348803206424456,0.6745972037315369,-0.6508545279502869,0.3482910692691803,0.17461393773555756,0.37692126631736755,-0.03574163839221001,-0.6035523414611816,0.2755494713783264,-0.04625871777534485
375,2.1501801879025506,0.6995868691321256,2.7620938782944466,0.6402426362037659,-0.6439016461372375,0.4189032018184662,0.45223870873451233,-0.17829136550426483,0.8481899499893188,0.5405281782150269,-0.9980050921440125,-0.4094275236129761
376,2.0270327633331213,0.7970811783406698,2.844761793308308,0.6273225545883179,-0.7153194546699524,0.30787113308906555,-1.329661250114441,-0.4769306182861328,-0.9983396530151367,0.1647154688835144,-0.29473602771759033,0.5726525783538818
377,2.0250161816649754,0.7911742924539181,2.8887340285468714,0.6317278146743774,-0.7111793160438538,0.30845391750335693,-0.12401376664638519,1.2354731559753418,-0.3361872136592865,-0.22192257642745972,0.36359941959381104,0.5634790658950806
378,2.179033804796014,0.758710904810406,2.9594401614239754,0.5955696105957031,-0.6879864931106567,0.41469427943229675,0.17566822469234467,1.9935461282730103,-0.11361529678106308,-0.2121925950050354,0.456190288066864,-0.33302929997444153
379,2.2846204131478545,0.7186078080507592,2.9752710083782246,0.5689557194709778,-0.6583373546600342,0.49282941222190857,-0.025588877499103546,0.1659659445285797,-0.6267087459564209,-0.08554220199584961,0.27752387523651123,-0.4706432521343231
380,2.2297236984011324,0.6911411248842366,2.9981605616228473,0.6092103719711304,-0.6374168395996094,0.4717649817466736,0.879062831401825,-1.0184532403945923,0.52082759141922,0.47890907526016235,-0.7378730177879333,0.012701451778411865
381,2.1616018173806766,0.7007573623641324,2.794929335427757,0.6347900032997131,-0.6447967886924744,0.4257681667804718,1.166748046875,-1.4904390573501587,1.2414426803588867,0.2731078863143921,-0.18319082260131836,0.8406350016593933
382,2.1721330571265787,0.7282446308985385,2.6839282196646237,0.6154202818870544,-0.6655605435371399,0.4222404658794403,0.3076479136943817,-0.19264109432697296,-0.06667490303516388,0.05103778839111328,0.2777584195137024,0.010727643966674805
383,2.1663537385884237,0.7063034389602239,2.6670016754950336,0.629789412021637,-0.6490259766578674,0.4267670810222626,0.3377314805984497,-0.4840523302555084,0.13789859414100647,-0.506483256816864,0.26526761054992676,-0.3412569463253021
384,2.170815734928141,0.6995662755031697,2.6279536145289346,0.6314735412597656,-0.6438859105110168,0.4320322871208191,0.15556666254997253,-0.04099252447485924,-0.05549035966396332,-0.4570503830909729,0.23670518398284912,-0.2437846064567566
385,2.152591434570524,0.7188497821029003,2.647264277731649,0.628750205039978,-0.6585195064544678,0.41355234384536743,-1.3588535785675049,-0.35923513770103455,0.9872319102287292,0.7627446055412292,-1.4313852787017822,-0.5093926787376404
386,2.052753669177283,0.7844221602740599,2.717804943922951,0.6271710991859436,-0.7064163088798523,0.32807397842407227,0.009223964996635914,-1.0390918254852295,-0.07306182384490967,0.1148027777671814,-0.4024399518966675,0.6719107627868652
387,2.0894760261884557,0.7789520336268104,2.719457297478108,0.6180499196052551,-0.702534019947052,0.35278910398483276,-0.2731635868549347,1.5578478574752808,-0.28398144245147705,-0.14751476049423218,0.3633159399032593,0.23789390921592712
388,2.2100333173284814,0.765752662093806,2.7308518997979014,0.5785279273986816,-0.6930797696113586,0.4300536811351776,0.3796272277832031,0.7761115431785583,-0.06684698909521103,-0.34024661779403687,0.5962473750114441,-0.4622802138328552
389,2.2172247255417847,0.7238392184871131,2.7559625938381584,0.5980966687202454,-0.6622661352157593,0.45131412148475647,-0.03225905820727348,-0.8596358895301819,-0.39859718084335327,0.11480933427810669,-0.1801716685295105,-0.2499590516090393
390,2.1503495347826007,0.7122512790222264,2.689162819900833,0.6332976222038269,-0.6535394191741943,0.4145123362541199,0.3490316867828369,-1.6905980110168457,0.6177992224693298,0.4293091893196106,-0.45719367265701294,0.04195433855056763
391,2.0636883954701624,0.7551264788264787,2.5976249075026243,0.6415077447891235,-0.685380756855011,0.3445594310760498,0.10097238421440125,-0.7132209539413452,0.7989358901977539,0.14842456579208374,0.151567280292511,0.4129174053668976
392,2.0518452805632417,0.7674587195178585,2.5667068730636644,0.6380013823509216,-0.6943085789680481,0.3330015242099762,0.15115931630134583,-0.41831713914871216,-0.12393323332071304,-0.28567594289779663,0.2900574803352356,-0.1365903615951538
393,2.03715964294417,0.7479244229307841,2.55893319246894,0.654813826084137,-0.6801186203956604,0.32963278889656067,0.17859148979187012,0.376461386680603,-0.32819461822509766,-0.6738872528076172,0.4438209533691406,-0.1256532371044159
394,2.125634962769178,0.7090883272908264,2.5512803663925347,0.6451011896133423,-0.6511421203613281,0.399822473526001,-0.18322612345218658,0.40218842029571533,-0.2506469786167145,0.1720678210258484,-0.5124471783638,-0.33694109320640564
395,2.0429920463238913,0.7861730230883227,2.6678716387538843,0.6292414665222168,-0.7076544761657715,0.3213732838630676,-2.1448307037353516,-0.1482607126235962,-0.445557564496994,0.5379034876823425,-0.41676586866378784,0.4047468602657318
396,1.9563247711399787,0.8027683652018355,2.7751442930854178,0.6437255144119263,-0.7192820906639099,0.2612478733062744,-0.04716668277978897,0.4160189628601074,0.1134415790438652,-0.10243535041809082,0.1471538543701172,0.6216256022453308
397,2.0615814373271912,0.7885297118149949,2.801147524952742,0.6216863393783569,-0.7093176245689392,0.33222734928131104,-0.05315842851996422,1.614431381225586,-0.19347649812698364,-0.18938946723937988,0.4105656147003174,-0.14288094639778137
398,2.1784174494628843,0.7546333003189627,2.789061966105848,0.5981234312057495,-0.6850215792655945,0.41592535376548767,0.12736876308918,0.10354553908109665,-0.5237938165664673,-0.139367938041687,0.3640682101249695,-0.41702401638031006
399,2.1397097909260445,0.7158750109797417,2.7875968366759736,0.6356724500656128,-0.6562778949737549,0.4064722955226898,0.8437786102294922,-1.029421091079712,0.29234176874160767,0.24988657236099243,-0.5488306879997253,-0.033745914697647095
400,2.075217340286364,0.7298657636711608,2.626301395909023,0.65244460105896,-0.6667696237564087,0.36018654704093933,1.3933415412902832,-1.8277887105941772,0.9643948078155518,0.39137864112854004,-0.2422727346420288,0.5036134719848633
401,2.084767470488492,0.754838649052377,2.4839381877708093,0.6342743635177612,-0.6851711273193359,0.35810115933418274,0.5747897028923035,-0.42047250270843506,0.06526213884353638,0.20822429656982422,0.3766995072364807,-0.01267269253730774
402,2.0526391982638,0.7227571659892764,2.476445229017143,0.6645934581756592,-0.6614550352096558,0.3475527763366699,0.20607194304466248,-0.9164879322052002,-0.11441968381404877,-0.5525786280632019,0.2465837597846985,-0.32759425044059753
403,2.0324369959780824,0.7193686171536716,2.4442491148700194,0.6734815239906311,-0.6589098572731018,0.3350529074668884,0.19049370288848877,0.38350996375083923,0.12480749189853668,-0.4928327202796936,0.15157049894332886,-0.14785805344581604
404,2.0919705258968637,0.755058715829194,2.4596866314647423,0.631547749042511,-0.685331404209137,0.36258548498153687,-1.6640914678573608,0.3726266026496887,0.53379887342453,0.6170178651809692,-0.9396532773971558,-0.24922791123390198
405,1.9483841525495649,0.8301640868845465,2.669711387970214,0.6272226572036743,-0.7380421161651611,0.24876804649829865,-0.8104949593544006,0.1474083811044693,0.17607258260250092,-0.11231487989425659,-0.2490641474723816,0.6748158931732178
406,2.010455557008998,0.82035556284137,2.7272291382822647,0.6171045303344727,-0.7313883304595947,0.29026395082473755,-0.2411312609910965,1.9898301362991333,-0.495914101600647,-0.15779972076416016,0.3533823490142822,0.19604885578155518
407,2.1753497532133386,0.7926164785231906,2.734084347802342,0.5775619149208069,-0.7121924161911011,0.3990042209625244,0.16115382313728333,0.6536560654640198,-0.43717652559280396,-0.08075094223022461,0.6268346905708313,-0.6530935168266296
408,2.144169599403966,0.7507409762225022,2.7496692287678948,0.6142498850822449,-0.6821807622909546,0.3966445028781891,0.3319770395755768,-0.9332714080810547,-0.1656741350889206,0.2084888219833374,-0.3341004252433777,0.029533565044403076
409,2.066466824799218,0.755763370078028,2.6454402739895,0.6401636004447937,-0.6858444213867188,0.34613269567489624,0.9102451205253601,-1.9891809225082397,0.5533323287963867,0.356708288192749,-0.21884912252426147,0.49798354506492615
410,2.0692130142874885,0.7679216492466925,2.50096152642769,0.6318395733833313,-0.694641649723053,0.3438777029514313,0.6559838056564331,-0.2828994393348694,0.2661801874637604,0.1995813250541687,0.2872777581214905,0.008478283882141113
411,2.0652472776994264,0.7542579053313925,2.473129281114595,0.6414934992790222,-0.6847480535507202,0.3458413779735565,0.2430344969034195,-0.11549247056245804,-0.016727471724152565,-0.570112943649292,0.21933972835540771,-0.1299600601196289
412,2.1349647720965717,0.7407272276376478,2.417028941296861,0.6236162185668945,-0.6748247742652893,0.39460667967796326,0.2881430983543396,0.33518901467323303,-0.10208487510681152,-0.33705610036849976,0.1389208436012268,-0.3343496322631836
413,2.071978082191572,0.7819369232257872,2.499683350294986,0.6222863793373108,-0.704655110836029,0.3409120738506317,-1.4424514770507812,-0.63840252161026,0.7104858756065369,0.3568243384361267,-0.3406482934951782,-0.0674746036529541
414,1.9196542943439494,0.8229611242754178,2.6975014080722715,0.6390893459320068,-0.7331627607345581,0.23245905339717865,-0.6987117528915405,-0.09477121382951736,0.09108900278806686,-0.10825133323669434,-0.3701392412185669,0.48365116119384766
415,1.9610389470043195,0.8283643971001105,2.768474860906254,0.6252517700195312,-0.7368265390396118,0.25719016790390015,-0.45255333185195923,2.106837749481201,-0.3936746120452881,-0.23200231790542603,0.3440958857536316,0.2380795180797577
416,2.1199603074273123,0.8225776571580173,2.788844373743437,0.5802990198135376,-0.732901930809021,0.35511720180511475,0.011532897129654884,0.8121163249015808,-0.34991803765296936,-0.13074451684951782,0.7213662266731262,-0.4580223262310028
417,2.108162833219542,0.7746546728993288,2.829948801293795,0.6139379143714905,-0.6994693279266357,0.3658182919025421,0.3675881028175354,-0.4297608435153961,-0.310778945684433,0.13099616765975952,-0.25574612617492676,-0.05839943885803223
418,2.1071398608091316,0.7506155932787654,2.707041016065908,0.6285864114761353,-0.6820890307426453,0.3736758828163147,0.5808374881744385,-1.4162737131118774,0.3345503807067871,0.5470422506332397,-0.44208693504333496,-0.022967815399169922
419,2.0320314169183504,0.7707215721334806,2.6021811452522576,0.64244145154953,-0.6966530680656433,0.31928569078445435,0.2901763617992401,-0.9617078900337219,0.5368764400482178,0.11413496732711792,0.20341277122497559,0.33803245425224304
420,2.0237669791218234,0.7641288827495344,2.5668077484362977,0.6491740345954895,-0.6919082999229431,0.31596869230270386,0.21943452954292297,-0.06189597398042679,-0.22378510236740112,-0.22986239194869995,0.2681106925010681,-0.1318713128566742
421,1.9921441078103637,0.7351608706199065,2.5754268620957856,0.6768507361412048,-0.6707065105438232,0.3033577799797058,0.03432878106832504,-0.11044111102819443,-0.31986892223358154,-0.6212782263755798,0.28217196464538574,-0.041761159896850586
422,2.041412428724206,0.7184910725113812,2.546129938406063,0.6709621548652649,-0.6582494974136353,0.3413460850715637,0.5718865394592285,0.7624107003211975,0.08854910731315613,-0.06656157970428467,-0.2865898609161377,-0.14040321111679077
423,2.0513857167393708,0.7773020269673955,2.5679279941014537,0.6320634484291077,-0.7013588547706604,0.3295327126979828,-1.954136610031128,-0.4834579527378082,-0.16736800968647003,0.3847365379333496,-0.4191246032714844,0.3445395231246948
424,1.940746657523175,0.7927657922069824,2.7626094875423064,0.654392421245575,-0.712297260761261,0.25377732515335083,-0.6047139763832092,0.4053271412849426,0.10195757448673248,-0.08671975135803223,-0.07548344135284424,0.5330420732498169
425,1.9937945154809704,0.7897713304902625,2.850206986425141,0.6419580578804016,-0.7101923227310181,0.2889924943447113,-0.5213397741317749,1.7163450717926025,-0.344673216342926,-0.3108423948287964,0.39799755811691284,0.08527502417564392
426,2.117965706688861,0.7804311694816252,2.8795972557257565,0.6068613529205322,-0.7035858631134033,0.36971044540405273,0.18252110481262207,1.1253374814987183,-0.37877339124679565,-0.17169606685638428,0.6695131063461304,-0.36435467004776
427,2.1201202404493347,0.7287041050467306,2.896792878061228,0.6362790465354919,-0.6659033894538879,0.38951435685157776,0.45752331614494324,-0.9112551808357239,-0.1230725646018982,0.17974567413330078,-0.3619285225868225,0.056805193424224854
428,2.075715027383601,0.7195552926264378,2.7635798573092907,0.6582474708557129,-0.6590502858161926,0.36381760239601135,1.1085175275802612,-1.9452905654907227,0.7451249957084656,0.4296737313270569,-0.5419385433197021,0.4217506945133209
429,2.0617559301563144,0.7268878502413469,2.6301473260568184,0.6589821577072144,-0.664547324180603,0.35230594873428345,0.3747028112411499,-0.48523253202438354,0.05611679330468178,0.23802101612091064,0.389950156211853,0.03189504146575928
430,2.027975638654103,0.7037593677205172,2.5978609869884437,0.6841155886650085,-0.6470884680747986,0.3365442156791687,0.34289807081222534,-0.491875022649765,-0.00864630751311779,-0.4595521092414856,0.2477813959121704,-0.1336176097393036
431,2.0421457183508367,0.6931383694148205,2.559146435203484,0.6853634119033813,-0.6389545202255249,0.34930551052093506,0.2259014993906021,0.3854697346687317,0.016683585941791534,-0.5605617761611938,0.18579894304275513,-0.13099798560142517
432,2.1085336545446176,0.6938673637409719,2.5401244842780195,0.6602810025215149,-0.6395151019096375,0.3937638998031616,-0.1453903764486313,0.16099679470062256,0.6672303676605225,0.36506402492523193,-0.8179588317871094,-0.3415938913822174
433,1.969657286257577,0.7722360336406884,2.6632394183065085,0.6601213812828064,-0.697738766670227,0.27820897102355957,-0.6211349964141846,-0.6444546580314636,-0.12174592912197113,0.32030153274536133,-0.4811552166938782,0.6782577037811279
434,1.9622162803275751,0.7835145195525008,2.7049933587507007,0.6548569798469543,-0.7057735919952393,0.2702697813510895,-0.48824426531791687,1.3833584785461426,-0.5827738642692566,-0.21313029527664185,0.35613375902175903,0.47614428400993347
435,2.105029509354547,0.7543007588319194,2.764672731820102,0.627206027507782,-0.6847792863845825,0.371066153049469,0.1053612157702446,1.813662052154541,-0.33505943417549133,-0.2614070773124695,0.51221764087677,-0.3982572555541992
436,2.1431157092365387,0.7079470774180961,2.832758288381504,0.6386383771896362,-0.6502755284309387,0.41144001483917236,-0.7115880846977234,-0.002389186527580023,-1.012290596961975,-0.04070746898651123,0.01006251573562622,-0.27745258808135986
437,2.0657030580220583,0.6885516957073831,2.8124631059043463,0.6795171499252319,-0.635419487953186,0.36674046516418457,0.5669016242027283,-1.464203953742981,0.5876781940460205,0.35400640964508057,-0.42933881282806396,0.27164149284362793
438,2.0443871884494857,0.7292339251643478,2.6514486577610574,0.6636123657226562,-0.6662985682487488,0.34009572863578796,0.7681587934494019,-0.6238499879837036,1.1079367399215698,0.08763891458511353,0.20200413465499878,0.25115180015563965
439,2.0715741842242883,0.7345845911615969,2.594851036836134,0.6509852409362793,-0.6702789068222046,0.35629263520240784,-0.014677061699330807,0.00036616716533899307,-0.2363516092300415,-0.1444239616394043,0.1371062994003296,-0.20539844036102295
440,2.066962884531417,0.7347031403082442,2.5830772663977486,0.6525513529777527,-0.6703668832778931,0.35324910283088684,0.03376150503754616,0.10314476490020752,0.14912612736225128,-0.5300843119621277,0.24295294284820557,-0.126625657081604
441,2.0985690643419326,0.7275266063691388,2.602278873584448,0.6452021598815918,-0.66502445936203,0.3761070668697357,-0.17687325179576874,0.7769839763641357,-0.2656312584877014,-0.011397898197174072,-0.22872847318649292,-0.110924631357193
442,2.107400935669826,0.7682985438036685,2.665633950827988,0.6180251836776733,-0.6949127316474915,0.3676159381866455,-1.028647541999817,0.044630710035562515,0.2526487708091736,0.48008888959884644,-0.3755829334259033,0.14071539044380188
443,1.9766935631823013,0.7827354057281413,2.8434693614828985,0.6513808369636536,-0.70522141456604,0.2799387574195862,-0.033776864409446716,-0.18781247735023499,-0.05541438236832619,0.08453530073165894,-0.30355238914489746,0.5612629652023315
444,2.0453985466606666,0.7752251114106762,2.8302858307819334,0.6353193521499634,-0.6998769044876099,0.3264075219631195,-0.009443418122828007,1.0034724473953247,0.07037662714719772,-0.5014081597328186,0.5695210099220276,-0.018332570791244507
445,2.124326694568879,0.7772799766080362,2.8520784872924314,0.6063806414604187,-0.7013431191444397,0.37472695112228394,0.1459815949201584,0.6630445122718811,-0.35880059003829956,-0.1129724383354187,0.5771976709365845,-0.4582841694355011
446,2.0733625341051054,0.7195689696372372,2.9024992501232503,0.6590932011604309,-0.659060537815094,0.3622635006904602,0.8318524956703186,0.029600000008940697,-0.04983026534318924,0.30442285537719727,-0.7450987696647644,0.049342185258865356
447,2.0401419700643153,0.7103665197472694,2.7645851584758665,0.6761429905891418,-0.6521117091178894,0.34290117025375366,0.7480381727218628,-1.8845468759536743,0.5998073220252991,0.5487716197967529,-0.5794557929039001,0.42696574330329895
448,1.9735253098258616,0.7413897472124344,2.682243277969157,0.678524374961853,-0.6753135323524475,0.28906071186065674,0.10275807231664658,-0.6829673647880554,0.11030294746160507,0.0639224648475647,0.3775688409805298,0.18281742930412292
449,1.9569547939942877,0.7323900670574234,2.662863701679588,0.6888232231140137,-0.6686487197875977,0.28005579113960266,-0.019404487684369087,-0.14141207933425903,-0.13005448877811432,-0.5551257729530334,0.37633615732192993,-0.18735864758491516
450,1.9548561744702202,0.7249063149750797,2.6906999340250852,0.6940296292304993,-0.6630653142929077,0.28047674894332886,-0.01172005757689476,0.46524691581726074,0.025928262621164322,-0.652678370475769,0.24111407995224,-0.11671951413154602
451,2.0556836250983177,0.736896875732927,2.634696745175699,0.6551916003227234,-0.6719931364059448,0.3451802730560303,0.6943541765213013,0.7996185421943665,0.8315843939781189,0.2840479016304016,-0.6798898577690125,-0.049495428800582886
452,2.108781551750465,0.8153637033105584,2.605925131849802,0.5887574553489685,-0.7279750108718872,0.3513081669807434,-1.9119311571121216,-0.4216938018798828,-0.6939146518707275,0.26552122831344604,-0.20978456735610962,0.05733749270439148
453,1.9830895713480887,0.8341536340964248,2.758661453437664,0.6155105829238892,-0.7407281994819641,0.269199937582016,-0.17836041748523712,0.16429868340492249,-0.14863485097885132,-0.00670015811920166,-0.16483521461486816,0.8926347494125366
454,2.1092433442800402,0.7863883279252156,2.7662416368355096,0.6064542531967163,-0.7078065872192383,0.36224761605262756,0.6858262419700623,2.198319673538208,-0.09881646931171417,0.04627102613449097,0.050244271755218506,-0.21391698718070984
455,2.18347003399471,0.7417097994873973,2.8085482265753656,0.6032068729400635,-0.6755495667457581,0.42399778962135315,0.0004724990576505661,-0.19903762638568878,-0.6811663508415222,-0.33327895402908325,0.6557742357254028,-0.5033893585205078
456,2.124323975995325,0.721347655468447,2.7952675604036292,0.638786256313324,-0.6603972315788269,0.3947503864765167,0.3468411862850189,-1.3714181184768677,0.36121314764022827,-0.1519545316696167,0.43854963779449463,-0.13133782148361206
457,2.0326432276701456,0.7210269854917745,2.6922575465654104,0.6724334359169006,-0.6601564288139343,0.3347044885158539,1.503745675086975,0.38721299171447754,0.4254553020000458,0.8240113258361816,-0.9933775663375854,0.7846955060958862
458,2.031022190049509,0.7211648177968112,2.609376163832142,0.6728935837745667,-0.6602599620819092,0.3335736095905304,0.11048104614019394,-0.7151338458061218,-0.020049557089805603,-0.3179435729980469,0.056454360485076904,0.09699895977973938
459,2.0317991907499344,0.7277319472574185,2.6073410506863657,0.6687363982200623,-0.6651778221130371,0.3321603238582611,-0.3814045190811157,0.10143395513296127,0.2475174367427826,-0.753437876701355,0.44430679082870483,-0.3867410123348236
460,1.9567063222158363,0.79433755905912,2.7091783569682666,0.6492211222648621,-0.7133995294570923,0.2637667655944824,-1.5766853094100952,-0.5338389277458191,0.12501175701618195,-0.5565240383148193,0.08086174726486206,0.2945522964000702
461,2.048099725937267,0.7497172912725306,2.8371387621194715,0.6500839591026306,-0.6814318895339966,0.3362157344818115,-0.33205312490463257,3.5594072341918945,0.43647104501724243,0.7443250417709351,-1.3856151103973389,0.1779596209526062
462,2.147494274251916,0.7875586236476947,2.880934830613322,0.5914626121520996,-0.7086328268051147,0.3847222626209259,-0.658705472946167,0.07785949856042862,-0.7683025598526001,-0.23047024011611938,0.512511670589447,-0.05163818597793579
463,2.109094255196689,0.7655473642183148,2.9368409981434156,0.6190409660339355,-0.6929317712783813,0.3696407079696655,0.23466576635837555,-1.0050610303878784,0.10995461791753769,-0.49167579412460327,0.6533809304237366,-0.34296831488609314
464,1.9949580809184506,0.7922393090697445,2.8313630914110197,0.6400219798088074,-0.711927592754364,0.2890170216560364,1.9878740310668945,-2.001107692718506,0.3909238278865814,0.9897692203521729,-0.07725685834884644,0.8797147274017334
465,2.1836856288412725,0.7339492212657682,2.5691193343948333,0.6073858141899109,-0.6698073148727417,0.42713087797164917,-0.026651041582226753,-1.5316743850708008,0.5655706524848938,0.1700037717819214,-0.5746995806694031,-0.6041786074638367
466,2.0786247772261652,0.7563031317187521,2.588888641315837,0.6355845332145691,-0.686237096786499,0.3537099063396454,-0.4566020965576172,0.4339722990989685,-0.13368968665599823,-0.6795756816864014,0.3984106779098511,-0.155131995677948
467,2.068759635386762,0.7955982872929426,2.6670207207858443,0.6148650646209717,-0.7142824530601501,0.3342781066894531,-0.8034277558326721,0.10577138513326645,0.23922738432884216,-0.6689422130584717,0.3699830174446106,-0.22427746653556824
468,1.9944426291199506,0.7924149481807561,2.819886240339962,0.6400569081306458,-0.7120509743690491,0.2886356711387634,-0.5746020078659058,2.372098922729492,-1.4444606304168701,1.0488011837005615,-1.1428990364074707,1.1326441764831543
469,2.175434383427996,0.7972846187833391,2.7980068677177004,0.5747864842414856,-0.7154616117477417,0.39715874195098877,0.11257296800613403,-0.008190551772713661,0.36327362060546875,0.37829267978668213,0.5833510756492615,-0.20872798562049866
470,2.188448124808629,0.7638118962559187,2.8165762342077016,0.5887705683708191,-0.6916794180870056,0.4182448983192444,0.3976548910140991,-0.07527127861976624,-0.35551202297210693,-0.3598429560661316,0.6145310997962952,-0.5491805076599121
471,2.0810500872714277,0.7350448930687246,2.7675339807376123,0.6473106741905212,-0.6706204414367676,0.3622945547103882,0.24021422863006592,-2.376904010772705,0.17292097210884094,-0.036486029624938965,0.3994564414024353,0.0969645082950592
472,2.044222306094435,0.6935069736532808,2.5554664099575706,0.6844266653060913,-0.6392379999160767,0.35062041878700256,2.0400030612945557,1.3517522811889648,0.645121693611145,0.6147370338439941,-0.9376204013824463,0.36603909730911255
473,2.0686763969155293,0.670103154232335,2.5035864906444205,0.6886070370674133,-0.6210668087005615,0.3742944598197937,-0.2479674518108368,-1.0836281776428223,-0.19765885174274445,-0.48172837495803833,-0.008205652236938477,-0.3781702518463135
474,2.0305445259082906,0.6835011450461611,2.5054216357916768,0.6948555111885071,-0.6315115690231323,0.3440474271774292,-0.37835821509361267,0.3500451147556305,0.1324886977672577,-0.7724923491477966,0.4257774353027344,-0.18375390768051147
475,1.9658229315759859,0.7222992335079835,2.5872104899550457,0.6925051212310791,-0.6611115336418152,0.28873521089553833,-0.8439813256263733,-0.2173185646533966,-0.11868292093276978,-0.0032199621200561523,-0.6427671909332275,0.6156837344169617
476,2.08590879905085,0.72325227732639,2.6625169893061487,0.6523798704147339,-0.6618262529373169,0.3693057894706726,-0.45326945185661316,2.215632915496826,0.7689340114593506,0.48710083961486816,-0.5135431885719299,-0.00671115517616272
477,2.172035065191465,0.7681340553054439,2.7081434043106882,0.593084990978241,-0.6947944164276123,0.40683069825172424,-0.22572755813598633,1.0066663026809692,-0.41950780153274536,-0.2440553903579712,0.74736088514328,-0.17791825532913208
478,2.1261353817366544,0.7311603388941428,2.7349658855635806,0.6325329542160034,-0.6677338480949402,0.3924711346626282,0.18116866052150726,-1.7491871118545532,0.097755067050457,-0.4481457471847534,0.5874115824699402,-0.5401761531829834
479,1.9801942366882588,0.7406912795408024,2.6476022475775056,0.6770140528678894,-0.6747982501983643,0.29376694560050964,1.7692102193832397,-0.8720808625221252,0.27173829078674316,1.0042755603790283,-0.25844448804855347,1.1737775802612305
480,2.1146992228445622,0.6560427916061483,2.4590457295911023,0.6780637502670288,-0.609985888004303,0.41005727648735046,0.5541887283325195,-0.5989360213279724,-0.16293491423130035,0.004889190196990967,-0.4223475456237793,-0.6451341509819031
481,2.0180695176116976,0.6698332828428825,2.474320473188009,0.7068102955818176,-0.6208553314208984,0.3390543758869171,-0.47425034642219543,-0.1896195411682129,-0.05676788091659546,-0.6539539098739624,0.30281639099121094,-0.11850380897521973
482,1.959706599856794,0.7183950410398167,2.5457538062576215,0.6966416239738464,-0.6581771969795227,0.2854709327220917,-1.4336645603179932,-0.31693392992019653,0.6067196726799011,-0.43641817569732666,-0.12574315071105957,0.24060633778572083
483,1.9990794288067109,0.730015673302511,2.688278422685822,0.6778609752655029,-0.6668813228607178,0.30947378277778625,0.08605261147022247,1.7609829902648926,-0.2072000950574875,0.31959086656570435,-0.702137291431427,0.02849319577217102
484,2.1229651013842568,0.787253838117715,2.678650750737546,0.6009045243263245,-0.7084177136421204,0.37021318078041077,-0.33081740140914917,0.9543949365615845,-0.4949798882007599,0.16739076375961304,0.8782634139060974,-0.05543974041938782
485,2.1327415909210115,0.7457317915927186,2.7032851844164445,0.6216262578964233,-0.678509533405304,0.3914148807525635,0.33109787106513977,-0.7669832706451416,0.07372637093067169,-0.40113675594329834,0.5170258283615112,-0.396373987197876
486,2.0325071043272787,0.7561171695416169,2.633210641386744,0.6513298153877258,-0.6861018538475037,0.32408952713012695,0.8319938778877258,-2.317901849746704,0.20413413643836975,0.5216591358184814,0.1910151243209839,0.44344285130500793
487,2.1412281881915036,0.6809613724560267,2.418413377589373,0.653948962688446,-0.6295402646064758,0.4195592701435089,1.4991881847381592,1.9206032752990723,0.19453157484531403,0.815411388874054,-0.9688026309013367,-0.10344290733337402
488,2.18052816058024,0.6840508980515514,2.366147337674178,0.6353620886802673,-0.6319377422332764,0.4438129961490631,-0.4550166726112366,-0.20990143716335297,0.036062661558389664,-0.40434402227401733,0.2770487666130066,-0.31246525049209595
489,2.1320678802981163,0.6872470752892249,2.4642377188565483,0.6544018387794495,-0.6344115734100342,0.4114370346069336,-0.8283972144126892,0.3913946747779846,-0.2754107117652893,-0.7502574920654297,0.3107420802116394,-0.2667836546897888
490,2.0345086966587806,0.7265845387482917,2.6142485779968014,0.6685158610343933,-0.6643206477165222,0.3343120515346527,-0.17494812607765198,0.7103780508041382,-0.541584312915802,0.7016013264656067,-1.2513439655303955,1.0454944372177124
491,2.219473222574346,0.7793479681243461,2.45703573557301,0.5668810606002808,-0.7028157114982605,0.42976313829421997,0.6215195655822754,0.40378713607788086,2.0112204551696777,0.06004166603088379,0.11638987064361572,0.00457841157913208
492,2.2701634309483216,0.7573024754930224,2.5025782806694985,0.556100606918335,-0.686963677406311,0.4677957594394684,-0.8576771020889282,0.5581822395324707,-1.5187346935272217,-0.17725545167922974,0.6150948405265808,-0.46108201146125793
493,2.179475942650663,0.7121455263471143,2.5742883600022037,0.6210141181945801,-0.653459370136261,0.43281906843185425,0.06743928790092468,-1.9714126586914062,-0.043731555342674255,-0.12081575393676758,0.4809892177581787,-0.23179984092712402
494,2.0553876279865775,0.6834664159149235,2.4990391336235573,0.6861146092414856,-0.6314846277236938,0.36121228337287903,1.7375621795654297,-0.24204254150390625,0.6285681128501892,0.5081908702850342,-0.5462803244590759,1.1962370872497559
495,2.1544222033319986,0.664429154525782,2.3400703082649765,0.656952440738678,-0.6166098117828369,0.43382716178894043,-0.272654265165329,-1.2350013256072998,0.19508667290210724,-0.16674858331680298,-0.21461278200149536,-0.33829182386398315
496,2.0635314909422426,0.6599873742666689,2.405116807746354,0.6960235834121704,-0.613106906414032,0.3736996650695801,-0.3471372723579407,0.34294602274894714,-0.5923387408256531,-0.7326750755310059,0.3379756212234497,-0.11510893702507019
497,2.077587956898376,0.6780599678584872,2.46446395196593,0.6809021830558777,-0.6272833347320557,0.37800559401512146,-0.6864545941352844,0.02146804705262184,0.5822229385375977,-0.5066314339637756,-0.05238908529281616,-0.18218937516212463
498,2.1716947037628693,0.7358943726006176,2.455817489657273,0.6113877296447754,-0.6712503433227539,0.41907966136932373,0.5248866081237793,1.04507315158844,1.177523136138916,0.32908761501312256,-0.876311182975769,0.6031980514526367
499,2.2792442870750484,0.7547815049868456,2.4820416743164655,0.5531432032585144,-0.6851295232772827,0.47395166754722595,-1.0676798820495605,0.7727636098861694,-1.4141929149627686,0.0894654393196106,0.5146889090538025,-0.2669508755207062
500,2.258977552209498,0.7061163748020705,2.603519327172538,0.5877112746238708,-0.6488836407661438,0.4832649827003479,0.12970206141471863,-0.1852123737335205,-0.13564032316207886,-0.3175392746925354,0.3141975998878479,-0.5680886507034302
501,2.162567319171647,0.7130028731992828,2.5651179402668225,0.6277779936790466,-0.6541081070899963,0.42194443941116333,0.08868011087179184,-1.5402138233184814,0.31131511926651,0.3178853392601013,0.20765119791030884,0.2980719208717346
502,2.262496611315944,0.6682363991630614,2.3843807159148067,0.6045129299163818,-0.6196026802062988,0.50065678358078,1.4975695610046387,0.319690465927124,0.6901006102561951,0.7243903875350952,-0.8942066431045532,-0.3956303596496582
