,attitude.roll,attitude.pitch,attitude.yaw,gravity.x,gravity.y,gravity.z,rotationRate.x,rotationRate.y,rotationRate.z,userAcceleration.x,userAcceleration.y,userAcceleration.z
0,1.6980441910874098,0.7329969127430176,2.660408781562854,0.7371640205383301,-0.6690998673439026,0.09431213140487671,-0.34154242277145386,-0.19544479250907898,0.568263828754425,-0.7905545234680176,0.3679065704345703,-0.07740531861782074
1,0.0225190095959376,0.39884636008385554,2.2243096359956365,0.020749730989336967,-0.3883555233478546,-0.9212759733200073,0.28919297456741333,-0.02669442445039749,-0.13746412098407745,0.019869178533554077,-0.038539618253707886,0.15594089031219482
2,0.0641033358844914,0.3563815765495821,2.21156060374621,0.060034289956092834,-0.3488854765892029,-0.9352405071258545,-0.6553831100463867,-0.020029578357934952,0.08297155797481537,0.026895038783550262,-0.04698857665061951,-0.2539379596710205
3,0.08927825219244698,0.28474040621024854,2.244125883640759,0.08556964993476868,-0.2809083163738251,-0.9559122920036316,-0.8812657594680786,0.8753980398178101,0.5388875603675842,0.10092326253652573,0.008981466293334961,-0.35803723335266113
4,0.09211754120429032,0.21598434254127571,2.225450898389746,0.08985007554292679,-0.21430900692939758,-0.9726245999336243,-0.31918200850486755,-0.40031006932258606,-0.3517947196960449,0.11611305922269821,0.05873039364814758,-0.005738437175750732
5,0.08519544173710888,0.3137114044695521,2.2771188180621453,0.08093946427106857,-0.30859100818634033,-0.9477449059486389,2.3768579959869385,0.8842688202857971,1.6653006076812744,0.07312852889299393,0.06944003701210022,0.3692384362220764
6,0.06804284325140122,0.6710299439015134,2.5140928478349625,0.053248800337314606,-0.6217929720878601,-0.7813693881034851,3.8416359424591064,0.2946164309978485,2.370091676712036,0.157780259847641,0.2836734652519226,0.3567630648612976
7,-0.03356401467484586,0.8938744844618994,2.764609380934484,-0.0210204366594553,-0.7795045375823975,-0.6260437965393066,-0.3447713851928711,1.1059106588363647,-1.1605877876281738,-0.04590460658073425,0.5138185024261475,0.37674570083618164
8,0.39032751223091633,0.9093846963591415,2.4642901741003107,0.2337096929550171,-0.7891259789466858,-0.5680316090583801,3.832202911376953,2.6702377796173096,-3.259955644607544,0.19594727456569672,0.7225671410560608,-0.2519755959510803
9,1.6691906273255481,0.6951055450151418,1.051508994960682,0.7642714381217957,-0.6404665112495422,0.0754435807466507,8.072227478027344,-2.1607511043548584,-7.259101867675781,1.176875352859497,0.5387666821479797,-0.3195384740829468
10,1.5984019152017104,0.2878048358784074,0.662579020181276,0.9585039019584656,-0.2838480472564697,0.026466788724064827,-0.2867603003978729,-3.7487642765045166,-1.4366424083709717,0.16112494468688965,-0.8286397457122803,0.5514446496963501
11,1.4950476611696046,0.3255303969172583,0.7030403259663709,0.9447641968727112,-0.3198113739490509,-0.07170181721448898,-2.4649221897125244,0.5955092310905457,1.3883963823318481,-0.6420299410820007,-0.6059699058532715,0.8646400570869446
12,1.5345059929864453,0.44998221161875873,0.917339873671404,0.8998618125915527,-0.43494951725006104,-0.032670628279447556,0.7493847608566284,0.7923306226730347,1.759975790977478,0.18163520097732544,-0.2449820637702942,-0.16093289852142334
13,1.7492449569863746,0.6849316706383206,0.9587536554901058,0.7621639370918274,-0.632620096206665,0.13746941089630127,-1.3228627443313599,2.1855804920196533,1.2548013925552368,0.6552553772926331,-0.16074532270431519,-0.15826715528964996
14,1.7345889198359792,0.7494216649466925,1.1157662624562565,0.7222847938537598,-0.6812154650688171,0.1193743348121643,-2.2678380012512207,0.9450948238372803,-1.065749168395996,-0.21297693252563477,0.7160512804985046,0.15949523448944092
15,1.5534218674854787,0.5166805057332374,1.5423964365882685,0.8693323731422424,-0.49399667978286743,-0.015105700120329857,-2.811943292617798,-0.3357802629470825,-3.129568099975586,0.39110445976257324,-0.07941323518753052,-0.051743026822805405
16,1.3699489306919286,0.41532972274901403,1.7503292712349519,0.8965901732444763,-0.40349164605140686,-0.1825389564037323,-1.0684565305709839,-1.4588316679000854,3.3315722942352295,0.6177377700805664,-0.656917929649353,-0.1847095489501953
17,1.379193802547572,0.6564574465394508,1.7457796035567248,0.777662992477417,-0.6103144288063049,-0.1508527398109436,2.2156612873077393,2.5615079402923584,2.0659303665161133,0.10199093818664551,-0.45722103118896484,0.3956037163734436
18,1.562621773134116,0.938761832227835,1.564552928517924,0.5907676815986633,-0.8068272471427917,-0.004829369951039553,-0.16933488845825195,-1.5982877016067505,4.133352279663086,0.6376563310623169,0.04558151960372925,-0.4421616196632385
19,1.441442516792534,1.164657554566129,1.6724598341204164,0.3917642831802368,-0.918653130531311,-0.05096074938774109,-0.9183168411254883,0.30068206787109375,1.3140162229537964,-0.09328716993331909,0.7011392116546631,-0.17480826377868652
20,1.268844708866916,1.1037779862524457,1.778681776759606,0.42985692620277405,-0.8929146528244019,-0.1338900774717331,0.46991854906082153,-0.9887605309486389,-2.9777188301086426,-0.025987237691879272,0.5175331234931946,0.2838839888572693
21,1.398982375580599,0.9031103628510357,1.607932129035642,0.610054075717926,-0.785256564617157,-0.10585951805114746,-0.07456138730049133,1.107601284980774,-2.516788959503174,-0.058525145053863525,-0.14911538362503052,0.22147536277770996
22,1.5042058836406575,0.7753043107488369,1.5528540422936363,0.7126250267028809,-0.6999334692955017,-0.047524284571409225,0.7537727952003479,0.731524646282196,0.0195339135825634,-0.029168665409088135,-0.4161859154701233,-0.04238050431013107
23,1.8664271309688873,0.7928575072234494,1.3463973422779958,0.6713669300079346,-0.7123616337776184,0.20446842908859253,0.5596435070037842,2.5466952323913574,0.7838739156723022,0.20750874280929565,-0.2600809931755066,-0.138657346367836
24,2.2868604973990534,0.9155545877734632,1.1734230271794999,0.45969119668006897,-0.7929006218910217,0.39999035000801086,-0.12073902040719986,2.788205146789551,2.8216323852539062,0.5927073955535889,0.19263523817062378,-0.06271010637283325
25,2.8139091932287887,1.0691805575065056,0.7756182153755353,0.15475960075855255,-0.8768067955970764,0.4552575349807739,0.5714576244354248,0.6263269186019897,1.62040376663208,0.06473806500434875,0.5544496178627014,-0.2670707702636719
26,3.0352639037956375,1.0878521294863828,0.555162428640014,0.04928487166762352,-0.8856315016746521,0.46176597476005554,-0.3942036032676697,0.8866945505142212,1.4739686250686646,0.2533121705055237,0.4670829176902771,-0.05804896354675293
27,3.1224666110813004,1.0063615817547686,0.20044239335597586,0.010230633430182934,-0.8448911309242249,0.5348407030105591,4.680728912353516,-7.333137035369873,1.586746335029602,-0.0730052962899208,-0.5181766152381897,1.153925895690918
28,2.8164841296212124,1.1123958145948623,0.11027919252622347,0.14134441316127777,-0.896761417388916,0.4193342328071594,-2.0727341175079346,-4.333975791931152,0.5134871602058411,0.4400154948234558,-0.4584023356437683,-0.2813335955142975
29,1.8431345585099437,1.1900804107976939,0.5846112309635183,0.35789042711257935,-0.928398847579956,0.09995059669017792,-2.2228405475616455,-3.238766670227051,-1.3276610374450684,-0.10787516832351685,0.11766886711120605,-0.2380732297897339
30,1.4729926239463071,1.0742766296355948,0.9426805297593038,0.47409194707870483,-0.8792458176612854,-0.046516358852386475,0.2327561229467392,1.9849947690963745,-1.4514267444610596,-0.28030532598495483,-0.0307731032371521,-0.15424352884292603
31,1.7134413797793557,0.8603599962309724,0.5476652334064778,0.6455409526824951,-0.7580773830413818,0.09271290898323059,2.2494373321533203,-0.36162039637565613,-1.3246545791625977,0.06069684028625488,0.40883421897888184,0.7288661003112793
32,1.756065738381539,0.7686981853423418,0.49316728484102773,0.7065151929855347,-0.6952000856399536,0.13241416215896606,0.02023598551750183,-0.287716805934906,-0.061195265501737595,0.10548138618469238,-0.8305416703224182,0.8056352138519287
33,1.7745415221031988,0.7337791310155015,0.5502221622929032,0.7272876501083374,-0.6696809530258179,0.15026642382144928,1.0322697162628174,1.7843464612960815,-0.9387975931167603,0.3868786096572876,-0.3617825508117676,0.4154531955718994
34,2.0957198741626426,0.5897118111828655,0.38803755255136796,0.719203531742096,-0.5561215281486511,0.4165036976337433,1.4116570949554443,1.214099645614624,-1.4679676294326782,0.42876100540161133,-0.19474822282791138,-0.2845456600189209
35,2.0816478991074616,0.5293079912762237,0.4280723131654703,0.7529563307762146,-0.504936158657074,0.42201489210128784,-0.05166193097829819,-1.4799755811691284,-0.14523625373840332,-0.4290273189544678,-0.0655289888381958,-0.4912896752357483
36,2.1925898269507202,0.5292883190086364,0.3510455697915495,0.701612114906311,-0.504919171333313,0.502789318561554,1.8178989887237549,0.879347026348114,1.6986593008041382,0.3073447346687317,0.355566143989563,-0.8273131847381592
37,2.131520017798667,0.5619692297429453,0.1396039627227274,0.7166282534599304,-0.5328536033630371,0.45001253485679626,1.0416327714920044,-7.113361835479736,-0.09478975087404251,-0.17091286182403564,0.14045852422714233,0.7308804392814636
38,2.0997420600980035,0.6880631007996567,0.10144393722938301,0.6669102907180786,-0.6350421905517578,0.3898102045059204,-0.7299240231513977,2.3129889965057373,1.6685945987701416,0.2284448742866516,-0.1313914656639099,-1.000207543373108
39,2.356757720354883,0.7152397560581096,0.03476883601576228,0.5335195064544678,-0.6557984352111816,0.5341208577156067,-0.519883930683136,3.240946054458618,0.5362315773963928,0.18277370929718018,-0.2731565237045288,-0.42643964290618896
40,2.5640021791149126,0.9371761142211947,0.21961876310799422,0.3232721984386444,-0.805889368057251,0.4960216283798218,-3.6619973182678223,7.001394748687744,-0.27682098746299744,0.1844029724597931,0.17510634660720825,0.011729836463928223
41,2.5830360271783688,1.1689368043854882,0.6872528464574928,0.2072845697402954,-0.9203352928161621,0.3316868245601654,-3.3624465465545654,3.6365816593170166,-1.492566466331482,-0.09554445743560791,0.7713332176208496,0.030205965042114258
42,2.1457575234405035,1.2279303778328374,1.5433413952565125,0.2821332812309265,-0.9417950510978699,0.182819664478302,-3.1857645511627197,3.559589147567749,-2.293919324874878,-0.423139750957489,0.17839783430099487,-0.21049904823303223
43,1.591689573337009,1.3133281401386985,2.4290896516476725,0.25457704067230225,-0.9670377373695374,0.005319715011864901,-2.509582757949829,6.275228977203369,2.4783918857574463,-0.33569279313087463,-0.7198365330696106,-0.029733777046203613
44,-0.19996397761457452,1.38936939267422,-1.3391090853329628,-0.03584018722176552,-0.9835872054100037,-0.17683790624141693,0.2716352939605713,5.550539970397949,3.012525796890259,-0.07152065634727478,-0.45952796936035156,0.5900917053222656
45,-0.9353471323027567,1.40631538821526,-0.4276383609109511,-0.13177897036075592,-0.9865034818649292,-0.09718621522188187,-0.10736258327960968,-2.237962245941162,1.902690052986145,0.3760417103767395,0.664695680141449,0.5547362565994263
46,-0.9686580587874107,1.3266270386322758,-0.5556812288713154,-0.1992330104112625,-0.9703384637832642,-0.1369289606809616,-3.005836248397827,0.2274123877286911,-0.7281185984611511,-0.3056345582008362,0.23436129093170166,-0.5327335000038147
47,-0.33203577067917633,1.2912563866378133,-1.0171334332800326,-0.08993905782699585,-0.9611824750900269,-0.26084333658218384,-3.294835329055786,13.98830795288086,0.16704824566841125,-0.9184838533401489,-0.5532828569412231,0.31763648986816406
48,-0.07212368335842571,1.1794158407300859,-1.0844618825079102,-0.027488818392157555,-0.9243833422660828,-0.3804733157157898,-1.135488510131836,-0.7941259145736694,0.8116398453712463,0.3882218599319458,-0.476373553276062,0.5485183596611023
49,-0.652349634777407,1.1117205606664955,-0.803725406145967,-0.2689981162548065,-0.8964624404907227,-0.3521293103694916,0.3068690896034241,-3.4623022079467773,0.30103883147239685,0.2202616035938263,-0.13587087392807007,0.11593857407569885
50,-0.7869288330265902,1.1116343045388113,-0.876949249232066,-0.31386691331863403,-0.8964241743087769,-0.31290754675865173,-0.34995564818382263,-1.8881354331970215,-0.49153685569763184,0.2156308889389038,0.31683439016342163,0.023600906133651733
51,-0.9559092747249539,1.15627511371866,-1.1414626196045758,-0.3289831876754761,-0.9153092503547668,-0.23233389854431152,-0.7761633396148682,-7.721426486968994,-1.9310674667358398,0.3141516447067261,0.49383097887039185,-0.20176339149475098
52,-1.6760020935860438,1.3325196733778963,-1.4928038955763914,-0.23472334444522858,-0.9717461466789246,0.024785760790109634,1.0476205348968506,-9.447185516357422,-0.9476635456085205,0.07259869575500488,-0.6101477146148682,0.035166025161743164
53,-1.6270174700131785,1.3720312331892714,-1.6102084979680709,-0.1971469670534134,-0.9803111553192139,0.011095521040260792,3.4022376537323,-1.212213397026062,-0.4067741632461548,0.07187230885028839,-0.11327099800109863,0.21532964706420898
54,-2.8848203230614144,1.2816732173261942,-0.4320559928922982,-0.07240718603134155,-0.958494246006012,0.2757650315761566,0.7898610830307007,-0.6280651688575745,-1.788163661956787,0.15469782054424286,-0.46988123655319214,0.08837074041366577
55,-2.974126434734241,1.2928528904708492,-0.05474265998483868,-0.04573475942015648,-0.9616217613220215,0.27054062485694885,-2.2819087505340576,4.8082194328308105,-0.5921416878700256,0.3318980932235718,0.37327325344085693,-0.4110892713069916
56,-1.1432465082413252,1.5219230622936404,-1.6277017772122457,-0.04445629194378853,-0.9988059401512146,-0.020256901159882545,-2.5207269191741943,2.6530895233154297,-0.9564484357833862,0.3152235150337219,0.7507590651512146,-0.22463136911392212
57,-1.1707538351609708,1.4932581036814854,-1.6831925742153442,-0.07134439051151276,-0.9969953894615173,-0.03016749583184719,-1.0448414087295532,1.8771991729736328,0.7944027781486511,-0.7268428802490234,-1.1204819679260254,0.9602975249290466
58,-0.3453388191307422,1.4456428995969606,-2.3889148196958776,-0.04225575178861618,-0.9921784996986389,-0.11745696514844894,-1.1004844903945923,1.713728427886963,-1.2736667394638062,0.6537669897079468,-0.11885964870452881,-0.6566519141197205
59,0.33925666483551314,1.3003913378223222,-3.0684098423794945,0.08889449387788773,-0.9636628031730652,-0.25189658999443054,-1.271639108657837,0.3325903117656708,-0.4941611886024475,-0.025326386094093323,-0.034918129444122314,-0.02573704719543457
60,0.36682200404779386,1.1628967315114707,-2.8634177230601936,0.1422702670097351,-0.9179560542106628,-0.37029147148132324,-2.449817180633545,2.84885573387146,0.25144022703170776,0.0014675110578536987,0.4994990825653076,0.28496435284614563
61,0.6707668558977503,0.9848794163182957,-2.7511645673477467,0.34371498227119446,-0.8332054018974304,-0.4331614673137665,-0.27521637082099915,6.13706111907959,-0.44659820199012756,-0.39019328355789185,0.09881514310836792,0.12064623832702637
62,0.7970436928571849,0.9703379125862286,-2.5186166875406157,0.4041556119918823,-0.825076699256897,-0.39485034346580505,-1.5154210329055786,2.6709721088409424,0.7662476897239685,-0.04655066132545471,-0.456997275352478,-0.37773263454437256
63,0.9181699887631877,0.9980301262659153,-2.2944127617373185,0.43058183789253235,-0.8404050469398499,-0.32911816239356995,0.8306710124015808,3.5008058547973633,2.9488742351531982,0.25031107664108276,-0.41260093450546265,-0.16120779514312744
64,0.46654343976360146,1.2523072317896744,-1.8891205647635212,0.14084728062152863,-0.9497095942497253,-0.279666930437088,-0.3868446350097656,-1.3263826370239258,1.448014497756958,0.31500905752182007,0.08539080619812012,0.7254982590675354
65,0.4536019904825054,1.1866873090315628,-1.6836089238834056,0.1642104834318161,-0.9271326661109924,-0.33683833479881287,-2.2680819034576416,3.7878639698028564,-0.566597044467926,-0.2774917185306549,0.49817758798599243,0.265350878238678
66,0.5780437078855579,1.1025962833683527,-1.7660133651663426,0.2465738207101822,-0.892382025718689,-0.37796273827552795,-0.5950512290000916,-1.6888748407363892,-0.8279852271080017,0.019768357276916504,0.47526776790618896,0.32997381687164307
67,0.65711571991192,1.0111182951382969,-1.7698372438500503,0.32430076599121094,-0.8474261164665222,-0.4203544557094574,0.8441721796989441,-2.625274896621704,-0.0474422313272953,0.11396214365959167,0.05486941337585449,-0.09935981035232544
68,0.19814333949820603,1.0203020921571637,-1.6176052996907873,0.1029735580086708,-0.8522660732269287,-0.5128731727600098,0.9226692318916321,-7.943745136260986,2.513472080230713,0.9423907995223999,-0.2745954394340515,0.39251190423965454
69,-0.4747233151221159,1.2081662921028085,-1.3892059852466137,-0.1621464341878891,-0.9349671006202698,-0.3155076801776886,-0.2787138819694519,-1.8618242740631104,-2.047210931777954,0.10297286510467529,0.043457090854644775,-0.2197554111480713
70,0.10708524707129313,1.0460997639292489,-1.8476233312850532,0.05354192852973938,-0.8654760122299194,-0.49808087944984436,-2.190250873565674,4.0075883865356445,-2.1197586059570312,-0.3698566257953644,0.26269280910491943,0.20041239261627197
71,0.7057643273829541,0.9349735825342108,-2.0767394478163315,0.38517382740974426,-0.8045833706855774,-0.45198094844818115,0.12611880898475647,4.230851173400879,-0.6835321187973022,-0.5499382019042969,0.07872277498245239,0.34109532833099365
72,0.9621792239580859,0.9020186737017625,-1.9123093090538748,0.5086949467658997,-0.7845801115036011,-0.35449036955833435,-1.404001235961914,3.7214744091033936,1.2564278841018677,0.03955334424972534,-0.5896110534667969,-0.3173998296260834
73,0.8412426368284869,0.9898623475118339,-1.4388643390918157,0.4091185927391052,-0.8359504342079163,-0.3657987117767334,-2.952923059463501,4.034846305847168,4.204654216766357,0.2062835693359375,-0.6150535345077515,0.4212339222431183
74,0.593864951236129,0.8772264491110232,-0.8652300060095551,0.3577244281768799,-0.7689687609672546,-0.5298303961753845,0.06525877118110657,0.05908383056521416,-0.8224654197692871,-0.08361557126045227,0.17741608619689941,0.4246821403503418
75,0.7824427071223105,0.9405921259043166,-0.9802419595218477,0.415471613407135,-0.8079071640968323,-0.41793471574783325,-0.4757829010486603,2.2813777923583984,-1.1748054027557373,-0.17154461145401,0.8917389512062073,-0.27162522077560425
76,0.8419926830630605,0.9729445565843778,-1.093293552588877,0.4198837876319885,-0.8265466690063477,-0.37485769391059875,3.5320887565612793,3.300111770629883,0.05788731947541237,-0.052009642124176025,-0.12233632802963257,-0.33998608589172363
77,0.9102103308006864,0.9791185718735634,-1.1520221696301352,0.4404212534427643,-0.8300060629844666,-0.3422268331050873,-0.07077696919441223,-1.7399786710739136,0.2623145878314972,-0.1158362627029419,-0.4994465708732605,0.3512752950191498
78,0.22349646383109992,0.9897723975115972,-1.0166897822469647,0.12165402621030807,-0.8359010815620422,-0.5352284908294678,0.8717988133430481,-11.434576988220215,0.6634328961372375,0.4885144531726837,-0.2926846742630005,0.43326932191848755
79,-0.7384396179718943,1.0759592733166332,-1.1000982221506035,-0.3196636736392975,-0.8800461292266846,-0.35118913650512695,-2.705172300338745,-1.1457884311676025,0.21124310791492462,0.07552310824394226,-0.0024763941764831543,0.7710347175598145
80,-0.1295698507530716,0.8657812865977916,-1.4088039750822081,-0.08373238146305084,-0.7616018056869507,-0.6426131129264832,1.0612934827804565,4.4066481590271,0.07140570133924484,-0.33440420031547546,0.15581268072128296,0.7955366969108582
81,0.7536935730268859,0.9469830586809866,-1.4908793393458335,0.3997446298599243,-0.8116568922996521,-0.42593109607696533,-1.7141697406768799,4.527710914611816,-0.7853555083274841,0.4861195981502533,-0.07611465454101562,-1.8262356519699097
82,1.0309093136125342,0.9716425929412732,-1.4427201369297682,0.4837321937084198,-0.8258131742477417,-0.2898891270160675,-0.1971043199300766,3.7221498489379883,0.7973084449768066,-0.2284832000732422,-0.6184921860694885,-0.5813572406768799
83,0.9714894489754766,1.0921670539554809,-0.9725844638514407,0.38029924035072327,-0.8876270651817322,-0.25978994369506836,-3.0156209468841553,-0.7382215261459351,2.4144673347473145,-0.19730058312416077,-0.4800792336463928,0.37288808822631836
84,0.5884365986806414,1.0191177904781266,-0.6494354172694847,0.2909172475337982,-0.8516459465026855,-0.43596580624580383,0.2647373378276825,-0.3870502710342407,-0.10564322024583817,0.1030646562576294,0.2311321496963501,0.6033700108528137
85,0.6519252605222414,0.9281158681760011,-0.6875416507502475,0.36363229155540466,-0.8004921078681946,-0.47642821073532104,-0.9147028923034668,-1.1678829193115234,-0.42400598526000977,-0.17179879546165466,0.32257163524627686,0.781207263469696
86,0.7743904100567293,0.9730607002170972,-0.7275895472239675,0.39353546500205994,-0.8266120553016663,-0.40229612588882446,-1.9681618213653564,2.2784976959228516,-0.6796128749847412,0.0183449387550354,-0.1424124836921692,-2.1183643341064453
87,0.7027953948696813,0.9094981264037244,-0.6682606948324635,0.3969525694847107,-0.7891955971717834,-0.46861380338668823,-1.0612820386886597,-0.1226060688495636,0.48154130578041077,0.09859183430671692,-0.4883769750595093,-0.03134039044380188
88,0.5547291969643773,0.848239543883011,-0.5020335526070926,0.3483178913593292,-0.7501173615455627,-0.5621375441551208,-0.9387809634208679,0.21520942449569702,-0.27283477783203125,0.030878275632858276,-0.2692612409591675,0.5462989211082458
89,0.6481458431460512,0.8173883902425645,-0.5589508396317314,0.41301462054252625,-0.7293616533279419,-0.5453901886940002,0.6749220490455627,2.5426025390625,-0.44015800952911377,-0.10284924507141113,0.47913283109664917,0.3263808488845825
90,0.8984024601149185,0.8200577944389966,-0.6423981356396471,0.5336910486221313,-0.731185257434845,-0.42490240931510925,0.5278680920600891,1.5474447011947632,0.6402661800384521,-0.2503201365470886,0.6814873218536377,0.05072641372680664
91,1.111127416136732,1.006269492690038,-0.7397287425871397,0.47948122024536133,-0.8448418378829956,-0.23736070096492767,3.0446271896362305,0.8644595742225647,0.6170273423194885,0.39351987838745117,-0.048545002937316895,-0.26369214057922363
92,1.1559485430508638,1.0637935699738297,-0.9989641627151514,0.4443729519844055,-0.8742037415504456,-0.19570495188236237,-1.4833651781082153,-2.5344293117523193,-0.14196880161762238,-0.2554386556148529,-0.7453945875167847,-0.5199627876281738
93,0.49524212766892006,1.1071915885854307,-0.6062377125117527,0.2125176638364792,-0.8944463729858398,-0.39344877004623413,-0.040238115936517715,-3.988556385040283,2.1875,0.2978125214576721,-0.29506778717041016,0.02041715383529663
94,-0.055380499087351966,1.152036055163564,-0.3037145426527302,-0.022507762536406517,-0.9135937690734863,-0.40600478649139404,0.04339296370744705,-0.3556753098964691,0.43644002079963684,0.005036443471908569,0.17329835891723633,0.30258071422576904
95,0.07939735431000274,1.1113392958980406,-0.30385840665198205,0.03517267107963562,-0.8962934017181396,-0.4420642554759979,-0.5131828188896179,0.41503047943115234,-0.3887607157230377,0.20112492144107819,0.5902174711227417,0.8188495635986328
96,0.43729033078669866,1.1565540388395557,-0.524117356162008,0.17045168578624725,-0.9154215455055237,-0.36462241411209106,0.8251991271972656,8.075967788696289,-1.4500901699066162,-0.35921818017959595,-0.06733596324920654,-0.6818100214004517
97,0.6191422467678908,1.1364400370328942,-0.6749081626044868,0.2442210614681244,-0.9071411490440369,-0.3427111506462097,1.2999573945999146,-1.8211499452590942,-0.21774663031101227,-0.08710132539272308,-0.06350088119506836,0.4749438464641571
98,0.5998188344280936,1.1767475717169742,-0.7411406128100697,0.21672573685646057,-0.9233621954917908,-0.3169103264808655,0.6959049701690674,-2.697439193725586,0.833433985710144,0.5010935068130493,-0.30680137872695923,0.3923802971839905
99,0.3148681747028837,1.1359204765550526,-0.868121041191845,0.13047218322753906,-0.9069223403930664,-0.4005855917930603,-1.3496828079223633,-0.9428582787513733,-2.2666242122650146,-0.28681373596191406,0.21197611093521118,0.2491726577281952
100,0.6101465008796333,1.0453958367468201,-1.1398682965481137,0.2873874306678772,-0.8651231527328491,-0.41106027364730835,-0.3350088894367218,0.738568902015686,-0.17901940643787384,-0.4431796669960022,0.4493669271469116,0.23541635274887085
101,0.8234124210243322,1.0522629593986084,-1.2437948183955705,0.36351248621940613,-0.8685469627380371,-0.33687493205070496,1.2764556407928467,1.410346508026123,-0.5718816518783569,-0.414339542388916,-0.16784512996673584,-0.20789435505867004
102,0.894328596830553,1.052118976573039,-1.1100746502769705,0.386566162109375,-0.868475615978241,-0.3103491961956024,-1.4228382110595703,-0.015098433941602707,0.9766606092453003,0.3501891791820526,-0.37514615058898926,-0.7236778736114502
103,0.3358811337121059,1.1751116745824008,-0.6624277835779814,0.12704139947891235,-0.9227328896522522,-0.3639014959335327,0.2244630753993988,-2.748412609100342,2.8613951206207275,0.007174879312515259,-0.4436609745025635,0.2558540105819702
104,-0.22140251007843947,1.2318122644094256,-0.1582542120199369,-0.07302278280258179,-0.9430930018424988,-0.3244122862815857,0.4640636742115021,4.1492204666137695,-0.18119008839130402,0.1329440474510193,0.3649985194206238,0.1775006651878357
105,0.34660047009574657,1.2477237410304798,-0.3796254122449098,0.10784925520420074,-0.9482644200325012,-0.298601895570755,-0.16232991218566895,0.3139195740222931,-0.37739047408103943,0.33377063274383545,0.7909615635871887,0.6075313687324524
106,0.4685308651102802,1.2679659887093084,-0.567966813023099,0.13467024266719818,-0.9544962644577026,-0.26608413457870483,0.3498958647251129,10.887394905090332,-1.350265622138977,-0.5563774108886719,0.42931926250457764,1.193192958831787
107,0.6428214124800145,1.1867110264145435,-0.6337324611858743,0.22462284564971924,-0.927141547203064,-0.29992160201072693,0.269564151763916,-2.269575834274292,0.185553640127182,-0.13044562935829163,-0.284574031829834,0.5539194345474243
108,0.5025667084814647,1.2528992198014666,-0.5900558850794719,0.15055736899375916,-0.9498948454856873,-0.2739199995994568,0.16478604078292847,-2.928112268447876,0.18263615667819977,0.30130112171173096,-0.45370006561279297,0.17450901865959167
109,0.43874067645297943,1.2512797129550113,-0.8095362792220702,0.13343283534049988,-0.9493873715400696,-0.28435763716697693,-0.23936061561107635,-1.2154754400253296,-1.3719171285629272,0.06158974766731262,0.3031013607978821,-0.06598412990570068
110,0.5863210185717196,1.1483214360584637,-0.9975154688073254,0.22686351835727692,-0.912077009677887,-0.3415382504463196,-0.1420612633228302,-0.24696394801139832,-0.8184547424316406,-0.4926716685295105,0.42713749408721924,0.28907862305641174
111,0.81215263952778,1.1714292313138666,-1.210976541179661,0.28220483660697937,-0.9213072657585144,-0.26749441027641296,-0.9845499396324158,1.4189317226409912,-0.632339596748352,0.12854647636413574,-0.3411743640899658,-0.7111432552337646
112,0.6879451344972455,1.0959637736001868,-1.0247091440627516,0.2902930974960327,-0.8893693089485168,-0.35320302844047546,-0.4417998194694519,-2.687459707260132,1.417492151260376,-0.0564369261264801,-0.8002059459686279,-0.4498670697212219
113,0.020718922005065935,1.1613675980264384,-0.5594006914787742,0.008247311227023602,-0.9173483848571777,-0.39800000190734863,-0.09766536206007004,0.20157569646835327,1.4207355976104736,-0.005363404750823975,-0.30295801162719727,0.31177258491516113
114,0.0448395631422628,1.087742763602734,-0.40835914739268864,0.02082034945487976,-0.8855807185173035,-0.46401864290237427,-0.6177846789360046,1.7719066143035889,0.030204497277736664,0.19760921597480774,0.574072539806366,0.47309762239456177
115,0.21606632906169215,1.0440807779354353,-0.47597010702729475,0.10777270048856735,-0.8644627928733826,-0.4910082221031189,0.509864091873169,0.5461266040802002,-0.7555369734764099,0.20317091047763824,0.6125707030296326,0.6676592826843262
116,0.7844563932188277,1.0985396811057937,-0.6702655756931538,0.3213578462600708,-0.8905439972877502,-0.32196372747421265,-3.182433843612671,3.172835350036621,-1.164731502532959,0.2477644979953766,-0.6761369705200195,-5.227123737335205
117,0.6555727181996515,1.108003871081282,-0.7470129373898446,0.272161066532135,-0.8948093056678772,-0.35389938950538635,0.5550839304924011,-1.6824313402175903,-0.4827106297016144,0.62008136510849,0.1211429238319397,1.3650383949279785
118,0.4019481207996389,1.1834884216928543,-0.824744565206184,0.14775963127613068,-0.9259291887283325,-0.3475949168205261,1.1099574565887451,-3.253009080886841,-0.32022324204444885,0.636313259601593,-0.27843177318573,0.3007046580314636
119,0.5717416100243959,1.1699544025382023,-1.1439951930075924,0.21113285422325134,-0.9207327961921692,-0.32813727855682373,-0.9221163988113403,-0.8865684270858765,-1.934302568435669,-0.07642826437950134,0.2220023274421692,-0.19710075855255127
120,0.6580331839156102,1.0136410764154717,-1.2420706419131773,0.32337793707847595,-0.8487627506256104,-0.4183640778064728,-0.5419569611549377,1.0682145357131958,-0.4911828637123108,-0.6860336065292358,0.38622307777404785,0.5232834815979004
121,0.8351144339027946,1.0418763868737946,-1.2701452422135815,0.37409791350364685,-0.8633525967597961,-0.33863431215286255,-2.29099178314209,2.0061087608337402,0.6857083439826965,0.11541929841041565,-0.5595600605010986,-1.3017160892486572
122,0.568622107849523,1.078467656770018,-0.981507309695272,0.2545243203639984,-0.8812345266342163,-0.3983002305030823,-0.08323030173778534,-1.8819986581802368,2.1467056274414062,0.08974447846412659,-0.6219850778579712,-0.10885614156723022
123,0.015540908014970019,1.1636958333882375,-0.4717170345859673,0.006153147201985121,-0.9182727336883545,-0.3959003984928131,-0.04321339726448059,-0.1145256906747818,1.4362082481384277,0.1347160041332245,-0.11769211292266846,0.2754476070404053
124,0.11349575949338711,1.0933558948316335,-0.364230251020674,0.05204024165868759,-0.8881739974021912,-0.4565509855747223,-1.1996597051620483,0.8185433149337769,-0.3785078227519989,0.3421553373336792,0.5275630354881287,0.3436816930770874
125,0.24197660926222653,1.0519715621849683,-0.5442481997206395,0.11881900578737259,-0.8684025406837463,-0.48141366243362427,0.5044676661491394,-0.721255898475647,-0.978539764881134,-0.002714887261390686,0.6013279557228088,0.6537006497383118
126,0.5954941988227217,1.069069696343925,-0.6958304541327243,0.2697678804397583,-0.8767534494400024,-0.3981564939022064,-0.3914128541946411,-1.4896519184112549,-0.23778250813484192,0.09082779288291931,-0.7749035954475403,-1.2252870798110962
127,0.4030749419852914,1.1128855017369375,-0.6702034872542666,0.17340347170829773,-0.8969780206680298,-0.40664705634117126,0.216379314661026,-2.6749868392944336,0.37333014607429504,0.5893375873565674,-0.4490455389022827,0.4553073048591614
128,0.30276760085620646,1.176326347232478,-0.8571644162191004,0.11458968371152878,-0.9232003688812256,-0.36683809757232666,0.26600176095962524,-0.7577400207519531,-1.2399696111679077,0.2728614807128906,0.013013660907745361,0.015641748905181885
129,0.5583049879640855,1.0701674384093989,-1.1299730444142881,0.2542676329612732,-0.8772808909416199,-0.4070947468280792,-0.6271060705184937,0.71437668800354,-1.712207317352295,-0.3552655875682831,0.5321729183197021,0.1465814709663391
130,0.807513796286633,1.0129711258714182,-1.2893963911172956,0.38248729705810547,-0.8484083414077759,-0.365932822227478,1.5455349683761597,2.0418739318847656,0.18312901258468628,-0.5838422775268555,0.04312574863433838,0.15079915523529053
131,0.9015942679230415,1.0235802428315892,-1.240115466368444,0.4080893099308014,-0.853976309299469,-0.3227807879447937,0.1368294060230255,-0.5668612122535706,0.4833751320838928,-0.15451878309249878,-0.48658448457717896,-0.5134618282318115
132,0.497838072452324,1.1166983212017927,-0.9774838043031553,0.20946817100048065,-0.8986570835113525,-0.3854070007801056,0.5184631943702698,-1.7388713359832764,2.486623525619507,0.028797805309295654,-0.44040846824645996,0.24121147394180298
133,0.013087348431703302,1.2324476692351651,-0.4505357363117992,0.004343957174569368,-0.9433040618896484,-0.3319014012813568,-0.24051420390605927,1.5562796592712402,0.8211414813995361,0.05450919270515442,0.1937466263771057,0.3372267484664917
134,0.2861844208672032,1.1354749162643292,-0.43407288420537354,0.11904381960630417,-0.9067345261573792,-0.4045502543449402,-0.8282536864280701,1.562821388244629,-0.5443221926689148,0.11763525754213333,0.5779687166213989,0.5864197611808777
135,0.3851983463819337,1.116427539813617,-0.5735970225911176,0.16491183638572693,-0.8985382318496704,-0.406734824180603,0.37446945905685425,1.7967184782028198,-0.7312168478965759,-0.13395175337791443,0.4689270257949829,0.462978720664978
136,0.7739399148282022,1.0770306247613113,-0.727779825128878,0.33126798272132874,-0.8805543780326843,-0.3389478325843811,0.5383411049842834,-1.803852915763855,-0.06095537543296814,-0.08790555596351624,-0.4349974989891052,0.3825421631336212
137,0.5419388300609277,1.1482920196317368,-0.685711477182888,0.21150073409080505,-0.9120649099349976,-0.35129034519195557,0.7915202975273132,-3.242184638977051,0.5882455706596375,0.46447885036468506,-0.43691879510879517,0.43713632225990295
138,0.5239055035230431,1.2286380002240014,-0.9193512427766056,0.16784949600696564,-0.9420326948165894,-0.29051801562309265,0.4108105003833771,-0.3922310471534729,-1.1091848611831665,0.11896993219852448,0.1152200698852539,0.08243390917778015
139,0.7640428925086331,1.1211795875121355,-1.1466311850134583,0.3006904423236847,-0.9006137251853943,-0.3138153553009033,-0.7774168848991394,1.040764570236206,-1.4291112422943115,-0.2962959110736847,0.46750831604003906,0.2041962444782257
140,1.1400075210305143,1.0681011708997694,-1.351557353985281,0.437771201133728,-0.8762872219085693,-0.20118917524814606,1.4886889457702637,1.867472529411316,0.1358916312456131,-0.5508692860603333,0.02744072675704956,-0.20249733328819275
141,1.1955915140292535,1.0730003997365039,-1.274282094105497,0.44427257776260376,-0.8786371350288391,-0.17498259246349335,0.47329455614089966,0.1246945858001709,0.29300856590270996,-0.039609432220458984,-0.44510871171951294,-0.34027618169784546
142,0.788860899935667,1.1715253313331897,-1.0488416560304097,0.2758356034755707,-0.9213446378707886,-0.2739318907260895,-0.2101002335548401,-3.3332085609436035,2.288369655609131,-0.0011926889419555664,-0.21506887674331665,0.17143866419792175
143,0.13416824351218246,1.2333828040877968,-0.531011950193569,0.044282905757427216,-0.9436140656471252,-0.3280722200870514,-0.6420089602470398,1.9947112798690796,1.0630519390106201,0.11823844909667969,0.08957970142364502,0.44609901309013367
144,0.23186870102084872,1.075246493997533,-0.4149694725405922,0.10927185416221619,-0.879707396030426,-0.4627900719642639,-0.46218931674957275,0.7342790365219116,-0.37235042452812195,0.1663781702518463,0.585029661655426,0.8046022057533264
145,0.38786470531138917,1.0731197593143547,-0.5888903521162534,0.18055309355258942,-0.8786941170692444,-0.44192442297935486,1.0350587368011475,-0.12528696656227112,-0.7546111941337585,-0.1814686357975006,0.47374117374420166,0.5980371236801147
146,0.7865976407956214,1.0963750319267167,-0.7752992984733248,0.32341042160987854,-0.8895572423934937,-0.3226355016231537,0.5256643891334534,-2.680615186691284,-0.2247944325208664,-0.20007359981536865,-0.43865931034088135,0.0794103741645813
147,0.5825356665487936,1.1376565416167204,-0.7952934798607684,0.23090769350528717,-0.9076523780822754,-0.35049816966056824,0.2956346273422241,-3.0347201824188232,0.22046102583408356,0.269397497177124,-0.2881484031677246,0.6050147414207458
148,0.42868536574652544,1.190631342438009,-0.8993770284731067,0.15424613654613495,-0.9286034107208252,-0.3374961316585541,0.17229010164737701,-0.4833419620990753,-0.898750901222229,0.38995856046676636,0.07662904262542725,0.16565164923667908
149,0.5296066959818077,1.0768797044514986,-1.1018408132871427,0.23950134217739105,-0.8804828524589539,-0.40913209319114685,-0.9849323630332947,0.1378139704465866,-1.2527554035186768,-0.27174317836761475,0.39734381437301636,0.30059635639190674
150,0.9211594335183495,1.034065846233472,-1.3333510242959812,0.4071730673313141,-0.859385073184967,-0.3093015253543854,1.6331082582473755,2.2962324619293213,-0.5983507633209229,-0.6504744291305542,0.01796966791152954,-0.028329670429229736
151,1.111037060081398,1.0440079673740985,-1.29787048997533,0.45055267214775085,-0.8644261956214905,-0.22309069335460663,0.4213789105415344,1.020551323890686,0.3421677350997925,0.14338040351867676,-0.514205276966095,-0.8012318015098572
152,0.7912867481946083,1.165134074636029,-1.1346860821116365,0.2806820273399353,-0.9188412427902222,-0.27739569544792175,0.22100023925304413,-2.836127996444702,2.572335720062256,-0.1450313925743103,-0.25782495737075806,0.09746408462524414
153,0.13723113044466895,1.208229799837932,-0.49428909981569347,0.04851987585425377,-0.9349896311759949,-0.3513409197330475,-0.9354500770568848,1.9224293231964111,0.9906042814254761,0.29350587725639343,0.12163501977920532,0.5585247278213501
154,0.4451432131875527,1.0810033703225501,-0.4503823040733392,0.20256684720516205,-0.8824302554130554,-0.42459815740585327,-1.166962742805481,2.7204699516296387,-0.890312910079956,0.01986052095890045,0.5191948413848877,0.31711524724960327
155,0.5286905926806439,1.0248401088262349,-0.4963168760194728,0.2619040012359619,-0.8546311855316162,-0.4483433663845062,1.773144006729126,0.18334682285785675,-0.03342270106077194,-0.2501852810382843,0.484025776386261,0.6873112916946411
156,1.0738740914379408,1.1169879267565823,-0.7700868870333056,0.3853699862957001,-0.8987840414047241,-0.20899111032485962,0.3765392005443573,-0.4600660800933838,-0.8419437408447266,0.4668028652667999,-0.6322218179702759,-1.1373682022094727
157,0.9137106707759746,1.1426616250617552,-0.8861462318611266,0.32872506976127625,-0.9097417593002319,-0.2535935342311859,1.3043529987335205,-5.625270843505859,0.6511375308036804,0.14800524711608887,-0.3824639916419983,0.7922593355178833
158,0.7872151594546314,1.2931222907762574,-1.114797353563062,0.1941836029291153,-0.9616956114768982,-0.19347921013832092,0.045564305037260056,-1.3187733888626099,0.11249695718288422,0.5039060115814209,-0.012120246887207031,0.47988665103912354
159,0.5367687306241955,1.1870295380991527,-1.0803757958564466,0.19146209955215454,-0.9272608757019043,-0.32176029682159424,-1.5159672498703003,-1.142401933670044,-1.5067239999771118,-0.06186917424201965,0.44673097133636475,0.43151673674583435
160,0.8069874677216197,1.0583892118811191,-1.3443222286994094,0.35408109426498413,-0.871566891670227,-0.33911317586898804,1.3663051128387451,0.08411551266908646,-1.370863437652588,-0.8890084624290466,0.25125133991241455,-0.008695662021636963
161,0.9195746578515583,1.0399222873448408,-1.349412414936492,0.4026724696159363,-0.8623648881912231,-0.3068903386592865,-0.6932862401008606,1.3568283319473267,0.1566367745399475,0.25844505429267883,-0.49519431591033936,-0.9407293200492859
162,0.7372003878722689,1.0972493740839058,-1.236858087900715,0.3065620958805084,-0.8899562954902649,-0.3376350402832031,-0.0036946097388863564,-2.3610193729400635,1.849818468093872,-0.13606038689613342,-0.30828583240509033,-0.06835556030273438
163,0.09050525860260898,1.1949098760295858,-0.7809111369502453,0.03317888081073761,-0.9301825761795044,-0.36559468507766724,0.3278656005859375,0.18307432532310486,1.726788878440857,0.1066221296787262,-0.19773179292678833,0.4231966435909271
164,0.20289031453587367,1.129421566748409,-0.5162882837693047,0.08607786148786545,-0.9041652679443359,-0.41842061281204224,-1.2796666622161865,3.144256830215454,-0.13585875928401947,0.16924744844436646,0.45042991638183594,0.3541658818721771
165,0.3955035657484241,1.0733465491745438,-0.6091174628322393,0.1838468760251999,-0.8788023591041565,-0.4403485655784607,0.4180751442909241,-0.12107023596763611,-0.6266351938247681,0.0006471425294876099,0.582858145236969,0.5733289122581482
166,0.8799029176013557,1.1011256285744782,-0.7829374072712272,0.3488028645515442,-0.8917173743247986,-0.28840386867523193,-0.6569302082061768,-1.3445603847503662,-0.33272287249565125,0.5032631754875183,-0.3860536217689514,-0.5158411264419556
167,0.7084621836150824,1.1528324090188502,-0.8471764552040293,0.26410606503486633,-0.9139173030853271,-0.308226078748703,1.5141664743423462,-2.8457863330841064,0.4579673707485199,0.19251319766044617,-0.32918572425842285,0.8097977042198181
168,0.7205250126289212,1.2542893637703019,-1.1012484977949477,0.205355703830719,-0.9503284096717834,-0.2338910698890686,-0.25133827328681946,-2.3260657787323,-0.5499788522720337,0.2930726408958435,-0.04774898290634155,0.3850904107093811
169,0.6264448924862752,1.1195888119374267,-1.2475127326257553,0.25564372539520264,-0.8999212384223938,-0.35325339436531067,-0.8129775524139404,-0.3818427622318268,-1.7392576932907104,-0.4375437796115875,0.4453619718551636,0.31008628010749817
170,0.8885347558293241,1.0964064442036618,-1.5150133436763489,0.35454148054122925,-0.8895716071128845,-0.288032591342926,0.8727112412452698,0.7390559911727905,0.03850334882736206,-0.6599156260490417,0.14887946844100952,-0.1520613729953766
171,0.8717070999708633,1.0591820061122863,-1.4091040793252634,0.3747428059577942,-0.8719552755355835,-0.31505849957466125,0.16609889268875122,-0.8597042560577393,0.46616581082344055,-0.1338675320148468,-0.5806052088737488,-0.5652821063995361
172,0.3698068300580469,1.141096825906686,-1.043874774655126,0.15057308971881866,-0.9090909957885742,-0.38843443989753723,-0.010832434520125389,-1.8877571821212769,2.7324728965759277,0.18486084043979645,-0.540493905544281,0.26514342427253723
173,-0.06102523168866764,1.1817300209457624,-0.5762673143571297,-0.023134004324674606,-0.9252636432647705,-0.3786184787750244,-0.08996812254190445,3.1667120456695557,0.91593998670578,0.01724410243332386,0.2719586491584778,0.3567220866680145
174,0.12948356547117412,1.0993926425109273,-0.5115403738932631,0.05863913893699646,-0.8909317255020142,-0.4503355920314789,-0.6497418284416199,1.604922890663147,-0.5794222354888916,0.38636818528175354,0.7031875848770142,0.7483397126197815
175,0.6210253352823987,1.1461362902914662,-0.7323048612066972,0.23973645269870758,-0.9111788272857666,-0.3350810706615448,2.1639866828918457,12.840638160705566,0.15100067853927612,-0.17908279597759247,-0.23107868432998657,-0.7467517852783203
176,0.7720020003476604,1.1215264613897007,-0.8232275391042204,0.3029607832431793,-0.9007644653320312,-0.3111885190010071,0.31702476739883423,-1.91255784034729,-0.38638994097709656,0.33468878269195557,-0.35779571533203125,-0.3155509829521179
177,0.9403057748386933,1.2721708573789798,-1.161499300473517,0.2376420646905899,-0.9557417631149292,-0.17344693839550018,2.7756450176239014,0.651339054107666,-0.06819258630275726,0.2972853183746338,-0.4497910141944885,0.3550112843513489
178,1.484104736047965,1.237215158678603,-1.6871313171684807,0.3261990547180176,-0.9448758363723755,-0.028349772095680237,0.203370600938797,-0.2490333765745163,-1.306702733039856,-0.12077000737190247,0.30556315183639526,0.13244521617889404
179,1.6676857902500297,1.109882907374821,-1.799989858458008,0.44268012046813965,-0.8956466317176819,0.04302575811743736,1.3855500221252441,1.4714481830596924,-1.1944411993026733,-0.5376966595649719,0.39114540815353394,-0.03495383635163307
180,1.900940805315273,1.0424426502348183,-2.054449367950432,0.47688812017440796,-0.863638162612915,0.16342301666736603,-2.075944662094116,-1.468851923942566,-1.0225558280944824,0.20679724216461182,-0.5476168394088745,-1.0569167137145996
181,1.7227812836075551,1.088615970913562,-1.8093856871643421,0.45836663246154785,-0.8859859704971313,0.07020623981952667,-0.528912365436554,0.36200302839279175,1.6416875123977661,0.10498782992362976,-0.9394229054450989,-0.1750187873840332
182,1.5859389825513601,1.350546633228563,-1.5406575044837265,0.21844829618930817,-0.9758429527282715,0.003308140207082033,-1.5625134706497192,1.0278642177581787,1.8316242694854736,-0.017795205116271973,-0.312197208404541,0.3997070789337158
183,1.0557563152698726,1.4041063388395698,-1.0137500053243083,0.14439557492733002,-0.9861393570899963,-0.08172709494829178,-1.9163308143615723,-0.5879269242286682,-0.6321055293083191,0.024458199739456177,0.6815738081932068,-0.4463033080101013
184,0.5413035497846884,1.313595034008184,-0.6772282255656769,0.13106772303581238,-0.9671056866645813,-0.2180091142654419,1.0013434886932373,-0.173633873462677,-0.5604722499847412,0.148686945438385,0.7299687266349792,0.467352956533432
185,0.954229693812658,1.183158547032428,-0.8370744784688083,0.30840060114860535,-0.9258045554161072,-0.2185753434896469,-0.32870596647262573,1.1100399494171143,-1.8055579662322998,0.05217990279197693,-0.4150615930557251,-1.9663153886795044
186,0.7738408019299149,1.187180357823785,-0.8945886657369587,0.2615768015384674,-0.9273173213005066,-0.26769405603408813,1.1593403816223145,-3.1808292865753174,0.4828067123889923,0.1333511769771576,-0.45813488960266113,1.0241484642028809
187,0.773263659682227,1.2642320123064237,-1.1612089789226947,0.21078930795192719,-0.953376054763794,-0.215968057513237,-0.05596810206770897,-1.5111503601074219,-0.7927474975585938,0.2519335150718689,0.054404377937316895,0.2342785894870758
188,0.6023606259672749,1.1330739461813522,-1.2098997460285874,0.24016442894935608,-0.9057194590568542,-0.34927526116371155,-0.5809783935546875,-1.226905345916748,-1.5676499605178833,-0.22785060107707977,0.5074193477630615,0.19044652581214905
189,0.6745700535603169,1.0547330646463984,-1.4176294358980197,0.308196097612381,-0.8697685599327087,-0.3853801190853119,0.638944685459137,-1.3521374464035034,0.4482780694961548,-0.8501730561256409,0.03947681188583374,0.06328240036964417
190,0.4963083174144164,1.0506570968580486,-1.321746809185961,0.23666317760944366,-0.8677499890327454,-0.43703606724739075,-0.5510854125022888,-0.8699134588241577,0.0027641707565635443,-0.12931761145591736,-0.40576380491256714,-0.6406158804893494
191,0.009422290647948412,1.0756350422862724,-1.0627979166030725,0.004477157723158598,-0.879892110824585,-0.47515252232551575,1.0332444906234741,-3.582988977432251,2.1976206302642822,0.2564481496810913,-0.41232895851135254,0.0016112923622131348
192,-0.5439933918045062,1.04823322783151,-0.6809418582797456,-0.25831419229507446,-0.8665427565574646,-0.4270566999912262,-0.17073415219783783,0.42271915078163147,1.6442501544952393,0.06117069721221924,-0.026187896728515625,0.5121701955795288
193,-0.3620857018605254,0.9276319951907309,-0.5800034438596889,-0.21243983507156372,-0.8002020120620728,-0.5608440637588501,-1.0646389722824097,3.4790844917297363,0.06310977786779404,0.6423867344856262,0.5612493753433228,0.3473888635635376
194,-0.12348489144351169,0.9256372487209832,-0.6879304552550333,-0.07406604290008545,-0.7990041375160217,-0.5967466831207275,0.945567786693573,0.8718858957290649,-1.474302887916565,-0.09057628363370895,0.7405934929847717,0.5255797505378723
195,0.7616441127268198,1.0458417894584902,-1.0680976496227967,0.3458661735057831,-0.8653467297554016,-0.3627006709575653,0.5951297879219055,0.24841763079166412,0.12550204992294312,0.5399218201637268,-0.8040868639945984,-1.9412238597869873
196,0.5921430597714108,1.098633994619237,-1.0360634184669122,0.253849595785141,-0.8905869126319885,-0.37737953662872314,0.19975216686725616,-1.0224751234054565,1.2547589540481567,0.3302110731601715,-0.4131850600242615,0.6275168657302856
197,0.840814809663231,1.387745614333572,-1.1303719819924887,0.13564598560333252,-0.9832929372787476,-0.12138745188713074,2.7279374599456787,1.2900112867355347,-0.5876260995864868,0.3170517683029175,-0.3121018409729004,0.22633738815784454
198,1.42169913859044,1.296606148712886,-1.6997564383467465,0.26776376366615295,-0.9626448154449463,-0.040221307426691055,-0.47479361295700073,1.4130059480667114,-1.8249435424804688,-0.37997692823410034,0.5204145312309265,0.27563393115997314
199,1.4270442386551605,1.1515788641491362,-1.6217212340110656,0.4028473496437073,-0.9134077429771423,-0.058312371373176575,0.017904207110404968,-0.9039505124092102,-0.36253222823143005,-0.4057770371437073,0.30075210332870483,-0.29746150970458984
200,1.1777979472708993,1.106466800444503,-1.461149937051509,0.41368332505226135,-0.8941220045089722,-0.17149831354618073,-0.02099905163049698,0.08075516670942307,-0.1473577618598938,0.43180611729621887,-0.424496591091156,-0.5724287033081055
201,0.9234413008763176,1.2022766141062882,-1.2801705863260628,0.28735262155532837,-0.9328616261482239,-0.21724985539913177,-0.09934090077877045,-1.1766436100006104,2.6454083919525146,0.04377833008766174,-0.3506312966346741,0.13854506611824036
202,0.39721643838903986,1.339213132267555,-0.5886925448245901,0.08878997713327408,-0.973304271697998,-0.21164864301681519,0.15423035621643066,2.4176268577575684,1.0392625331878662,-0.02494719624519348,0.16811323165893555,0.3712250590324402
203,0.516704765259864,1.3605151259990615,-0.5335798777844618,0.10311874002218246,-0.9779722690582275,-0.1814849078655243,-0.40118294954299927,-0.24757276475429535,-0.09062611311674118,0.15248122811317444,0.6600706577301025,0.2389647513628006
204,0.4624472410067266,1.3455886990863655,-0.6059022970468454,0.09962707757949829,-0.9747477769851685,-0.1998535394668579,1.6734893321990967,-1.1974304914474487,-0.5835043787956238,0.1212591677904129,0.4661874771118164,0.285836786031723
205,0.9779005394594973,1.2148850198890868,-0.8598638567778238,0.28897446393966675,-0.9373293519020081,-0.19469879567623138,0.6809568405151367,-3.848731517791748,0.7882492542266846,-0.03694504499435425,-0.34361547231674194,0.6948971748352051
206,0.7595476125353849,1.2625190704537517,-0.828701114719885,0.2089310586452484,-0.9528576731681824,-0.22002220153808594,0.7611300349235535,-1.8463324308395386,0.5491994619369507,0.1023634523153305,-0.4064866304397583,0.5402279496192932
207,1.2006260444649506,1.3014331351809405,-1.2197267685547972,0.24809205532073975,-0.9639405608177185,-0.09627437591552734,-0.0062539055943489075,0.9407129287719727,-0.7126380801200867,0.07096919417381287,0.27416712045669556,-0.03875063359737396
208,1.2848339655703753,1.2238194725672809,-1.2660783497090247,0.32624709606170654,-0.9404050707817078,-0.09592344611883163,0.4755255877971649,0.7084229588508606,-1.0675163269042969,-0.26122939586639404,0.5989133715629578,0.12876033782958984
209,1.6775605029632399,1.1657365178522225,-1.6387761745420077,0.39183032512664795,-0.9190788269042969,0.04199311509728432,1.1739617586135864,-1.8188245296478271,0.31990402936935425,-0.3294675946235657,-0.07486355304718018,-0.5478830337524414
210,1.2482236635882584,1.1151402002187074,-1.4268703218027292,0.4173549711704254,-0.8979724645614624,-0.13949966430664062,0.1888289749622345,0.131914421916008,-0.08891044557094574,-0.1993679404258728,-0.43102216720581055,-0.6957817077636719
211,0.7981010098922472,1.2577400697750254,-1.0329125008063713,0.2205149084329605,-0.9513967633247375,-0.2149825543165207,-0.6810101866722107,0.23694413900375366,3.239762544631958,0.16240441799163818,-0.4025766849517822,0.312196284532547
212,0.3205050308849389,1.2828580798007914,-0.35436296312728993,0.08946537971496582,-0.9588314294815063,-0.26951462030410767,-0.6303392648696899,3.4068636894226074,-0.14826609194278717,0.028622381389141083,0.5113522410392761,0.8576952219009399
213,0.5177771178454184,1.2555331202757352,-0.3996471038419097,0.1534675508737564,-0.9507148265838623,-0.26942378282546997,-1.9767571687698364,0.47486385703086853,-0.9403824210166931,0.08252488076686859,0.6371009349822998,0.35031062364578247
214,0.6495638549941811,1.2638848319729903,-0.5625868382575456,0.18273141980171204,-0.953271210193634,-0.24058915674686432,1.9200400114059448,2.7011678218841553,-0.2059200406074524,-0.00351695716381073,0.3012021780014038,0.2959022521972656
215,1.0156768054078615,1.1909055468045715,-0.7461905286708144,0.31513601541519165,-0.9287051558494568,-0.19543834030628204,-0.7899991273880005,-0.9422013163566589,-0.07393550872802734,-0.23499685525894165,-0.4936123490333557,0.2926673889160156
216,0.846793763749684,1.2815843887619704,-0.850837317163542,0.21365807950496674,-0.9584689140319824,-0.18891100585460663,1.438309907913208,-3.7881338596343994,0.20425738394260406,0.31138157844543457,-0.293758749961853,0.3810039460659027
217,0.7883855559982054,1.2323038258476482,-1.0309521976957938,0.23550647497177124,-0.9432563185691833,-0.23410356044769287,-0.24090027809143066,0.12245345860719681,-0.9742074012756348,-0.0034355223178863525,0.3281591534614563,0.19057020545005798
218,0.8401781057129631,1.120386162283717,-1.055938394666236,0.3242207467556,-0.9002686142921448,-0.29051199555397034,-0.41781938076019287,1.4374351501464844,-0.6831330060958862,-0.22609150409698486,0.41433727741241455,0.2341308295726776
219,1.1465406115122692,1.1563948462561728,-1.180505283809205,0.36694586277008057,-0.9153574705123901,-0.1657445728778839,1.6721277236938477,0.6809051632881165,0.07478281855583191,-0.30427804589271545,-0.03828626871109009,-0.4350396990776062
220,1.36645131409044,1.051706287036853,-1.2554955609504297,0.4857686460018158,-0.8682709336280823,-0.10066953301429749,0.496308296918869,-1.500713586807251,0.9025267958641052,0.11182653903961182,-0.32632434368133545,-0.8493731617927551
221,0.6788959427943096,1.1958310297091916,-0.7905722978450227,0.22997494041919708,-0.9305203557014465,-0.285032719373703,-0.6078917384147644,-1.3899507522583008,2.5252346992492676,0.3037317395210266,-0.5207583904266357,0.2898697853088379
222,0.4966710709917372,1.0854418814983693,-0.4065236524798574,0.22229842841625214,-0.8845096230506897,-0.410153865814209,-3.5289971828460693,1.6589487791061401,-0.6739002466201782,-0.02794720232486725,0.3573794364929199,0.3011602759361267
223,0.47990491898683285,0.9826589349940058,-0.3688569000289804,0.25615400075912476,-0.831975519657135,-0.4921400845050812,0.3089648187160492,-0.7178219556808472,-0.2553181052207947,0.055232107639312744,0.53665691614151,0.6669600009918213
224,0.7883804036887931,1.1154904252962015,-0.5969095380527595,0.3118671178817749,-0.8981265425682068,-0.3100125193595886,1.1521713733673096,8.668869018554688,-0.6761868596076965,0.2494274377822876,-0.4908962845802307,-0.8032992482185364
225,0.8462615600327122,1.0453130813029659,-0.6504899904171891,0.3756253123283386,-0.8650816082954407,-0.33247464895248413,-0.2524471580982208,-1.6614798307418823,-0.2426425814628601,0.2361147701740265,-0.506332516670227,0.07464689016342163
226,0.41987868011384183,1.0601195550918006,-0.5938078570161083,0.19924606382846832,-0.8724139332771301,-0.44631272554397583,0.7623745203018188,-2.796610116958618,0.04047883674502373,0.3197358548641205,-0.22522705793380737,0.5363243222236633
227,0.4975073324569416,1.0763625151413863,-0.7915489112038829,0.2264646291732788,-0.8802375197410583,-0.4170079529285431,0.36460602283477783,0.5061248540878296,-1.2488369941711426,-0.0496305376291275,0.2783851623535156,0.20994624495506287
228,0.7124558754894329,1.0159082838396327,-0.9890254896973879,0.34439754486083984,-0.8499594330787659,-0.3986968696117401,0.20460982620716095,0.6578289866447449,-0.17128875851631165,-0.6719884872436523,0.32966530323028564,0.10699465870857239
229,0.8682625678053225,1.0823508446663885,-1.0859172054509563,0.3581380546092987,-0.8830633759498596,-0.3032100796699524,-0.2607923746109009,1.415039300918579,-0.4674055874347687,0.4881754517555237,-0.08162790536880493,-0.8928654193878174
230,0.7393997952286885,1.0903046083038384,-0.9701200409792725,0.31146112084388733,-0.8867677450180054,-0.3415183126926422,-0.4494520425796509,-2.564282178878784,1.678639531135559,0.11068850755691528,-0.5479397773742676,-0.4487954080104828
231,0.3458735509984906,1.1538651955854575,-0.6998998460933775,0.13728776574134827,-0.9143360257148743,-0.38097473978996277,-0.3463907837867737,1.2484912872314453,0.972154438495636,0.12981733679771423,-0.24333304166793823,0.3711327910423279
232,0.42346851084092707,1.031358968536326,-0.5413879107261355,0.21107305586338043,-0.8579978346824646,-0.46828195452690125,-2.1407864093780518,1.8401662111282349,-0.35529711842536926,-0.03806890547275543,0.3056296706199646,0.31300854682922363
233,0.4372278640307783,0.9641174917107467,-0.5208500802007261,0.24141515791416168,-0.8215460777282715,-0.5165082812309265,0.1961343139410019,-0.7762220501899719,-0.29710903763771057,-0.0686856210231781,0.4926580786705017,0.731550395488739
234,0.8370251908361875,1.1125534748916124,-0.7281496502041521,0.32853004336357117,-0.896831214427948,-0.2962460219860077,0.2064981311559677,7.352127552032471,-0.2597806453704834,0.5824501514434814,-0.4398539066314697,-1.5825839042663574
235,0.8016666245121677,1.0725660800729018,-0.7434653665602935,0.34335845708847046,-0.878429651260376,-0.3323645293712616,-0.04379565641283989,-2.9508867263793945,-0.02063516527414322,0.16030362248420715,-0.252292275428772,0.3019079864025116
236,0.6192777897148893,1.1164602598847337,-0.8153524364299147,0.2547384798526764,-0.8985525965690613,-0.35736754536628723,1.148224115371704,-2.3429272174835205,-0.6428705453872681,0.4786599576473236,-0.16142970323562622,0.3307257294654846
237,0.7666291747258656,1.1131501742447156,-1.1272403902379664,0.30650776624679565,-0.8970950245857239,-0.318234920501709,0.14688536524772644,0.3388220965862274,-1.3771175146102905,-0.19975730776786804,0.37913548946380615,0.16943123936653137
238,1.071708942736079,1.057499513477832,-1.4021321598893657,0.4311533272266388,-0.8711303472518921,-0.23502948880195618,1.567712664604187,1.0972579717636108,-0.5108481049537659,-0.7727212905883789,0.11746823787689209,-0.14973610639572144
239,1.2085520992561753,1.0669595868848436,-1.4972028749389295,0.45145776867866516,-0.875736653804779,-0.17108769714832306,-0.5512237548828125,-0.32260581851005554,-0.282488614320755,0.516880214214325,-0.3189806342124939,-0.7392974495887756
240,0.7556020470720869,1.1171312206787516,-1.1748165684079142,0.3005286455154419,-0.8988468647003174,-0.3189934492111206,-0.8332632780075073,-2.252354860305786,2.39630126953125,-0.0895911455154419,-0.5526606440544128,0.290459543466568
241,0.22228995783108674,1.1505673557592653,-0.7424804934651378,0.08994249999523163,-0.9129955768585205,-0.39793139696121216,0.032769229263067245,1.3935739994049072,1.0354249477386475,0.04120679944753647,0.2237865924835205,0.32069143652915955
242,0.21915422968790108,1.0918766206181185,-0.5379890540768191,0.10018433630466461,-0.8874932527542114,-0.4497986435890198,-0.8511647582054138,0.7490465641021729,0.5527700185775757,0.05107603222131729,0.4405176043510437,0.4481964409351349
243,0.2336184651658951,1.104207115860214,-0.5760080748149339,0.10413826256990433,-0.8931077718734741,-0.43762290477752686,2.0414035320281982,1.6915614604949951,-0.2804268002510071,-0.18032538890838623,0.5347093939781189,0.23942649364471436
244,0.6703979450331625,1.1377894369350179,-0.7623107469472094,0.26069775223731995,-0.9077081680297852,-0.3287893235683441,0.11039362102746964,-1.962382435798645,0.510414183139801,-0.13333266973495483,-0.9187687635421753,0.594612717628479
245,0.2339345758711896,1.1573988178205685,-0.6428682350372447,0.09312205761671066,-0.9157612323760986,-0.3907806873321533,0.3793397545814514,-2.6229898929595947,0.15665486454963684,0.40649646520614624,-0.3993936777114868,0.4296448230743408
246,0.30130494151024373,1.1639560838402128,-0.8587563743206929,0.11743337661027908,-0.9183757305145264,-0.37788283824920654,0.1916690170764923,-0.30521997809410095,-1.6243802309036255,0.03188912570476532,0.28191637992858887,0.20761001110076904
247,0.6379104815654664,1.1150884115349737,-1.1892683842883915,0.26208633184432983,-0.8979496955871582,-0.35354912281036377,0.6067012548446655,1.513711929321289,-1.1860495805740356,-0.5990157127380371,0.47651731967926025,0.27038875222206116
248,1.0187749905430632,1.1835424124057075,-1.518471528394077,0.3215537369251251,-0.9259495735168457,-0.1980416625738144,0.4580654501914978,1.0664987564086914,-0.06673508882522583,0.08535236120223999,-0.13740485906600952,-0.6203176975250244
249,0.9897919153704468,1.1349434809244678,-1.4366389083585176,0.35290825366973877,-0.9065102934837341,-0.23172131180763245,-0.8899680376052856,-1.3587144613265991,0.6947935819625854,0.13840949535369873,-0.8414602279663086,-0.6717516183853149
250,0.4534453816868301,1.2119193155974257,-0.9639881991636023,0.1538587361574173,-0.9362918138504028,-0.3157297372817993,-0.6802740097045898,-0.5102270245552063,2.3700144290924072,0.2154497355222702,-0.5229519605636597,0.3219248056411743
251,0.34426409790709056,1.2004498139328572,-0.7030507331268917,0.12215561419725418,-0.9322019815444946,-0.340701162815094,-1.4750778675079346,2.9604287147521973,-0.031123558059334755,0.03644423186779022,0.5276457667350769,0.18347463011741638
252,0.21786815698207224,1.13096414333906,-0.6157920184658746,0.09203342348337173,-0.9048231244087219,-0.41572219133377075,0.36979609727859497,-1.1453139781951904,-0.2881578803062439,0.2719802260398865,0.7181165814399719,0.6679347157478333
253,0.64101858367201,1.1805762524012382,-0.8421741526107286,0.2274789810180664,-0.9248253703117371,-0.30487918853759766,-1.6218005418777466,8.003945350646973,-0.5670149922370911,-0.009369850158691406,-0.46488404273986816,-2.01364803314209
254,0.6528329435695192,1.1222190812411401,-0.8455178757572551,0.2634367346763611,-0.9010650515556335,-0.3445039391517639,0.16573026776313782,-4.504491329193115,0.25526323914527893,0.22817093133926392,-0.45869141817092896,0.6310792565345764
255,0.38627366682052405,1.1886561119513093,-0.968988032949282,0.1404886692762375,-0.927868664264679,-0.3454308807849884,0.2752227783203125,-1.0843749046325684,-0.6181666254997253,0.3673085570335388,-0.032610952854156494,0.2003655731678009
256,0.4771745201226898,1.1459136600774789,-1.185230745662431,0.1893179714679718,-0.9110870957374573,-0.3661680519580841,-0.18211953341960907,-0.867318332195282,-1.3752893209457397,-0.066026970744133,0.44393932819366455,0.217867910861969
257,0.6789901661809757,1.0641928408388976,-1.4281898809887792,0.3047155439853668,-0.8743975758552551,-0.377593994140625,0.9202865362167358,0.21713396906852722,-0.8124551177024841,-0.753324031829834,0.1651080846786499,0.1541900932788849
258,0.8462554612877781,1.0658279020122847,-1.53485273017969,0.3622560501098633,-0.8751897215843201,-0.32064515352249146,-0.7953341603279114,0.8700202703475952,-0.45805686712265015,0.15788552165031433,-0.2820977568626404,-0.9055817127227783
259,0.5499600402804894,1.108847330898449,-1.2729099419186662,0.23294316232204437,-0.8951855301856995,-0.37997403740882874,0.3609110414981842,-1.2291589975357056,2.4787240028381348,0.08323417603969574,-0.7349108457565308,0.200210303068161
260,0.18442176194923637,1.1939468967628588,-0.8444379970234025,0.06748181581497192,-0.9298286437988281,-0.361752450466156,-0.6677088141441345,2.2376935482025146,1.169283151626587,0.00948350876569748,0.1176491379737854,0.3435029685497284
261,0.2355909817282653,1.1130627963368724,-0.6361658942798512,0.10315103828907013,-0.8970564007759094,-0.42970889806747437,-0.6853405833244324,0.8662818670272827,0.25518518686294556,0.20495441555976868,0.6404951214790344,0.45563358068466187
262,0.31022520685749483,1.1371629725813055,-0.742635222791454,0.1282668262720108,-0.9074451327323914,-0.4001138508319855,1.8757277727127075,3.488412857055664,-1.6233536005020142,-0.296296626329422,0.7053729891777039,0.4345376491546631
263,0.7210866685185621,1.088323823733621,-0.903951914030789,0.30631402134895325,-0.8858504891395569,-0.3484831750392914,0.43310266733169556,-2.096071481704712,-0.05022060126066208,-0.07914119958877563,-0.29406583309173584,0.7593261003494263
264,0.5330523788538022,1.15404038706261,-0.9327530511133962,0.205703005194664,-0.914406955242157,-0.34863460063934326,1.6312612295150757,-3.072495222091675,0.20532512664794922,0.3197333812713623,-0.23813509941101074,0.49048033356666565
265,0.556379421536723,1.162626602735272,-1.1505500951097438,0.2096247375011444,-0.9178488254547119,-0.33706212043762207,-0.11972029507160187,-0.7499127388000488,-1.1676697731018066,-0.1053462028503418,0.14848554134368896,0.09597328305244446
266,0.6157377727188139,1.0677295899014314,-1.2662468216502698,0.27845069766044617,-0.8761081695556641,-0.39357322454452515,-0.4400830864906311,0.1624821126461029,-0.48390281200408936,-0.5847861170768738,0.322534441947937,0.34598100185394287
267,0.7859413421314762,1.1133579283065511,-1.3204822284334068,0.31246429681777954,-0.8971867561340332,-0.312125027179718,0.43975329399108887,1.4904897212982178,0.4397640824317932,-0.28040558099746704,-0.07731574773788452,-0.15317648649215698
268,0.8816252010005959,1.0524712270562038,-1.3244113249881788,0.38235652446746826,-0.8686501979827881,-0.3150402009487152,-0.07111629843711853,0.7611883282661438,-0.09617242962121964,-0.40333735942840576,-0.4864981174468994,-0.6846240758895874
269,0.6427710398154071,1.1844569762352064,-1.1424256128629315,0.22585999965667725,-0.9262946248054504,-0.3016051650047302,0.8905443549156189,-1.1931523084640503,2.0001392364501953,0.054291367530822754,-0.41682976484298706,0.13290399312973022
270,0.4853490011492635,1.2094804888317252,-0.7935920980256685,0.16491639614105225,-0.935432493686676,-0.3126800060272217,-2.544074058532715,2.562372922897339,0.5500321388244629,0.04496826231479645,0.10941308736801147,-0.04101875424385071
271,0.46841582383981484,1.1133631928570076,-0.6364861625947563,0.19939176738262177,-0.8971890807151794,-0.3940746784210205,-0.43392595648765564,-0.21182221174240112,-0.3165923058986664,0.14330540597438812,0.7051724195480347,0.5174419283866882
272,0.5699332494353312,1.1081390963682192,-0.761631917908743,0.24082762002944946,-0.8948696851730347,-0.37577974796295166,0.10756553709506989,6.9608869552612305,-1.305536150932312,-0.40936094522476196,0.32297027111053467,0.19757235050201416
273,0.823921884344248,1.0500401353135798,-0.8684718440073622,0.36509987711906433,-0.8674432039260864,-0.33800041675567627,0.4115409553050995,-0.14006534218788147,0.4204826056957245,-0.37575051188468933,-0.9971349835395813,0.39351192116737366
274,0.4232858828311623,1.2254383866069951,-0.916489748296592,0.13905541598796844,-0.940954327583313,-0.30865567922592163,1.3726954460144043,-4.763821125030518,-0.31161946058273315,0.6496713757514954,-0.23089003562927246,0.38446131348609924
275,0.4663857421512827,1.173280894802427,-1.1332883952492214,0.17407673597335815,-0.9220256805419922,-0.34578320384025574,-0.6458160281181335,0.156251922249794,-0.9896208643913269,-0.13806599378585815,0.3182659149169922,0.12059396505355835
276,0.7422492666934025,1.0515016107483859,-1.2948634581301426,0.3354509770870209,-0.8681694269180298,-0.36572471261024475,-0.5741121172904968,1.25815749168396,-1.3865615129470825,-0.4982011914253235,0.4009605646133423,0.30569660663604736
277,0.9473591642804249,1.0587229071464817,-1.3893147660293095,0.3978080451488495,-0.8717304468154907,-0.28606805205345154,-1.6144940853118896,2.254122734069824,0.302476704120636,0.06009295582771301,-0.3359874486923218,-0.8026770353317261
278,0.8154894187376936,1.041936469189811,-1.198299109030747,0.36734262108802795,-0.863382875919342,-0.345874547958374,0.8387943506240845,-1.5657682418823242,1.8283504247665405,-0.24019116163253784,-0.7284138798713684,-0.1516687572002411
279,0.5806801871763534,1.2571332425963555,-1.1063093141596883,0.16926559805870056,-0.9512097239494324,-0.2579713761806488,1.904014229774475,1.0404114723205566,1.0638270378112793,0.008926525712013245,-0.025261223316192627,0.5572877526283264
280,0.47043756509179846,1.2175859762336805,-0.6823536538708885,0.15679368376731873,-0.9382670521736145,-0.3083355128765106,-1.339117169380188,2.0226614475250244,0.3520566523075104,0.18616285920143127,0.5144084095954895,0.5182506442070007
281,0.496428630321845,1.147060452435222,-0.6325068955233123,0.19583478569984436,-0.9115592241287231,-0.36153608560562134,-0.002483437769114971,-0.5741941332817078,-0.2110033631324768,-0.00021713972091674805,0.6797325611114502,0.6714116334915161
282,0.8334412260118663,1.0347916943983064,-0.7188376902381498,0.37804895639419556,-0.8597559928894043,-0.3433634042739868,0.42724868655204773,-1.4158257246017456,-0.6693918704986572,0.24174773693084717,-0.44671666622161865,-0.7716878652572632
283,0.7462387640222031,1.106015543024109,-0.7514403362163158,0.30429303646087646,-0.893919825553894,-0.3291093707084656,1.0872068405151367,-1.723751187324524,1.095280408859253,0.30320510268211365,-0.21960550546646118,0.8500750064849854
284,0.7456632715170118,1.2251581897853714,-1.0497760874232147,0.2298600971698761,-0.9408594369888306,-0.24889332056045532,0.782831072807312,-2.243452310562134,-1.6144516468048096,0.5757277011871338,-0.16076409816741943,-0.12468761205673218
285,0.886772943688896,1.1074351035928605,-1.346364125616502,0.3464084565639496,-0.8945552110671997,-0.28243979811668396,-0.7613096833229065,-0.6557541489601135,-0.9836181998252869,-0.2769046425819397,0.3654567003250122,0.011886239051818848
286,0.8749631708073445,1.017991723326048,-1.3223995528100188,0.403006374835968,-0.8510552644729614,-0.33658701181411743,0.19830305874347687,0.7903994917869568,-0.26957806944847107,-0.3914249539375305,0.3180199861526489,0.35350900888442993
287,1.0265060561318673,0.9889951257154671,-1.2986177917090753,0.47011980414390564,-0.8354741930961609,-0.2845524847507477,-0.8764603734016418,1.017029881477356,-0.2679651081562042,0.291965126991272,-0.6060998439788818,-1.3443385362625122
288,0.9199869226428579,1.0638201133249534,-1.2154002873642715,0.3862892687320709,-0.8742166757583618,-0.29415246844291687,0.5214347839355469,-2.2072699069976807,1.6214735507965088,0.0989401638507843,-0.3628895878791809,-0.09914276003837585
289,0.5629649900098174,1.2259078144342712,-1.0427973243204542,0.1804381161928177,-0.9411131739616394,-0.2859160900115967,0.34908151626586914,0.2501322329044342,1.717759609222412,0.04510204493999481,-0.1131470799446106,0.35377198457717896
290,0.5260546434957969,1.1487876353416582,-0.6514129275555756,0.2056674212217331,-0.9122680425643921,-0.354214608669281,-1.272312045097351,1.3693186044692993,0.09552483260631561,0.1509152352809906,0.5243743658065796,0.44904792308807373
291,0.48577532918989447,1.0888114393953043,-0.6112940618005627,0.21642355620861053,-0.8860765695571899,-0.40991348028182983,0.3953128457069397,-1.0769435167312622,-0.2736385464668274,-0.020821139216423035,0.6422106623649597,0.7167372703552246
292,0.9149596224071176,1.058473723954072,-0.7522164647710851,0.3885044753551483,-0.871608316898346,-0.2989368438720703,-0.680477499961853,-1.0299193859100342,-0.6079658269882202,0.4537654221057892,-0.591984212398529,-1.8606853485107422
293,0.6621673521937846,1.1216915047322227,-0.7185432054897924,0.2669330835342407,-0.9008361101150513,-0.34240469336509705,0.842277467250824,-3.918731927871704,1.3799628019332886,0.3322184979915619,-0.33321839570999146,0.6748632192611694
294,0.666253841488724,1.2161832386923996,-0.9515787501624267,0.21460236608982086,-0.9377809166908264,-0.2729703485965729,0.6259331703186035,-0.08524489402770996,-1.268522024154663,0.30534085631370544,-0.003030240535736084,0.19551673531532288
295,0.8064305480290068,1.1138966516637534,-1.1268404959082698,0.3184443712234497,-0.897424578666687,-0.30532312393188477,-0.613592267036438,0.8869267702102661,-1.6253926753997803,-0.2344752848148346,0.4903964400291443,0.12839749455451965
296,1.17234641776758,1.0444985438226395,-1.3346332776954546,0.46298447251319885,-0.8646727204322815,-0.19490128755569458,0.6522054076194763,1.2936537265777588,0.14779847860336304,-0.48228684067726135,0.061678946018218994,-0.16194069385528564
297,1.4359590817923047,1.0383368471949521,-1.4681724601429298,0.5030460357666016,-0.861561119556427,-0.06824342161417007,-0.3514733612537384,1.024527907371521,-0.5378774404525757,0.28249168395996094,-0.2750813364982605,-0.6870360970497131
298,1.2787610525946935,1.0889840049662192,-1.301831630317386,0.44376614689826965,-0.8861565589904785,-0.13340970873832703,-1.6522746086120605,-0.8368860483169556,2.1744892597198486,0.05019134283065796,-0.317227840423584,0.034273386001586914
299,0.8174966528374541,1.1953708944053265,-0.809655504175717,0.26746079325675964,-0.930351734161377,-0.25081905722618103,-0.5938856601715088,-1.0682551860809326,1.3533140420913696,0.14380931854248047,-0.2590402364730835,0.31798824667930603
300,0.7341877996684857,1.1031741105000863,-0.6165383660542139,0.30200549960136414,-0.892642617225647,-0.33463671803474426,-1.174286961555481,0.9481263160705566,-0.02412378042936325,-0.21171927452087402,0.42647141218185425,0.48037347197532654
301,0.7440543221796766,1.0889065316580224,-0.6033219255589931,0.313886821269989,-0.8861206769943237,-0.3409768342971802,1.0002387762069702,-0.8105332851409912,-0.16446685791015625,0.0507371723651886,0.4729127287864685,0.28436675667762756
302,0.8454351187942517,1.1052249595268349,-0.7210714863507399,0.335919052362442,-0.8935651779174805,-0.2978251874446869,-0.39788827300071716,0.5626186728477478,-0.7750551104545593,-0.03963911533355713,-0.3967943787574768,-0.9244495630264282
303,0.8340376702127582,1.098319912669352,-0.7494701154314573,0.3370645046234131,-0.8904440402984619,-0.3057725429534912,0.5103175044059753,-0.07811994850635529,0.005082865245640278,-0.13128450512886047,-0.4872872233390808,-0.4755384624004364
304,0.6889468877616515,1.2906705341349483,-0.7948902918656571,0.17576277256011963,-0.9610206484794617,-0.2134164273738861,1.6995811462402344,-2.0857479572296143,0.2036503702402115,0.5892671346664429,-0.09743565320968628,0.3259194493293762
305,0.9354140383816413,1.3003222129729748,-1.250322264118859,0.21504536271095276,-0.9636443257331848,-0.1585724800825119,0.23629041016101837,-2.028472900390625,-1.0422331094741821,0.009136795997619629,0.17951035499572754,0.026904389262199402
306,0.9194371508982632,1.2099397296027457,-1.3494719310327508,0.2807874381542206,-0.9355947375297546,-0.21405865252017975,-0.7911598086357117,1.4295915365219116,-0.827053427696228,-0.5259351134300232,0.3701038956642151,0.38213416934013367
307,1.1334490200128795,1.0927074403914108,-1.3977383320408223,0.41677942872047424,-0.8878757953643799,-0.1948627084493637,-0.07598590850830078,1.7815513610839844,-0.8195315003395081,0.18344026803970337,-0.45558422803878784,-0.5714947581291199
308,1.1758204929992475,1.0862229354488733,-1.4603002563734029,0.4299646317958832,-0.8848737478256226,-0.17924514412879944,0.4977259933948517,-2.331223249435425,1.01163911819458,0.031537413597106934,-0.7143388986587524,-0.7315672039985657
309,0.6567596481883731,1.3239915772791482,-1.3053774093365078,0.14916256070137024,-0.9696980118751526,-0.19348499178886414,0.878212034702301,-1.4826055765151978,2.036414384841919,0.07114383578300476,-0.09771531820297241,0.24835556745529175
310,0.212058885978902,1.3597940043297632,-0.6976599225019985,0.04408152773976326,-0.9778214693069458,-0.20474864542484283,-1.4713460206985474,3.4733011722564697,0.30786383152008057,0.32010000944137573,0.3456803560256958,0.23528152704238892
311,0.3873336596600429,1.2427375512996053,-0.6631496977070721,0.12170393764972687,-0.9466695785522461,-0.29833677411079407,-0.5203797221183777,-0.151007279753685,-0.2308664321899414,0.07563798129558563,0.6316366195678711,0.4785125255584717
312,0.5663841427201871,1.1958417143228324,-0.8072509598849328,0.19651351869106293,-0.9305242300033569,-0.309042364358902,-0.7046853303909302,2.218370199203491,-0.801739513874054,-0.47994548082351685,-0.14461010694503784,-0.5940185785293579
313,0.6458918885046454,1.2013803134666678,-0.8947614319666255,0.21733254194259644,-0.9325383901596069,-0.28833797574043274,1.3395746946334839,-2.278992176055908,0.18406936526298523,0.26797324419021606,0.08472949266433716,0.7808306813240051
314,0.6767775295643415,1.3043188897217664,-1.0038225675623902,0.16492238640785217,-0.9647045135498047,-0.20529447495937347,1.3338236808776855,-0.7729734778404236,0.7512733340263367,0.37801581621170044,-0.2728137969970703,0.33626067638397217
315,0.993278698270744,1.2926000393920216,-1.4290761096176623,0.2300836741924286,-0.9615523219108582,-0.14992856979370117,0.13466405868530273,-1.889294147491455,-1.5380438566207886,0.14644218981266022,0.12649989128112793,0.10757018625736237
316,1.046514315443824,1.136025303712887,-1.540097264642393,0.3646284341812134,-0.906966507434845,-0.21085062623023987,-0.9868718981742859,0.9791152477264404,-1.1619303226470947,-0.3967634439468384,0.40606623888015747,0.21951764822006226
317,1.3794636405161873,1.0262040634260476,-1.6988153415208203,0.5086156129837036,-0.8553385734558105,-0.0985199511051178,1.5734844207763672,2.9653947353363037,-1.1378463506698608,-0.6900578737258911,-0.20127153396606445,-0.4230407476425171
318,1.375503998489943,1.0872781702860885,-1.5727539647214932,0.45605963468551636,-0.885364830493927,-0.09021477401256561,-0.9979490637779236,-0.34185701608657837,1.5851359367370605,0.37601739168167114,-0.636424720287323,-0.4918927550315857
319,0.9021825015184242,1.3134608032026036,-1.1943501924973747,0.1997053623199463,-0.967071533203125,-0.15776731073856354,-0.3965315520763397,-1.2179858684539795,2.6143181324005127,0.3912522792816162,-0.4056702256202698,0.23462581634521484
320,0.4290347027720605,1.2871365067612852,-0.7378421085774125,0.11642450839281082,-0.9600375890731812,-0.25450584292411804,-1.8290530443191528,0.8287827968597412,-0.229573056101799,-0.023162782192230225,0.20092809200286865,-0.06814128160476685
321,0.4436107737990675,1.216118430880204,-0.7383949855156082,0.14905734360218048,-0.9377583861351013,-0.3136734366416931,-0.03990418463945389,-0.41941094398498535,-0.5387610197067261,0.011419340968132019,0.7364950180053711,0.4832291305065155
322,0.7777383332849104,1.1455020821356003,-0.8796319727863654,0.28950104117393494,-0.910917341709137,-0.29397040605545044,-0.39882561564445496,3.777630090713501,-0.9773823022842407,-0.4441031217575073,-0.8672045469284058,-2.2022454738616943
323,0.6968243724177934,1.1845715034676987,-0.914285103948985,0.241756871342659,-0.926337718963623,-0.28888073563575745,1.252968192100525,-2.1803910732269287,0.0844840332865715,0.6129947304725647,-0.27028703689575195,0.6170210242271423
324,0.9717057659359913,1.2222495146352632,-1.4115000186085203,0.2820540964603424,-0.9398699998855591,-0.1925872564315796,0.5856865048408508,-2.08298921585083,-1.5537885427474976,0.4250686764717102,-0.43244439363479614,0.007604971528053284
325,1.08856388023723,1.092525233511604,-1.6958305807656509,0.40775924921035767,-0.8877919912338257,-0.21344226598739624,-0.13995423913002014,-0.9415952563285828,-1.3910280466079712,-0.41091784834861755,0.19238799810409546,0.013048604130744934
326,1.1336150837456944,1.0207112997016947,-1.7570140190153392,0.4735935628414154,-0.8524800539016724,-0.2213299721479416,0.6285390853881836,1.0763461589813232,-0.3467998504638672,-0.8797215223312378,0.37890827655792236,0.3519604802131653
327,1.219905172814858,0.9763913927520619,-1.614060200008099,0.5258922576904297,-0.828481912612915,-0.19249692559242249,-1.2872951030731201,0.02528449147939682,0.3913193345069885,0.3944416046142578,-0.7091310024261475,-1.1568834781646729
328,1.038634025557993,1.1372679669892385,-1.5148139051905278,0.36198392510414124,-0.9074892401695251,-0.21314530074596405,1.0989795923233032,-0.031227393075823784,2.67507004737854,0.23587065935134888,-0.6441617012023926,0.06161029636859894
329,0.5882739012071434,1.3228071600452835,-1.1542929619858435,0.13620921969413757,-0.9694079756736755,-0.20419378578662872,0.15043435990810394,-0.20715847611427307,0.776967465877533,-0.025796622037887573,0.2821063995361328,0.2667395770549774
330,0.6567970516987619,1.1956205617156075,-0.9717060674650383,0.22373993694782257,-0.9304432272911072,-0.29019996523857117,-0.4611373245716095,0.10851211845874786,-0.3317403793334961,0.17497225105762482,0.7482989430427551,0.577446699142456
331,0.7113192693619086,1.1674073817523327,-1.0740463872430475,0.2562616765499115,-0.9197359681129456,-0.29734763503074646,-1.8247566223144531,6.178084373474121,-0.8240670561790466,-0.2993524968624115,0.5583926439285278,0.37773096561431885
332,0.9037627479219843,1.0754895699744735,-1.0462643071453013,0.3734256625175476,-0.8798229694366455,-0.2940492331981659,0.8628066182136536,-0.76401686668396,0.4792231023311615,-0.04589575529098511,-0.259749174118042,0.485409677028656
333,0.6973029013110162,1.1804941234422754,-1.0644666519763228,0.24431836605072021,-0.9247941374778748,-0.29165786504745483,1.7097276449203491,-2.980736494064331,0.10687509179115295,0.5468498468399048,-0.19381242990493774,0.44702279567718506
334,0.6732428008162629,1.185534874931937,-1.3301982014510825,0.2343215048313141,-0.926700234413147,-0.2938031256198883,-0.12460019439458847,-2.0392775535583496,-1.3041090965270996,0.1491929292678833,0.05745267868041992,0.1242627203464508
335,0.7135540092376967,1.0458963945269921,-1.5094187077386294,0.3279997408390045,-0.8653740882873535,-0.378871887922287,-0.684472382068634,0.4585476517677307,-1.4782240390777588,-0.411755234003067,0.4173150062561035,0.4763450622558594
336,1.1045864148736684,0.9557468901165492,-1.7313939472480038,0.51542067527771,-0.8167449235916138,-0.2593632936477661,-0.3051973879337311,3.2653560638427734,-0.29152950644493103,-0.5121553540229797,-0.44779670238494873,-0.5693720579147339
337,1.0031348429728182,0.9690509604439385,-1.5551830379594838,0.47729822993278503,-0.8243488669395447,-0.3043607771396637,-0.40331801772117615,-1.7920122146606445,1.7524369955062866,0.24212315678596497,-0.7128520607948303,-0.6129671335220337
338,0.6296966927903903,1.1931898797032672,-1.3166616221695984,0.21712537109851837,-0.9295498132705688,-0.29798296093940735,1.1131211519241333,-0.42743974924087524,2.137446165084839,0.20722155272960663,-0.29280126094818115,0.32021498680114746
339,0.5312406362842453,1.2769878460258828,-1.1255296190960735,0.14671213924884796,-0.9571478962898254,-0.24968676269054413,-0.9406163692474365,3.002026319503784,-0.009182625450193882,-0.06677134335041046,0.29006415605545044,-0.07178544998168945
340,0.6235896960382897,1.1651695249439507,-1.0267874384257956,0.23042482137680054,-0.9188552498817444,-0.32032713294029236,-0.4247916638851166,0.6179693341255188,-0.710408091545105,0.08798031508922577,0.7665267586708069,0.5345452427864075
341,0.9166284118074038,0.9985587748010921,-1.028470324145654,0.4297211766242981,-0.8406913876533508,-0.32951104640960693,-0.2747783362865448,-0.27616387605667114,-0.537227213382721,-0.19023451209068298,-1.0345983505249023,-2.152101993560791
342,0.7888237489165486,1.1028012949050496,-1.0414387841346104,0.3200652301311493,-0.8924745321273804,-0.31787988543510437,1.0990391969680786,-3.00431752204895,1.6824787855148315,0.3990204632282257,-0.28941023349761963,0.4248897433280945
343,0.5936846636064544,1.188118870552701,-1.2737397168908227,0.20889027416706085,-0.9276682138442993,-0.3095104694366455,0.23594215512275696,-2.6807286739349365,-1.669445276260376,0.23166151344776154,-0.25705480575561523,-0.14576604962348938
344,0.5842495750673802,1.0547549433865735,-1.4753656376893707,0.27216899394989014,-0.8697793483734131,-0.411592036485672,-1.0697847604751587,-0.47656571865081787,-0.9207888841629028,-0.23946940898895264,0.3487679958343506,0.3062758445739746
345,0.6994484353210703,0.9354705952485386,-1.5121533244781942,0.38205400109291077,-0.8048784136772156,-0.45409858226776123,0.18718990683555603,1.822198510169983,-0.8466429114341736,-0.6445357203483582,0.20470446348190308,0.42867743968963623
346,0.9118629461270125,0.9071870192142057,-1.4847690985002966,0.4870094954967499,-0.7877741456031799,-0.37713879346847534,-0.41244208812713623,0.5181203484535217,0.23032303154468536,0.12271645665168762,-0.5396489500999451,-1.2417576313018799
347,0.7853756525225906,1.036287969084224,-1.427907774452666,0.3602049648761749,-0.8605191707611084,-0.3602212071418762,1.442151427268982,-1.3304182291030884,2.213017702102661,0.04302382469177246,-0.39988744258880615,0.10680320858955383
348,0.5268352834272733,1.221712460123019,-1.210144788986196,0.17197638750076294,-0.9396864771842957,-0.29565781354904175,0.6062708497047424,0.5475744009017944,0.8845826387405396,0.12132807075977325,0.14763319492340088,0.35864609479904175
349,0.5834797813440515,1.1480467233401637,-1.039450778568883,0.22603033483028412,-0.9119642972946167,-0.34239068627357483,-0.9667487740516663,1.1554129123687744,-0.16239461302757263,0.05616569519042969,0.6148146986961365,0.5695940852165222
350,0.6173889397307633,1.1276645545955326,-1.107350240205651,0.24821893870830536,-0.9034132957458496,-0.3496167063713074,0.7076420187950134,-1.6487599611282349,-0.22624549269676208,-0.010181814432144165,0.4999098777770996,0.3727948069572449
351,0.789491890829813,1.1018951899069653,-1.0927411341444775,0.3208514451980591,-0.8920654058456421,-0.3182351887226105,0.4690091609954834,-3.7571463584899902,0.2750716209411621,0.19037902355194092,0.14008182287216187,0.7668130397796631
352,0.6901167633696799,1.1556327812053322,-1.1772731184900493,0.2567770481109619,-0.9150503873825073,-0.3110441565513611,0.5992892980575562,-1.7477858066558838,0.331493616104126,0.4324930012226105,-0.12118929624557495,0.5649961829185486
353,0.7619744100426387,1.1373544968177345,-1.394674656918344,0.2899453341960907,-0.9075255990028381,-0.3038569390773773,-0.14053504168987274,-1.107481837272644,-1.7034616470336914,0.2742178738117218,-0.043188512325286865,0.03461560606956482
354,0.8698070263888524,0.9959411309268345,-1.5867219592068629,0.41550812125205994,-0.839271068572998,-0.350680947303772,-0.8327755928039551,-0.18579694628715515,-1.041122317314148,-0.5777090787887573,0.30939435958862305,0.22384992241859436
355,1.0400707604777817,0.9520378326626143,-1.6250974497334327,0.5002360343933105,-0.8145992159843445,-0.29358455538749695,0.27896973490715027,2.488673210144043,0.11119137704372406,-0.4766460061073303,-0.08943819999694824,-0.06438663601875305
356,1.0696984654657185,0.9483520949609978,-1.4990817751012768,0.5113434791564941,-0.8124558329582214,-0.28007757663726807,0.6598585844039917,-0.4483264088630676,1.078808069229126,-0.29639285802841187,-0.47019803524017334,-0.4413732588291168
357,0.7546895397589694,1.1482640838752314,-1.2921918440456674,0.280924528837204,-0.9120534658432007,-0.2987305521965027,0.3620738685131073,-1.3251893520355225,2.159830093383789,0.5018665790557861,-0.4317117929458618,0.021890342235565186
358,0.6724588406822863,1.1354091662965657,-0.9976179875103818,0.26272013783454895,-0.9067068099975586,-0.32994091510772705,-2.2591776847839355,1.1026843786239624,0.08522172272205353,-0.020380020141601562,0.1479330062866211,0.12590038776397705
359,0.597482567001591,1.0378892356379452,-0.841403769834679,0.28580424189567566,-0.8613337874412537,-0.42002397775650024,-0.3126567602157593,0.15584881603717804,-0.5113346576690674,0.30042317509651184,0.6878108382225037,0.6684370636940002
360,0.6113714865784996,1.0595051831000064,-0.902048892943218,0.2808558940887451,-0.8721134662628174,-0.40067189931869507,0.5171292424201965,5.455777168273926,-0.3315122127532959,-0.6765925884246826,-0.019686400890350342,-0.6857233047485352
361,0.7270942064818879,1.0529895943555203,-0.9548107777758772,0.3290109634399414,-0.8689068555831909,-0.3698006868362427,0.358991414308548,-2.677297592163086,-0.17047517001628876,0.8269491195678711,-0.6750536561012268,-0.6207998991012573
362,0.4917368854198318,1.2083659537420617,-1.212579342286627,0.16740243136882782,-0.9350379109382629,-0.31253883242607117,1.7722111940383911,-2.956313133239746,-1.5748497247695923,0.6746538281440735,-0.21599358320236206,0.3253256678581238
363,0.7351912823060839,1.1190758894202253,-1.587445452110225,0.29278263449668884,-0.8996974229812622,-0.32376354932785034,-0.7507563829421997,-1.0363672971725464,-1.5211478471755981,-0.2875794470310211,0.20238608121871948,0.11670181155204773
364,0.8104294637501821,0.984864048657083,-1.6144476262712,0.40067747235298157,-0.8331969380378723,-0.38110435009002686,-0.6599412560462952,2.0478439331054688,-0.3802999258041382,-0.8331420421600342,0.4169676899909973,0.5242928266525269
365,1.0992247141716098,0.9515024765373415,-1.5858004596543984,0.5171062350273132,-0.8142885565757751,-0.26369553804397583,-2.623340368270874,2.108752965927124,-0.25608935952186584,0.439467191696167,-0.43340736627578735,-1.565573811531067
366,1.1081669751976506,0.9686132920830537,-1.4866686458765241,0.5068995952606201,-0.8241010308265686,-0.2528049051761627,0.5686926245689392,-0.6320288181304932,1.7556997537612915,-0.05514782667160034,-0.7560533881187439,-0.08270531892776489
367,0.8603795577607495,1.2072479008894714,-1.3374004211359636,0.26957160234451294,-0.9346409440040588,-0.2318999320268631,0.604638397693634,-1.3340156078338623,2.0517959594726562,0.21011894941329956,-0.20255088806152344,0.2422453761100769
368,0.7630387250514978,1.2435462987116637,-1.1137431574626988,0.2221541404724121,-0.9469298720359802,-0.23231756687164307,-2.124133586883545,3.372325897216797,-0.1282384842634201,0.06811380386352539,0.2517089247703552,0.037142395973205566
369,0.6209874665406796,1.1623347079046584,-0.9227876089610961,0.2311049997806549,-0.9177329540252686,-0.32304269075393677,-0.0178783368319273,-0.9657179117202759,-0.2041819542646408,0.0733688622713089,0.7505424618721008,0.625334620475769
370,0.9428019253700433,1.1033807713711141,-1.035719067857732,0.36461323499679565,-0.8927357792854309,-0.2647264897823334,-0.4618305265903473,0.6827965974807739,-0.79520583152771,-0.07861775159835815,-1.2407023906707764,-2.7117748260498047
371,0.8596428044556567,1.126628709863761,-1.1018183193262248,0.32554954290390015,-0.9029686450958252,-0.2804727852344513,1.4352729320526123,-0.6575075387954712,0.3611384332180023,0.5048794746398926,-0.09498661756515503,0.988556981086731
372,1.2058981304990568,1.1981815364127189,-1.528406394150197,0.3400828242301941,-0.9313786029815674,-0.12991347908973694,1.583423137664795,-0.9937583208084106,-0.9775766730308533,0.4777882397174835,-0.10032916069030762,0.13639843463897705
373,1.3331691744998233,1.083139472085376,-1.7723855153733208,0.4553903341293335,-0.8834331631660461,-0.11029700189828873,-0.28686314821243286,-0.9254928231239319,-1.2837830781936646,-0.2926096022129059,0.3197430372238159,-0.07953756302595139
374,1.2891037743568683,1.0052497819138588,-1.7241034847295569,0.5147566199302673,-0.844295859336853,-0.14896424114704132,0.09045268595218658,1.2421623468399048,-0.05083858221769333,-0.9073041677474976,0.2546045780181885,0.09891538321971893
375,1.4084890737786406,0.9907638526435993,-1.6022048378462947,0.5408480763435364,-0.8364448547363281,-0.08856262266635895,-0.8858219385147095,1.4552974700927734,-0.18366923928260803,0.5258632898330688,-0.6667289137840271,-0.8122247457504272
376,1.332340338999391,1.0801699928916004,-1.5834783750006607,0.4578460454940796,-0.8820379376411438,-0.11129359900951385,0.1844763606786728,-1.8153823614120483,2.4104840755462646,-0.1999114751815796,-0.327343225479126,0.12867337465286255
377,0.9801578612919782,1.2835576061375813,-1.3231191573629186,0.23530904948711395,-0.9590297937393188,-0.15777018666267395,0.15209819376468658,-0.7144260406494141,1.5236217975616455,0.034069597721099854,-0.07791167497634888,0.15967756509780884
378,0.7607099697219314,1.225577252120805,-0.9487528251772117,0.23330692946910858,-0.9410013556480408,-0.2451208382844925,-1.0090335607528687,3.319257974624634,-0.5703006386756897,-0.02224735915660858,0.6242594718933105,0.6254766583442688
379,0.7531389260077022,1.2217063764004075,-0.962122749902196,0.23393402993679047,-0.9396843910217285,-0.24953581392765045,1.0072426795959473,-0.6016184091567993,-0.039211906492710114,-0.11502228677272797,0.6894097328186035,0.5593350529670715
380,0.8478393411360137,1.1294479842844452,-0.9628070967336329,0.3203061521053314,-0.9041765332221985,-0.28261032700538635,-0.9854951500892639,-1.8903883695602417,-0.41470199823379517,0.1788393259048462,-0.6339246034622192,-0.32310250401496887
381,1.0506893446035988,1.236877883735642,-1.2320655130971183,0.2844080328941345,-0.9447653293609619,-0.16288158297538757,2.2729856967926025,0.39182063937187195,-0.005906438920646906,0.3298344910144806,-0.2428414225578308,0.45862746238708496
382,1.4804748388538111,1.1960600500164718,-1.7506358359188325,0.36453473567962646,-0.9306041598320007,-0.03301514685153961,0.5017489790916443,-0.8255590796470642,-1.479610562324524,0.24281081557273865,0.03531014919281006,0.09337890148162842
383,1.337022539419846,1.099184652430106,-1.7618737370215372,0.44196459650993347,-0.8908372521400452,-0.10524395853281021,-0.8501577973365784,-1.619560956954956,-0.4295715391635895,-0.47196340560913086,0.25292831659317017,-0.1236225888133049
384,1.3144641481156296,1.0866434186029326,-1.7725934911696717,0.450250506401062,-0.8850695490837097,-0.11800974607467651,0.3486197590827942,0.3074430823326111,0.3383493721485138,-0.6547030210494995,0.143110990524292,-0.08081226795911789
385,1.2224983313536435,1.0664943721588716,-1.5190583303359002,0.4541829824447632,-0.8755120038986206,-0.16491425037384033,-0.007573983632028103,0.6058760285377502,0.4008978605270386,0.016443848609924316,-0.32111281156539917,-0.16212737560272217
386,1.0839427650377778,1.2115797848063181,-1.4360851980753928,0.3106953203678131,-0.9361725449562073,-0.16446758806705475,0.1258414089679718,-1.121561050415039,2.6305599212646484,0.12924611568450928,-0.4772948622703552,0.20662760734558105
387,0.659344638892845,1.3042290347437935,-0.909759252550375,0.1613718718290329,-0.9646808505058289,-0.208206906914711,-2.3043737411499023,4.5389838218688965,-0.23399870097637177,-0.0635172575712204,-0.027918696403503418,-0.6907951235771179
388,0.5571778004691558,1.209992081643022,-0.690717769530303,0.18667808175086975,-0.935613214969635,-0.2996317744255066,-0.492380827665329,-0.6888322234153748,0.06576792895793915,0.07533058524131775,0.75430828332901,0.5643870234489441
389,0.7295616718376824,1.278292685030494,-0.9038543007769722,0.19219812750816345,-0.9575249552726746,-0.21495583653450012,0.7800852060317993,0.7350112795829773,-0.310980886220932,-0.03625330328941345,0.47502678632736206,0.08296728134155273
390,0.7462046065247405,1.2252507860411712,-0.9213331120199811,0.22993558645248413,-0.9408907890319824,-0.24870480597019196,0.8609484434127808,-1.398172378540039,0.15515832602977753,0.32792574167251587,-0.22861909866333008,0.927614152431488
391,1.2166855015639348,1.300968669591451,-1.4042753023223031,0.25002607703208923,-0.9638168215751648,-0.09243316948413849,1.4991272687911987,-0.8745691776275635,-0.6508858799934387,0.5659528970718384,-0.25999897718429565,0.2229873538017273
392,1.411199382035529,1.1882096572828922,-1.7316022280494536,0.3685769736766815,-0.9277020692825317,-0.059328336268663406,0.205097496509552,-1.2063591480255127,-1.6682453155517578,-0.1282358169555664,0.247877299785614,-0.003431018441915512
393,1.3574507444670818,1.065774029940647,-1.739771711771676,0.47285792231559753,-0.8751636743545532,-0.10244113206863403,0.7562671303749084,0.18627598881721497,-0.21338824927806854,-1.2434114217758179,0.28710508346557617,0.01992158591747284
394,1.576263850819953,1.06905887812737,-1.7193582057602201,0.4809424877166748,-0.876748263835907,0.0026295906864106655,-0.3067067265510559,-0.3005887567996979,0.4593217372894287,0.5236351490020752,-0.6533268094062805,-0.6688436269760132
395,1.279177315997712,1.263383473203035,-1.5973744546385225,0.2898182272911072,-0.9531196355819702,-0.08699671924114227,-0.5300906896591187,-1.3060312271118164,2.8810203075408936,0.2704234719276428,-0.6157432794570923,0.2091585397720337
396,0.39629534287840307,1.3406955036841621,-0.8302766617551,0.08803805708885193,-0.97364342212677,-0.2103993445634842,-3.2970352172851562,1.5448095798492432,0.09176893532276154,0.45016995072364807,0.15906822681427002,-0.16496682167053223
397,0.4767182633204386,1.22850954652869,-0.798139931409658,0.1540147364139557,-0.9419896006584167,-0.2982199788093567,-0.11369221657514572,-0.9104040861129761,-0.12229635566473007,0.1827009618282318,0.7078587412834167,0.5899527668952942
398,0.6470713678040759,1.3051610919957408,-1.008408807481998,0.15826192498207092,-0.9649259448051453,-0.2094537764787674,-0.1857321858406067,1.0648130178451538,-0.9975757002830505,-0.2998329997062683,0.3885405659675598,-0.14712883532047272
399,0.7740302933965353,1.2100174834804873,-1.0665219309688487,0.246757373213768,-0.9356221556663513,-0.25243234634399414,0.34121954441070557,-0.7577771544456482,0.939441442489624,-0.3752821683883667,-1.1422128677368164,-0.9818205833435059
400,1.2809874171787745,1.3599122891828348,-1.5203263431281955,0.20059531927108765,-0.9778462648391724,-0.059818465262651443,1.8173753023147583,-0.0584561824798584,-0.329374760389328,0.36111122369766235,-0.24795329570770264,0.13072603940963745
401,1.6291080187081228,1.2432149483378685,-1.9324461459677296,0.32120686769485474,-0.9468232989311218,0.018751375377178192,0.4405953288078308,-0.36226919293403625,-1.6086629629135132,-0.010843127965927124,0.15444976091384888,0.04806685447692871
402,1.4502538602022894,1.1445149887360098,-1.812539172021522,0.41048774123191833,-0.9105096459388733,-0.04972226545214653,-0.48130887746810913,-0.7265960574150085,-0.09503892809152603,-0.7707476615905762,0.40072858333587646,-0.06026310846209526
403,1.7916355937039297,1.0938109628221895,-1.9360793375394119,0.447953462600708,-0.8883829712867737,0.10056592524051666,-1.1981136798858643,4.778372287750244,-1.6055033206939697,0.24069100618362427,-0.3400411605834961,-1.00532066822052
404,1.7859503534007144,1.1290749721912148,-1.7790582268593742,0.4176396131515503,-0.9040171504020691,0.09126953780651093,0.14272204041481018,0.17642559111118317,2.8412113189697266,-0.11458480358123779,-0.3503773808479309,0.09551334381103516
405,1.5800471122264979,1.3988049227549102,-1.6118633740653188,0.17113806307315826,-0.9852458834648132,0.0015832065837457776,-0.9495842456817627,-2.834454298019409,1.734871745109558,-0.08874057233333588,-0.09001058340072632,0.24440371990203857
406,0.2114654495103299,1.4131203825604968,-0.6169190236121078,0.032958004623651505,-0.9875949025154114,-0.15352515876293182,-3.1620688438415527,-1.6007580757141113,0.023729223757982254,0.2053079903125763,0.46672093868255615,0.2150944024324417
407,0.479665807637505,1.3761449464790858,-0.7023498982725543,0.08926206082105637,-0.9811151623725891,-0.17159637808799744,0.04284019023180008,0.47335875034332275,-0.14259468019008636,0.012269921600818634,0.8039301633834839,0.5315664410591125
408,0.6157804389056426,1.2763930403859796,-0.8479753078282483,0.16760031878948212,-0.9569754600524902,-0.23687149584293365,0.5733959674835205,0.5489798188209534,-1.028710126876831,-0.09158103168010712,-0.49730920791625977,-0.81117844581604
409,0.6766023014053699,1.331741079086502,-0.9323702339215649,0.14826223254203796,-0.9715620875358582,-0.18462225794792175,0.7421773076057434,0.52408367395401,0.34380391240119934,0.35399606823921204,0.06029200553894043,0.8452057838439941
410,1.3580313063232723,1.3522327731252148,-1.4876760958451605,0.21193836629390717,-0.9762099385261536,-0.0457860603928566,2.0627634525299072,0.6393177509307861,-1.0945998430252075,0.48648691177368164,-0.24862831830978394,0.04586237668991089
411,1.7458122683700938,1.1999859432844446,-1.9028260965551258,0.35683542490005493,-0.9320340156555176,0.06309744715690613,0.06845307350158691,-0.40523087978363037,-1.6123497486114502,-0.17603406310081482,0.2997555136680603,-0.054064154624938965
412,1.6282769793575491,1.1210009526405873,-1.7799245459126327,0.4340631663799286,-0.900536060333252,0.024977749213576317,-0.01859423890709877,0.15541069209575653,0.3124960958957672,-0.8362696170806885,0.32704979181289673,-0.09988319873809814
413,1.8811525921203387,1.1023871841243462,-1.7970109047801397,0.4298984408378601,-0.8922876119613647,0.1378771811723709,-0.5987288355827332,3.160717010498047,-0.42980948090553284,0.8375270962715149,-0.9529424905776978,-0.9517199993133545
414,2.0184262984382118,1.230678356462939,-1.8476105657223463,0.30073070526123047,-0.9427153468132019,0.14439143240451813,-1.8125020265579224,-0.4892107844352722,2.385169267654419,-0.14437389373779297,-0.5140412449836731,0.292238712310791
415,1.4269097367518717,1.4359178977272349,-1.4402943239113581,0.13308151066303253,-0.9909176826477051,-0.019281895831227303,-0.5545678734779358,-3.006434679031372,1.6077325344085693,-0.04422956705093384,0.04687154293060303,0.17550140619277954
416,0.3674468594476386,1.3732836278118041,-0.4705224173113251,0.07049285620450974,-0.9805576801300049,-0.18313217163085938,-0.06399661302566528,2.365365743637085,0.11659158021211624,0.10791290551424026,0.8762943744659424,0.6526451110839844
417,0.410193826926264,1.3972827101476302,-0.556002194031576,0.06884804368019104,-0.9849842190742493,-0.15832170844078064,0.986911952495575,-1.5609350204467773,-0.43840673565864563,0.027984224259853363,0.5963124632835388,0.31286269426345825
418,0.6204270843724938,1.2850378383200174,-0.7936622454108098,0.163883239030838,-0.9594480991363525,-0.22935041785240173,0.7634863257408142,-1.2742583751678467,-0.07439533621072769,0.1510123759508133,-0.051492393016815186,0.47060710191726685
419,0.8734795383434464,1.3678191622572529,-1.0017255044007707,0.1545296311378479,-0.9794707894325256,-0.12945130467414856,1.2936079502105713,2.5428454875946045,0.08846845477819443,0.2379416823387146,-0.30003970861434937,0.564174234867096
420,1.811490798892227,1.376202600599323,-1.8795159449582433,0.18779347836971283,-0.9811263084411621,0.04609445482492447,0.9425931572914124,-0.39889973402023315,-0.7050583958625793,0.16880439221858978,0.20800930261611938,0.16163873672485352
421,1.7846549306629453,1.289009451729666,-1.8723727120118205,0.27173739671707153,-0.9605600833892822,0.05901584029197693,-0.46420446038246155,-0.23006057739257812,-0.8328858017921448,-0.23928198218345642,0.4537090063095093,-0.05050147324800491
422,1.739873027753679,1.2528520024386391,-1.7868087917807634,0.30815649032592773,-0.949880063533783,0.052604302763938904,0.8717098832130432,0.5392715930938721,0.06912503391504288,-0.6426901817321777,0.17703777551651,-0.4487529993057251
423,1.9700267745882238,1.187588498284452,-1.789342201254006,0.3444942831993103,-0.9274700284004211,0.14533744752407074,0.28216350078582764,0.9819929003715515,0.8125572204589844,-0.03321501612663269,-0.3738147020339966,-0.6482366323471069
424,1.7359898684106352,1.3669220813781346,-1.6291951315227242,0.19970886409282684,-0.9792895317077637,0.03329401835799217,-0.8727647662162781,-0.21038812398910522,1.515893816947937,0.16367921233177185,-0.31337404251098633,0.3807380199432373
425,0.95868278547357,1.463202721764127,-0.987632304886506,0.08788949251174927,-0.9942173957824707,-0.06170453503727913,-0.6008633375167847,-2.65553617477417,0.9452494382858276,0.03421134501695633,0.07455480098724365,0.11137186735868454
426,0.1941278333521797,1.356067760903527,-0.17735081791663343,0.04110579565167427,-0.9770342707633972,-0.20907938480377197,-0.3746136724948883,-0.45574697852134705,0.46737900376319885,0.09797806292772293,0.7936695218086243,0.6293827295303345
427,0.4815822026020507,1.4049875781210752,-0.5313916817649378,0.07644835114479065,-0.9862852096557617,-0.14627805352210999,2.0690653324127197,-1.7994914054870605,-1.4527770280838013,-0.005205065011978149,0.23749065399169922,-0.2897266149520874
428,0.5399209813033311,1.303861769477385,-0.6207582853129069,0.13559864461421967,-0.9645839929580688,-0.22625331580638885,-0.045632027089595795,0.6262364387512207,-0.07210057973861694,0.24719858169555664,-0.1879122257232666,0.5237844586372375
429,0.7810807668191616,1.3669927829704307,-0.8845713624709391,0.14249561727046967,-0.9793038368225098,-0.14373138546943665,2.22269868850708,2.399298667907715,-0.2241971790790558,0.15656134486198425,-0.2827962040901184,0.5811856985092163
430,1.8045391845971674,1.2980992952341392,-1.874868667260924,0.2620059847831726,-0.963047981262207,0.0623822920024395,1.5197265148162842,-0.30379241704940796,-1.3734016418457031,0.2788418233394623,0.18698590993881226,0.030314810574054718
431,1.9657549585628682,1.1517140178686553,-2.0244190982813115,0.3755945563316345,-0.91346275806427,0.15657158195972443,0.29682624340057373,0.11653784662485123,-1.0124740600585938,-0.498839795589447,0.3366957902908325,-0.2457592487335205
432,2.089102358237294,1.1742051138269536,-2.0160410916905973,0.3355428874492645,-0.9223830699920654,0.191365048289299,-1.9952216148376465,5.343040466308594,-1.2092124223709106,-0.17314359545707703,-0.02799534797668457,-0.5018966197967529
433,2.3815845588735964,1.1181714776082783,-1.9625996815312008,0.301286906003952,-0.8993023037910461,0.3169883191585541,-0.8295698165893555,-2.300037145614624,0.8422740697860718,0.015332967042922974,-0.5938770771026611,-0.34601056575775146
434,1.680886828546595,1.411021803930448,-1.6147024448726264,0.1581317037343979,-0.9872632026672363,0.01747947372496128,-1.0205951929092407,-0.4696517288684845,1.6631381511688232,-0.022786274552345276,-0.4116777181625366,0.47460126876831055
435,0.3990668670531686,1.4410629188800492,-0.47313597623535564,0.05026742070913315,-0.9915964007377625,-0.11920362710952759,-2.238987684249878,-1.5340057611465454,0.6544524431228638,0.17034414410591125,0.3905070424079895,0.3862324357032776
436,0.13164193510221048,1.3150841112925558,-0.11452230412396315,0.0332006998360157,-0.967483401298523,-0.2507460415363312,0.25317615270614624,0.5710386037826538,-0.09567174315452576,0.1145806759595871,0.817794680595398,0.6327040791511536
437,0.5911879592164261,1.3487041885053004,-0.4558567249754297,0.1227673664689064,-0.9754387736320496,-0.18288615345954895,-2.582798957824707,12.107351303100586,-1.9291495084762573,-0.2990521788597107,-0.8089239597320557,0.7808780670166016
438,0.8268433745007217,1.3146399796486672,-0.7454714668960208,0.18642492592334747,-0.9673709869384766,-0.17157888412475586,0.6319330334663391,0.8440869450569153,-0.8689643740653992,-0.3419272303581238,-0.688390851020813,-0.6337189674377441
439,1.460682871328249,1.375362383914109,-1.4247580104210371,0.19301581382751465,-0.9809634685516357,-0.021339956670999527,1.8614919185638428,1.7213666439056396,-0.2444603443145752,0.22162649035453796,-0.1564265489578247,0.44005638360977173
440,1.988934134772378,1.3047693620859382,-1.8007341930411858,0.2402503937482834,-0.9648230075836182,0.10675305873155594,0.8934479355812073,1.4683088064193726,-0.9238130450248718,-0.11119157075881958,0.30468207597732544,0.13642621040344238
441,2.1541608945564867,1.1566081287172107,-1.8274395017621994,0.33588773012161255,-0.9154433012008667,0.22168183326721191,0.7129698991775513,1.065512776374817,-0.742987334728241,-0.44076141715049744,0.29680633544921875,-0.3078634738922119
442,1.9146185282966957,1.2007953158329616,-1.6157364929974498,0.3404521048069,-0.9323269724845886,0.12189655750989914,-4.634149551391602,-2.545522928237915,-2.7456119060516357,0.6432820558547974,-0.5254519581794739,-0.8773438930511475
443,1.9048333281383216,1.2331720476222434,-1.6717803300732517,0.31293734908103943,-0.9435442686080933,0.10860233753919601,0.48597097396850586,0.4886695444583893,1.018572449684143,-0.16565951704978943,-0.7882825136184692,-0.04970347881317139
444,1.5309879905208812,1.4162515660067179,-1.3094226842746886,0.15380841493606567,-0.988081693649292,-0.006126093212515116,-1.3615673780441284,-2.213540554046631,1.8169407844543457,-0.15809613466262817,-0.32508963346481323,0.4206158518791199
445,0.5785796836172894,1.4189778143295153,-0.3419609554913319,0.0827011689543724,-0.9884976744651794,-0.126620814204216,-0.7240118384361267,1.4751445055007935,-0.007625436410307884,-0.032957524061203,0.5456724166870117,0.3978000283241272
446,0.45691941597741,1.3486020376393977,-0.31452425325334354,0.09722421318292618,-0.9754162430763245,-0.19776380062103271,0.08141128718852997,-1.5016634464263916,-0.5949416160583496,0.054524436593055725,0.6924725770950317,0.5473731756210327
447,0.7600997992567866,1.213263330517493,-0.4985999178563138,0.24112313985824585,-0.9367630481719971,-0.25364255905151367,-2.1732394695281982,-0.2912667393684387,-1.9640313386917114,0.30216604471206665,-0.7299849390983582,-5.436085224151611
448,0.7167324794585592,1.2275756582467585,-0.6936137428803152,0.2210695594549179,-0.9416757225990295,-0.2537228465080261,1.9950835704803467,-0.8663678169250488,0.09332021325826645,0.2636564075946808,-0.140752375125885,1.0898128747940063
449,1.445492422573335,1.3656918384947163,-1.3641903996116758,0.20207299292087555,-0.97903972864151,-0.02545389160513878,1.2841465473175049,1.026157259941101,-0.23425564169883728,0.17336952686309814,-0.07634967565536499,0.1739066243171692
450,1.6782345560297949,1.288375187705125,-1.5057003269264446,0.2770750820636749,-0.9603835344314575,0.029883528128266335,0.25796282291412354,1.4225666522979736,-0.9033321142196655,-0.17772510647773743,0.4564162492752075,0.0856560468673706
451,1.9044211448363795,1.2050815787373272,-1.6077650687140255,0.3378988802433014,-0.933868408203125,0.11710899323225021,0.5789639353752136,1.258603572845459,-0.12109564244747162,-0.4142995774745941,0.23187243938446045,-0.12864457070827484
452,1.5591928105387414,1.2045013232625859,-1.2303904658065508,0.35813435912132263,-0.9336607456207275,-0.00415580440312624,-1.4245487451553345,4.234896659851074,-1.403601050376892,0.933918833732605,-0.7461029887199402,-0.6244757771492004
453,1.477932587412521,1.2534323481147045,-1.077249180083842,0.3107186555862427,-0.9500613212585449,-0.028937727212905884,-1.3155183792114258,-1.9116648435592651,0.9493186473846436,0.13248810172080994,-0.7798885703086853,-0.37850242853164673
454,0.9508459268521158,1.405162700190888,-0.8242742164196967,0.1341947764158249,-0.986314058303833,-0.09579280763864517,0.7255437970161438,-2.0291712284088135,1.7857050895690918,-0.11725753545761108,-0.12089413404464722,0.24314695596694946
455,0.38832682730979995,1.3709207537321835,-0.144679038721117,0.07517824321985245,-0.9800912737846375,-0.18376478552818298,-2.5548763275146484,1.5877801179885864,0.14438624680042267,0.26111021637916565,0.3403664231300354,-0.05093063414096832
456,0.3273060699425598,1.273461262188464,-0.02835741429984986,0.0941888839006424,-0.9561206102371216,-0.27741971611976624,0.396232545375824,0.05156721919775009,-0.21990768611431122,-0.010173983871936798,0.7193347811698914,0.5358730554580688
457,0.9597889163386734,1.2747196731196093,-0.45943881289437555,0.23897995054721832,-0.9564885497093201,-0.16738620400428772,1.2266618013381958,-1.4800126552581787,-2.163052797317505,0.6279023289680481,-0.6796655654907227,-2.56738543510437
458,0.9993614919808114,1.2578144308256505,-0.6273018292070076,0.25897979736328125,-0.9514197111129761,-0.16652265191078186,1.1934198141098022,-1.961625337600708,0.18378883600234985,0.19184106588363647,-0.12905502319335938,1.0323673486709595
459,1.5819100845200034,1.38083099215091,-1.3797313899683785,0.188813716173172,-0.9820107817649841,0.0020985163282603025,1.617140531539917,0.1067599356174469,-0.6360092163085938,0.2589859664440155,-0.21000581979751587,0.29123640060424805
460,1.9361804744614952,1.2690384775362709,-1.767245632304782,0.2775799334049225,-0.9548155069351196,0.10619163513183594,0.7888794541358948,0.05552847310900688,-1.008673906326294,-0.10573545098304749,0.4109923243522644,-0.009572982788085938
461,2.083879862357711,1.1538176228815125,-1.8242188025696386,0.3528498411178589,-0.914316713809967,0.19880054891109467,0.5139516592025757,2.2602999210357666,-0.21508927643299103,-0.4537257254123688,0.2217509150505066,-0.16109612584114075
462,2.207803774983581,1.1693387149266552,-1.6395475750750261,0.3141244351863861,-0.92049241065979,0.23242151737213135,-1.8823670148849487,1.0334441661834717,-3.059028148651123,0.9676138162612915,-0.7150362133979797,-1.4117428064346313
463,2.1666687931742126,1.1222205790865913,-1.5686136688705759,0.35894128680229187,-0.9010657072067261,0.2433960884809494,0.10321049392223358,-3.438692092895508,2.2595088481903076,0.14369845390319824,-0.5409660935401917,-0.3362152576446533
464,1.8531650427675082,1.4048333307999492,-1.659301394169313,0.15865957736968994,-0.9862596988677979,0.04603042080998421,-1.2397089004516602,-2.1312925815582275,2.6678214073181152,-0.20178093016147614,-0.4121319651603699,0.19092321395874023
465,0.10362632964978752,1.4420498900306795,-0.01229463789331138,0.01328087318688631,-0.9917235970497131,-0.12770211696624756,-2.925261974334717,1.367125391960144,0.2777014374732971,-0.000722888857126236,0.5838104486465454,0.7270673513412476
466,0.2659714197224987,1.2718201595036471,-0.04942499911772143,0.07741940021514893,-0.9556385278701782,-0.2841852605342865,0.8390784859657288,0.9890875220298767,-0.2914634644985199,0.10866153985261917,0.718089759349823,0.5633295178413391
467,0.7643088130930249,1.2458154868017675,-0.3637375136571782,0.22096116840839386,-0.9476568698883057,-0.2304832488298416,1.493237853050232,-4.657541275024414,-0.8596711754798889,0.16810740530490875,-0.12529534101486206,-1.4151313304901123
468,0.9230779279004779,1.2893311088450583,-0.6322895671779354,0.22150608897209167,-0.9606494903564453,-0.1675938218832016,1.6828254461288452,-1.747196912765503,0.6135345101356506,0.11534692347049713,-0.2988567352294922,1.1194370985031128
469,1.7457744336716754,1.407259478814851,-1.6766887147940874,0.16032272577285767,-0.9866576194763184,0.028342820703983307,1.1499322652816772,-0.9285959005355835,-0.6933674216270447,0.24066297709941864,-0.08772891759872437,0.2485126256942749
470,1.8690798806244542,1.3137864192079691,-1.715767909375233,0.2429649829864502,-0.967154324054718,0.07470117509365082,0.2557642161846161,2.8673012256622314,-0.8324925899505615,-0.11390618979930878,0.5167913436889648,0.07924472540616989
471,2.2935738618031203,1.2099391126846826,-1.848683889184461,0.2647970914840698,-0.9355944991111755,0.23354946076869965,1.4554671049118042,2.169891595840454,0.13801632821559906,-0.3398398458957672,0.2951068878173828,-0.26940762996673584
472,2.137589408749515,1.087002551758112,-1.594489313558302,0.3924054801464081,-0.8852366805076599,0.24974778294563293,-1.722631812095642,1.4771618843078613,-2.0445339679718018,1.4106950759887695,-1.2935047149658203,-0.29473066329956055
473,1.9588890508941474,1.262690136815655,-1.5209438367760155,0.2807026207447052,-0.9529095888137817,0.11475884169340134,-1.3296982049942017,-2.5687594413757324,3.317190408706665,0.11584281921386719,-0.1858386993408203,-0.05320487916469574
474,2.2677851050931377,1.4850627504734981,-2.077520774974237,0.0656571313738823,-0.9963271021842957,0.054965123534202576,0.6236289739608765,-3.1265275478363037,1.4846527576446533,-0.2422928810119629,0.01083838939666748,0.17046819627285004
475,0.2775324330189784,1.365219514207082,-0.05801331779849688,0.055928751826286316,-0.978943407535553,-0.19632071256637573,-0.5314869284629822,-0.20851530134677887,-0.10186459124088287,0.014002270996570587,0.8194432854652405,0.7184001803398132
476,0.41406700011038317,1.3572560706229064,-0.23426579739942022,0.08526328206062317,-0.9772867560386658,-0.1940116584300995,1.8076640367507935,-0.6910372972488403,-0.5065785646438599,0.057864151895046234,0.5347362756729126,0.44063952565193176
477,0.8459045377118355,1.2692274815781714,-0.5431785697067023,0.22233986854553223,-0.9548717141151428,-0.19693976640701294,0.9109132289886475,-1.9985313415527344,-0.046721357852220535,0.035304829478263855,-0.43930870294570923,1.2421057224273682
478,0.7921255221901906,1.3056694165282534,-0.6444613569653121,0.18652674555778503,-0.9650592803955078,-0.1840338110923767,1.5282292366027832,-2.6230874061584473,0.7872349619865417,0.041180163621902466,-0.20451170206069946,0.8454260230064392
479,1.8435763488997057,1.3646367218789932,-1.7548603662585542,0.1971340775489807,-0.978824257850647,0.055148929357528687,1.5206353664398193,0.652738630771637,-0.6867053508758545,0.6181430816650391,-0.12435579299926758,0.323131799697876
480,2.113549181196619,1.2568921259677652,-1.9742220772979582,0.2644008994102478,-0.9511352777481079,0.1594807654619217,0.7387534976005554,1.2186603546142578,-0.7392396330833435,-0.23400536179542542,0.40725094079971313,-0.07021687924861908
481,2.3270030787298674,1.1677983767892606,-2.028206008807632,0.28528714179992676,-0.9198893904685974,0.2690992057323456,0.5860448479652405,1.716772198677063,0.3580772578716278,-0.45012789964675903,0.32919132709503174,-0.26145464181900024
482,2.27627188681372,1.113267255440517,-1.7242576797091693,0.33629247546195984,-0.8971467018127441,0.2864176034927368,0.8046977519989014,3.7027928829193115,-1.088888168334961,0.8183553218841553,-0.6160826086997986,-0.4320627748966217
483,2.292456434599001,1.2897121475657003,-1.9042019234218728,0.20824480056762695,-0.9607552289962769,0.1832573562860489,-2.6435739994049072,-3.514939785003662,3.3314921855926514,-0.11031392216682434,-0.023406028747558594,-0.07905508577823639
484,2.4185155383748413,1.5106513072928032,-2.27623447013894,0.03977302834391594,-0.9981918334960938,0.04506721720099449,-1.0030308961868286,-0.5731300711631775,1.13568115234375,0.04663749039173126,0.13842016458511353,0.1502147912979126
485,-0.04527600854797705,1.4077952043585322,0.19753376109033224,-0.007344912737607956,-0.9867447018623352,-0.16211439669132233,-1.1195100545883179,1.1479666233062744,0.47095373272895813,0.11742182075977325,0.8022201657295227,0.5117238163948059
486,-0.08394734150449228,1.412469036835001,0.12491557660787271,-0.01322020310908556,-0.9874923825263977,-0.1571119874715805,1.0723059177398682,-0.8708473443984985,-0.7640597224235535,0.12314451485872269,0.6637618541717529,0.3463057279586792
487,0.6116957753167139,1.3258010368590678,-0.49006409456954153,0.1392868161201477,-0.9701384902000427,-0.19857096672058105,0.40923529863357544,-1.5032228231430054,-0.46138280630111694,0.6412155032157898,-0.3652191162109375,0.41024091839790344
488,0.8249529373363318,1.399386820815781,-0.8260152862701872,0.12528739869594574,-0.9853453040122986,-0.11574830859899521,1.7048958539962769,-1.3256100416183472,0.11972974240779877,0.0030695348978042603,-0.06381851434707642,0.7184705138206482
489,1.8344426572487076,1.4012021915840724,-1.7656421995365952,0.1629500687122345,-0.9856533408164978,0.043985068798065186,1.2971464395523071,0.3080340027809143,-0.9908309578895569,0.3037094473838806,-0.07753324508666992,0.2332366704940796
490,2.182255822248864,1.2623665557431039,-2.1068262742280677,0.2485608458518982,-0.9528114199638367,0.17426440119743347,1.1381714344024658,0.7712448835372925,-0.797095537185669,-0.2638043463230133,0.4036322236061096,-0.06369923055171967
491,2.408511743150208,1.139702970090853,-2.2808794323751784,0.2796189785003662,-0.9085094332695007,0.3105217218399048,0.7976327538490295,0.7168909907341003,-0.1672588288784027,-0.4201219379901886,0.2086193561553955,-0.3479057848453522
492,2.371390593634962,1.0710246903038902,-1.9599642579211398,0.33367523550987244,-0.8776920437812805,0.34397366642951965,-0.7932888269424438,-0.20905083417892456,0.4223020672798157,0.43504732847213745,-0.31028109788894653,-0.2792915999889374
493,2.2581526709422213,1.316361331412847,-2.0684771703631153,0.19454430043697357,-0.9678056836128235,0.15970167517662048,-1.599744200706482,-2.4935879707336426,2.737851858139038,-0.13227319717407227,-0.24215519428253174,0.28356611728668213
494,3.087921852302303,1.543285180313343,-3.0376886470817923,0.0014760427875444293,-0.999621570110321,0.027475371956825256,-0.6932069063186646,-2.015397548675537,1.2904335260391235,0.13019204139709473,0.1469298005104065,-0.19355201721191406
495,-0.7024881558584475,1.4340416903990054,0.7325367440557732,-0.08808446675539017,-0.9906636476516724,-0.10405102372169495,-0.36534497141838074,0.7794099450111389,0.4529988467693329,0.18430641293525696,0.7923910021781921,0.41607803106307983
496,-0.4462526667093675,1.4636317996584218,0.6063369280380163,-0.04616249352693558,-0.9942633509635925,-0.09648510068655014,0.9955894947052002,1.5781311988830566,-1.2882667779922485,0.023930437862873077,0.6246954798698425,0.21632766723632812
497,-0.3869619471265862,1.3674179725311755,0.1741757188175917,-0.07622206956148148,-0.9793897867202759,-0.18704438209533691,1.8603172302246094,3.056636095046997,-0.2844158411026001,-0.19082197546958923,0.8845412731170654,1.437441110610962
498,0.07675255413361663,1.4940139374955468,-0.10304911311101073,0.00588181521743536,-0.9970536828041077,-0.07648293673992157,1.2864370346069336,2.3919732570648193,-0.48521000146865845,0.08872267603874207,-0.3235030770301819,0.5293943285942078
499,2.3739633639436426,1.4396359805864478,-2.2609091234399323,0.09082072973251343,-0.9914107918739319,0.09410703182220459,1.0923426151275635,0.5000373721122742,-1.7201694250106812,0.13635212182998657,0.11860811710357666,0.1719146966934204
