,attitude.roll,attitude.pitch,attitude.yaw,gravity.x,gravity.y,gravity.z,rotationRate.x,rotationRate.y,rotationRate.z,userAcceleration.x,userAcceleration.y,userAcceleration.z
0,2.3524053217363767,1.029909594724061,-1.7627392633308192,0.36546382308006287,-0.8572524189949036,0.36270463466644287,-1.2302114963531494,-2.139054536819458,1.54457426071167,0.16021674871444702,-0.8471238613128662,-0.18347486853599548
1,0.09713764428007375,0.16849565662036162,-3.0697274837136317,0.09561146795749664,-0.16769950091838837,-0.9811907410621643,0.22395992279052734,-0.7253775000572205,1.0299211740493774,0.21127328276634216,-0.13292916119098663,-0.6143750548362732
2,0.06136675987895712,0.190103589249615,-3.001638530559109,0.060223400592803955,-0.18896061182022095,-0.9801362156867981,0.2921569347381592,0.0513777919113636,0.31390294432640076,0.053073108196258545,0.12168461084365845,-0.1397520899772644
3,0.02114775427124318,0.24350429854161362,-2.9699179807340594,0.0205223448574543,-0.24110502004623413,-0.9702820181846619,0.8332830667495728,-0.8130945563316345,0.07468600571155548,0.0910346657037735,0.08055204153060913,0.15444034337997437
4,-0.015716721547190053,0.3602247014426835,-2.9356065129790196,-0.014707379974424839,-0.3524845242500305,-0.9357020854949951,1.5564936399459839,-0.15865960717201233,0.47693273425102234,0.011411480605602264,0.07424050569534302,0.3597285747528076
5,-0.022940260020427587,0.4920036631209723,-2.893763575950637,-0.020217498764395714,-0.47239282727241516,-0.8811562061309814,0.937624454498291,0.5633066296577454,-0.147794708609581,-0.18742409348487854,-0.02991124987602234,0.14783406257629395
6,-0.025622402371256695,0.5375204543809583,-2.89636452282408,-0.022006746381521225,-0.5120077133178711,-0.8586989045143127,0.3167390525341034,-0.3837120234966278,-0.07199675589799881,-0.13233590126037598,-0.1162271499633789,-0.06302344799041748
7,0.03572016288706615,0.4310655722691006,-2.96662980907529,0.03244561702013016,-0.4178391396999359,-0.907941460609436,-1.6778886318206787,0.9748886227607727,-1.5057584047317505,0.053583431988954544,0.0722275972366333,-0.5031760334968567
8,0.11580397672488867,0.41239261405558536,-3.055373921400673,0.10585851222276688,-0.40080249309539795,-0.9100282192230225,0.2726856768131256,1.408237099647522,0.14566674828529358,-0.06813877820968628,-0.04710400104522705,0.34572768211364746
9,0.2607458688072359,0.5773553567749612,-3.0738742536765495,0.21601402759552002,-0.5458098649978638,-0.8095860481262207,5.292708873748779,1.6581000089645386,1.3006253242492676,0.1597336381673813,-0.05839240550994873,-0.011413097381591797
10,0.9317603488790103,1.1515387624016404,2.5911073297861624,0.3267532289028168,-0.9133914113044739,-0.24279282987117767,6.386231422424316,-0.021919813007116318,-1.4881774187088013,-0.043519556522369385,0.5091403722763062,0.27877306938171387
11,1.6191175717124997,0.9254322036658302,1.953570307127913,0.6007872819900513,-0.7988808155059814,0.029053404927253723,-1.353511929512024,1.2053190469741821,-4.053318977355957,0.048107922077178955,0.7696754932403564,0.3524925708770752
12,1.5641274279899802,0.488300044982395,2.1957103360098884,0.8831120729446411,-0.46912527084350586,-0.005889472551643848,-3.0264856815338135,1.4461629390716553,-6.458714485168457,0.06039988994598389,1.2465910911560059,-0.0753331184387207
13,1.6020548993839405,-0.10011941415293697,2.489667687013639,0.9945060014724731,0.09995223581790924,0.031096966937184334,-2.155033588409424,1.3039772510528564,-6.970915794372559,0.57939213514328,1.0143513679504395,-0.4948725700378418
14,1.695136902359772,-0.6511338877186078,2.7520059517478677,0.78925621509552,0.6060886979103088,0.09864546358585358,-3.089672327041626,-3.2537789344787598,-4.198324203491211,0.7237594723701477,-0.10242664813995361,-0.6466648578643799
15,1.78524862943647,-0.9569748897816426,-3.0693442609590162,0.562800943851471,0.8174528479576111,0.12257887423038483,-0.7531125545501709,-1.1549882888793945,-2.1598358154296875,0.868122398853302,-0.6370025873184204,-0.4053089916706085
16,1.7402356156710848,-1.0670825330344296,-2.990130833620565,0.4757691025733948,0.8757960200309753,0.08139441162347794,0.27514973282814026,-1.0680409669876099,-0.4207608997821808,1.0919036865234375,-0.6746242046356201,0.049449674785137177
17,1.5953777986732927,-0.9632175254120026,-3.1412721965187935,0.5707087516784668,0.8210326433181763,0.014031686820089817,1.5440566539764404,1.0397727489471436,2.785080909729004,1.2501072883605957,-0.43571776151657104,0.14690279960632324
18,1.5828915257571248,-0.5359982870918402,2.9020817551721234,0.8596963286399841,0.5106995701789856,0.01039870548993349,1.9983938932418823,2.73128080368042,4.79368782043457,0.41064363718032837,0.5965239405632019,0.1276170015335083
19,1.781544242540873,-0.16735674063366654,2.684184071785746,0.9642123579978943,0.16657660901546478,0.20626860857009888,0.9852097630500793,1.6330208778381348,3.1986522674560547,-0.13903236389160156,0.4917943477630615,-0.4563295841217041
20,1.7756269155957611,0.023206352742016035,2.5083013294135053,0.9788320064544678,-0.023204270750284195,0.20334656536579132,1.6686686277389526,-1.3841257095336914,1.220158576965332,-0.32148313522338867,0.7851213812828064,-0.6694720387458801
21,1.677394872770871,0.07465752148566725,2.4534437911586533,0.9915539026260376,-0.07458818703889847,0.10610038787126541,-1.2100034952163696,-1.0240716934204102,0.18713898956775665,-0.41818976402282715,0.7405732870101929,-0.40971970558166504
22,1.507710937111036,-0.030902389629354567,2.6734431913588423,0.9975343346595764,0.03089747205376625,-0.063013456761837,-3.4548144340515137,-2.194049596786499,-2.575780153274536,-0.09070450067520142,0.9270035028457642,-0.26132732629776
23,1.4346318963646323,-0.3345742770419754,2.8775644390693618,0.9358073472976685,0.32836708426475525,-0.12821707129478455,-1.896316409111023,-0.7659109234809875,-2.5878543853759766,0.49886971712112427,0.36966148018836975,-0.10470831394195557
24,1.396423562675361,-0.618670832020141,2.970966919146881,0.8022962808609009,0.5799528956413269,-0.14133399724960327,-1.0181386470794678,-0.5162862539291382,-1.9970649480819702,0.14384013414382935,-0.4874083399772644,0.20276589691638947
25,1.4629013372157078,-0.77955981853072,3.1008248710595305,0.7070871591567993,0.7029663920402527,-0.07658858597278595,-1.7005976438522339,-0.5104902982711792,-1.0591881275177002,0.2262623906135559,-0.44884663820266724,-0.14765459299087524
26,1.5593053591774138,-0.9144885629008555,-2.9369794425089726,0.6101557016372681,0.7922506332397461,-0.00701158819720149,-0.6349995136260986,0.3133951723575592,-1.0733755826950073,0.7451757192611694,-0.5068197250366211,-0.2850416302680969
27,1.5608383006918312,-0.868038242774119,-3.013529150686205,0.6462928056716919,0.7630624771118164,-0.006436013150960207,1.9298889636993408,0.812611997127533,2.0192534923553467,1.088021159172058,-0.4178171157836914,-0.3521607518196106
28,1.532891842232442,-0.5217830803382597,2.996165425320467,0.8663090467453003,0.49842673540115356,-0.03285273164510727,2.0931220054626465,1.7430123090744019,3.7960360050201416,0.39716440439224243,0.25787511467933655,-0.16262763738632202
29,1.6203669357146824,-0.16108572005136615,2.7618739166233652,0.9858412742614746,0.1603899598121643,0.048908818513154984,2.35671329498291,1.148122787475586,3.0324931144714355,-0.3176283836364746,0.4254865050315857,-0.23390638828277588
30,1.705241712696237,0.04618311505918647,2.537601517169019,0.9899191856384277,-0.04616669937968254,0.1338977962732315,1.632589340209961,1.079423189163208,1.365749478340149,-0.3711143136024475,0.6818631291389465,-0.1176319271326065
31,1.8073713189869534,0.09369531592382987,2.4850064627784505,0.9678823351860046,-0.09355828911066055,0.2333463728427887,-1.0102505683898926,1.0328766107559204,0.07142703980207443,-0.14563202857971191,0.7420263290405273,-0.2866605520248413
32,1.7545817585775823,0.01958582104617893,2.7350030252952564,0.9829702973365784,-0.019584568217396736,0.1827174872159958,-2.3686559200286865,-1.8458857536315918,-3.2220983505249023,-0.013640522956848145,0.9847182631492615,-0.4063960313796997
33,1.6127269095106418,-0.31644223166929386,2.749723585240479,0.9495134353637695,0.31118741631507874,0.03983699902892113,2.3663740158081055,-0.45467609167099,-3.1643548011779785,0.3974868059158325,0.29440343379974365,0.2935217618942261
34,1.544048922436324,-0.5799811018390166,2.7319018294940456,0.8361737132072449,0.548008143901825,-0.02237081155180931,-1.854107141494751,-1.4569151401519775,-1.9263942241668701,0.0014879703521728516,-0.4522287845611572,0.1733565330505371
35,1.5824880666696235,-0.7325747542809957,2.870125539266807,0.7434041500091553,0.6687860488891602,0.00869208388030529,-0.8017617464065552,0.1710614114999771,-1.4220463037490845,0.05189919471740723,-0.27956485748291016,-0.023218512535095215
36,1.6907064453097227,-0.8808498649624985,3.052746715415914,0.6319255232810974,0.7712801098823547,0.07613953948020935,-0.8916772603988647,-0.6269189119338989,-1.6754621267318726,0.6672534942626953,-0.32157307863235474,-0.1511974334716797
37,1.7098407774494107,-0.9425278409433666,-3.1297405934917797,0.5820721983909607,0.8090463876724243,0.08145955204963684,1.362311601638794,-0.6938565969467163,0.595436155796051,1.152440071105957,-0.34887194633483887,-0.15232133865356445
38,1.5108978522314966,-0.7048359855043161,2.7342114661952444,0.7603517174720764,0.6479089260101318,-0.045598454773426056,2.5456619262695312,2.95007586479187,3.2892048358917236,0.5198453664779663,0.09737604856491089,0.24768590927124023
39,1.6532258074807757,-0.4131720342762266,2.531043582299057,0.9127421975135803,0.40151646733283997,0.0754077285528183,0.9374056458473206,1.3460707664489746,2.7719995975494385,-0.16561084985733032,0.032046765089035034,-0.253493070602417
40,1.7243692584695947,-0.1679508292488288,2.4448987338064354,0.9743258953094482,0.16716235876083374,0.1508176177740097,0.4751904010772705,1.3977630138397217,2.109152317047119,-0.32291293144226074,0.44894176721572876,-0.1434781551361084
41,1.868538167305875,-0.04605164486452729,2.432944515618458,0.9549880623817444,0.046035367995500565,0.29305118322372437,-1.1007733345031738,0.938247799873352,-0.03401894494891167,0.10456722974777222,0.9357609152793884,-0.36585086584091187
42,1.779040757415367,-0.08203212588886133,2.6765693784943467,0.9751052856445312,0.08194015175104141,0.20604735612869263,-1.923082709312439,-2.1107327938079834,-2.208049774169922,-0.03023529052734375,0.8551783561706543,-0.1926196813583374
43,1.6965377357228624,-0.364059464185141,2.6911856609431184,0.9270813465118408,0.35607054829597473,0.11719080060720444,0.9769543409347534,-0.8854555487632751,-2.716003179550171,0.07441389560699463,0.0919579565525055,0.07581757009029388
44,1.5816430233465268,-0.575573270414056,2.7909828662092253,0.8388311862945557,0.5443158149719238,0.009098904207348824,-1.4591805934906006,-1.3005253076553345,-1.3970531225204468,-0.2128850221633911,-0.39934200048446655,0.10468590259552002
45,1.604379204013871,-0.6719562558063936,3.012353001493481,0.7821640372276306,0.6225181818008423,0.026277197524905205,-2.7785074710845947,-1.6190999746322632,-0.8871653079986572,0.1897597312927246,-0.3109947443008423,-0.10731661319732666
46,1.6670126842162274,-0.7349669065348,-2.9884112124828284,0.7384215593338013,0.6705626249313354,0.07126829773187637,-1.0288113355636597,-0.7672109007835388,-0.29462090134620667,0.7843902707099915,-0.5524596571922302,-0.25699830055236816
47,1.6245848799707996,-0.68228683565036,-2.969328221282023,0.7750104665756226,0.630569577217102,0.041726939380168915,1.2690166234970093,-0.14482836425304413,1.6275415420532227,0.960097074508667,-0.3580628037452698,-0.250238299369812
48,1.496311247929825,-0.3933606709936588,3.1209344323643484,0.921065092086792,0.38329458236694336,-0.06873276084661484,1.7612345218658447,-0.7814934253692627,3.4263155460357666,0.526581883430481,-0.010903894901275635,-0.38073015213012695
49,1.254707584176891,0.060331483759838045,3.0467233278253882,0.9487292766571045,-0.06029488891363144,-0.31028589606285095,1.081526517868042,-4.214649677276611,4.61442756652832,0.417985200881958,0.5408551692962646,-0.48893898725509644
50,0.7390570912512442,0.41847901490923567,-3.0809379204923157,0.6154658198356628,-0.40637117624282837,-0.675325334072113,0.02887328341603279,-5.187163352966309,3.3224937915802,0.2899906635284424,0.8497915863990784,0.16455262899398804
51,0.23383582660429103,0.5134725164165461,-2.8586160500003057,0.201830193400383,-0.4912049174308777,-0.8473383784294128,0.12759286165237427,-2.1150858402252197,1.7471972703933716,0.2716957926750183,0.4475647807121277,0.6033045649528503
52,0.11928927576425166,0.539249665005284,-2.7691441090501496,0.1021188423037529,-0.5134922862052917,-0.851996123790741,-0.07623034715652466,0.779643177986145,0.7304587364196777,0.2697988748550415,0.021426916122436523,0.25690340995788574
53,0.188350147527038,0.4673797864341333,-2.761140862339562,0.16715750098228455,-0.4505486488342285,-0.8769630789756775,-2.0933454036712646,0.48315590620040894,-0.4746437072753906,0.13374580442905426,-0.11475896835327148,0.32305383682250977
54,0.18867079449257734,0.2565298413799762,-2.69744854066946,0.18141598999500275,-0.25372549891471863,-0.9501113891601562,-1.1886262893676758,-0.04633127525448799,0.4965789020061493,-0.11755797266960144,-0.029675990343093872,0.40538787841796875
55,0.051943787794852786,0.270313438446445,-2.6906925629475142,0.050035059452056885,-0.26703351736068726,-0.9623874425888062,0.49739542603492737,-2.7112724781036377,-0.624515175819397,0.046675145626068115,-0.038050711154937744,0.25567662715911865
56,-0.4613136694919283,0.3817756445431758,-2.7868728872798623,-0.4130778908729553,-0.37256887555122375,-0.8309988975524902,-0.37353822588920593,-5.022207736968994,-1.1360037326812744,0.14838367700576782,-0.10303235054016113,0.09422826766967773
57,-0.976585821280181,0.46407087694197324,-2.7693670638592685,-0.7409572005271912,-0.4475921392440796,-0.5006433129310608,-0.08636011928319931,-4.459367752075195,-0.3231052756309509,-0.31340980529785156,-0.11268004775047302,-0.3293737769126892
58,-1.2473055579569337,0.47100087251549216,-2.7679124377881417,-0.8448939323425293,-0.4537784159183502,-0.2832659184932709,0.2141731232404709,-2.5336523056030273,0.10648393630981445,0.18676698207855225,0.16334253549575806,0.24507316946983337
59,-1.2850754724520812,0.3524541356655862,-2.8396694774994202,-0.9004793167114258,-0.34520211815834045,-0.264523446559906,-1.6217124462127686,-0.7163240909576416,0.07120998948812485,0.21737372875213623,0.17172491550445557,-0.028445333242416382
60,-1.2996944490118456,0.3842390618150241,-2.9180234837967802,-0.8932235240936279,-0.37485378980636597,-0.2482668161392212,0.5987573862075806,-0.6901795864105225,-0.735416054725647,0.4364669919013977,-0.21238070726394653,-0.1704038381576538
61,-1.3229752198588876,0.37680200513326517,-2.833711164394926,-0.9014384746551514,-0.3679487109184265,-0.228083997964859,0.2647811472415924,1.9082679748535156,0.15799304842948914,0.3660534620285034,0.2662641704082489,-0.1559949815273285
62,-0.8273195353648065,0.45098188188322014,-2.978153629101945,-0.6625221967697144,-0.43584945797920227,-0.6091794967651367,-1.3842012882232666,6.208737850189209,-0.7508216500282288,0.42192161083221436,0.6854374408721924,-0.6154603958129883
63,-0.3334918507083776,0.07799319353769091,-2.8938134655792322,-0.3263493776321411,-0.07791414856910706,-0.9420326352119446,-4.386794567108154,2.720608711242676,4.7176289558410645,-0.5883692502975464,1.0549496412277222,-1.0214378833770752
64,-0.050486412015564114,-0.5013450795080687,-2.6568337829121496,-0.044254593551158905,0.48060551285743713,-0.8758195042610168,-4.3101725578308105,1.6938413381576538,0.9756531715393066,-0.8374897837638855,-0.17655891180038452,-0.3755384683609009
65,0.011371420361679744,-0.7311419446490928,-2.644312804295895,0.008464843966066837,0.6677201390266418,-0.7443642616271973,-0.5944440364837646,-0.3326517641544342,0.17407667636871338,-0.47184374928474426,-0.38395243883132935,-0.32945775985717773
66,0.07254586247952051,-0.8334690932625525,-2.5379232744589295,0.04873066768050194,0.7402681112289429,-0.670543372631073,-1.3935658931732178,-0.39067789912223816,0.7149698138237,-0.5444887280464172,-0.5638460516929626,-0.511768639087677
67,-0.018085446185952495,-0.8822067030246298,-2.636562648417619,-0.011491748504340649,0.7721430063247681,-0.6353448629379272,1.2704330682754517,-0.5308820605278015,-2.0747289657592773,-0.6761302947998047,-0.5433069467544556,-1.2753607034683228
68,-0.30140297056489757,-0.5476994310055987,-2.990272598926612,-0.2534369230270386,0.5207245349884033,-0.8152396082878113,3.8637373447418213,-0.5117602348327637,-4.069179534912109,-0.22517025470733643,0.20068049430847168,-0.682166337966919
69,-0.37939396177022267,-0.1453092742737044,3.047800922197332,-0.36645445227622986,0.14479845762252808,-0.9190998673439026,2.3654115200042725,0.5220690965652466,-3.000180244445801,0.08079466223716736,0.2902448773384094,0.10727125406265259
70,-0.33280557706074465,0.1407631071747792,2.9077899782058365,-0.32346466183662415,-0.14029870927333832,-0.9357814192771912,1.8730201721191406,0.8057683110237122,-2.0231924057006836,0.0014279186725616455,0.618097186088562,0.18938249349594116
71,-0.17869989707044023,0.35976090999505556,2.772270202563559,-0.1663709282875061,-0.35205045342445374,-0.9210761189460754,1.4733984470367432,1.1851310729980469,-1.1732739210128784,-0.3089250922203064,0.7984768152236938,0.01239997148513794
72,-0.1530450531705383,0.48982315521536707,2.7787676340597303,-0.13452282547950745,-0.4704698324203491,-0.872101902961731,1.0279451608657837,-0.46277374029159546,0.9239997863769531,-0.16480882465839386,1.0775102376937866,-0.08737069368362427
73,-0.2593903545691916,0.3738265484555476,2.938592852985701,-0.23877723515033722,-0.3651803731918335,-0.8997937440872192,-2.4647135734558105,-0.3861420154571533,2.266432046890259,0.13590246438980103,0.710532546043396,-0.06547725200653076
74,-0.30102837976770286,-0.046593732122612204,3.0694534650006937,-0.29618069529533386,0.04657687619328499,-0.9539955854415894,-5.04392147064209,-0.18740494549274445,2.2585010528564453,0.09329986572265625,0.10854397714138031,-0.27717506885528564
75,-0.27935942446682877,-0.46334301698140323,-3.1186971720500885,-0.24666686356067657,0.4469411373138428,-0.859883189201355,-2.139552116394043,-0.013803567737340927,1.9425824880599976,-0.11583617329597473,-0.4217946529388428,-0.32722008228302
76,-0.14756709468465556,-0.6094547801965827,-2.9081705132926237,-0.12056047469377518,0.5724204778671265,-0.811048686504364,-0.5139328837394714,0.2847599387168884,2.4358901977539062,-0.3546287417411804,-0.27362293004989624,-0.361131489276886
77,-0.021645632415188024,-0.7240638737588023,-2.748360877945448,-0.016213906928896904,0.662434458732605,-0.7489443421363831,-0.9126332402229309,-0.21959316730499268,0.5200362205505371,-0.6586976051330566,-0.5990647077560425,-0.7445400953292847
78,-0.14108817116552722,-0.6764477618003012,-2.857757172775434,-0.10965611040592194,0.6260269284248352,-0.7720530033111572,1.7805312871932983,-0.3575432300567627,-2.0322744846343994,-0.29549527168273926,-0.5095260739326477,-0.5086324214935303
79,-0.27279654634125733,-0.33451540090271414,-3.138738380235772,-0.25449123978614807,0.3283114731311798,-0.9096404910087585,2.9409844875335693,0.28611066937446594,-3.3977599143981934,-0.15900668501853943,0.08831450343132019,-0.33364564180374146
80,-0.33053385717214856,0.03992842562835997,2.9867433754588792,-0.32428935170173645,-0.03991781547665596,-0.945115327835083,3.3205771446228027,-0.839176595211029,-1.5045965909957886,0.09014323353767395,0.42634665966033936,0.10247921943664551
81,-0.370000027815767,0.31559348962534317,2.93889669134409,-0.3437561094760895,-0.3103806972503662,-0.8862818479537964,1.486335277557373,0.09915196895599365,-1.3341172933578491,0.19006958603858948,0.8185288906097412,0.1846674680709839
82,-0.32586380489534755,0.40452893879741497,2.9080858505418083,-0.29428911209106445,-0.39358577132225037,-0.8709099292755127,-0.44259336590766907,0.21063706278800964,0.5776218175888062,0.21225786209106445,0.8685003519058228,0.0938713550567627
83,-0.339601101308669,0.17260740594744084,3.0716129791374134,-0.3281610608100891,-0.17175158858299255,-0.9288765788078308,-2.7251322269439697,0.7934070229530334,3.4147379398345947,0.1336572766304016,0.7088457345962524,-0.2573722004890442
84,-0.27058817783164013,-0.24143890662456238,-3.0544966123122417,-0.2595452666282654,0.23910003900527954,-0.935664176940918,-4.2314043045043945,0.4192507266998291,1.577926754951477,-0.19696718454360962,0.02582305669784546,-0.46248340606689453
85,-0.22003764240784504,-0.5426694557908808,-2.983853494888223,-0.18690872192382812,0.516423761844635,-0.8356863260269165,-1.0187971591949463,0.09189207851886749,1.484964370727539,-0.09151840209960938,-0.43588787317276,0.0877615213394165
86,-0.10488583417492912,-0.6088434685091395,-2.8209953022480643,-0.08588123321533203,0.5719191431999207,-0.8158019781112671,-0.5806703567504883,0.4083788990974426,1.662279486656189,-0.26377391815185547,-0.30411213636398315,0.059866368770599365
87,0.05514814207055287,-0.7310043940357598,-2.6316196307470374,0.041037216782569885,0.6676177382469177,-0.74337238073349,-1.0260339975357056,0.33777934312820435,0.885287344455719,-0.8100954294204712,-0.5614013671875,-0.8357901573181152
88,-0.07690781195869653,-0.710362323607058,-2.7641924689316113,-0.05824832245707512,0.6521084904670715,-0.7558846473693848,1.372370719909668,-1.3494013547897339,-2.9824039936065674,-0.4839574694633484,-0.45639926195144653,-0.7058920860290527
89,-0.32279752840814974,-0.38814804326444696,-3.1096664190564565,-0.29362326860427856,0.3784748613834381,-0.8778052926063538,2.770810127258301,0.0019246852025389671,-3.6424238681793213,-0.08198708295822144,0.2041209638118744,-0.26088184118270874
90,-0.3759966764018192,-0.07743253414204239,2.9314518732312385,-0.36609947681427,0.07735517621040344,-0.9273550510406494,1.6818172931671143,0.05199745297431946,-2.5984387397766113,0.10808861255645752,0.33092424273490906,0.2686636447906494
91,-0.32881008207406587,0.12882390806992333,2.7671568454773308,-0.3202412724494934,-0.1284678876399994,-0.9385848641395569,1.252071499824524,1.005394458770752,-1.602611780166626,0.08943682909011841,0.4886821210384369,0.19781643152236938
92,-0.22294473102432855,0.29269545174801737,2.7501429377433393,-0.21169885993003845,-0.2885340750217438,-0.9337728023529053,1.5933030843734741,0.8409688472747803,0.6225038766860962,-0.23127903044223785,0.7974146604537964,-0.06876015663146973
93,-0.3159613958310214,0.26602591755649013,2.96926802883537,-0.29979994893074036,-0.262899249792099,-0.9170626997947693,-2.1190497875213623,-0.6715167760848999,3.0181500911712646,0.11699965596199036,0.7937830686569214,0.06603425741195679
94,-0.3566076068131472,-0.10954359148845304,3.0161420822352176,-0.34700483083724976,0.10932464152574539,-0.9314696788787842,-4.05930233001709,0.2278289943933487,0.6885780692100525,0.20020002126693726,0.1928451657295227,-0.2976410388946533
95,-0.3437951057724915,-0.4472932414119109,3.0797259497581115,-0.3039027154445648,0.4325266480445862,-0.8488603234291077,-1.2130385637283325,-0.4662514626979828,2.5350286960601807,0.06652176380157471,-0.40478619933128357,0.016783297061920166
96,-0.22942495709662894,-0.5567647532409348,-2.976088532247283,-0.19307053089141846,0.5284423232078552,-0.8267239332199097,-0.5735275149345398,0.5704692602157593,2.0642948150634766,-0.15757644176483154,-0.17590326070785522,-0.012662053108215332
97,-0.05915405266419164,-0.7367929652313223,-2.848916985280499,-0.04378555715084076,0.671916127204895,-0.739331841468811,-1.9165434837341309,1.3684011697769165,0.45842018723487854,-0.44144392013549805,-0.6253921389579773,-0.554003119468689
98,-0.08305222403927112,-0.7465976538663979,-2.917953392071533,-0.06089059263467789,0.679145336151123,-0.7314738035202026,1.0327256917953491,-0.8199297189712524,-1.8131159543991089,-0.4988780915737152,-0.520911693572998,-0.8032552003860474
99,-0.2638071345472302,-0.43922938052144267,3.053342971867241,-0.23600661754608154,0.4252421259880066,-0.8737676739692688,3.1816964149475098,0.8614139556884766,-3.8376357555389404,-0.17538559436798096,0.06560260057449341,-0.3037225008010864
100,-0.272159109424197,-0.03593629960865122,2.8285962805095313,-0.26863813400268555,0.03592856600880623,-0.9625709056854248,3.3957581520080566,-0.26528069376945496,-1.9723587036132812,-0.07935377955436707,0.3182736933231354,0.1045691967010498
101,-0.3095737154208855,0.27377175671203197,2.7553552521318125,-0.29330676794052124,-0.2703646421432495,-0.9169918894767761,1.969908595085144,-0.12381813675165176,-1.4032021760940552,0.05147022008895874,0.788110613822937,0.17819184064865112
102,-0.25869937106290586,0.41354964096012253,2.7047364202320656,-0.2342575341463089,-0.4018622636795044,-0.8852288722991943,0.02771756425499916,0.42537450790405273,0.0304444320499897,-0.002177402377128601,0.9340125322341919,-0.050058603286743164
103,-0.328910403791045,0.24800833311481685,2.858719935524193,-0.31312891840934753,-0.245473712682724,-0.917438268661499,-3.0932822227478027,-0.5256796479225159,3.255781412124634,0.12112757563591003,0.6958979368209839,-0.14646553993225098
104,-0.3613142150318311,-0.1895348510542616,2.9111305895675614,-0.3471733331680298,0.18840210139751434,-0.918681263923645,-3.985067844390869,0.047594428062438965,0.8539276123046875,0.07384267449378967,0.06626707315444946,-0.3922927975654602
105,-0.35609505200323605,-0.49185172332361987,2.974313019556658,-0.30729183554649353,0.47225892543792725,-0.826161801815033,-0.8627621531486511,-0.4345693290233612,2.1949305534362793,0.03498351573944092,-0.37213075160980225,0.12441009283065796
106,-0.2898168035161704,-0.5882488203479935,3.135808924566478,-0.23774152994155884,0.5549050569534302,-0.7972198128700256,-0.7220234870910645,0.01549522578716278,1.521712064743042,-0.10622210800647736,-0.2813607454299927,0.06803280115127563
107,-0.15327759392357937,-0.7327833031480447,-2.938962637606381,-0.11348799616098404,0.668941080570221,-0.7346007823944092,-1.3581968545913696,0.11446774750947952,2.037731647491455,-0.47734758257865906,-0.29661136865615845,-0.4521057605743408
108,-0.14323339708041008,-0.7906648239573636,-2.9209969721411375,-0.1004023626446724,0.7108210325241089,-0.6961700916290283,0.19894981384277344,-0.2153635323047638,-2.4993865489959717,-0.6302037239074707,-0.6167505979537964,-0.9225280284881592
109,-0.32757082957759664,-0.5140517184267157,3.010262555057716,-0.280161589384079,0.4917093515396118,-0.8244582414627075,3.2024548053741455,0.9491294622421265,-3.110776424407959,-0.15836074948310852,0.034657835960388184,-0.4725998640060425
110,-0.32274038804316924,-0.12420747114158932,2.8595287030633174,-0.31472325325012207,0.12388835102319717,-0.9410637617111206,3.202188730239868,-0.09320677816867828,-2.047839641571045,-0.02623438835144043,0.2939430773258209,0.1187981367111206
111,-0.32867933354612683,0.16861134752010676,2.7871505726898,-0.3182157278060913,-0.16781355440616608,-0.933047354221344,1.9160218238830566,0.33178120851516724,-1.4682981967926025,0.06528604030609131,0.6640141010284424,0.3313475251197815
112,-0.2493584488301838,0.3419217435160796,2.7196150299628656,-0.23249657452106476,-0.33529821038246155,-0.9129734039306641,0.7447306513786316,0.5156344771385193,-0.18044447898864746,-0.07577675580978394,0.8906876444816589,0.06818580627441406
113,-0.2985848738627295,0.28782128999041356,2.839451895864055,-0.28206726908683777,-0.2838638126850128,-0.9164384603500366,-1.352687954902649,-0.5038576722145081,2.5451407432556152,0.11805054545402527,0.8386123180389404,-0.06358778476715088
114,-0.34709000127337997,-0.053315700754610916,3.0539281702773566,-0.33967944979667664,0.05329044535756111,-0.9390303492546082,-3.409329414367676,0.01658445969223976,2.673684597015381,-0.07108718156814575,0.5104913115501404,-0.35967570543289185
115,-0.3516318329043556,-0.47446051579486276,3.072639954139266,-0.30638426542282104,0.45685863494873047,-0.8351101279258728,-3.0405004024505615,-0.44365113973617554,1.4190497398376465,-0.014462292194366455,-0.512660026550293,-0.2214389443397522
116,-0.33224657040069494,-0.6701642428365172,-3.111033658915543,-0.2556239366531372,0.6211147308349609,-0.7408596277236938,0.0031888987869024277,0.10295584052801132,1.252608060836792,-0.06050765514373779,-0.43834495544433594,-0.13818395137786865
117,-0.1814456292931962,-0.7246467983476987,-2.8991329224405407,-0.13511022925376892,0.6628710031509399,-0.7364423274993896,-0.3589140474796295,0.18034668266773224,1.6159822940826416,-0.3908602297306061,-0.2507464289665222,-0.34734368324279785
118,-0.14873839823173413,-0.7775684472055927,-2.8952962076366275,-0.10560379922389984,0.70154869556427,-0.7047533392906189,0.3149622678756714,0.02978900447487831,-1.8952940702438354,-0.7420982122421265,-0.4189712405204773,-1.1166882514953613
119,-0.3240255142771946,-0.5410589541436439,3.1168069049892795,-0.27290821075439453,0.5150439739227295,-0.8125581741333008,3.098445415496826,0.2821369171142578,-2.7447669506073,-0.14953136444091797,-0.06346017122268677,-0.4953947067260742
120,-0.33954787803174985,-0.1574401359174769,2.9360990178103212,-0.3289414942264557,0.15679052472114563,-0.931243360042572,2.5670297145843506,0.2805727422237396,-2.83651065826416,-0.03922256827354431,0.2577449679374695,0.1529383659362793
121,-0.33096396028541747,0.10685388815356124,2.796841994610629,-0.3231014609336853,-0.10665066540241241,-0.9403356313705444,1.7189644575119019,0.2676587998867035,-1.6010764837265015,0.10329863429069519,0.4418862462043762,0.30401360988616943
122,-0.2544343878391971,0.3003019409967456,2.7446457991967623,-0.24043385684490204,-0.2958086431026459,-0.9244937896728516,1.7453312873840332,0.7769534587860107,-0.3567661643028259,-0.13317757844924927,0.7599047422409058,-0.0019282698631286621
123,-0.29520675631381155,0.4288580837070007,2.859132475098114,-0.26459071040153503,-0.4158325791358948,-0.8701006174087524,0.24729710817337036,-0.3468014895915985,2.2605316638946533,0.13020655512809753,0.9279327988624573,-0.06326425075531006
124,-0.3432942985387845,0.14133313993314975,3.033813940056705,-0.33323487639427185,-0.1408630907535553,-0.9322618246078491,-3.219773530960083,0.6260181665420532,1.7688114643096924,0.03863343596458435,0.4912201464176178,-0.3346296548843384
125,-0.3086186429176498,-0.14963127570886114,3.0362600205420027,-0.30034884810447693,0.1490735411643982,-0.9421080946922302,-2.4874749183654785,-0.1371530294418335,1.1665328741073608,0.09963473677635193,-0.4326581358909607,-0.2574921250343323
126,-0.2924838130805046,-0.29961179440043545,-3.062881424118733,-0.27548661828041077,0.2951493263244629,-0.9148737788200378,-0.04969196394085884,-0.09700041264295578,2.7869396209716797,0.08490434288978577,-0.3173508644104004,0.21675366163253784
127,-0.16383321477949436,-0.36893002920806367,-2.783371007910945,-0.15212680399417877,0.36061766743659973,-0.9202240705490112,-0.5253748893737793,0.7914988994598389,2.4884629249572754,-0.3086581230163574,-0.20210933685302734,0.12183845043182373
128,-0.030307658898990928,-0.5135252734560314,-2.6448197782831038,-0.026394478976726532,0.4912508726119995,-0.8706181049346924,-1.4212524890899658,0.42752277851104736,-0.46003785729408264,-0.8507112264633179,-0.576501727104187,-0.6306941509246826
129,-0.1819277373349335,-0.5005002934396799,-2.8023748035327207,-0.15873393416404724,0.47986453771591187,-0.8628636002540588,1.152812123298645,-1.43068528175354,-2.494849920272827,-0.35892045497894287,-0.44827884435653687,-0.5819606184959412
130,-0.3691383311568701,-0.20710712536740547,-3.122669315933644,-0.35310134291648865,0.20562970638275146,-0.9127079844474792,2.0098745822906494,0.09896112233400345,-4.461441993713379,-0.026094824075698853,0.22068558633327484,-0.22065383195877075
131,-0.39617840622867095,0.09514193462211656,2.9007292875654045,-0.38415035605430603,-0.09499846398830414,-0.9183701872825623,1.7982194423675537,-0.42684489488601685,-2.278200387954712,0.20040398836135864,0.30354034900665283,0.22966474294662476
132,-0.37311956273681157,0.28283011835358784,2.8068062842596735,-0.3500394821166992,-0.27907443046569824,-0.8941978812217712,1.0480095148086548,0.8046045303344727,-1.042371392250061,0.15579509735107422,0.5639865398406982,0.18249744176864624
133,-0.27650743413398193,0.3682476199047902,2.8218109113889063,-0.2546955645084381,-0.35998108983039856,-0.897520899772644,-0.04437024146318436,0.7237842679023743,0.9597510695457458,-0.13074147701263428,0.7563281059265137,-0.12077438831329346
134,-0.3457243861629191,0.23455389647463049,3.016559374632306,-0.32959917187690735,-0.23240911960601807,-0.915068507194519,-2.1397488117218018,-0.3497292697429657,2.760118246078491,0.05219438672065735,0.6396204233169556,-0.07072556018829346
135,-0.3781776230034377,-0.09581872382182324,3.0920413515490317,-0.367533802986145,0.09567216783761978,-0.9250760674476624,-3.4012722969055176,0.03190963715314865,0.8109859824180603,0.03367149829864502,0.19955489039421082,-0.35339683294296265
136,-0.3821429639779695,-0.4383505770227344,3.135858180812124,-0.3376522362232208,0.42444658279418945,-0.8401405215263367,-1.557542085647583,-0.6663068532943726,2.376157760620117,0.041814833879470825,-0.46137282252311707,0.040488481521606445
137,-0.307372365220268,-0.5567642593410796,-2.9416115785147965,-0.2568601369857788,0.5284419059753418,-0.8091798424720764,-0.37453389167785645,0.16164018213748932,1.917445421218872,-0.1546236276626587,-0.2281031608581543,-0.08820480108261108
138,-0.18645214678693076,-0.7085675981653978,-2.744439276776771,-0.14075329899787903,0.6507468223571777,-0.7461348176002502,-1.8961963653564453,0.29387563467025757,0.9599769711494446,-0.43212267756462097,-0.46210241317749023,-0.508091926574707
139,-0.2661733735429008,-0.7626949340211364,-2.905736036696391,-0.19017289578914642,0.690872311592102,-0.6975167989730835,1.563401699066162,0.1546415388584137,-2.4903552532196045,-0.40533187985420227,-0.6486360430717468,-0.9967886209487915
140,-0.3446334457851823,-0.4225954162766653,-3.103452207654427,-0.30813005566596985,0.4101289212703705,-0.8583997488021851,3.3129687309265137,0.7371821999549866,-2.807764768600464,-0.21852701902389526,0.15247789025306702,-0.45800650119781494
141,-0.31908135184253794,-0.053012956385230646,3.007413962239706,-0.3132537305355072,0.05298813059926033,-0.9481900334358215,2.4351961612701416,0.22684402763843536,-2.1788647174835205,-0.07613533735275269,0.2979945242404938,0.15464144945144653
142,-0.3062774717491401,0.21497094893003085,2.9204823069812997,-0.2945714294910431,-0.21331904828548431,-0.9315163493156433,2.0720694065093994,0.26712334156036377,-1.3960410356521606,0.02764943242073059,0.6074841022491455,0.2808510661125183
143,-0.2382366619729491,0.4173977722729894,2.876054763817235,-0.21572904288768768,-0.40538302063941956,-0.888327419757843,1.4341553449630737,0.45318078994750977,-0.15221717953681946,-0.12168857455253601,0.8583096265792847,0.10938149690628052
144,-0.2766759586100416,0.42685528743454,2.9680347389253905,-0.24864953756332397,-0.41401031613349915,-0.8756533861160278,-1.2593936920166016,-0.2959437668323517,1.9251830577850342,0.01900474727153778,0.8751003742218018,-0.17993438243865967
145,-0.32633070769339195,0.11633170071629785,3.119583508108218,-0.31840285658836365,-0.1160694882273674,-0.9408227801322937,-2.9214906692504883,-0.06557853519916534,2.0275909900665283,-0.013842016458511353,0.347179114818573,-0.4445074200630188
146,-0.3711871965239481,-0.19447569070011983,-3.076996705307771,-0.3558844029903412,0.19325213134288788,-0.9143303036689758,-1.076304316520691,-0.47383373975753784,2.8729991912841797,0.2771490514278412,-0.4994502663612366,-0.02181166410446167
147,-0.277055842110015,-0.31345059785429874,-2.7687561425602416,-0.2601975202560425,0.30834293365478516,-0.9149982929229736,0.5049173831939697,0.9237497448921204,2.1852309703826904,-0.12598717212677002,-0.11734867095947266,0.10739636421203613
148,-0.03687742103148735,-0.2506495918497279,-2.639627720507632,-0.035716962069272995,0.2480333000421524,-0.9680928587913513,-0.027622131630778313,1.9774366617202759,1.598057508468628,-0.3431130051612854,-1.2310807704925537,-0.3819132447242737
149,0.038208731304742526,-0.1406609778638874,-2.5346727527212076,0.03782216086983681,0.14019758999347687,-0.9894008636474609,1.940609335899353,-1.2333275079727173,-0.1257234811782837,-0.9378771185874939,-0.917251467704773,-1.1689395904541016
150,-0.0434752804618663,0.04933470215605033,-2.7705484131857108,-0.04340870678424835,-0.04931469261646271,-0.9978395104408264,1.7147481441497803,-0.6863904595375061,-3.420416831970215,-0.5969111323356628,0.4877149760723114,-0.8145536184310913
151,0.028780360449204363,0.2637769323901048,3.1243625435864275,0.02778107300400734,-0.2607286870479584,-0.9650123119354248,2.6922078132629395,0.4994654059410095,-3.142519235610962,-0.28144317865371704,0.7046068906784058,-0.2516930103302002
152,0.11836886478223102,0.5575884348800914,2.870522937589493,0.10020557790994644,-0.5291414260864258,-0.8425961136817932,2.637401819229126,-0.39769431948661804,-1.8299224376678467,-0.11842458695173264,1.1529054641723633,0.3057461380958557
153,0.25440863090543575,0.6602475301800673,2.557777623075239,0.19878160953521729,-0.6133123636245728,-0.7644173502922058,1.8197050094604492,-0.3792155981063843,-1.985133171081543,0.20772778987884521,0.49182194471359253,0.028043389320373535
154,0.4611381153653039,0.8188064394876491,2.1993426590240346,0.30395445227622986,-0.7303310632705688,-0.6117420196533203,1.7035231590270996,-0.208845853805542,-1.304591417312622,0.35527098178863525,0.5723568201065063,0.2718524932861328
155,0.4678107469007393,0.8317828566076392,2.157930132634766,0.30373018980026245,-0.7391334176063538,-0.6011902093887329,-0.5913769006729126,-0.3472177982330322,0.9894296526908875,0.20766809582710266,0.9924903512001038,0.3391357660293579
156,0.1384362400227083,0.7550374550133068,2.6158211778509295,0.1004939153790474,-0.6853159666061401,-0.721278727054596,-2.330160140991211,0.0975373387336731,3.949758768081665,-0.04113723337650299,1.4048136472702026,0.21590769290924072
157,-0.12486239005544207,0.40300641511133334,-3.1026745428450533,-0.11456095427274704,-0.39218565821647644,-0.9127246141433716,-4.355147361755371,0.6120648980140686,4.294351100921631,-0.6883870363235474,1.0668072700500488,-0.6451214551925659
158,-0.1828889205323314,-0.12846032770944402,-2.727599072873892,-0.18037250638008118,0.12810730934143066,-0.9752201437950134,-4.917717933654785,-0.8627563714981079,4.441752910614014,-0.7618882656097412,0.37270140647888184,-0.8917384743690491
159,-0.07789819565351579,-0.6562064043990393,-2.382752948677103,-0.06165730580687523,0.6101155281066895,-0.7899097204208374,-4.446625232696533,0.4209875166416168,2.4501073360443115,-1.075198769569397,-0.06058549880981445,-1.375083565711975
160,0.031570014352411586,-1.0488577779292065,-2.283804525038579,0.015736976638436317,0.8668543100357056,-0.4983130097389221,-2.6298110485076904,0.11105836927890778,-0.6223837733268738,-0.773671567440033,-1.2313563823699951,-1.456887125968933
161,-0.3450367491102993,-1.0237048030292868,-2.6840221918274785,-0.1759497970342636,0.8540411591529846,-0.4895462393760681,2.6227617263793945,0.673884391784668,-2.946909189224243,-0.06985403597354889,-0.6545476913452148,-0.8118758797645569
162,-0.3678792012898574,-0.5562201445797966,-2.8961231283776345,-0.3054244816303253,0.5279799103736877,-0.7924349308013916,3.8997609615325928,0.9536536335945129,-2.8409457206726074,-0.24590611457824707,-0.005015432834625244,-0.1684415340423584
163,-0.3337660775395742,-0.19530453860915395,-2.9971253698436984,-0.32137539982795715,0.19406528770923615,-0.9268530011177063,2.921607732772827,0.8692688345909119,-2.0507709980010986,-0.30136629939079285,0.46578577160835266,-0.13100826740264893
164,-0.23080926678064698,0.15329685816278202,-3.0805404688522064,-0.2260826826095581,-0.1526971459388733,-0.962065577507019,3.5076732635498047,1.0003647804260254,-1.1222244501113892,-0.4213172197341919,0.9146142601966858,-0.11216843128204346
165,-0.257426394776564,0.3868185877943031,-3.027845386099234,-0.2357817441225052,-0.3772439658641815,-0.895596981048584,0.38881367444992065,-0.6365383267402649,0.5763470530509949,0.05670459568500519,1.323929786682129,0.269376277923584
166,-0.30729721779012775,0.17674294896359405,-2.9927596858379415,-0.2977713644504547,-0.17582419514656067,-0.9383059740066528,-3.275911331176758,-0.1608157902956009,1.367479681968689,0.2644003927707672,0.6171541810035706,0.09187042713165283
167,-0.31445280861242453,-0.19680898260222235,-2.9707217043219765,-0.303325355052948,0.1955409198999405,-0.932607889175415,-4.39971923828125,-0.5425925850868225,1.4765045642852783,-0.0703776478767395,0.1157231330871582,-0.31510329246520996
168,-0.3639801126998232,-0.6013428719917248,-2.969566487647573,-0.29354631900787354,0.5657503008842468,-0.7705564498901367,-2.243804454803467,-0.26770269870758057,1.1607016324996948,-0.05278238654136658,-0.4797670245170593,-0.2948732376098633
169,-0.2932366006525324,-0.7752978388807577,-2.8304902033637585,-0.20644471049308777,0.6999288201332092,-0.6837252974510193,-1.0475066900253296,-0.30189600586891174,1.9087339639663696,-0.19425110518932343,-0.48487144708633423,-0.3210660219192505
170,-0.23358107322686683,-0.917308242409308,-2.7660225570365733,-0.14072000980377197,0.7939680218696594,-0.5914495587348938,-0.829862117767334,0.5759822726249695,-0.851877748966217,-0.4411128759384155,-0.6921156048774719,-0.8655053377151489
171,-0.32240002003983265,-0.7814610254049656,-2.9431182573639547,-0.2249227911233902,0.7043173313140869,-0.673310399055481,2.0924642086029053,0.7859495282173157,-1.88258957862854,-0.249625563621521,-0.3959524631500244,-0.6502827405929565
172,-0.30660269595791195,-0.42642870869622845,3.136807781566149,-0.27479299902915955,0.4136219620704651,-0.8679894208908081,2.999567747116089,1.5294185876846313,-2.832798957824707,-0.26945745944976807,0.12354844808578491,-0.2845679521560669
173,-0.23052265976970363,-0.09036697563025416,2.9779583712615776,-0.2275540977716446,0.09024403244256973,-0.9695747494697571,2.9188201427459717,0.6518077254295349,-1.5815037488937378,-0.1979524940252304,0.2620813846588135,0.09300309419631958
174,-0.17157491562220126,0.2169771623917616,2.9096072390213426,-0.1667310893535614,-0.21527865529060364,-0.9622140526771545,2.707882881164551,0.6807927489280701,-1.036905288696289,-0.2210252583026886,0.7386398315429688,0.12072235345840454
175,-0.14011861691060024,0.42555982359907146,2.8961606985191777,-0.12720392644405365,-0.41283074021339417,-0.9018813371658325,1.0228722095489502,-0.4504980444908142,0.7107377648353577,0.00733087956905365,1.0624583959579468,0.24116051197052002
176,-0.25629610036352235,0.28619786589057367,3.040838563995578,-0.24318808317184448,-0.2823067903518677,-0.9279883503913879,-4.451610565185547,-0.5724400877952576,1.5954371690750122,-0.09581643342971802,1.0272408723831177,-0.2991997003555298
177,-0.31855350188539383,-0.1802571717030372,2.993047063276794,-0.30811870098114014,0.17928259074687958,-0.9343022108078003,-3.8301756381988525,-0.5293818116188049,0.8067866563796997,-0.04144492745399475,0.18509729206562042,-0.5166255235671997
178,-0.36387082536432447,-0.5497234379027642,3.062092665827551,-0.303460031747818,0.5224514603614807,-0.796841561794281,-2.1049633026123047,-1.271604299545288,2.807828187942505,-0.10382753610610962,-0.4328213334083557,-0.10089397430419922
179,-0.2587790911809702,-0.7671827097476062,-2.912259410586079,-0.18421483039855957,0.6941099166870117,-0.6958996057510376,-1.0512956380844116,-0.026449568569660187,2.982830047607422,-0.19177699089050293,-0.4193296432495117,-0.2784198522567749
180,0.08509014464488189,-0.9496426870095066,-2.5619731722369807,0.04946048930287361,0.8132076263427734,-0.5798680782318115,-1.3549659252166748,0.7290971279144287,0.8166311383247375,-0.6941748261451721,-0.6230831146240234,-0.757396936416626
181,-0.04174436281512421,-0.978323549043291,-2.7178223755708877,-0.023303871974349022,0.8295623660087585,-0.557927668094635,1.8025590181350708,-0.1552378386259079,-2.0717225074768066,-0.3179894685745239,-0.6009246706962585,-1.2136178016662598
182,-0.2627357926776301,-0.6786652223243858,-3.052083994422002,-0.20217165350914001,0.6277545690536499,-0.7516986131668091,3.8494465351104736,0.816807210445404,-4.102499008178711,-0.22235837578773499,-0.005119681358337402,-0.7744702100753784
183,-0.24912864282027916,-0.17928903104483127,2.888206354580516,-0.24260742962360382,0.17833004891872406,-0.9535931944847107,2.7587790489196777,1.8480234146118164,-3.301816463470459,-0.17653624713420868,0.26255738735198975,-0.13976001739501953
184,-0.13662348197935206,0.13346944457846566,2.742303318311245,-0.13498751819133759,-0.13307352364063263,-0.9818705916404724,2.8284125328063965,0.8437497019767761,-0.992327868938446,-0.2744515538215637,0.5543686747550964,0.11677354574203491
185,-0.030383846751954033,0.38932019064393064,2.665357411441322,-0.02810581773519516,-0.37955957651138306,-0.9247403144836426,2.0260069370269775,0.7636768221855164,-0.8128117918968201,-0.34408655762672424,0.8654604554176331,0.14060640335083008
186,0.01763663335685186,0.49367788337087787,2.6504383392333226,0.015529942698776722,-0.473867803812027,-0.8804590106010437,-0.03143688291311264,-0.03580325469374657,0.7224811911582947,-0.15673477947711945,1.1271119117736816,0.24302315711975098
187,-0.1386458625532589,0.29528256356377935,2.857912240532463,-0.13222070038318634,-0.29101020097732544,-0.9475393295288086,-3.8363935947418213,-1.1159886121749878,3.2224273681640625,-0.00854162871837616,0.8118536472320557,-0.2453317642211914
188,-0.28395782438917744,-0.18901032652257704,3.0419589398890885,-0.2751677334308624,0.18788693845272064,-0.9428579807281494,-4.564430236816406,-1.035347819328308,1.949917197227478,-0.037515342235565186,0.10529541969299316,-0.6120736002922058
189,-0.3404846734729559,-0.595473843958439,-3.1009958754457125,-0.2764664590358734,0.5609011054039001,-0.7803564667701721,-1.7072581052780151,-1.0417237281799316,3.080034017562866,-0.0450361967086792,-0.5217470526695251,-0.15831845998764038
190,-0.1938469791826133,-0.7004826861935904,-2.8196810569490194,-0.1472756415605545,0.6445868015289307,-0.750211775302887,0.08916456252336502,0.48872363567352295,1.6815992593765259,-0.2683737874031067,-0.22675538063049316,-0.13221919536590576
191,0.014292423030422576,-0.8404978996229958,-2.6252182278906533,0.009534036740660667,0.7449753284454346,-0.6670238971710205,-2.5057361125946045,0.8081789612770081,0.5728337168693542,-0.6065798997879028,-0.5652725696563721,-0.673659086227417
192,-0.15428901904971018,-0.9134487815816659,-2.8532948159895786,-0.09389999508857727,0.7916157245635986,-0.6037611365318298,1.8162235021591187,-0.26848751306533813,-3.0317742824554443,-0.31819412112236023,-0.8020985126495361,-1.06771719455719
193,-0.2690000951468853,-0.5116747926295754,3.127195700643004,-0.2317296266555786,0.48963823914527893,-0.8405687212944031,3.8813979625701904,1.3067867755889893,-3.410468339920044,-0.4599055051803589,0.15498456358909607,-0.6682203412055969
194,-0.26645056981204357,-0.08092395811104947,2.8882076461246737,-0.2624472379684448,0.08083566278219223,-0.9615545272827148,3.3272712230682373,0.3969513177871704,-2.570533275604248,-0.15681850910186768,0.4135185778141022,-0.09035587310791016
195,-0.20250079327228904,0.2570612903059323,2.749822888314185,-0.19451111555099487,-0.2542394995689392,-0.9473794102668762,2.310378074645996,0.619423508644104,-2.024048089981079,-0.21108274161815643,0.842526912689209,0.14539271593093872
196,-0.09570907603007589,0.4738512235383283,2.632676494256068,-0.08503364771604538,-0.4563165605068207,-0.8857451677322388,1.4706125259399414,0.4653700292110443,-0.47590166330337524,-0.19922232627868652,0.9692102074623108,0.15716850757598877
197,-0.17727338687847244,0.5093969380684858,2.749010512318508,-0.15395718812942505,-0.4876508414745331,-0.8593566417694092,-1.381805419921875,-0.7320430278778076,2.3405466079711914,0.11667996644973755,1.1426191329956055,0.14602351188659668
198,-0.2662494317451621,0.0943892450455745,2.92864395352397,-0.26194366812705994,-0.09424915164709091,-0.9604700207710266,-4.144447326660156,0.3049664795398712,2.461578845977783,0.017345279455184937,0.6754411458969116,-0.5984899401664734
199,-0.2624148360005231,-0.31632905940007167,3.0356446897916074,-0.24654234945774078,0.31107985973358154,-0.9178486466407776,-3.0655829906463623,-0.7850058674812317,2.780824899673462,-0.03522643446922302,-0.29788103699684143,-0.36155498027801514
200,-0.2042533011673688,-0.5309268677438369,-2.847043593798146,-0.17491325736045837,0.5063328146934509,-0.8444125056266785,-0.07834409922361374,-0.6236037611961365,3.5438642501831055,-0.16587653756141663,-0.10025066137313843,0.009436309337615967
201,-0.012524486693520062,-0.6254519080229632,-2.5435536100289475,-0.010153318755328655,0.5854637026786804,-0.8106350302696228,-1.8353646993637085,1.05055832862854,2.096066474914551,-0.43970629572868347,-0.10566633939743042,-0.12160062789916992
202,0.2584311098610079,-0.880210916775779,-2.3726552940145167,0.1627913862466812,0.7708732485771179,-0.6158354878425598,-2.0009820461273193,1.2184627056121826,-1.2568573951721191,-1.286662220954895,-0.9188835024833679,-1.360131859779358
203,-0.035730242270910026,-0.8337188138859665,-2.675289776559175,-0.02401014417409897,0.7404360175132751,-0.6716977953910828,1.8536717891693115,-0.6827892065048218,-2.2985708713531494,-0.25987961888313293,-0.41275352239608765,-0.7237488627433777
204,-0.26465138585330117,-0.4852201264052229,-3.0983694911405024,-0.23138006031513214,0.4664030969142914,-0.8537747859954834,2.9305074214935303,1.1660677194595337,-5.037307262420654,-0.2605785131454468,0.15089121460914612,-0.3162385821342468
205,-0.26425168981351177,-0.10648613612217753,2.8012650524642035,-0.25970757007598877,0.10628500580787659,-0.959820568561554,2.494140863418579,1.0538781881332397,-3.336470603942871,-0.04057013988494873,0.3646317422389984,0.10201722383499146
206,-0.14040283388684813,0.1533094322200008,2.6457339431160865,-0.13830062747001648,-0.15270957350730896,-0.9785462021827698,2.076786756515503,1.346360445022583,-0.5891641974449158,-0.21466566622257233,0.6208034753799438,0.05250561237335205
207,-0.06664399423399572,0.36026433879100256,2.7288111033255813,-0.06231953948736191,-0.3525216281414032,-0.9337263107299805,1.8413292169570923,0.22723084688186646,1.2277607917785645,-0.41669961810112,1.0079171657562256,0.11236095428466797
208,-0.20357347354819036,0.3588025289184315,2.912537733386913,-0.189295694231987,-0.35115328431129456,-0.9169833660125732,-2.7037553787231445,-1.01051664352417,2.141839027404785,0.1079815924167633,1.0150784254074097,0.13506197929382324
209,-0.29273195874587243,-0.056481578979411556,2.957393632114648,-0.28810885548591614,0.056451551616191864,-0.9559322595596313,-3.805548667907715,-0.6842225193977356,0.8930844068527222,0.08666232228279114,0.27127671241760254,-0.37536656856536865
210,-0.4217961698076212,-0.4220444984408232,2.99792814201543,-0.37347638607025146,0.40962639451026917,-0.832298994064331,-1.927666425704956,-1.6699737310409546,2.717709541320801,0.19388043880462646,-0.44556087255477905,-0.15877461433410645
211,-0.37348066583365414,-0.6177332112549258,-3.0847322444777268,-0.297430157661438,0.5791887640953064,-0.7589964866638184,-0.8680422306060791,0.42646437883377075,1.669147253036499,-0.1968783140182495,-0.1453508734703064,-0.21063852310180664
212,-0.31667784359244155,-0.8175369614799276,-3.0442075297745785,-0.21301154792308807,0.7294632792472839,-0.6500071883201599,-2.104152202606201,0.13578718900680542,0.44940096139907837,-0.22793692350387573,-0.6173417568206787,-0.5661182403564453
213,-0.319924491048285,-0.8806015990822663,-3.091227359634049,-0.20023490488529205,0.7711220383644104,-0.604381263256073,1.2134252786636353,0.2707079350948334,-0.9970480799674988,-0.5259461402893066,-0.6788979768753052,-1.0668222904205322
214,-0.37494752625191874,-0.5857313839989832,3.0445245345057086,-0.30517715215682983,0.5528090000152588,-0.7754154801368713,3.2363693714141846,0.9870596528053284,-2.737694025039673,-0.26740890741348267,0.002214193344116211,-0.5342463850975037
215,-0.31825255506793493,-0.19019583768420267,2.8746010377144233,-0.3072647452354431,0.18905121088027954,-0.9326564073562622,2.854243278503418,0.8285531997680664,-2.6664175987243652,-0.2261672019958496,0.31860870122909546,-0.03552895784378052
216,-0.2825118195333714,0.13623072770764785,2.741580566472163,-0.2761859595775604,-0.1358097344636917,-0.9514604806900024,2.5279650688171387,-0.014698687940835953,-1.8530704975128174,-0.07011225819587708,0.6036442518234253,0.18321096897125244
217,-0.25507308748545193,0.3692043615047884,2.662012130620844,-0.23531374335289001,-0.3608735203742981,-0.9024398922920227,1.411454677581787,0.07068665325641632,-0.5017846822738647,-0.009101524949073792,0.7942383885383606,0.2714889645576477
218,-0.28702870032481664,0.39210937575030547,2.7474080320951346,-0.26161760091781616,-0.38213855028152466,-0.8862992525100708,-0.7991921305656433,-0.020778730511665344,1.9113779067993164,0.11153215169906616,0.8904088139533997,0.0907670259475708
219,-0.36310036897157644,0.1252356990621167,2.9491280546886154,-0.3523925244808197,-0.12490858882665634,-0.9274790287017822,-3.2520291805267334,-0.15661603212356567,3.869079351425171,0.1053832471370697,0.6426392793655396,-0.2678029537200928
220,-0.3474236220320978,-0.3381273772284913,3.0746553740276,-0.32119786739349365,0.33172109723091125,-0.8870135545730591,-4.080456256866455,0.395643413066864,1.3025394678115845,-0.13064536452293396,0.003209322690963745,-0.5071972608566284
221,-0.3074489000094403,-0.6478484793630853,-3.1112282962585525,-0.24131084978580475,0.6034722328186035,-0.7599936723709106,-1.0941355228424072,-0.5491863489151001,2.2051546573638916,-0.18521809577941895,-0.4765496253967285,-0.11319053173065186
222,-0.20004096123291326,-0.7163672526188568,-2.8844819224283134,-0.14986592531204224,0.6566492319107056,-0.7391563057899475,-0.22433005273342133,-0.12022963166236877,1.7400261163711548,-0.26564615964889526,-0.29129278659820557,-0.06968164443969727
223,-0.09104152128322196,-0.8923101080821186,-2.7724881311371945,-0.05706015229225159,0.7785236835479736,-0.6250160932540894,-2.5024402141571045,0.9056654572486877,-0.5699202418327332,-0.3980179727077484,-0.5292713642120361,-0.6549369096755981
224,-0.23730185981005847,-0.9202218151748857,-3.0395851345949008,-0.14237530529499054,0.7957359552383423,-0.5886710286140442,2.018280267715454,0.06183897703886032,-1.6032721996307373,-0.39224690198898315,-0.5528770089149475,-1.159391164779663
225,-0.3150048204015893,-0.5658663465894248,3.049969548109347,-0.26152750849723816,0.5361472964286804,-0.8025891780853271,4.011785984039307,1.3338987827301025,-3.606982946395874,-0.31656694412231445,0.2426002025604248,-0.5873796343803406
226,-0.2605901060563218,-0.1284914414637545,2.77514006220412,-0.2555267810821533,0.12813816964626312,-0.9582727551460266,2.92641544342041,0.5195659399032593,-2.8056790828704834,-0.21128535270690918,0.3760274648666382,-0.11127680540084839
227,-0.23599944064923456,0.20658687407633258,2.6681626007216095,-0.22884316742420197,-0.20512054860591888,-0.9516072273254395,2.7949576377868652,0.2689279615879059,-1.287469506263733,-0.08817340433597565,0.7328152656555176,0.19176536798477173
228,-0.19741441737023152,0.4403880635093351,2.6207341961189328,-0.1774206906557083,-0.4262905418872833,-0.8870164752006531,1.5133967399597168,0.06605233997106552,-0.3368065655231476,-0.063561350107193,0.9061183929443359,0.26840996742248535
229,-0.2485153297201386,0.4798056898111575,2.662996992900194,-0.21819192171096802,-0.46160680055618286,-0.859832227230072,-1.0778851509094238,-0.36774560809135437,0.8599997162818909,0.21352273225784302,1.034757375717163,0.12223762273788452
230,-0.2846884519463922,0.12283905484744859,2.7526919931932765,-0.27874213457107544,-0.12253035604953766,-0.9525172710418701,-4.223384857177734,-0.33724623918533325,2.9410107135772705,-0.0017296671867370605,0.45787274837493896,-0.5356724262237549
231,-0.3342383328440898,-0.333421186078124,2.9500948959548525,-0.3099834620952606,0.3272777199745178,-0.8926362991333008,-3.2285280227661133,-0.8151315450668335,2.8994674682617188,-0.08907964825630188,-0.08087879419326782,-0.3252592086791992
232,-0.32283563418957406,-0.5907062191248577,3.1378479057390676,-0.2634970247745514,0.5569477081298828,-0.787641167640686,-0.14009875059127808,-0.5665708184242249,1.8221417665481567,-0.1112130880355835,-0.3493213653564453,-0.036165595054626465
233,-0.2232355855179046,-0.6527331850395797,-2.930161821732967,-0.17587502300739288,0.6073600053787231,-0.7747140526771545,-1.152174711227417,-0.07047666609287262,1.6712079048156738,-0.2666908800601959,-0.16912758350372314,-0.13075774908065796
234,-0.1832473384898165,-0.8726946605508128,-2.880881055863041,-0.11712682247161865,0.7660637497901917,-0.6320028901100159,-2.0577967166900635,0.4178043603897095,-0.4719599187374115,-0.48051416873931885,-0.6071434617042542,-0.8994301557540894
235,-0.34395112362121416,-0.8121857100529326,-3.0916282244922844,-0.23197098076343536,0.7257924675941467,-0.6476224064826965,2.4409537315368652,-0.43674594163894653,-1.652696967124939,-0.17290572822093964,-0.4872061014175415,-0.9128177165985107
236,-0.3874214643598834,-0.4428041852280972,3.1056237882319695,-0.34136462211608887,0.42847487330436707,-0.8365880250930786,3.5520949363708496,0.8739697337150574,-2.707841157913208,-0.16646313667297363,0.25339463353157043,-0.3728846311569214
237,-0.3294034905093937,-0.0658095604869064,2.9020442497533567,-0.3227784335613251,0.06576206535100937,-0.9441871643066406,2.1869120597839355,0.7682119011878967,-3.118497610092163,-0.08170154690742493,0.40062281489372253,0.0843849778175354
238,-0.2737780000025102,0.1869610725649886,2.768632634288554,-0.26565906405448914,-0.18587379157543182,-0.9459789395332336,2.1368298530578613,0.39167243242263794,-1.4187896251678467,-0.025173455476760864,0.6136386394500732,0.16205865144729614
239,-0.24398615316714775,0.37532291075321944,2.7615648872328524,-0.22475658357143402,-0.3665729761123657,-0.9028337001800537,1.305296540260315,0.18647335469722748,0.3064649701118469,-0.032796502113342285,0.8661457300186157,0.2242448329925537
240,-0.3183925906183468,0.35051845848515994,2.891246339247536,-0.2940058708190918,-0.3433847725391388,-0.8919907212257385,-1.6164275407791138,-0.3519936800003052,2.02121901512146,0.3632807731628418,0.9641428589820862,0.09322363138198853
241,-0.3206451611911939,-0.017903475256092403,3.0830171214306223,-0.3151283860206604,0.017902519553899765,-0.9488801956176758,-3.003089189529419,0.2119206339120865,3.6854963302612305,-0.08562842011451721,0.37006744742393494,-0.4544706344604492
242,-0.2733511043504039,-0.3695884373783096,-2.992720963778573,-0.25173091888427734,0.3612316846847534,-0.8978548049926758,-2.219727039337158,0.012881348840892315,2.3894765377044678,-0.21169379353523254,-0.14625060558319092,-0.2784299850463867
243,-0.20447835541444148,-0.5411129180477615,-2.740317416883886,-0.17404694855213165,0.5150902271270752,-0.839279294013977,-0.20022018253803253,-0.6197130084037781,2.565241575241089,-0.19901517033576965,-0.2287437915802002,0.09254467487335205
244,-0.09648935318940131,-0.6015478345729495,-2.458930825397482,-0.0794282928109169,0.5659192800521851,-0.8206256628036499,-0.6033937335014343,-0.1388646513223648,2.406613349914551,-0.2818998396396637,-0.19395583868026733,0.029854238033294678
245,0.04255430937794309,-0.7623638408577541,-2.2541621645043906,0.03076622076332569,0.6906329393386841,-0.7225507497787476,-1.8928477764129639,0.40535131096839905,0.4451192021369934,-0.6192824840545654,-0.5249530076980591,-0.6279130578041077
246,-0.06883512261952364,-0.7864462537318097,-2.348314213305016,-0.04858435317873955,0.7078474760055542,-0.7046924829483032,1.6965476274490356,-1.0914016962051392,-1.5118910074234009,-0.25634726881980896,-0.5498579740524292,-0.8647044897079468
247,-0.27320790827592284,-0.4773280720819886,-2.586352904785444,-0.23966258764266968,0.4594075381755829,-0.8552815914154053,3.4673540592193604,0.13738404214382172,-3.591362237930298,-0.11627918481826782,0.22566631436347961,-0.4597818851470947
248,-0.30796700866441856,-0.07980213566211365,-2.878648435995994,-0.3021572232246399,0.07971745729446411,-0.9499190449714661,2.5670840740203857,0.34347230195999146,-2.668546199798584,0.07445037364959717,0.3416387438774109,-0.058381736278533936
249,-0.29623658861235336,0.20186333567497963,-2.970392930658897,-0.285995215177536,-0.200495183467865,-0.937021017074585,2.027336359024048,-0.02022019401192665,-1.0235084295272827,0.1132047176361084,0.66915363073349,0.18596822023391724
250,-0.30132688588680706,0.3441625541515511,-2.951994209896432,-0.27938345074653625,-0.3374084532260895,-0.898944079875946,0.8357399106025696,0.15222135186195374,0.7339269518852234,0.32097893953323364,0.7604278326034546,0.36615294218063354
251,-0.3289206952828617,0.234997000329954,-2.7690659597218494,-0.3141435384750366,-0.23284006118774414,-0.9203799962997437,-2.210683822631836,0.6215183734893799,2.9007647037506104,0.23496568202972412,0.8623414039611816,0.03680455684661865
252,-0.22948272371462838,-0.2405077601538832,-2.527866093924571,-0.22092649340629578,0.23819580674171448,-0.9457558989524841,-5.006586074829102,0.8682674765586853,3.539562225341797,-0.3275811970233917,0.3481079041957855,-0.7347860932350159
253,-0.11138728123013793,-0.6393803272128628,-2.3946941086515996,-0.08919975161552429,0.5966982841491699,-0.7974926829338074,-1.53696608543396,-0.20089775323867798,1.364484429359436,-0.3545868396759033,-0.5574832558631897,-0.4665911793708801
254,-0.07015052285032643,-0.6472056133654449,-2.1435068152499,-0.05591822415590286,0.6029594540596008,-0.7958096861839294,0.768154501914978,-1.2818200588226318,2.180297374725342,-0.17107152938842773,-0.35266953706741333,0.09956640005111694
255,0.005317376408987044,-0.6223583000185499,-1.9050714846936088,0.004320379346609116,0.5829529166221619,-0.8124943971633911,-0.7615441679954529,0.21684026718139648,1.2940961122512817,-0.22685456275939941,-0.13286447525024414,0.12327021360397339
256,0.05678680838208618,-0.7991338283228326,-1.888891514278499,0.03957773745059967,0.7167523503303528,-0.6962037086486816,-2.1976077556610107,0.5030128359794617,-1.097866415977478,-0.27734020352363586,-0.46659982204437256,-0.5719084143638611
257,-0.06282134548401538,-0.9031049931545367,-2.105282614320326,-0.03887181356549263,0.7852532267570496,-0.617953360080719,0.8031226992607117,0.29811742901802063,-1.3889578580856323,-0.2535476088523865,-0.6267754435539246,-0.9949005842208862
258,-0.177560417030258,-0.7468577316644942,-2.3619451736143997,-0.12961506843566895,0.6793362498283386,-0.7222896218299866,2.2358882427215576,1.4095876216888428,-3.1145548820495605,-0.25325846672058105,-0.23760956525802612,-0.4929814338684082
259,-0.17981900486812724,-0.41758220341747826,-2.717915098573972,-0.1634831726551056,0.40555161237716675,-0.8993337154388428,2.3900344371795654,1.8975738286972046,-2.9647042751312256,-0.3056330382823944,0.12661391496658325,-0.20198464393615723
260,-0.09085775506487129,-0.1445508255410752,-2.9173805384970266,-0.08978652209043503,0.14404796063899994,-0.985489010810852,2.7703359127044678,1.1857610940933228,-1.4219270944595337,-0.3142662048339844,0.30456042289733887,0.15138256549835205
261,-0.00863863873330941,0.13417571873995623,-3.0159080270313123,-0.008560887537896633,-0.13377349078655243,-0.9909749627113342,2.4699313640594482,0.31226709485054016,-0.4315577447414398,-0.4383537769317627,0.6593014001846313,0.21828514337539673
262,-0.03530196425767626,0.30022868091689875,-3.0104840175037757,-0.0337158627808094,-0.29573866724967957,-0.954673707485199,0.39229437708854675,-0.7845345735549927,0.4724563956260681,-0.2398284524679184,0.9474263191223145,0.22812646627426147
263,-0.17437414829066264,0.14921910811801042,-2.9216750647744636,-0.17156387865543365,-0.14866596460342407,-0.9738913178443909,-3.008080244064331,-1.4272353649139404,1.9148601293563843,0.19014908373355865,0.6308589577674866,-0.05458158254623413
264,-0.29234083130512606,-0.23855693784865697,-2.7851589039227345,-0.28003284335136414,0.23630067706108093,-0.9304534196853638,-4.074957847595215,-0.9495764970779419,1.939887285232544,-0.007793694734573364,0.38297727704048157,-0.44871222972869873
265,-0.3975845067479116,-0.6444203847397647,-2.794241592688301,-0.3095402121543884,0.6007351875305176,-0.7370902895927429,-2.6773386001586914,-1.0005569458007812,1.3783358335494995,0.05055278539657593,-0.5220913887023926,-0.3040779232978821
266,-0.3575325767807827,-0.8330976028946757,-2.6813821272637623,-0.23538105189800262,0.7400183081626892,-0.6300544142723083,-0.5781657695770264,0.33594614267349243,1.3391189575195312,-0.1697855442762375,-0.375577449798584,-0.2910728454589844
267,-0.19988160394341561,-0.9404347183380762,-2.545177755413104,-0.11703465133905411,0.8078144192695618,-0.5777013301849365,-1.466729760169983,0.5752987265586853,0.6870148777961731,-0.3531343936920166,-0.3848254680633545,-0.5555689334869385
268,-0.22718366224998837,-1.0097871966108736,-2.6646583145656613,-0.11983397603034973,0.8467186689376831,-0.5183700323104858,0.9012552499771118,0.6767301559448242,-1.4409672021865845,-0.45986270904541016,-0.5442436933517456,-1.1689926385879517
269,-0.3402206331518758,-0.7553285307266192,-2.9712778842983742,-0.24294552206993103,0.6855279207229614,-0.6863155961036682,2.594228744506836,1.7299017906188965,-3.262667179107666,-0.16042059659957886,-0.18685537576675415,-0.5344486236572266
270,-0.2574128026338512,-0.3731458250544513,3.0774874201702267,-0.23706060647964478,0.3645465672016144,-0.9005043506622314,2.6853861808776855,1.856067180633545,-2.186020851135254,-0.2659606337547302,0.16935846209526062,-0.07608866691589355
271,-0.13299573766449205,-0.12075334756976243,2.8969217056166077,-0.13163842260837555,0.12046010047197342,-0.9839515686035156,2.0616729259490967,1.5092124938964844,-1.6658281087875366,-0.33914101123809814,0.3558430075645447,0.22401809692382812
272,-0.0054962918483224465,0.06664817461882985,2.7524774242039016,-0.005484061781316996,-0.06659884750843048,-0.9977647662162781,1.4750633239746094,0.9470781087875366,-0.811253547668457,-0.5091796517372131,0.5433139204978943,0.2747270464897156
273,0.011045606301438119,0.17517781581335823,2.7146064707729702,0.010876337997615337,-0.1742832362651825,-0.9846354722976685,0.2949172258377075,-0.6756805181503296,0.21670743823051453,-0.476238876581192,0.6772587299346924,0.31210434436798096
274,-0.11137514342292205,0.10573971464252836,2.72412780449349,-0.1105242595076561,-0.10554277896881104,-0.9882535934448242,-1.6070985794067383,-1.3175110816955566,0.6821907162666321,-0.043238565325737,0.587293267250061,-0.02126789093017578
275,-0.24309109178488394,-0.1306477121593349,2.748578309353666,-0.23865263164043427,0.1302763670682907,-0.9623268842697144,-2.7594666481018066,-1.059476613998413,0.6675553917884827,0.16653959453105927,0.3783143162727356,-0.22572243213653564
276,-0.3757347278532398,-0.48012660948793784,2.6772860921383446,-0.32546672224998474,0.4618914723396301,-0.8250622153282166,-3.9603865146636963,-1.1729871034622192,0.611713707447052,0.27944624423980713,-0.17963439226150513,-0.36205631494522095
277,-0.5081532975228105,-0.789089965595179,2.5515280711776667,-0.342780739068985,0.7097124457359314,-0.6154751777648926,-1.9006425142288208,0.18006214499473572,-0.4905696213245392,0.1786876916885376,-0.6306414008140564,-0.6455569267272949
278,-0.4685011487989621,-0.8421290838572711,2.4343821267824906,-0.3006759285926819,0.7460625171661377,-0.5941252112388611,-0.23094289004802704,1.3921175003051758,0.011132155545055866,0.019013941287994385,-0.5498039722442627,-0.45781564712524414
279,-0.349709714074069,-0.8140212570034326,2.3271164024536857,-0.2352396845817566,0.7270539402961731,-0.6450232267379761,0.35370150208473206,2.001528739929199,-1.2714747190475464,-0.5359243154525757,-0.3901093602180481,-0.7437555193901062
280,-0.2738027652718462,-0.6230756490115943,2.099175929683175,-0.21958398818969727,0.5835356116294861,-0.7818369269371033,2.1186718940734863,2.669508457183838,-3.0995748043060303,-0.7599234580993652,-0.13578170537948608,-0.5044026374816895
281,-0.17524112054616572,-0.2783547175536743,1.8226048438640419,-0.16763480007648468,0.27477407455444336,-0.9467828869819641,2.0855252742767334,1.4614278078079224,-2.5094211101531982,-0.623640239238739,0.23084118962287903,0.04540044069290161
282,-0.082263080687335,-0.002714630284898371,1.6247790067180423,-0.0821700245141983,0.002714626956731081,-0.9966146349906921,3.0179543495178223,1.2928060293197632,-2.1088807582855225,-0.5372452735900879,0.5564131736755371,0.22105616331100464
283,0.07977183928466297,0.29225577344531606,1.4663824207359768,0.0763082355260849,-0.2881130874156952,-0.9545511603355408,2.635434865951538,1.0605767965316772,-0.7723314762115479,-0.6643972396850586,0.7927060127258301,0.25606483221054077
284,0.07559812385864184,0.4685253047224475,1.4192731647716006,0.06738707423210144,-0.451570987701416,-0.8896867632865906,-0.012662163004279137,-1.5946601629257202,-0.27534887194633484,-0.47371336817741394,1.015596866607666,0.40486931800842285
285,-0.07726845224726646,0.21729949013723343,1.3163484610334744,-0.07537628710269928,-0.21559341251850128,-0.9735696911811829,-4.969137191772461,-1.846847653388977,-1.1281105279922485,-0.09114287793636322,1.1296406984329224,-0.38096827268600464
286,-0.29399347700540623,-0.29527280970069675,1.1652900291615231,-0.2772359251976013,0.2910008728504181,-0.9156739115715027,-3.4378578662872314,-2.1593832969665527,-0.035925157368183136,0.3273763060569763,0.09786936640739441,-0.4261839985847473
287,-0.45389304696705884,-0.5292141801015343,1.1362193271286536,-0.37848711013793945,0.5048551559448242,-0.7758020162582397,-2.196979284286499,-1.17910635471344,1.377469539642334,0.20912981033325195,-0.19604778289794922,-0.41809141635894775
288,-0.5021317510380633,-0.8283476792301891,1.125337919593895,-0.3254008889198303,0.7368152737617493,-0.5926361083984375,-3.0989274978637695,0.8705239295959473,0.003882789285853505,0.06911429762840271,-0.23846322298049927,-0.6609954833984375
289,-0.5589219859637583,-0.9718010373598763,0.8606363871340434,-0.29897454380989075,0.82590252161026,-0.4780160188674927,-0.412047803401947,1.6081137657165527,-0.3616694509983063,0.023431360721588135,-0.7681632041931152,-0.6678885221481323
290,-0.29039339898398003,-0.8280662333531384,0.991964529134945,-0.19364483654499054,0.7366249561309814,-0.6479856371879578,2.7903804779052734,1.697095274925232,0.18679043650627136,-0.42084187269210815,-0.20519191026687622,-0.33921223878860474
291,-0.15469454900751842,-0.5536138246976173,0.9812763966328183,-0.13106362521648407,0.5257647037506104,-0.8404723405838013,2.005634307861328,0.7435034513473511,-1.7069228887557983,-0.7281435132026672,0.23981451988220215,-0.43371284008026123
292,-0.1694802030489082,-0.3758417277341663,0.7878475382992929,-0.1568966805934906,0.36705562472343445,-0.9168716073036194,2.0130398273468018,1.5648256540298462,-2.6334497928619385,-0.4294985830783844,0.20226502418518066,-0.23061978816986084
293,-0.022223364187885928,-0.07156697976667953,0.5298501985479979,-0.02216465212404728,0.07150590419769287,-0.9971938729286194,2.9984354972839355,1.7040293216705322,-2.850600481033325,-0.6989352107048035,0.5400053262710571,4.7266483306884766e-05
294,0.06545155285290041,0.25085604977649845,0.2881087923173006,0.06335768103599548,-0.24823330342769623,-0.9666261076927185,3.4331092834472656,-0.3768050968647003,-1.432981014251709,-0.5284303426742554,0.7848391532897949,0.115017831325531
295,0.02500752537833752,0.5069288911808485,0.16712558689206958,0.021860290318727493,-0.4854946434497833,-0.8739662766456604,1.251753568649292,-1.0497715473175049,-0.5631212592124939,-0.1614476889371872,0.9739895462989807,0.4471932053565979
296,-0.06269762493113351,0.4956832450438201,0.15417666543220238,-0.055115461349487305,-0.47563278675079346,-0.8779155611991882,-1.5256797075271606,-0.9814895987510681,-0.03332004323601723,0.1196143627166748,0.9768229722976685,0.21238821744918823
297,-0.13910863218180963,0.17436046322635862,0.19918748256411933,-0.13655799627304077,-0.17347833514213562,-0.9753241539001465,-3.9051690101623535,-0.7644899487495422,2.0040717124938965,-0.06929832696914673,0.4228985011577606,-0.542940616607666
298,-0.22964921939346222,-0.22385761977619265,0.38870571157608397,-0.2219560742378235,0.221992626786232,-0.9494497179985046,-3.2348599433898926,-0.596319317817688,1.934133768081665,-0.1293928027153015,0.1063002198934555,-0.49941807985305786
299,-0.29306415163584454,-0.5393055573081973,0.4060551090898655,-0.24788405001163483,0.5135402679443359,-0.8214803338050842,-1.7476555109024048,-0.9000095725059509,0.874502420425415,-0.004191160202026367,-0.5654659271240234,-0.31662696599960327
300,-0.26991610555077955,-0.5960266497073091,0.5304439736858312,-0.22067271173000336,0.5613586902618408,-0.7976089119911194,0.11963300406932831,0.289753258228302,0.7978069186210632,-0.08297717571258545,-0.2910492420196533,-0.06484836339950562
301,-0.22731869044962727,-0.6595247544375958,0.538247912684854,-0.1781030297279358,0.6127413511276245,-0.7699527740478516,-0.8932246565818787,0.5205571055412292,-0.5836763978004456,-0.18102779984474182,-0.4751834273338318,-0.13730424642562866
302,-0.23762872564722917,-0.6410722294170026,0.4004486225608246,-0.18866141140460968,0.5980551242828369,-0.7789331674575806,1.2666200399398804,1.0021158456802368,-1.9257341623306274,-0.4204236567020416,-0.2419760823249817,-0.5637791752815247
303,-0.2520474181709571,-0.43199303300706643,0.24541863439429137,-0.2264767736196518,0.4186815619468689,-0.8794395923614502,1.4708725214004517,0.7214503288269043,-2.3176982402801514,-0.2875765562057495,0.0937696099281311,-0.1681678295135498
304,-0.20377740172878375,-0.181331280524843,0.02400328592718391,-0.19905205070972443,0.18033918738365173,-0.9632528424263,1.6287623643875122,1.3650155067443848,-2.5608742237091064,-0.22024421393871307,0.28633561730384827,0.07653409242630005
305,-0.12484212699641953,0.005004000480680173,-0.1482592216348836,-0.12451653182506561,-0.005003979429602623,-0.9922049045562744,1.6173847913742065,0.6325854063034058,-1.439012050628662,-0.2448834776878357,0.35516268014907837,0.2823966145515442
306,-0.07231170628712728,0.18152546305677136,-0.2316739170152883,-0.0710616186261177,-0.18053017556667328,-0.9809990525245667,1.5725712776184082,0.18815003335475922,-0.41200679540634155,-0.3167710304260254,0.6090885400772095,0.29783254861831665
307,-0.11488649170313846,0.26690079751554535,-0.1930838167301257,-0.11057507991790771,-0.26374325156211853,-0.9582341313362122,-0.36497607827186584,-0.7543767094612122,0.8161011934280396,-0.17932665348052979,0.8261821866035461,0.22417956590652466
308,-0.1794915600006803,0.09750055881080505,-0.07970284443463628,-0.17768141627311707,-0.09734614938497543,-0.9792614579200745,-2.645043134689331,-0.3749053478240967,2.3631248474121094,-0.012748271226882935,0.6130017042160034,-0.32905763387680054
309,-0.2505178622301393,-0.24789385837504593,0.16905041538598156,-0.24032755196094513,0.24536274373531342,-0.9391697645187378,-2.51933217048645,-0.9464019536972046,3.20048451423645,0.08366557955741882,0.050047412514686584,-0.4085017442703247
310,-0.2055724134903677,-0.47357491302815985,0.43223077554730693,-0.18166200816631317,0.4560706615447998,-0.87120521068573,-0.700187087059021,-0.12550368905067444,2.2765488624572754,-0.11470943689346313,-0.2139441967010498,0.14461219310760498
311,-0.08858552945728514,-0.5286053702369639,0.5664273427336051,-0.07639459520578384,0.5043295621871948,-0.8601253032684326,-0.4272197186946869,0.9096323251724243,0.552207350730896,-0.33974310755729675,-0.017421603202819824,0.10612750053405762
312,0.018454580827645537,-0.6857970796042469,0.6052219236052128,0.014281457290053368,0.6332901120185852,-0.7737827301025391,-2.0796620845794678,0.6095468401908875,-0.3172931373119354,-0.4703361690044403,-0.3732650876045227,-0.24240678548812866
313,-0.039187286608712624,-0.7792386299050602,0.46784220411298216,-0.027872614562511444,0.7027379274368286,-0.7109026312828064,1.113378882408142,-0.11830630153417587,-1.4544793367385864,-0.45897430181503296,-0.5260411500930786,-0.9012037515640259
314,-0.16915517901079882,-0.5852646927733658,0.22958467379812122,-0.14033052325248718,0.5524200201034546,-0.8216686844825745,1.9699900150299072,1.3860958814620972,-3.4460880756378174,-0.13408353924751282,0.00959169864654541,-0.35984987020492554
315,-0.10609326089280108,-0.273693275055822,-0.11044154448977116,-0.10195287317037582,0.2702890932559967,-0.957365870475769,2.4448747634887695,2.0790207386016846,-3.3028390407562256,-0.2594973146915436,0.3608143925666809,-0.20109659433364868
316,-0.005389028178961563,-0.019398312932313137,-0.23594186497184352,-0.005387988407164812,0.01939709670841694,-0.9997973442077637,3.0183792114257812,0.9357826709747314,-0.34674426913261414,-0.2713606655597687,0.5664030909538269,0.16695737838745117
317,0.24380800268723585,0.19102391474238753,-0.32193286030514773,0.23700878024101257,-0.18986427783966064,-0.9527740478515625,0.7292681336402893,3.2561752796173096,-0.9377936124801636,-0.2763764560222626,0.9492636919021606,0.5423736572265625
318,0.35082851277936583,0.14966838850397293,-0.2651365891243228,0.3398338854312897,-0.14911024272441864,-0.9285898208618164,-1.4146394729614258,-0.5474144220352173,1.2213315963745117,-0.3309227526187897,0.8231825232505798,0.2017526626586914
319,0.2387314725812734,0.00655909266539562,-0.04979620885935452,0.236465185880661,-0.006559045519679785,-0.9716178178787231,-2.541459560394287,-1.0928997993469238,1.392530083656311,-0.2193600833415985,0.7675759196281433,-0.5541695356369019
320,0.0927704621476685,-0.2719596296876302,0.16764129434625263,0.0892326831817627,0.268619567155838,-0.9591042995452881,-2.823753595352173,-2.182692766189575,1.8463736772537231,-0.1258537769317627,-0.3262519836425781,-0.7126944065093994
321,-0.028584048874036705,-0.42947941146101315,0.2977994263753675,-0.02598458155989647,0.4163975417613983,-0.9088112115859985,-1.4226726293563843,-1.3386406898498535,0.0232088565826416,0.02871590666472912,-0.5282139778137207,0.4358193278312683
322,-0.10656663418884181,-0.6319241469766581,0.2247590067070786,-0.08582514524459839,0.5906984210014343,-0.8023149967193604,-1.4700521230697632,0.17531636357307434,-1.6301181316375732,0.11716669797897339,-0.9396669864654541,0.24636107683181763
323,-0.09766514364552713,-0.582952068266786,0.13800005001787977,-0.08140532672405243,0.5504908561706543,-0.830862820148468,0.6179271340370178,2.5324203968048096,1.1483843326568604,-0.4896243214607239,0.5885624885559082,-1.5475552082061768
324,0.07700268921014189,-0.4732507417521548,0.126046009543574,0.06847171485424042,0.4557821452617645,-0.8874537944793701,1.7481082677841187,-0.9654876589775085,-2.1469838619232178,-0.6770532727241516,0.2734659016132355,-0.16409039497375488
325,-0.11262981954250281,-0.39971601687000863,-0.03955257452355386,-0.10353216528892517,0.3891567587852478,-0.9153349995613098,0.27073583006858826,-1.1874667406082153,-1.3110908269882202,0.10966621339321136,-0.1733669936656952,0.7422392964363098
326,-0.1805283312343917,-0.3112700850266783,-0.23349971343269238,-0.17092116177082062,0.30626794695854187,-0.9364752769470215,1.8732584714889526,1.4275976419448853,-2.6350481510162354,0.2803114056587219,0.03031042218208313,0.464536190032959
327,0.07916215282720072,-0.017342186528899683,-0.2540809504089706,0.07906761020421982,0.017341317608952522,-0.9967184066772461,1.5275474786758423,1.8731896877288818,1.970589280128479,-0.9250301122665405,0.9194720387458801,-1.015854835510254
328,-0.12809646861996352,-0.1363954487925112,-0.14145691484790002,-0.1265600025653839,0.13597293198108673,-0.9825955033302307,-3.0431745052337646,-2.2790794372558594,-0.0019373873947188258,0.4226720631122589,0.07818418741226196,0.3746243119239807
329,-0.22496516266891828,-0.2877731123656769,-0.2024559460046136,-0.21389928460121155,0.2838176190853119,-0.9347163438796997,-0.963158369064331,0.11467554420232773,-0.49128684401512146,0.23204198479652405,-0.3803294599056244,0.7719050645828247
330,-0.20793263064065426,-0.3699450159746503,-0.2822076266121062,-0.1924714297056198,0.36156415939331055,-0.9122642874717712,-0.5114479064941406,1.3226759433746338,-0.30240947008132935,0.131924569606781,0.24826860427856445,-0.31806713342666626
331,0.012381868948230762,-0.5033588521994454,-0.27144507955071184,0.010845835320651531,0.4823704957962036,-0.875900149345398,-0.5175281763076782,1.1921868324279785,0.02850477769970894,-1.0604369640350342,-0.3373204469680786,-1.1731873750686646
332,-0.06156671338513146,-0.4522998496093858,-0.30821849240252963,-0.055340856313705444,0.4370352625846863,-0.8977402448654175,0.3175203502178192,-0.6339738965034485,-1.1644783020019531,-0.04854097589850426,-0.15952369570732117,0.35879987478256226
333,-0.1500491967171822,-0.4648802970255286,-0.504148151225426,-0.13362252712249756,0.4483157992362976,-0.8838314414024353,-0.8309770822525024,0.747319221496582,-2.451057195663452,0.12690867483615875,-0.2994663417339325,0.5034908652305603
334,-0.04772922264654397,-0.43397201573229616,-0.692587198299557,-0.04328841716051102,0.4204779267311096,-0.9062694907188416,0.930057942867279,2.728508949279785,-0.6902884244918823,-0.2779396176338196,-0.03990846872329712,-0.29034000635147095
335,0.12576103605490024,-0.30744765524727574,-0.7327209512534593,0.11954827606678009,0.30262696743011475,-0.9455819129943848,1.190367579460144,0.4583719074726105,-0.9761216640472412,-0.7812303900718689,0.35620176792144775,-0.5889182090759277
336,0.007448097085428238,-0.31299155751148555,-0.9480308557106147,0.007086178287863731,0.30790624022483826,-0.9513903260231018,-0.5467116832733154,-0.7825568318367004,-2.6998960971832275,0.021127328276634216,-0.11297518014907837,0.2151995301246643
337,-0.09715157853439953,-0.35693097494826215,-1.1691097425697827,-0.09088533371686935,0.34940028190612793,-0.9325552582740784,-0.697481095790863,-0.006393429357558489,-1.9433233737945557,0.09654635190963745,-0.31999659538269043,0.7627554535865784
338,-0.14432879082933542,-0.42555673054840887,-1.4538255678540475,-0.13100005686283112,0.41282790899276733,-0.901339054107666,-0.3209179937839508,1.5992637872695923,-2.8412156105041504,-0.08996248245239258,0.19509747624397278,-0.550168514251709
339,0.05446699712331491,-0.5513742659954759,-1.5984379292793314,0.046372346580028534,0.5238583087921143,-0.8505422472953796,-1.029490351676941,2.517348051071167,-0.9367591738700867,-1.0945748090744019,-0.06658297777175903,-0.9777200818061829
340,-0.0304278858198485,-0.5796729816869212,-1.8615066680772903,-0.025453314185142517,0.5477503538131714,-0.8362545371055603,0.127309188246727,0.1328684538602829,-3.2035863399505615,-0.1529066562652588,-0.1903589963912964,0.22927522659301758
341,-0.18384124048138634,-0.5752074700343265,-2.2780390679248654,-0.15338996052742004,0.5440089106559753,-0.8249399065971375,-0.3812410533428192,1.3365349769592285,-2.9703011512756348,0.13454535603523254,-0.5123316645622253,0.35402315855026245
342,-0.047954594011615656,-0.4332021597403913,-2.4515109289692156,-0.04350816458463669,0.41977930068969727,-0.906582772731781,1.7659698724746704,2.608128309249878,-0.15354014933109283,-0.6227058172225952,0.20396947860717773,-0.6572751998901367
343,0.025219952155622064,-0.25879308298795617,-2.4919648961531013,0.024377532303333282,0.25591400265693665,-0.9663921594619751,1.604857087135315,-1.3491402864456177,-1.3858537673950195,-0.6078431010246277,0.37236663699150085,-0.0859149694442749
344,-0.14655998898299222,-0.19358067524074127,-2.740374124200132,-0.14330816268920898,0.19237391650676727,-0.9708012342453003,-0.2920907139778137,-0.6531434059143066,-2.74564528465271,0.20464849472045898,-0.009298965334892273,0.6696995496749878
345,-0.23677160065117236,-0.23028530423483876,-3.0319895584296668,-0.22837330400943756,0.22825530171394348,-0.9464381337165833,-1.5725449323654175,-0.04445154219865799,-2.799394130706787,0.25893667340278625,0.00010773539543151855,0.46558791399002075
346,-0.19989414856086,-0.37176585356142827,2.9619946237830828,-0.18500104546546936,0.36326122283935547,-0.9131351709365845,-2.4434332847595215,3.0313899517059326,-0.5031793117523193,-0.44103652238845825,0.07944199442863464,-0.9514277577400208
347,-0.08323669050153731,-0.39514057557927873,2.890258299735265,-0.07673399895429611,0.38493794202804565,-0.9197470545768738,0.8941270709037781,-1.3272128105163574,-0.9193629026412964,-0.5680871605873108,-0.15454551577568054,-0.07784199714660645
348,-0.25260388700977915,-0.2825534574528149,2.713745644515839,-0.2400156408548355,0.2788087725639343,-0.9298699498176575,0.5801048278808594,-0.21048091351985931,-1.926193118095398,0.4969889223575592,-0.030533015727996826,0.7141717672348022
349,-0.18564210901043288,-0.19277640441192156,2.554848959468611,-0.18115854263305664,0.19158460199832916,-0.9646123051643372,1.6682312488555908,1.190189003944397,-1.0921785831451416,0.005545139312744141,0.12091539800167084,-0.07988232374191284
350,-0.13575879880303587,-0.0024361385714933405,2.602015740024635,-0.13534176349639893,0.0024361361283808947,-0.9907959699630737,0.8303139209747314,-1.0941365957260132,1.1108975410461426,-0.3033331632614136,0.4396415054798126,-0.6020384430885315
351,-0.29556140413460363,-0.11746073912587252,2.6022566257518713,-0.28926989436149597,0.11719082295894623,-0.950046956539154,-2.382089614868164,-1.2252455949783325,-0.34223777055740356,0.39861440658569336,-0.10881375521421432,0.28564882278442383
352,-0.3848651237590338,-0.2890439157776101,2.4892641704388763,-0.3598599433898926,0.2850359380245209,-0.8884004354476929,-2.562319755554199,-0.0667949691414833,-0.46843647956848145,0.4351620674133301,-0.3724840581417084,0.46782243251800537
353,-0.3908727778573549,-0.45371537857014455,2.2345711676690945,-0.34244823455810547,0.4383080303668976,-0.8310326337814331,-1.141270637512207,2.4030508995056152,-2.1304759979248047,0.03426647186279297,-0.22601249814033508,-0.7473822832107544
354,-0.16495882554929941,-0.4361980928247711,2.1388357465470067,-0.1488356739282608,0.42249661684036255,-0.8940607309341431,1.8893108367919922,1.2836551666259766,0.6222609877586365,-0.7985215187072754,-0.29548245668411255,-0.8009923696517944
355,-0.2756056500320148,-0.1418229921856427,2.2405349967158226,-0.2693975865840912,0.14134803414344788,-0.9525994062423706,2.4887993335723877,-2.397102117538452,-0.03818948566913605,0.10579288005828857,0.32988911867141724,0.19518369436264038
356,-0.38552718702395805,-0.013134823513167504,2.1440455686145303,-0.37601524591445923,0.013134445995092392,-0.9265204071998596,0.37794697284698486,0.8588094711303711,-1.4205440282821655,0.8727956414222717,0.4495120346546173,0.5204382538795471
357,-0.26940368330417674,0.08982961182974264,2.19082961880863,-0.26508355140686035,-0.0897088497877121,-0.9600432515144348,2.684232234954834,0.841569185256958,1.3840419054031372,0.008049249649047852,0.9328027367591858,-0.4429108500480652
358,-0.23583906314568184,0.10610870883533874,2.3108570520972047,-0.23234474658966064,-0.10590970516204834,-0.9668500423431396,-1.994179368019104,-0.13942629098892212,1.0148417949676514,0.09245218336582184,0.5937637090682983,-0.3235093951225281
359,-0.28711536810934446,-0.16089537051647076,2.5076981167102543,-0.27952927350997925,0.16020207107067108,-0.9466776847839355,-1.8495205640792847,-1.1134105920791626,4.317441463470459,0.20376941561698914,-0.23152168095111847,0.2577891945838928
360,-0.25528766030598443,-0.49570017453323073,2.911803872136099,-0.2221289575099945,0.4756476581096649,-0.8511275053024292,-2.4348063468933105,0.006868721917271614,3.33819842338562,-0.1085900366306305,-0.4514319598674774,0.2793196439743042
361,-0.09905465658848812,-0.6236047150243405,2.9257507700002923,-0.08027902990579605,0.5839651823043823,-0.8077994585037231,1.2351529598236084,2.5373425483703613,-1.5593563318252563,-0.8169835209846497,-0.3076285123825073,-1.0460823774337769
362,-0.1381032726976862,-0.4376019537009537,2.8387674948876054,-0.12469261884689331,0.4237686097621918,-0.8971465229988098,1.8787795305252075,-2.620797634124756,-0.09090612828731537,-0.4436209797859192,-0.01231539249420166,-0.3560730218887329
363,-0.4175371754558496,-0.2770994285448704,2.7423173317515435,-0.39004144072532654,0.273566871881485,-0.8792206048965454,0.5709561109542847,-1.3290619850158691,-3.162548780441284,0.47686392068862915,-0.004066139459609985,0.2821747064590454
364,-0.4630091436431872,-0.07358819661153179,2.472075532022745,-0.445433646440506,0.07352180033922195,-0.8922911286354065,1.1015599966049194,1.292484998703003,-1.9310745000839233,0.7995901107788086,0.09000664949417114,0.108767569065094
365,-0.3342609219522178,0.11900429608615669,2.647115281115867,-0.3257507383823395,-0.11872360110282898,-0.937971830368042,2.7127037048339844,1.444901704788208,3.116412401199341,0.12520450353622437,1.0626780986785889,-0.540574312210083
366,-0.34418846475692444,0.0359887945810618,2.951214461687943,-0.3372143507003784,-0.03598102554678917,-0.9407400488853455,-2.357186794281006,-0.5489606857299805,3.4774951934814453,0.2904461622238159,0.19906696677207947,-0.24901825189590454
367,-0.3032554922390369,-0.15973248220854475,-3.0938156472971907,-0.2948271334171295,0.15905410051345825,-0.942220151424408,-0.7642683982849121,0.7030441761016846,2.090719223022461,0.1301696002483368,-0.024227455258369446,0.36562103033065796
368,-0.1799384500583163,-0.34716764945876477,-2.918128603402641,-0.16829174757003784,0.34023579955101013,-0.9251580834388733,-1.6479538679122925,0.9045777916908264,1.799675703048706,-0.13692979514598846,-0.11013326048851013,0.3553186058998108
369,-0.05787081149587779,-0.5718822319660579,-2.881056407346088,-0.048635467886924744,0.541215717792511,-0.8394761085510254,-1.3062424659729004,1.4468005895614624,-0.33854055404663086,-0.5129032135009766,-0.2017229199409485,-0.9301924705505371
370,-0.000751447951094254,-0.562018335694958,-2.8426462406382305,-0.000635861128102988,0.5328951478004456,-0.8461810350418091,1.7482526302337646,-1.6792047023773193,0.3209623098373413,-0.5577595233917236,-0.27587610483169556,-0.5519970655441284
371,-0.20889844268186497,-0.39000273301127075,-2.8973080115621896,-0.19180965423583984,0.3801909387111664,-0.9048004746437073,1.58699369430542,-1.5244901180267334,-1.6036248207092285,0.43125057220458984,-0.13856801390647888,0.029739439487457275
372,-0.29357894078398006,-0.1635257443183552,-3.0204996735115044,-0.28551939129829407,0.16279791295528412,-0.9444445371627808,2.911233425140381,-0.023403428494930267,-0.7048362493515015,0.723156750202179,0.2825298309326172,0.17682069540023804
373,-0.2947154500750444,0.04522060886567003,-2.8234520468226787,-0.2901706397533417,-0.04520519822835922,-0.9559066295623779,1.8575339317321777,0.32194969058036804,2.4216113090515137,0.4608859717845917,0.9131861329078674,0.01501917839050293
374,-0.23000445054143082,0.059774512451592134,-2.5884269625705336,-0.2275746911764145,-0.059738922864198685,-0.9719264507293701,-1.225782036781311,0.5010973811149597,1.7029461860656738,-0.1785532385110855,0.7295234799385071,-0.2711918354034424
375,-0.20601023838223306,-0.23418502890335563,-2.4915784938021512,-0.19897253811359406,0.2320503443479538,-0.9521358013153076,-3.45112681388855,-0.20135240256786346,1.6780446767807007,-0.05935877561569214,-0.1399330198764801,-0.12238812446594238
376,-0.18206467820048589,-0.5132304996063558,-2.3015173046830353,-0.15773320198059082,0.49099409580230713,-0.8567643165588379,-1.4075348377227783,-0.3482288122177124,2.4629993438720703,-0.04122614860534668,-0.5132261514663696,0.1383500099182129
377,-0.06833162117484912,-0.6360638075292905,-2.0414800509166806,-0.054925937205553055,0.5940335988998413,-0.8025628924369812,-0.9407057166099548,0.014329036697745323,1.2765084505081177,-0.20409199595451355,-0.4768155813217163,0.0909845232963562
378,-0.009149591938096653,-0.6482911836712907,-1.9880390532731234,-0.007293191738426685,0.6038251519203186,-0.7970834374427795,1.2264870405197144,-0.17181400954723358,-0.0023682601749897003,-0.6071171760559082,-0.4726148247718811,-0.8290457129478455
379,-0.11496407340730527,-0.37972894829983406,-1.9146980406024763,-0.10653957724571228,0.3706687390804291,-0.9226342439651489,2.457209348678589,-1.8245295286178589,0.3093644678592682,-0.07885470241308212,0.19288408756256104,-0.5633886456489563
380,-0.28294371633481047,-0.19690490989453424,-1.9551825763845163,-0.27378880977630615,0.19563499093055725,-0.9416828751564026,1.4111533164978027,-1.5375577211380005,-1.473547101020813,0.6148074865341187,0.30076393485069275,0.12138563394546509
381,-0.3236801544099797,-0.16287059342963953,-1.8907101691092234,-0.3138485550880432,0.16215147078037262,-0.9355244636535645,-1.0345841646194458,0.9299631118774414,2.5471062660217285,0.5321255326271057,0.4381903111934662,0.19886064529418945
382,-0.20699545821450666,-0.14749967696123215,-1.5343289305291798,-0.20328880846500397,0.1469654142856598,-0.9680262804031372,1.828588843345642,0.5311547517776489,4.033444404602051,-0.05698034167289734,0.6474682092666626,-0.1607731580734253
383,-0.11657564711637808,-0.22244639928063129,-1.1632568674511363,-0.1134459376335144,0.2206164002418518,-0.9687406420707703,-1.9598222970962524,0.5672426819801331,2.4268107414245605,-0.2024415135383606,0.3181561827659607,-0.058770954608917236
384,0.01093374719256771,-0.4321177362456294,-0.9801571587257198,0.009928529150784016,0.41879481077194214,-0.9080265760421753,-1.6446304321289062,0.3703342378139496,1.8848017454147339,-0.34510308504104614,-0.3969137370586395,-0.07312875986099243
385,0.10888463736713297,-0.5513880438807847,-0.7187116464086756,0.09256458282470703,0.523870050907135,-0.8467537760734558,-1.1261364221572876,-0.4629964232444763,1.5047388076782227,-0.28461170196533203,-0.5869651436805725,0.07722252607345581
386,0.0908411369333471,-0.6050603072783539,-0.6690674016957119,0.07461119443178177,0.5688116550445557,-0.8190765380859375,0.9021967053413391,-0.3004511594772339,-0.2279932051897049,-0.26407957077026367,-0.6446326375007629,-0.4423522353172302
387,0.027937608013035683,-0.382775106810062,-0.6771263297789658,0.025912439450621605,0.3734961748123169,-0.9272697567939758,2.6216487884521484,-0.6985899806022644,-0.1944657862186432,-0.36734309792518616,0.0895622968673706,-0.6111976504325867
388,-0.07900728001237405,-0.1119703190102482,-0.728667457934593,-0.07843086868524551,0.11173649877309799,-0.9906379580497742,2.5266339778900146,-1.1346560716629028,-0.8773582577705383,-0.08125235885381699,0.2075841724872589,-0.18894273042678833
389,-0.14105520985439535,0.19645317034227203,-0.809575314236382,-0.137883722782135,-0.19519196450710297,-0.9710242748260498,3.080296754837036,0.45370960235595703,-1.05881929397583,0.7000938057899475,1.2062546014785767,0.6374977231025696
390,-0.0028975533719038443,0.26123730615409274,-0.7891739924238119,-0.0027992387767881155,-0.2582760751247406,-0.9660670757293701,-1.0953422784805298,1.3040440082550049,2.813875198364258,0.05104752629995346,0.4887295961380005,-0.3824283480644226
391,-0.01867658979323439,0.19370687971402906,-0.335658450848926,-0.018326224759221077,-0.19249776005744934,-0.9811262488365173,-0.08055940270423889,0.6589434146881104,4.7956085205078125,-0.16038471460342407,0.5165944695472717,-0.5430283546447754
392,0.02357091333810032,0.042934361614156556,0.15288996730940677,0.023547010496258736,-0.042921170592308044,-0.9988009333610535,-2.471961259841919,1.844306468963623,3.54540753364563,-0.6373317837715149,0.09673891961574554,0.14874905347824097
393,0.08623556896267034,-0.21012867867693757,0.31803888604833447,0.08423424512147903,0.20858575403690338,-0.9743698239326477,-2.2233033180236816,-0.6214565634727478,0.4907170236110687,-0.5247554779052734,-0.8996562957763672,0.4662826657295227
394,-0.0708863202258584,-0.26892741600667264,0.21230061960400043,-0.06828119605779648,0.26569756865501404,-0.9616352915763855,1.1394506692886353,-0.6758460998535156,-2.756235361099243,-0.3639697730541229,-0.09794244170188904,-0.6367990970611572
395,-0.13051311625795178,-0.15980786832195393,-0.05463093057115886,-0.12848462164402008,0.15912853181362152,-0.9788615107536316,1.126675009727478,-0.666649341583252,-1.7530113458633423,-0.3365422487258911,-0.15032419562339783,-0.4911549687385559
396,-0.24558412174524827,0.008985843239369134,-0.13708961158631897,-0.24311314523220062,-0.008985722437500954,-0.9699563384056091,0.8187443017959595,-0.6980337500572205,-1.7327922582626343,0.3187204599380493,0.3128950297832489,0.35844510793685913
397,-0.1833576166234577,0.119089926187872,-0.3393894935224761,-0.18104049563407898,-0.11880862712860107,-0.9762729406356812,0.5826267004013062,1.4357271194458008,-1.4957278966903687,0.3822886645793915,0.21533572673797607,0.37330663204193115
398,-0.03861036676879996,0.18448800129051723,-0.25027528723212306,-0.03794573247432709,-0.18344324827194214,-0.9822976589202881,-0.02455301582813263,1.2873581647872925,2.6836745738983154,-0.3309202194213867,0.43251246213912964,-0.20657563209533691
399,-0.06793878554219691,0.11292844451865254,-0.02211098171132634,-0.06745412200689316,-0.1126885712146759,-0.9913380742073059,-1.3770455121994019,-0.6864064335823059,0.6650875806808472,-0.19006845355033875,0.3317895233631134,-0.12951147556304932
400,-0.059615659091720744,-0.09802595006187802,-0.056016697946430515,-0.05929432436823845,0.09786903858184814,-0.9934313297271729,-1.9921765327453613,0.1452784538269043,0.502733051776886,-0.015473738312721252,-0.33431923389434814,-0.04805731773376465
401,-0.08367994833297018,-0.24541889594665636,0.059321307147255,-0.08107782900333405,0.24296268820762634,-0.966641366481781,-0.668585479259491,-0.39444318413734436,0.6413981318473816,-0.0033337846398353577,-0.5174835920333862,0.2951783537864685
402,-0.09085936270675025,-0.30451992560224855,-0.0639034347791665,-0.08655980229377747,0.2998352348804474,-0.9500558972358704,-0.1540294587612152,0.930519700050354,-2.4201321601867676,-0.21596094965934753,-0.12049871683120728,-0.42329609394073486
403,-0.0184304088097017,-0.387651692965085,-0.31708046536828577,-0.01706189289689064,0.378015398979187,-0.9256420731544495,-0.3818754553794861,1.5946153402328491,-1.8826388120651245,-0.6173833012580872,-0.556939959526062,-0.921693742275238
404,-0.03163759759349466,-0.16213720760887038,-0.447130253909642,-0.03121744655072689,0.16142775118350983,-0.9863906502723694,3.2905678749084473,-0.8022139668464661,-1.4588946104049683,-0.42405903339385986,0.13357040286064148,-0.01161038875579834
405,-0.09729889583231029,0.10186456220165012,-0.6666006281816665,-0.09664186835289001,-0.10168848931789398,-0.9901109933853149,1.120846152305603,-0.17974884808063507,-3.0702836513519287,-0.046638160943984985,0.5240517854690552,0.41255056858062744
406,0.03425104842105466,0.2042533716827255,-0.9470911091716978,0.03353250399231911,-0.20283611118793488,-0.9786383509635925,1.4246398210525513,1.7888318300247192,-1.2922643423080444,-0.2189725637435913,0.4604197144508362,-0.048629045486450195
407,0.09109119301481723,0.38400504179171396,-0.8628413986969948,0.0843404233455658,-0.37463682889938354,-0.923327624797821,1.46815025806427,-0.5276591181755066,2.72445011138916,-0.3879903256893158,0.9377167224884033,0.08096623420715332
408,-0.07487696544478381,0.22520869779904892,-0.7367406252787012,-0.07291795313358307,-0.22330980002880096,-0.9720163345336914,-5.219252109527588,-1.0660427808761597,-0.47000372409820557,0.16201402246952057,0.6842930316925049,0.0031747817993164062
409,-0.15957307886462835,-0.24475903844519392,-0.8492580624125119,-0.15416093170642853,0.24232254922389984,-0.9578695893287659,-4.136533737182617,-1.0563862323760986,0.07949250936508179,0.35612624883651733,-0.48371660709381104,-0.06492698192596436
410,-0.2235223764034006,-0.5498916330733995,-0.9926226029432892,-0.18898802995681763,0.5225948691368103,-0.8313712477684021,-1.644483208656311,1.3266340494155884,-1.5527430772781372,-0.14395874738693237,-0.17351949214935303,-0.9461402893066406
411,-0.09363565451632394,-0.7215334459457992,-1.12713223888504,-0.07019837945699692,0.6605367660522461,-0.7475048303604126,-0.33379554748535156,1.8788156509399414,-0.03940186649560928,-0.7583996057510376,-0.9202260971069336,-1.1156085729599
412,-0.10770468791309853,-0.47053148248666593,-1.112356933322667,-0.09581465274095535,0.45336008071899414,-0.8861626386642456,3.0186524391174316,-1.2357120513916016,-1.0083913803100586,-0.32076555490493774,-0.07500314712524414,0.1465691328048706
413,-0.2283395759266857,-0.26808567394226135,-1.3793140208851882,-0.21827486157417297,0.2648859918117523,-0.9392505288124084,-0.021681491285562515,0.7699588537216187,-3.972418785095215,0.11033417284488678,0.07088366150856018,0.45231205224990845
414,-0.06605966751804965,-0.21314936490245628,-1.7192150968945246,-0.06451775878667831,0.21153903007507324,-0.9752377867698669,0.5023929476737976,4.041218280792236,-0.14871016144752502,-0.2993738651275635,-0.24880099296569824,-0.43349939584732056
415,0.13752873382253597,0.056982349129627206,-1.3989794163771494,0.13687309622764587,-0.05695151910185814,-0.9889500737190247,3.085982084274292,-1.7288074493408203,3.6626029014587402,-0.840104877948761,0.7869472503662109,-0.026125609874725342
416,-0.045589520865226614,0.07410846747476148,-1.5197275847242764,-0.04544864222407341,-0.07404065132141113,-0.9962190389633179,-1.6546093225479126,-1.4439500570297241,-4.53561544418335,0.33766970038414,0.49341320991516113,0.40915238857269287
417,-0.13578824717870464,-0.021822240495411628,-1.81722666511848,-0.13533911108970642,0.02182050794363022,-0.9905590415000916,-1.2195501327514648,-1.5100232362747192,-1.241241216659546,0.3166745603084564,-0.07609602063894272,0.6074718832969666
418,-0.2688044698109097,-0.09481171774413512,-2.000764319625891,-0.26438623666763306,0.09466973692178726,-0.9597591161727905,-2.4789581298828125,-0.21055454015731812,-1.6175000667572021,0.09194666147232056,0.5498310327529907,-1.076541543006897
419,-0.16701345890867872,-0.3723825264487436,-2.18411927762499,-0.15484467148780823,0.3638356924057007,-0.9185024499893188,-0.19709692895412445,0.5916565656661987,-0.12185618281364441,-0.3797927498817444,-0.7827962636947632,-0.31480443477630615
420,-0.15869635438538843,-0.26182417643557127,-2.1235459838803608,-0.1526452898979187,0.25884297490119934,-0.95378178358078,0.8874802589416504,-0.9364287853240967,0.6384351849555969,0.014492213726043701,0.04447120428085327,0.6740729212760925
421,-0.16137255228254752,-0.2891027794046667,-2.166422857755454,-0.15400515496730804,0.2850923538208008,-0.9460468888282776,0.11480396240949631,1.2164332866668701,-0.9067015051841736,-0.16711606085300446,0.08887001872062683,0.17231953144073486
422,-0.041549640701424764,-0.2615143390388659,-2.258998789001885,-0.04012538865208626,0.2585436999797821,-0.9651658535003662,0.008614295162260532,0.022618893533945084,-0.8706320524215698,-0.6917014122009277,0.1238110363483429,-0.6124556064605713
423,-0.22335222824008913,-0.34559407024007605,-2.4532826670475223,-0.20840351283550262,0.33875569701194763,-0.9175034761428833,-1.1768100261688232,-0.5146949887275696,-0.9751781225204468,0.9609364867210388,-0.5047102570533752,-0.1789015531539917
424,-0.2690805758592025,-0.34887064061651435,-2.5744577892606824,-0.24983052909374237,0.34183669090270996,-0.9059427976608276,-0.37879061698913574,0.006862210109829903,-1.3000582456588745,0.31547385454177856,-0.37775588035583496,0.5565775632858276
425,-0.28803283713169037,-0.3835816179628411,-2.760780615603948,-0.2634235620498657,0.37424421310424805,-0.8891283869743347,-0.8648640513420105,1.047177791595459,-1.5972188711166382,0.04546704888343811,-0.09827375411987305,-0.11355715990066528
426,-0.12311071662247246,-0.42253937571756195,-2.871603154209672,-0.11199977993965149,0.4100778102874756,-0.9051476120948792,-0.8897821307182312,2.520644426345825,-0.5930609107017517,-0.7870480418205261,-0.049711018800735474,-0.8573950529098511
427,-0.17523752373540424,-0.2793414585861535,-2.947089679253205,-0.16758404672145844,0.2757226824760437,-0.9465160369873047,1.735803484916687,-1.7810016870498657,-0.5937126874923706,5.780160427093506e-05,0.0646398663520813,0.1563549041748047
428,-0.250577162322372,-0.17644134435510292,-2.946883131716938,-0.24411340057849884,0.17552728950977325,-0.9537289142608643,0.7456663846969604,0.12450707703828812,0.18295930325984955,0.36687037348747253,0.047128960490226746,0.6004879474639893
429,-0.1918081215060802,-0.07193259878707242,-2.9910011940381005,-0.19014118611812592,0.0718705803155899,-0.979122519493103,2.0051910877227783,1.3513137102127075,-1.2758772373199463,-0.09266521036624908,0.5094740390777588,-0.2609440088272095
430,-0.15820045720144832,0.020738402251747726,-3.0547297762883203,-0.1575075089931488,-0.02073691599071026,-0.9873000383377075,-2.0648884773254395,-1.4221014976501465,0.5031419992446899,-0.0712217390537262,0.4364473521709442,-0.14069068431854248
431,-0.3053904280200262,-0.35706019105367914,-3.065529454381871,-0.28170210123062134,0.34952136874198914,-0.8935763835906982,-3.715672731399536,-0.9015083312988281,0.2890886962413788,0.21196943521499634,-0.49126026034355164,0.15364718437194824
432,-0.4924032526415079,-0.66511097227863,3.0282777263221305,-0.3719785809516907,0.6171464323997498,-0.6933701634407043,-2.975069761276245,-0.26423677802085876,-1.526996374130249,0.18212872743606567,-0.799839973449707,0.19260722398757935
433,-0.4806377542347836,-0.5865132582836314,2.808611159448828,-0.3850756287574768,0.5534603595733643,-0.7385109066963196,2.2595605850219727,3.362332344055176,-0.7062163352966309,-0.2677106261253357,0.37833285331726074,-1.0362541675567627
434,-0.1986674674995417,-0.47354657168236275,2.860898792414901,-0.175644651055336,0.4560454487800598,-0.8724514245986938,2.1172678470611572,0.0011151498183608055,-1.1499465703964233,-0.7881462574005127,0.1523071825504303,-0.3210757374763489
435,-0.33049845632440955,-0.28604222309610045,2.704407053522189,-0.3113289177417755,0.2821574807167053,-0.9074478149414062,0.6327053308486938,-0.39418160915374756,-1.8034368753433228,0.311344176530838,-0.016868174076080322,0.7424392700195312
436,-0.3312886754635574,-0.16831332160212611,2.6768185905841935,-0.32066553831100464,0.16751974821090698,-0.9322611093521118,1.5989232063293457,1.3532980680465698,0.08439146727323532,0.26605433225631714,0.256338894367218,0.038126587867736816
437,-0.22138682763579834,-0.09194029649322973,2.6868791958326192,-0.21865540742874146,0.09181082248687744,-0.9714733958244324,0.2591490149497986,-0.5197808742523193,0.5142474174499512,0.08091431856155396,0.0006879493594169617,-0.6950305104255676
438,-0.25246812426388116,-0.1596636923412224,2.6775310025988484,-0.2466174066066742,0.1589861810207367,-0.9559828639030457,-1.219821572303772,0.37957140803337097,-0.9952613115310669,0.2367754876613617,-0.1004839837551117,0.30908650159835815
439,-0.24324167829873886,-0.2440170044137879,2.617424904949152,-0.2337150275707245,0.2416025698184967,-0.9418097138404846,-1.2495262622833252,0.06128741428256035,-0.10553766787052155,0.1932182013988495,-0.2855325937271118,0.5323706269264221
440,-0.24382464566668513,-0.3580397217503759,2.5432915591973395,-0.2261066436767578,0.3504389524459839,-0.9088829755783081,-0.3338298201560974,0.6951517462730408,-0.8530197143554688,-0.086179718375206,0.007776349782943726,-0.4076452851295471
441,-0.1774399396687527,-0.3891615997042784,2.471828048426035,-0.163312166929245,0.37941282987594604,-0.9107003211975098,-1.1686733961105347,0.4020272493362427,-0.9878588318824768,-0.6570155620574951,-0.09025877714157104,-0.8356070518493652
442,-0.29339162831104765,-0.336827601430041,2.234110461503685,-0.27294978499412537,0.33049461245536804,-0.9034775495529175,0.33809730410575867,-0.12081553041934967,-3.0586507320404053,0.17913877964019775,-0.16112208366394043,0.15236371755599976
443,-0.3576702485825887,-0.1860737110579272,2.059962149833824,-0.3440496325492859,0.18500182032585144,-0.9205455780029297,1.476054310798645,-0.14283446967601776,-0.6185706257820129,0.3588048815727234,-0.10773131251335144,0.4290294647216797
444,-0.3406227853226977,0.03690292033095137,2.1311310906734544,-0.33384671807289124,-0.0368945449590683,-0.9419050812721252,2.6466498374938965,0.7466694712638855,-0.15070614218711853,0.20985379815101624,0.608015775680542,0.11886125802993774
445,-0.168544621094192,0.19217918665243203,2.174433144621332,-0.16465958952903748,-0.19099842011928558,-0.9676811695098877,-0.1220393180847168,1.3725334405899048,0.4926533102989197,-0.13361921906471252,0.9330791234970093,-0.7636420726776123
446,-0.23931749922831774,-0.045332411735368304,2.3401991217673026,-0.23679611086845398,0.04531688615679741,-0.9705018997192383,-1.4243872165679932,-0.9930368065834045,3.9500348567962646,0.5602519512176514,-0.3964979350566864,0.04133325815200806
447,-0.2808890348405922,-0.14496778227387538,2.5402709542147583,-0.2743021845817566,0.1444605439901352,-0.9507310390472412,-0.6383777260780334,-0.5452438592910767,0.9348651170730591,0.1594950556755066,-0.1411494016647339,0.5621659755706787
448,-0.30738745312499366,-0.2867703039894563,2.464619952482359,-0.29021337628364563,0.28285589814186096,-0.9142038822174072,-2.5982279777526855,0.516189455986023,-1.7027957439422607,0.17017248272895813,-0.19969549775123596,0.2518961429595947
449,-0.15886955553877946,-0.4400528332241868,2.264035871479107,-0.14313004910945892,0.42598727345466614,-0.8933357000350952,-2.9758167266845703,2.6394145488739014,0.4244000017642975,-0.7535526752471924,-0.42705538868904114,-1.2644249200820923
450,-0.1255216833481962,-0.3945195165779836,2.3338878231620126,-0.11557522416114807,0.38436466455459595,-0.915918231010437,2.745885133743286,-2.3935062885284424,-0.7076863646507263,-0.23153170943260193,-0.21989017724990845,0.10370814800262451
451,-0.3563205778106294,-0.2032286838142469,2.149512314030705,-0.3416494131088257,0.2018326222896576,-0.9178993701934814,0.9189450740814209,-0.730937659740448,-2.9451985359191895,0.4722646474838257,-0.2017715871334076,0.42385029792785645
452,-0.3480503469799659,0.10963530773124727,1.9969479769149272,-0.33901798725128174,-0.10941580682992935,-0.9343955516815186,3.7597193717956543,1.6586368083953857,-2.090834140777588,0.22666749358177185,0.40613824129104614,-0.49372029304504395
453,-0.10567260194962515,0.34093340389597165,2.202732696518297,-0.09940515458583832,-0.33436691761016846,-0.9371858835220337,-1.1804046630859375,2.803241729736328,4.001004219055176,-0.4310208559036255,0.8668376207351685,-0.4027036428451538
454,-0.1698427008524725,-0.0019210720005269342,2.254325646501811,-0.16902700066566467,0.0019210708560422063,-0.9856095314025879,-4.8150763511657715,-1.2097289562225342,-2.777094602584839,0.34163445234298706,0.3788467347621918,0.37551742792129517
455,-0.2802875437764291,-0.26617599636913314,2.087941927947048,-0.2668900489807129,0.2630440294742584,-0.9271340370178223,-0.1741505116224289,-0.9246143102645874,1.2603553533554077,0.5328049659729004,-0.503156304359436,0.5930733680725098
456,-0.37006096189047055,-0.3019291747190759,2.1889377016010694,-0.34531188011169434,0.29736265540122986,-0.8901320695877075,-0.03425437584519386,-1.5956146717071533,0.27822980284690857,-0.19846555590629578,0.5699774026870728,-1.139958143234253
457,-0.22761284954146893,-0.5458731153646528,2.3846543762918144,-0.1928594708442688,0.519164502620697,-0.8326303958892822,-0.10942564159631729,0.014758237637579441,1.6576240062713623,-0.8393365740776062,-0.6355738639831543,-0.7364766001701355
458,-0.40876549061357587,-0.38090944606668325,2.249066424896433,-0.3689884543418884,0.3717648983001709,-0.8518441319465637,-0.2746666669845581,-0.6203324198722839,-3.525932788848877,0.4757847189903259,-0.1905972957611084,0.4293892979621887
459,-0.43551486336453177,-0.29567948424803575,1.9672230811767044,-0.40356963872909546,0.29138991236686707,-0.8673081994056702,0.9038817286491394,1.443223476409912,-1.7526400089263916,0.38162750005722046,-0.33489274978637695,0.28852707147598267
460,-0.20865689014170113,-0.05217910895567319,2.083171133868079,-0.20686417818069458,0.05215543508529663,-0.9769785404205322,3.6333632469177246,3.0702567100524902,2.7988154888153076,-0.4555503726005554,0.7376700043678284,-0.9181020259857178
461,-0.15755803059258133,0.09493195423481637,2.3557104913758518,-0.15620045363903046,-0.09478943049907684,-0.983166515827179,-1.3754913806915283,-2.241763114929199,-0.497135192155838,-0.017353013157844543,0.807680070400238,0.11950379610061646
462,-0.28233401931480195,-0.08376225292788064,2.203176813353314,-0.27762123942375183,0.08366434276103973,-0.9570406079292297,-0.43211978673934937,-0.9957695603370667,0.14111016690731049,0.6206541061401367,-0.4306339621543884,0.7081392407417297
463,-0.4478927862764499,-0.13273354270608118,2.1725591408851086,-0.4292578101158142,0.13234412670135498,-0.893433153629303,-1.862172245979309,-0.5606151223182678,-0.5573208928108215,0.7288030982017517,0.14937888085842133,0.328095018863678
464,-0.20075799628951796,-0.32244391011918744,2.1471603331083866,-0.18913522362709045,0.31688547134399414,-0.9294145703315735,-2.032797336578369,3.64827561378479,1.6767760515213013,-0.8089574575424194,0.38605639338493347,-1.3725110292434692
465,-0.05765500152558298,-0.4324898447307179,2.3629090673003823,-0.05231742188334465,0.41913267970085144,-0.9064163565635681,0.3262469470500946,-2.691067934036255,1.053049921989441,-0.5537311434745789,-0.6810803413391113,-0.5441451072692871
466,-0.17879811691612016,-0.24188000298788737,2.2953445248157,-0.17266973853111267,0.2395283281803131,-0.9554116129875183,3.6861205101013184,1.0079728364944458,-2.835411787033081,-0.03391900658607483,-0.4097858965396881,-0.07437354326248169
467,-0.07007875418586772,0.13434892104746843,2.058266595902425,-0.0693904310464859,-0.13394512236118317,-0.9885563850402832,4.110579490661621,1.1828911304473877,-2.9421956539154053,-0.5049198865890503,0.07292523980140686,-0.5274653434753418
468,0.11289863864256738,0.46668593920756185,1.7794319147447204,0.10061168670654297,-0.4499290883541107,-0.8873788118362427,2.165083646774292,0.310126394033432,-1.3560781478881836,-0.30140209197998047,0.5243309736251831,-0.6039847135543823
469,0.046545704499627485,0.6659037086780989,1.6923851527749938,0.036588411778211594,-0.6177700161933899,-0.7855071425437927,0.8724233508110046,-2.225949287414551,-1.3087068796157837,-0.012510031461715698,1.0454127788543701,0.3059844970703125
470,-0.10849631174191438,0.5779033860847206,1.5065585431423227,-0.09069938957691193,-0.5462689995765686,-0.8326846957206726,-1.6511214971542358,-1.9803756475448608,-2.2578797340393066,0.31285208463668823,0.3893628716468811,0.4249698519706726
471,-0.030492973847976203,0.5443134759711107,1.2245492334853998,-0.026082178577780724,-0.5178309082984924,-0.8550853133201599,0.06291855126619339,0.4084283113479614,-2.273815393447876,0.16544069349765778,0.19335275888442993,0.3343028426170349
472,0.14003221294982565,0.49299268211553166,0.9525401758581095,0.12295448780059814,-0.47326430678367615,-0.8722975850105286,-0.4784069359302521,-1.0032870769500732,-0.5576313138008118,-0.11395180225372314,-0.5725730657577515,-0.5442826151847839
473,0.03426100437596088,0.49169987254538267,0.975255798823828,0.03019624948501587,-0.4721250534057617,-0.8810142278671265,0.4505314826965332,-1.0066001415252686,-0.3395520746707916,-0.10618501901626587,0.054003745317459106,-0.12672191858291626
474,-0.004786647270017497,0.499294784507185,0.9268399172206807,-0.004202279262244701,-0.4788065254688263,-0.8779103755950928,-0.4231838881969452,0.29427099227905273,-0.9449921250343323,0.18080750107765198,0.3418283760547638,0.4394032955169678
475,0.12957743632625635,0.47876350248827493,0.8216288525984173,0.11468686163425446,-0.46068206429481506,-0.8801243901252747,0.027820631861686707,0.8443161249160767,0.040299709886312485,0.19323548674583435,0.47819915413856506,0.7674688100814819
476,0.044682558009988035,0.4432363724243968,1.0778875307074318,0.04035138338804245,-0.42886534333229065,-0.9024667739868164,-1.6077101230621338,0.49410709738731384,3.980541706085205,-0.037116531282663345,1.2847460508346558,0.2852030396461487
477,-0.07689656325401781,0.07906911441810682,1.5249663305140517,-0.07658079266548157,-0.0789867490530014,-0.9939298033714294,-6.147972106933594,-1.9044352769851685,4.594559669494629,-0.7880890369415283,1.5109325647354126,-1.4213991165161133
478,-0.20914450511440782,-0.6608826399028335,1.794586062128016,-0.1639082431793213,0.6138138771057129,-0.7722477912902832,-4.618650913238525,-0.2828184962272644,1.539371371269226,-0.2557542324066162,-0.7505021095275879,-0.6004939079284668
479,-0.32942600351820417,-0.9214258025621558,1.5616871778273396,-0.19561564922332764,0.7964645624160767,-0.5721702575683594,-2.7924811840057373,1.1701740026474,-2.7953646183013916,0.005216449499130249,-0.5645461678504944,-0.4349709153175354
480,-0.4578666706900584,-0.9634605438737355,1.0881087633324866,-0.25226154923439026,0.8211713433265686,-0.511900007724762,-1.6146504878997803,3.973877429962158,-0.4519273340702057,-0.36367470026016235,-0.4670759439468384,-1.5823228359222412
481,-0.15561133477181455,-0.703182122786074,1.2353953554861656,-0.11822004616260529,0.6466482281684875,-0.7535715699195862,6.454623222351074,-1.6772595643997192,-0.17136822640895844,-0.7524921894073486,-0.01835232973098755,-0.5082387328147888
482,-0.37670992809171755,-0.19099427152156112,1.2412949658911876,-0.3611738681793213,0.18983517587184906,-0.912971019744873,2.37869930267334,-1.8686604499816895,-2.7962465286254883,0.1605818271636963,0.49748170375823975,0.543799877166748
483,-0.3524381169241803,0.04558199829411552,0.9893700033711712,-0.3448285460472107,-0.045566216111183167,-0.9375590682029724,1.0167937278747559,2.761995792388916,-2.68376088142395,0.2887219786643982,0.394321084022522,0.5456523299217224
484,0.07768206838724462,0.17692428893074197,0.9358546328088951,0.07639253884553909,-0.17600271105766296,-0.9814209938049316,1.4985429048538208,4.050396919250488,0.552746593952179,-1.0191415548324585,0.8336412906646729,-1.0335783958435059
485,-0.04669509967022413,0.22071358045825684,0.9932757207071875,-0.0455457903444767,-0.21892595291137695,-0.9746779203414917,-2.458183526992798,-3.2340328693389893,-0.2720457911491394,0.5359022617340088,0.7075581550598145,0.1320875883102417
486,-0.16921574726643723,-0.012959993157181477,0.9610410201031057,-0.16839520633220673,0.012959630228579044,-0.9856343865394592,-1.305904507637024,-0.7076486945152283,0.6300201416015625,0.5635825991630554,-0.44011417031288147,0.5988240838050842
487,-0.12412383130403261,-0.20316199348581232,0.9448161053603977,-0.12125910818576813,0.20176729559898376,-0.9718982577323914,-2.4389641284942627,1.3808457851409912,-1.525341510772705,-0.009234055876731873,-0.14334139227867126,0.28549689054489136
488,-0.05088598428609476,-0.39473322950937556,0.6093584431842023,-0.046952541917562485,0.3845619559288025,-0.9219043254852295,-3.309204339981079,3.2685158252716064,-1.9918859004974365,-0.5023333430290222,-0.05474323034286499,-1.3018505573272705
489,0.053882619814812356,-0.4179829748349792,0.520930389511522,0.0492200143635273,0.4059179127216339,-0.9125831723213196,3.318220615386963,-1.344948410987854,-0.46939870715141296,-0.6384839415550232,-0.1736486256122589,-0.06486433744430542
490,-0.16938107805785027,-0.19912502353483186,0.392209396655589,-0.1652413308620453,0.19781172275543213,-0.9662120938301086,0.4848857522010803,-1.3600791692733765,-2.6435294151306152,0.04036340117454529,0.14071977138519287,0.7700145840644836
491,-0.2189549992562007,-0.12576224552593168,0.07679864254067019,-0.21549424529075623,0.12543100118637085,-0.9684158563613892,0.14384949207305908,1.3380722999572754,-3.0091211795806885,0.04416857659816742,0.29595571756362915,-0.18108969926834106
492,0.07596230169138889,0.027767073346186374,0.07750586990268002,0.07586001604795456,-0.027763504534959793,-0.9967318773269653,2.3456645011901855,1.9456064701080322,3.549886465072632,-1.0320062637329102,0.4318315088748932,-1.0576351881027222
493,-0.20447333105402113,0.07130877893364536,0.23674397275991987,-0.2025354504585266,-0.071248359978199,-0.9766796231269836,-2.6073408126831055,-1.9538192749023438,-1.1829270124435425,0.5781458020210266,0.3287251591682434,0.43223077058792114
494,-0.28482589270999825,0.03051170449756598,0.12557351931842578,-0.2808595895767212,-0.03050697036087513,-0.9592639207839966,0.8153206706047058,-0.8554028868675232,0.7106804251670837,0.4758974313735962,-0.3138381242752075,0.5806933641433716
