,attitude.roll,attitude.pitch,attitude.yaw,gravity.x,gravity.y,gravity.z,rotationRate.x,rotationRate.y,rotationRate.z,userAcceleration.x,userAcceleration.y,userAcceleration.z
0,0.12527300977253025,0.24068154246371998,-1.364170664249067,0.12134414166212082,-0.238364577293396,-0.9635652303695679,1.1650193929672241,-1.1870836019515991,0.8278233408927917,0.08287948369979858,-0.062691330909729,-0.23644697666168213
1,0.003807840562114009,0.6014892763968415,0.262697759128074,0.0031395333353430033,-0.565871000289917,-0.8244878649711609,0.6354525685310364,0.107881560921669,0.26896166801452637,-0.06350330263376236,0.08639407157897949,0.2109624147415161
2,0.017564468834167905,0.5780251807817914,0.23426534438385868,0.01471024565398693,-0.5463709831237793,-0.8374140858650208,-1.1166284084320068,0.33475643396377563,-0.4694729447364807,-0.02993851900100708,0.019759654998779297,-0.05366867780685425
3,0.09477193367006848,0.5425098737957259,0.22366471351227493,0.08104271441698074,-0.516287088394165,-0.8525723814964294,-0.46889352798461914,0.12233730405569077,0.6879921555519104,-0.11239953339099884,-0.15873122215270996,-0.3688783645629883
4,0.04750802280943969,0.4282321666129032,0.255594247394976,0.04320185258984566,-0.41526326537132263,-0.9086748957633972,-0.7445932030677795,-0.7009572982788086,-0.49700066447257996,0.09498172998428345,0.08213341236114502,0.020231902599334717
5,0.035368474828664107,0.3369457832235959,0.2351704288337247,0.033372703939676285,-0.3306061625480652,-0.9431785941123962,-0.5362786650657654,-0.8377684354782104,-0.26097843050956726,-0.014039821922779083,-0.13922721147537231,0.07913440465927124
6,0.026211884383413566,0.27450616604629835,0.21835582428313233,0.02522760070860386,-0.2710716128349304,-0.962228536605835,-0.47191157937049866,1.4533566236495972,0.35999974608421326,0.1342419981956482,-0.07334977388381958,0.03319716453552246
7,-0.0016308247254844753,0.34462154559951436,0.24044075187218034,-0.001534937066026032,-0.3378404974937439,-0.9412021040916443,-0.4944245517253876,-0.2679319679737091,0.7199546098709106,0.00846242904663086,-0.08894780278205872,0.07103919982910156
8,-0.15952770460671756,0.34519110242380774,0.6225781849493747,-0.1494813859462738,-0.338376522064209,-0.9290622472763062,1.0343812704086304,-0.910365641117096,3.8890178203582764,0.1289888322353363,-0.0416436493396759,-0.26371729373931885
9,-0.24153152608016587,0.36541655091680597,0.7544709357646618,-0.22339746356010437,-0.3573383688926697,-0.9068642854690552,0.5772024393081665,1.0103213787078857,-2.323108196258545,0.5220425128936768,0.5997852683067322,-0.13448703289031982
10,0.07799484854717086,0.4563083309213438,0.4483847820870788,0.0699438601732254,-0.44063717126846313,-0.8949562907218933,2.5934360027313232,3.481349229812622,-5.72690486907959,0.120729960501194,1.1610655784606934,0.4333016276359558
11,0.7732976676035128,0.31749488755875455,-0.32051246941751255,0.6635882258415222,-0.31218764185905457,-0.6798452138900757,-2.0920422077178955,1.6915761232376099,-7.775705814361572,-0.09559506177902222,0.39846086502075195,-0.12452179193496704
12,0.693155730521395,-0.29405752497213483,-0.5675943045176157,0.611540675163269,0.28983795642852783,-0.7362146973609924,-0.12780240178108215,-1.0866892337799072,-4.0708088874816895,0.40228378772735596,-0.7306033372879028,-0.49754995107650757
13,0.688144486890589,-0.340226645932055,-0.8140716822107973,0.5987001657485962,0.3337007462978363,-0.7281495928764343,1.4404754638671875,1.3916882276535034,0.89061039686203,1.3001339435577393,-0.9543215036392212,-0.0858914852142334
14,0.9838235378201172,-0.17393167964374381,-0.7118987737690237,0.8200585246086121,0.17305603623390198,-0.5454866886138916,0.33788391947746277,3.6545844078063965,2.1075453758239746,0.10929328203201294,0.11901244521141052,-0.6489713191986084
15,1.0534802718714547,-0.10286028860161905,-0.6261750316717963,0.8645558953285217,0.10267900675535202,-0.49193528294563293,-0.8811870813369751,0.015358597971498966,-1.3387742042541504,-0.36284685134887695,1.1862919330596924,0.41770124435424805
16,1.1324936203756737,-0.23898153690382018,-0.7467466362691176,0.8797393441200256,0.2367132306098938,-0.41234150528907776,-0.22741661965847015,-1.5388723611831665,-2.1374363899230957,-0.3269287347793579,0.0793420821428299,0.10946983098983765
17,1.0274443743001356,-0.3908596623886417,-0.9151671648907287,0.7914240956306458,0.3809833824634552,-0.47801631689071655,1.1049154996871948,-1.7368595600128174,-1.318518042564392,0.26941269636154175,-0.3575764000415802,-0.45527225732803345
18,0.928608234114838,-0.4477727620550659,-0.9150543540523809,0.7218404412269592,0.4329589605331421,-0.5399008989334106,-0.9880816340446472,0.08945789933204651,1.7574938535690308,1.0827860832214355,-0.5039428472518921,-0.17759788036346436
19,1.0300015152954713,-0.16224058307947675,-0.6460013612962215,0.8460415601730347,0.1615297645330429,-0.5080568790435791,0.675160825252533,-0.29676058888435364,3.133314371109009,-0.14355742931365967,0.7992246150970459,-0.2530057430267334
20,1.040753452001183,-0.18388193829501373,-0.7887704752584898,0.8482399582862854,0.18284744024276733,-0.4970470666885376,0.1350894272327423,1.4348691701889038,-3.203289031982422,-0.5748482346534729,0.6454759240150452,0.3983074426651001
21,1.0383505169349563,-0.3670320896069286,-0.8985022832221148,0.80418461561203,0.3588467836380005,-0.4738313555717468,0.4521315097808838,-0.5657634735107422,-1.341966152191162,-0.07550114393234253,-0.490179181098938,0.12728899717330933
22,0.9936194382601823,-0.37252309891925706,-0.9604944411982866,0.7805292010307312,0.3639666438102722,-0.5082345604896545,0.6247454285621643,1.0110423564910889,2.0902366638183594,0.41106003522872925,-0.9773089289665222,0.29444366693496704
23,1.1121610686239884,0.01145861224140605,-0.639188643487113,0.8965986371040344,-0.011458361521363258,-0.4426957368850708,-1.0784858465194702,1.8526275157928467,5.027024745941162,0.2323228120803833,0.4658193290233612,0.0376511812210083
24,1.0591795280555383,0.3061144490686654,-0.4058472187187624,0.8314183950424194,-0.3013559877872467,-0.4668275713920593,-2.050137996673584,0.07252497971057892,2.5723817348480225,0.4914270043373108,0.04107162356376648,-0.3268583118915558
25,1.1715523944631685,0.40667545844875397,-0.5045087583845779,0.8462103009223938,-0.39555811882019043,-0.35701805353164673,0.9621476531028748,-0.42737850546836853,0.6762114763259888,0.1608850359916687,0.02141261100769043,0.4120718240737915
26,1.1286994756282587,0.5218834976183675,-0.550678405540092,0.7835366725921631,-0.498513787984848,-0.37088289856910706,0.9987866282463074,0.5983461737632751,0.12282189726829529,-0.48702800273895264,0.5796753168106079,0.09303560853004456
27,1.1024469224739393,0.6167676322558754,-0.4887142077567702,0.7279077768325806,-0.5784013867378235,-0.368242084980011,-0.7133373022079468,1.6729480028152466,0.3913966119289398,-0.40570318698883057,0.3401811718940735,0.298143208026886
28,1.3576994269470757,0.5585570830195488,-0.5336076875427498,0.8288390636444092,-0.5299631357192993,-0.1793460100889206,0.22757728397846222,6.188854217529297,-4.965195655822754,0.19963383674621582,-0.6713308095932007,-0.4321194887161255
29,1.519817458254287,0.23763638978763485,-0.5578298201656477,0.9706344604492188,-0.23540610074996948,-0.049524758011102676,-0.6617806553840637,-3.0120131969451904,1.557809591293335,0.8407669067382812,-1.2166507244110107,-0.04251629114151001
30,1.5517743421055514,0.4821674352377605,-0.6216582244684371,0.8858317732810974,-0.4637005925178528,-0.01685231178998947,0.4061536490917206,-0.2678096890449524,2.6099631786346436,-0.004941880702972412,0.3529523015022278,-0.17498117685317993
31,1.6473544085751093,0.7817206126068393,-0.7864905240465964,0.7076236009597778,-0.7045015692710876,0.054280396550893784,2.418332099914551,0.11423719674348831,4.449051856994629,-0.47912323474884033,0.6997256278991699,0.2980145215988159
32,1.7639837370803282,0.9949490433240683,-0.9951632122063245,0.5344156622886658,-0.8387312293052673,0.10454622656106949,0.5133209228515625,-2.4967689514160156,1.0559967756271362,-0.04766029119491577,0.7446150183677673,-0.32196879386901855
33,1.532834223290851,0.8979692532200111,-0.9296355211898126,0.6227504014968872,-0.7820629477500916,-0.023652277886867523,-0.15496458113193512,-0.2149505466222763,-1.3300068378448486,0.769797146320343,-0.8086963295936584,-0.023344814777374268
34,1.6212041446313499,0.8952894978685101,-0.9681155977408995,0.6244987845420837,-0.7803901433944702,0.031506311148405075,0.33312904834747314,0.7145717740058899,0.06729248911142349,0.14944225549697876,-0.3179222345352173,-0.2729156017303467
35,1.6427152978421466,0.9615681723280599,-0.9671891050604939,0.5707552433013916,-0.8200899362564087,0.0411190502345562,-0.8584925532341003,-1.0543123483657837,2.447455406188965,0.13958704471588135,-0.19695407152175903,-0.4612545967102051
36,1.41967350708974,1.1845486008870925,-0.7534767062175527,0.3724215030670166,-0.9263291358947754,-0.05671379342675209,-0.29885366559028625,-0.36478012800216675,0.24197722971439362,-0.2539980709552765,0.9204850792884827,-0.16006779670715332
37,1.483380391329165,1.1168199557189522,-0.8588241146678055,0.43686822056770325,-0.8987104296684265,-0.03828681632876396,0.018074778839945793,-0.5196480751037598,-0.991467297077179,-0.03606557846069336,-0.03991878032684326,0.007143616676330566
38,1.491329090055315,1.0835899086992185,-0.8458378083537058,0.4666818380355835,-0.883644163608551,-0.03716418147087097,0.17023582756519318,1.2194139957427979,-0.3144400417804718,0.1758657693862915,-0.5370407104492188,0.2639250159263611
39,1.6743440621540144,1.0903254341686794,-0.9108936994517677,0.4597214162349701,-0.886777400970459,0.04777397960424423,-0.11606734991073608,0.8351300358772278,-0.3843308687210083,0.31743931770324707,-0.26654303073883057,-0.35743582248687744
40,1.6927253838254657,1.010640347241316,-0.9034619771884412,0.5273736715316772,-0.8471722602844238,0.06462273001670837,-0.23982927203178406,0.4201095700263977,-0.17523492872714996,-0.06693977117538452,0.058048784732818604,-0.009920008480548859
41,1.6361140155632299,0.9349588213245111,-0.8527597869093018,0.5925852060317993,-0.8045746088027954,0.0387614369392395,0.3816661238670349,-0.3661729395389557,-1.2392743825912476,-0.1428477168083191,0.3248078227043152,-0.08931374549865723
42,1.6694759074855199,0.8460401175187839,-0.9502873259378378,0.6597276926040649,-0.7486610412597656,0.06531379371881485,0.8039218783378601,0.32866424322128296,-0.7427374124526978,-0.3212115168571472,0.2532539963722229,0.12940359115600586
43,1.7065757833668884,0.7721440915542962,-0.978577710919859,0.7098224759101868,-0.6976729035377502,0.09697599709033966,-0.5949072241783142,-0.8072828054428101,-0.4487549066543579,0.4081278443336487,-0.458393931388855,0.18157313764095306
44,1.7428006124304742,0.7835372884616438,-1.023037030340641,0.6979674696922302,-0.7057897448539734,0.12125152349472046,0.646012544631958,0.5902798175811768,-0.0846339762210846,0.19119256734848022,-0.30450987815856934,-0.10465003550052643
45,1.7960387714477681,0.7335031351932395,-1.0685052091543101,0.7240698337554932,-0.6694759726524353,0.16590650379657745,0.09328433126211166,-0.27251243591308594,-0.6918846368789673,-0.003259897232055664,0.019192159175872803,-0.284726619720459
46,1.7138585066223746,0.6654982893813556,-1.020770867361089,0.7785732746124268,-0.6174511909484863,0.11215055733919144,-0.8377727270126343,0.686257004737854,-0.9587898254394531,-0.14934659004211426,0.35834163427352905,0.49636995792388916
47,1.6775392022629037,0.6033911373219776,-0.9807472278584879,0.8187295198440552,-0.5674380660057068,0.08772698044776917,-0.016642745584249496,-0.32987380027770996,-0.16120457649230957,-0.3332101106643677,0.1513308882713318,-0.12828493118286133
48,1.6641042627387999,0.6743128329572229,-0.9499070770593602,0.7777382731437683,-0.6243606805801392,0.07278048992156982,-0.8113808631896973,0.49540773034095764,1.408917784690857,0.11340552568435669,-0.12260282039642334,0.4221688508987427
49,1.564424331860021,0.9983865589062841,-0.805311314314321,0.5416481494903564,-0.8405981659889221,-0.00345142581500113,-0.5117971897125244,0.5768264532089233,2.9589385986328125,-0.0036385655403137207,-0.1086052656173706,0.26912224292755127
50,1.520799363009442,1.2519382064121949,-0.7457776094788064,0.3130907118320465,-0.9495940208435059,-0.015666641294956207,0.3458663523197174,-1.4339746236801147,0.5557988882064819,0.04535353183746338,0.7262969017028809,-0.5307048559188843
51,1.4861713286630702,1.3447508117641407,-0.8552807318319611,0.2233227789402008,-0.9745603203773499,-0.01894393377006054,-0.6375327706336975,0.8606500029563904,1.490885615348816,0.2588701844215393,-0.1529877781867981,0.5893327593803406
52,0.1805698619040552,1.3262203131499164,0.37764604849613015,0.04348691925406456,-0.97024005651474,-0.2382083535194397,-0.6386474370956421,-0.3303528428077698,-0.24345338344573975,-0.05444272980093956,-0.2607017755508423,0.2516970932483673
53,0.13972935954796667,1.3520441393354856,0.4158913762619079,0.030224371701478958,-0.9761689901351929,-0.21489694714546204,0.7650532722473145,-0.1806645393371582,0.9326255321502686,-0.09835487604141235,-0.48493635654449463,0.16648083925247192
54,0.058684339764731294,0.4218713555827035,-1.076479769252528,0.05350842326879501,-0.4094684422016144,-0.9107537865638733,-0.5587787628173828,-0.20415446162223816,-0.2512333393096924,-0.010448113083839417,-0.06570550799369812,0.11094909906387329
55,0.045688808667761385,0.39291890306263133,-1.1148287969436783,0.042192429304122925,-0.38288649916648865,-0.9228313565254211,0.5264890193939209,-0.18384456634521484,-0.06952011585235596,0.09750178456306458,-0.18866193294525146,-0.25182074308395386
56,0.11440958606678693,0.4366144452463232,-1.0659543266963751,0.10345062613487244,-0.42287394404411316,-0.9002642035484314,0.6221316456794739,1.4231280088424683,-0.636407196521759,0.08259978145360947,0.31087443232536316,0.035853803157806396
57,0.17842099174371742,0.46621033441884485,-1.0829576696311096,0.15853530168533325,-0.4495042860507965,-0.8790975213050842,-0.33090177178382874,-0.8205555081367493,1.286644458770752,0.15803879499435425,-0.1164899468421936,-0.05164283514022827
58,0.072024697066809,0.3911266895789367,-1.034139440225955,0.0665278434753418,-0.38123026490211487,-0.9220832586288452,-0.23854778707027435,-0.4576047956943512,0.10356709361076355,-0.0998225286602974,-0.013789266347885132,0.21763074398040771
59,0.06588498595258284,0.4134933502357022,-0.9774853413169748,0.06028874218463898,-0.4018107056617737,-0.9137359857559204,0.335880309343338,0.2537737190723419,0.6264666318893433,0.002577461302280426,-0.09078878164291382,-0.03760373592376709
60,-0.002257281398660706,0.42124315960028774,-0.9675732343865636,-0.00205995119176805,-0.40889525413513184,-0.9125789999961853,0.4855334758758545,-1.0335742235183716,-0.5650047063827515,-0.035476669669151306,-0.006571054458618164,-0.1406436562538147
61,0.020749863306346254,0.416945513421739,-0.9648197110812149,0.01897086389362812,-0.40496954321861267,-0.9141333103179932,-0.9788769483566284,0.5673202276229858,0.5797308087348938,0.08304940164089203,-0.03202691674232483,-0.31053704023361206
62,-0.0013049929870207404,0.3320980778747304,-0.9005324050611532,-0.00123368832282722,-0.32602718472480774,-0.9453595876693726,-0.6863793730735779,0.44587618112564087,0.1490330696105957,-0.07470931112766266,0.09964781999588013,0.14999520778656006
63,0.050313951995871645,0.35406786486518765,-0.926035141808582,0.04717307165265083,-0.3467161953449249,-0.9367830753326416,0.9739906191825867,0.5297096371650696,0.10130361467599869,-0.07354027032852173,-0.10250252485275269,0.24465972185134888
64,0.07557409835515769,0.44619494616822775,-0.8984380911749554,0.06811019033193588,-0.43153613805770874,-0.899520754814148,0.9750986099243164,0.26220640540122986,0.22488953173160553,-0.10151167213916779,0.13546985387802124,0.06092822551727295
65,0.08731111327056958,0.5334881335827529,-0.884481175528199,0.07508274912834167,-0.5085398554801941,-0.857758641242981,0.40511980652809143,-0.4784320890903473,-0.23016861081123352,-0.09447667002677917,-0.019643127918243408,-0.24015700817108154
66,0.024857125277157333,0.5072416295757741,-0.8850104447488835,0.021725071594119072,-0.48576804995536804,-0.8738177418708801,-0.32327497005462646,-0.593258261680603,-0.06592284888029099,0.05655251443386078,-0.04523780941963196,-0.07440918684005737
67,0.03288056093285296,0.44022063212308726,-0.9121135805048649,0.029740290716290474,-0.42613908648490906,-0.9041686654090881,-0.18441501259803772,0.16130474209785461,-0.2946818768978119,0.08701995015144348,0.05583879351615906,0.05289614200592041
68,0.050815780375908115,0.46650787717526365,-0.9414654663672938,0.04536629840731621,-0.44977006316185,-0.8919914960861206,0.46641841530799866,0.1108551174402237,-0.2737717032432556,-0.019029632210731506,0.06463822722434998,0.3180626630783081
69,0.06390406063033145,0.5107481378855377,-0.9438642970751757,0.055710624903440475,-0.488830029964447,-0.8705983757972717,0.34924179315567017,0.09781047701835632,0.4201580882072449,0.10711590945720673,-0.09684804081916809,0.09792381525039673
70,0.02919659636731114,0.5147064489963199,-0.9187040046621223,0.02541019581258297,-0.4922793507575989,-0.8700662851333618,0.611553430557251,-0.46297934651374817,-0.23503482341766357,0.05384396016597748,-0.05555695295333862,-0.3119558095932007
71,-0.01791857185630125,0.6017528038729456,-0.9487547666328332,-0.01477028802037239,-0.5660882592201233,-0.8242123126983643,-0.41466784477233887,0.1820322573184967,0.12166368216276169,-0.05954001843929291,-0.3168615698814392,0.11673855781555176
72,0.05190016542284827,0.519579789319458,-0.9496594319341166,0.04503056779503822,-0.4965154230594635,-0.8668590784072876,0.12449273467063904,0.4785083532333374,-0.5137926340103149,-0.013689015060663223,0.2252447009086609,-0.06382018327713013
73,0.08684098391009543,0.45932249058440966,-0.9775907496070053,0.07774238288402557,-0.443340927362442,-0.8929753303527832,-0.7908472418785095,0.26019272208213806,-0.4059391915798187,0.09652825444936752,0.18194261193275452,0.2194523811340332
74,0.19012869280664108,0.46396636861736346,-1.0318942965473246,0.1690066158771515,-0.4474986791610718,-0.8781694769859314,1.0662981271743774,0.7897878885269165,-0.245418518781662,0.12130710482597351,0.04460561275482178,0.39486265182495117
75,0.24957920608604586,0.4937777995094856,-1.0322327795343702,0.21749219298362732,-0.47395581007003784,-0.8532661199569702,-0.3588210344314575,0.6109054684638977,-0.27767813205718994,0.10590259730815887,0.25148266553878784,0.3005164861679077
76,0.445565536337974,0.43528796445151396,-1.0137694507114419,0.39077988266944885,-0.4216715395450592,-0.8182201385498047,-2.610478639602661,2.9392759799957275,0.8076526522636414,0.21990734338760376,0.18534338474273682,0.4148845672607422
77,0.8111938917700062,0.2071620899762745,-0.8277901170820682,0.7096059322357178,-0.20568349957466125,-0.6739092469215393,-0.8285685181617737,6.068717956542969,-1.5810641050338745,0.3826334476470947,0.9155223369598389,-0.05977910757064819
78,1.441421729367544,-0.0821423444988211,-0.9778426702339242,0.9882991313934326,0.08205000311136246,-0.12857897579669952,1.1230883598327637,4.678305149078369,-4.954318523406982,0.9161960482597351,0.39033159613609314,-0.7292701005935669
79,1.6293292532884405,-0.5343656087897922,-1.0215742362242457,0.8591181039810181,0.5092951655387878,0.050344206392765045,0.03955833986401558,0.14372585713863373,-2.5322089195251465,0.44434869289398193,-0.8576686382293701,-0.5046136379241943
80,1.5896105359725023,-0.6785747545288932,-1.0475807623273212,0.778330385684967,0.6276841759681702,0.01464539859443903,0.21045158803462982,0.8700316548347473,-0.9191749095916748,0.43283599615097046,-0.6912217736244202,0.05642998218536377
81,1.642754230136428,-0.6670074444254979,-1.0589443821111795,0.7836431264877319,0.6186375617980957,0.05648684501647949,1.3361531496047974,-0.8346621990203857,1.8812395334243774,1.302065372467041,-0.7588812112808228,-0.823012113571167
82,1.4658650120638967,-0.3612751452375525,-1.2605465359697396,0.9303016662597656,0.35346734523773193,-0.0979776382446289,2.016066074371338,-0.36034783720970154,3.993565320968628,0.6429252624511719,0.06961306929588318,-0.0779714584350586
83,1.41214656299369,0.0418302283834207,-1.4032567138207128,0.9865778088569641,-0.041818030178546906,-0.15784688293933868,2.1139400005340576,0.22924213111400604,3.508085012435913,-0.08781975507736206,0.4468930959701538,0.028467640280723572
84,1.4705370415665822,0.3130859837017718,-1.5825454271075419,0.9466100335121155,-0.30799606442451477,-0.0952257290482521,1.7918736934661865,-0.2900966703891754,1.5144250392913818,-0.27194273471832275,0.7415287494659424,-0.046467363834381104
85,1.5015972189699924,0.4374776280751281,-1.674280633625553,0.9036552309989929,-0.42365598678588867,-0.06263213604688644,-0.12810304760932922,0.4426705539226532,0.5693471431732178,-0.025252580642700195,0.966182291507721,-0.014974050223827362
86,1.4335972773200503,0.34856924432085984,-1.4816914696898043,0.9310303926467896,-0.3415534496307373,-0.12854404747486115,-3.631273031234741,-0.2881462275981903,-2.6066441535949707,0.027206242084503174,1.0297858715057373,0.00503946840763092
87,1.402574121866226,-0.0618727215245844,-1.2104782227047517,0.9839974045753479,0.061833251267671585,-0.16710951924324036,-2.094412326812744,-0.46530404686927795,-4.071438789367676,0.559230625629425,0.3248854875564575,-0.34100818634033203
88,1.369203553783221,-0.4172034395947908,-1.109328520657786,0.8957116603851318,0.4052053391933441,-0.18305550515651703,-1.2984024286270142,-0.07892279326915741,-1.86068856716156,0.014642953872680664,-0.5508047342300415,0.016032814979553223
89,1.4805443627862838,-0.47888724335367544,-0.9232235334864429,0.883895993232727,0.4607918858528137,-0.07999064773321152,-3.0085105895996094,-0.02571692317724228,-0.3706122934818268,0.1439664363861084,-0.3827584981918335,-0.2695119380950928
90,1.672849021001717,-0.5358927757963403,-0.5873125806026179,0.8553395867347717,0.5106088519096375,0.08759400993585587,-1.42620849609375,0.6286466121673584,-0.0482419915497303,0.5365213751792908,-0.7396128177642822,-0.9385919570922852
91,1.6408694466267968,-0.41541193506595203,-0.6715346682913488,0.9127047061920166,0.4035668671131134,0.06406095623970032,2.1597399711608887,-0.35604870319366455,2.0132501125335693,0.7850490808486938,-0.3409143090248108,-0.7193648815155029
92,1.534035675878317,-0.1543770052616527,-1.0092293101840744,0.9874398708343506,0.153764545917511,-0.03631529211997986,4.546401500701904,0.04978836327791214,2.9222898483276367,0.36857813596725464,0.20414559543132782,-0.29190123081207275
93,1.5487191652668502,0.18794650547076772,-1.4833345075863107,0.982150673866272,-0.1868419647216797,-0.021686622872948647,4.173675060272217,-0.1672593653202057,3.0727756023406982,-0.026645302772521973,0.6327037811279297,-0.1084708571434021
94,1.6259967526483126,0.3904960211367435,-1.8131222249547077,0.9233117699623108,-0.3806471526622772,0.051019035279750824,1.9668152332305908,-0.05239520221948624,1.1596568822860718,-0.07179516553878784,0.8259749412536621,-0.06517922878265381
95,1.5916189558564338,0.503058839661539,-1.86086370447796,0.8759219646453857,-0.48210766911506653,0.018241634592413902,-1.7006016969680786,-2.241611957550049,1.4012832641601562,0.273995578289032,0.8443361520767212,-0.39197516441345215
96,1.2199744314781917,0.37750699734651944,-1.4983865153781413,0.8729658126831055,-0.3686041533946991,-0.31947073340415955,-3.472834825515747,-0.6466003060340881,-2.1519112586975098,0.22449201345443726,0.547208309173584,0.05988827347755432
97,1.1467076271486802,0.12518987963928155,-1.3652972380253923,0.9042813181877136,-0.12486313283443451,-0.4082700312137604,-2.064052104949951,-0.4360201060771942,-2.434342384338379,0.1235811710357666,0.1377263069152832,0.17346778512001038
98,1.1392421300800253,-0.07250437213592525,-1.2917798383148777,0.9059302806854248,0.07244086265563965,-0.417184054851532,-1.3113453388214111,0.3689025640487671,-0.5835179686546326,-0.11500632762908936,-0.33037543296813965,0.12719082832336426
99,1.2505070855112486,-0.18263801317000655,-1.2236262397878637,0.9333581924438477,0.18162433803081512,-0.309604674577713,-0.670596182346344,1.540155291557312,-1.3242814540863037,-0.31905460357666016,-0.11115923523902893,0.043979644775390625
100,1.4051051040518454,-0.389766442161172,-1.2364594362337322,0.9123296737670898,0.3799723982810974,-0.15256372094154358,0.5439899563789368,1.6944060325622559,-1.8549667596817017,0.6863946914672852,-0.4384745955467224,-0.585046112537384
101,1.4656617338680296,-0.4239667885595189,-1.381584387432789,0.9064314961433411,0.41137927770614624,-0.09564998000860214,1.2906794548034668,0.46180278062820435,1.0471043586730957,0.7473464608192444,-0.6440606117248535,-0.48097968101501465
102,1.4635180136510442,-0.21385001808467838,-1.4875151048009898,0.9716031551361084,0.21222378313541412,-0.10463365167379379,1.6553130149841309,0.050025567412376404,2.5361294746398926,0.08538830280303955,-0.1311996579170227,-0.2800403833389282
103,1.4261009198090324,0.0659389113642132,-1.683986103492624,0.9873992800712585,-0.06589113920927048,-0.14387765526771545,2.439796209335327,-0.2757524847984314,2.3659520149230957,-0.2198365330696106,0.3077276945114136,0.04658760130405426
104,1.384613334156144,0.31510288152519744,-1.9015851004533868,0.9343334436416626,-0.3099142909049988,-0.17599529027938843,2.068199872970581,-1.9732509851455688,1.7238775491714478,0.749718189239502,0.7650229334831238,-0.034225061535835266
105,1.0284613841669963,0.41146227071674135,-1.8922667417635843,0.7850192785263062,-0.39994996786117554,-0.47305890917778015,-1.427941083908081,-4.488754749298096,0.8847705721855164,0.6870418190956116,0.3895740211009979,0.15839216113090515
106,0.7026846820032951,0.33120722391056867,-1.8833534490080672,0.6111443042755127,-0.3251848816871643,-0.7216352224349976,1.3921765089035034,-1.75559401512146,-3.510070323944092,-0.17964106798171997,0.6489459276199341,-0.37882858514785767
107,0.8744042440922043,0.1629794664624167,-2.369513482837024,0.7569952607154846,-0.16225890815258026,-0.6329536437988281,2.182616710662842,1.9483736753463745,-4.696457862854004,-0.3485785126686096,-0.13475343585014343,0.4841041564941406
108,1.042762042447306,-0.04849056177760768,-2.716896360770714,0.8627838492393494,0.048471562564373016,-0.5032441020011902,0.33968275785446167,0.08748336136341095,-1.884013295173645,0.006356775760650635,-0.5648137331008911,0.5644776821136475
109,1.0705567030660947,0.05377348885237197,-2.7601456147207393,0.8761993646621704,-0.05374757573008537,-0.47894254326820374,0.48858174681663513,0.2439078390598297,2.5760488510131836,0.1288207769393921,-0.07958371937274933,0.6014859080314636
110,1.0757017098508852,0.3627481342262234,-2.608916492915072,0.8226628303527832,-0.354844868183136,-0.4441968500614166,-0.6838467121124268,-0.33557578921318054,3.3750977516174316,0.3744043707847595,0.17367729544639587,-0.2382829487323761
111,1.133441143365996,0.41966814110798717,-2.5497237431157007,0.8272669911384583,-0.4074574112892151,-0.3867916166782379,-0.2781262695789337,0.2747570276260376,-0.3225136399269104,0.3842045068740845,-0.3065165877342224,-0.3527866005897522
112,1.127622790301813,0.550123662021574,-2.4255054686630833,0.7701084017753601,-0.522792637348175,-0.36554214358329773,-0.9025270342826843,-0.6223480105400085,2.0821070671081543,-0.45469391345977783,0.9058797955513,-0.3117039203643799
113,1.0524014681039282,0.6871764709190933,-2.240851970816421,0.671474814414978,-0.6343570351600647,-0.3830310106277466,-1.507189154624939,1.6112442016601562,1.4296616315841675,-0.2915767431259155,0.5598025321960449,0.43001288175582886
114,1.1590891169993347,0.743029691016006,-2.0577936384140227,0.6748862266540527,-0.6765221357345581,-0.29469743371009827,-0.576021134853363,2.0242626667022705,2.339144229888916,0.44123321771621704,-0.5381995439529419,-0.2685807943344116
115,1.1738583674903225,0.9439918674899732,-1.787614286611181,0.5409541726112366,-0.809906005859375,-0.22676177322864532,0.2024828940629959,1.3247114419937134,2.8202505111694336,0.37400853633880615,-0.471282958984375,-0.5106649994850159
116,1.3637252375836226,1.2856679077253879,-1.8824600117193393,0.27527153491973877,-0.9596255421638489,-0.05782970041036606,1.536109209060669,0.47097283601760864,2.64155650138855,0.21108707785606384,0.5762485265731812,-0.011658843606710434
117,1.5056753889358376,1.333986999136932,-2.0797606809860287,0.23410485684871674,-0.9720914363861084,-0.015266714617609978,-0.1809138059616089,-1.467136263847351,-0.5788295865058899,0.19074559211730957,0.3421629071235657,-0.10353821516036987
118,1.454696709724997,1.2642927859212953,-2.13798776518699,0.2996959090232849,-0.95339435338974,-0.03495176136493683,-0.20329977571964264,-0.7376073598861694,-0.4618213474750519,-0.1460857093334198,0.5170845985412598,0.16420894861221313
119,1.3900644552001962,1.2304949233026135,-2.121994514875114,0.3283347487449646,-0.9426541328430176,-0.05999520421028137,-0.0861608013510704,0.06747830659151077,0.03316140174865723,0.1106911301612854,-0.5623049139976501,0.3897223472595215
120,1.417618509615092,1.257160610079288,-2.137001035388185,0.3049062192440033,-0.9512181878089905,-0.047073617577552795,1.00341796875,0.49439308047294617,0.20792651176452637,0.1842142641544342,-0.49038630723953247,0.1309664249420166
121,1.6893325543089721,1.244307941737269,-2.433659604372883,0.31846848130226135,-0.9471744298934937,0.03792785853147507,0.4996742904186249,-0.6271357536315918,-0.2559816539287567,0.18699419498443604,-0.023177742958068848,-0.41550660133361816
122,1.450811674078479,1.2075224191355212,-2.2665861263843663,0.3527813255786896,-0.9347385168075562,-0.04253264516592026,-2.1745293140411377,-1.670503854751587,-0.4433044195175171,0.16304194927215576,0.3821110725402832,0.041815467178821564
123,1.091061301768146,1.1225494323454532,-1.922229013046299,0.3844643831253052,-0.9012082815170288,-0.20002685487270355,-0.1153106838464737,1.0315030813217163,-0.3133485019207001,-0.23086944222450256,0.6819395422935486,0.38774049282073975
124,1.2783176406420667,1.1031431583801101,-2.023026604066889,0.431648313999176,-0.8926286697387695,-0.12997543811798096,0.2032608538866043,0.7125288844108582,0.1744360327720642,0.1461867094039917,-0.5758771300315857,0.03860582411289215
125,1.3817759749214733,1.1112833473102723,-1.9875565831175852,0.4356122314929962,-0.8962686061859131,-0.08333442360162735,0.017579637467861176,1.7272531986236572,0.34866178035736084,0.08051630854606628,-0.7517569065093994,0.040899693965911865
126,1.530598865127228,1.1721382838280292,-2.0379657396574316,0.38786840438842773,-0.9215827584266663,-0.015599728561937809,0.7212405800819397,0.2272530198097229,0.7881828546524048,0.5247902870178223,0.14303356409072876,-0.10697406530380249
127,1.6218632713580243,1.1874494228881383,-2.1481825255794584,0.3735390305519104,-0.9274179935455322,0.019092096015810966,0.2061115801334381,-0.7487463355064392,-0.1504136323928833,-0.1759682297706604,0.4825937747955322,-0.13952970504760742
128,1.5628625800557137,1.1840970970914046,-2.163527361016746,0.3771216571331024,-0.9261589050292969,-0.002992050489410758,-0.13743895292282104,-1.2092232704162598,0.013106873258948326,-0.1062171459197998,0.5388298034667969,0.09509408473968506
129,1.3317610491801601,1.1752310624797186,-2.0459204721036057,0.3743739426136017,-0.9227789044380188,-0.09123285114765167,-0.43715929985046387,-1.502724528312683,0.19094204902648926,0.2670750617980957,-0.6347162127494812,0.22543388605117798
130,1.0482156413343104,1.2183929159011575,-1.8966211132299557,0.2990882098674774,-0.9385458827018738,-0.17227290570735931,0.4457520544528961,-2.006197929382324,-0.3472326695919037,0.2146446704864502,-0.3251107335090637,-0.410322904586792
131,1.0412290885695892,1.1370827582149237,-2.2435382257043743,0.3626810312271118,-0.9074113965034485,-0.2122902125120163,0.35179051756858826,-2.5621466636657715,-2.2450058460235596,-0.24221289157867432,0.20749080181121826,-0.045095086097717285
132,1.0407996161526891,0.975197788657681,-2.436934556753189,0.4840393662452698,-0.8278128504753113,-0.28360477089881897,-0.5584955215454102,-1.3000532388687134,-1.9135640859603882,-0.21868902444839478,0.46732401847839355,0.21233093738555908
133,1.2385927288090424,0.6805271174837929,-2.652879161123024,0.7347462773323059,-0.6292027831077576,-0.2534792721271515,0.5823511481285095,-0.33746159076690674,-4.794447898864746,-0.12338763475418091,0.39408010244369507,0.010605156421661377
134,1.3475513304630833,0.3036882480694513,-2.7052698039435543,0.9305597543716431,-0.2990417182445526,-0.2112642079591751,-1.7015775442123413,0.248897522687912,-2.7931694984436035,0.24628955125808716,0.11660763621330261,-0.3251737952232361
135,1.30630741524285,-0.040091288257460944,-2.564072737258298,0.9644506573677063,0.04008055105805397,-0.2612059414386749,-3.7569711208343506,-2.1178627014160156,-1.473816156387329,0.8030816912651062,-0.24351072311401367,-0.2827698886394501
136,1.132336252068918,0.15781105027620776,-2.0472883172461693,0.8941555619239807,-0.157156839966774,-0.4192701280117035,-5.032540321350098,-2.563230276107788,8.195381164550781,0.7626742124557495,-0.9463282227516174,-0.14666303992271423
137,0.6635433135843705,0.632304606209105,-1.2346366667620445,0.496836394071579,-0.5910053849220276,-0.6355046629905701,-2.2936062812805176,-1.3556416034698486,5.9197258949279785,-0.15589404106140137,0.8989735841751099,0.02806752920150757
138,0.4425957878909274,0.7756303850986535,-0.8697965207391788,0.30578792095184326,-0.7001662850379944,-0.6451827883720398,-0.2572269141674042,0.08377516269683838,1.3480589389801025,-0.10251036286354065,0.48494112491607666,0.0980178713798523
139,0.35276267038813797,0.7380330470474731,-0.7760024782717913,0.2555924355983734,-0.6728340983390808,-0.6942382454872131,-0.3830273151397705,-0.3646746277809143,0.23444728553295135,0.03516373038291931,-0.11149811744689941,0.2012726068496704
140,0.27811796203966904,0.6655663673381076,-0.7793448863946105,0.21594920754432678,-0.6175047159194946,-0.7563424110412598,-0.36579039692878723,-1.245649814605713,-0.9253400564193726,0.1738518327474594,-0.02301347255706787,-0.28546667098999023
141,0.3294094526412063,0.6701382874643989,-0.9715372568980153,0.2535262107849121,-0.6210943460464478,-0.741597056388855,0.9734264612197876,0.12139945477247238,-2.365417718887329,0.03210306167602539,0.26924198865890503,-0.07671648263931274
142,0.7049557864200846,0.6618254336131774,-1.681982303500729,0.5111890435218811,-0.6145579218864441,-0.600836455821991,2.7973854541778564,-1.848386287689209,-8.063855171203613,-0.034763872623443604,1.0903574228286743,-0.29560214281082153
143,0.998165962242767,0.0785196515749237,-2.5023581026240045,0.8378890752792358,-0.07843898981809616,-0.5401752591133118,1.7833809852600098,1.0305465459823608,-7.220419883728027,0.43643349409103394,-0.22811010479927063,0.226820707321167
144,0.743073222994634,-0.018946814002037363,-2.7128328254517577,0.6764327883720398,0.018945680931210518,-0.7362606525421143,-0.47263720631599426,-1.5379408597946167,1.372484564781189,0.5419815182685852,-0.5432529449462891,1.3259975910186768
145,0.8354362271944825,0.13367361336714176,-2.5876869620243346,0.7349735498428345,-0.13327588140964508,-0.6648695468902588,-0.40172576904296875,1.4959418773651123,3.343454360961914,0.703457236289978,-0.03260242938995361,-0.2971208095550537
146,0.8568012771939822,0.3384900596353796,-2.2832562398638085,0.7128682136535645,-0.3320631980895996,-0.6176997423171997,-0.4491198658943176,0.6982333064079285,2.8805124759674072,0.06920570135116577,0.3759169578552246,-0.09184920787811279
147,0.8155196948529404,0.3872651245640788,-2.170411780380226,0.6741641163825989,-0.3776574730873108,-0.6347264051437378,-0.6530728936195374,1.3417106866836548,-2.254066228866577,-0.47544896602630615,1.129549503326416,0.3569401502609253
148,1.0347903015975812,0.11860825379927958,-2.3533077656418975,0.8537148833274841,-0.11833035200834274,-0.5071181654930115,-0.964504599571228,-0.05081097409129143,-1.688504695892334,0.22221285104751587,-0.6646744012832642,-0.09416967630386353
149,1.1201343014028349,-0.15690366050170415,-2.212817891661229,0.8891012072563171,0.1562606543302536,-0.43021103739738464,-1.4924190044403076,2.8621718883514404,-1.6705117225646973,0.24986052513122559,-0.050288379192352295,-0.02950572967529297
150,1.180157996230138,-0.02880500436910751,-2.079952031752425,0.9242826104164124,0.028801020234823227,-0.3806207776069641,-0.6822052001953125,-0.7883626222610474,4.145659446716309,0.9026522040367126,-0.17395788431167603,-0.1770879626274109
151,1.0484537955703537,0.32055873784911304,-1.975427971027257,0.8225051760673523,-0.3150968849658966,-0.4734968841075897,1.0805637836456299,-0.7672023773193359,1.4360344409942627,-0.268839955329895,0.6218137741088867,-0.11617904901504517
152,1.1571435947956559,0.32587012335578724,-2.025470144920808,0.867469847202301,-0.320133239030838,-0.3808026909828186,0.5056455135345459,1.7400010824203491,-1.8343561887741089,-0.4566880464553833,0.5682106614112854,0.4879499077796936
153,1.2277417063816152,0.23386490744062008,-2.0623190111486074,0.9160958528518677,-0.23173893988132477,-0.3272087872028351,-0.5243169665336609,-0.05457732081413269,-0.630557656288147,-0.3954201936721802,0.17998111248016357,0.1388695240020752
154,1.2839644329558684,0.1584808385017165,-2.08492447471092,0.9471251964569092,-0.1578182727098465,-0.2793695628643036,0.495972216129303,2.118868827819824,-0.8783840537071228,0.3244659900665283,-0.3561282455921173,0.0499078631401062
155,1.4557350520709895,-0.028059972362991684,-2.1257849420812582,0.9929965734481812,0.02805629000067711,-0.11476234346628189,-0.4280851483345032,-0.7564622163772583,-1.6876797676086426,0.881072461605072,-0.1322585642337799,-0.3776082694530487
156,1.4698915988394097,-0.06166732806065942,-2.1186565253444902,0.9930223822593689,0.061628248542547226,-0.1005421131849289,-0.3497552275657654,0.8685510754585266,-0.16665659844875336,-0.057170212268829346,0.2962208688259125,0.17735479772090912
157,1.5284266605493089,-0.08645381997708823,-2.149436044630839,0.9953709840774536,0.08634616434574127,-0.0421987920999527,1.4009041786193848,0.16789060831069946,-0.532619297504425,-0.6825964450836182,0.12276028841733932,-0.0726693868637085
158,1.524909508846262,-0.20074644598537023,-2.3722068614486407,0.9788864850997925,0.19940084218978882,-0.04494953900575638,3.196944236755371,0.543846607208252,-2.5762436389923096,-0.6147660613059998,-0.028532937169075012,-0.04306316003203392
159,1.5020103720418356,-0.4805067115648203,-2.519076633455698,0.8846637010574341,0.46222856640815735,-0.06094859540462494,-0.8039730191230774,0.08670483529567719,-0.34493014216423035,0.9996135830879211,-0.18502220511436462,0.36359143257141113
160,1.4989568498015755,-0.4875165815562859,-2.4139546877523532,0.8812199234962463,0.4684332311153412,-0.0634155124425888,0.010697128251194954,0.10398107767105103,-0.3322734236717224,0.7331903576850891,0.6179009675979614,-0.3770599365234375
161,1.4250401210636985,-0.568927249136662,-2.480621422373681,0.833545982837677,0.5387285947799683,-0.12236225605010986,0.9093425273895264,-0.9243673086166382,-1.2874308824539185,-0.18886220455169678,-0.01732051372528076,-0.29502665996551514
162,1.3006294563339227,-0.6306632180953362,-2.628729613499926,0.7783406972885132,0.589680552482605,-0.21555195748806,1.8997914791107178,-0.13209235668182373,-0.5505403280258179,-0.7041524648666382,-0.4999436140060425,0.11551535129547119
163,1.2436660891864744,-0.6463667475578866,-2.633228314452514,0.7559434771537781,0.6022900342941284,-0.25650790333747864,0.29416704177856445,-0.39180296659469604,-0.233152374625206,0.23264294862747192,-0.04709899425506592,-0.02692413330078125
164,1.2170882257900235,-0.6322237580682886,-2.623941642197217,0.7567754983901978,0.5909401774406433,-0.27942904829978943,-2.0515286922454834,-0.36283010244369507,0.7836709022521973,0.7271264791488647,0.045137643814086914,0.2531382143497467
165,1.301024620398249,-0.6429102095696643,-2.5134863627897897,0.7714070081710815,0.5995271801948547,-0.2133035808801651,-0.23243415355682373,0.31203383207321167,0.27944183349609375,0.17024338245391846,0.45500773191452026,-0.2847738265991211
166,1.3099603458482032,-0.6250847264947118,-2.529986494321307,0.7834842801094055,0.5851659774780273,-0.20912519097328186,0.7132627964019775,0.7307336330413818,-0.4384068250656128,-0.494681179523468,-0.13078975677490234,0.07977640628814697
167,1.3310263513388034,-0.6537663237010739,-2.592368217615314,0.7710903882980347,0.6081804037094116,-0.1885107159614563,0.2652958035469055,0.811858057975769,-0.35783207416534424,-0.5356167554855347,-0.3819078207015991,0.1905401349067688
168,1.2834994824933255,-0.6897602785591784,-2.754013733701639,0.7397814393043518,0.6363523006439209,-0.21858416497707367,1.6373238563537598,-0.3546470105648041,-1.2138701677322388,0.08462035655975342,0.3358919024467468,0.15439049899578094
169,1.2986480097126178,-0.7475525843321446,-2.7492807502250507,0.7063641548156738,0.6798459887504578,-0.19712673127651215,-0.5843300223350525,1.209245204925537,-0.6750122904777527,0.060695111751556396,0.27202773094177246,0.10998383164405823
170,1.44144241590347,-0.8420630331642831,-2.6637143612468845,0.660361647605896,0.7460185289382935,-0.08590000122785568,-0.4530220031738281,0.7262333631515503,-0.33072784543037415,0.5478445291519165,0.19677627086639404,-0.3154366612434387
171,1.5256572899246783,-0.8350707041623769,-2.533931268450307,0.6704418063163757,0.7413439750671387,-0.030283667147159576,-1.102373480796814,-1.434552788734436,-0.557205319404602,-0.48890793323516846,-0.10248899459838867,-0.21059155464172363
172,1.2212127119008784,-0.9542803150511672,-2.620196205147672,0.5432241559028625,0.8158978223800659,-0.19803600013256073,0.9404287338256836,-2.788623809814453,-0.8421248197555542,-0.5665091276168823,-0.5974225401878357,0.20983101427555084
173,0.9667454461094096,-1.0197627604374644,-2.8827036617819553,0.43091830611228943,0.8519838452339172,-0.2973768413066864,0.4142719507217407,2.235821485519409,-2.2935943603515625,-0.010645478963851929,-0.12313252687454224,0.2770673632621765
174,1.232855050802675,-1.0455238429643026,-2.7305287758522607,0.47308650612831116,0.8651873469352722,-0.16625311970710754,-1.2657995223999023,-1.4801894426345825,0.5603521466255188,0.6649749875068665,0.6803753972053528,0.15889835357666016
175,1.3279312314396754,-1.0675366753072586,-2.629059678833946,0.46812981367111206,0.8760151267051697,-0.11598175019025803,-1.0465553998947144,-0.058074258267879486,-0.10109228640794754,-0.001912832260131836,0.20453590154647827,-0.22358737885951996
176,1.4656074692767949,-1.0881071567945577,-2.4624318757683024,0.4615972340106964,0.8857499361038208,-0.048734765499830246,0.4734289348125458,0.6493842601776123,-0.04711315408349037,-0.2798040211200714,-0.3366929292678833,-0.26455867290496826
177,1.3949716485243449,-1.0789375853420504,-2.6524360009031374,0.4649839699268341,0.8814565539360046,-0.0826086774468422,1.0845924615859985,0.9855057597160339,0.2569500803947449,-0.2630033791065216,-0.7112448215484619,0.10288763791322708
178,1.3966551045728337,-1.0034314480787607,-2.590608359425541,0.5292837619781494,0.8433200716972351,-0.0931132584810257,-2.0099151134490967,-1.035800814628601,1.333040475845337,0.3579995632171631,0.012789607048034668,0.3727611303329468
179,1.6023893801991056,-0.9366065708219776,-2.315958216145497,0.5922291874885559,0.805552065372467,0.018716556951403618,-0.08765018731355667,0.5040380954742432,0.5524684190750122,0.20868933200836182,0.6148732304573059,0.23583054542541504
180,1.7020625804359015,-0.8931609326175811,-2.361326472841874,0.6215589046478271,0.7790573835372925,0.08206158131361008,1.495353102684021,1.5228345394134521,0.23469819128513336,0.20215630531311035,0.14525896310806274,-0.5726773738861084
181,1.5995105952113968,-0.8972341279658657,-2.522898054601373,0.6235169768333435,0.7816046476364136,0.01790875755250454,0.7341040968894958,-0.5784792900085449,0.21475166082382202,-0.28161340951919556,-0.3471411466598511,-0.07476305961608887
182,1.3416251727758404,-0.8698127984085458,-2.6443290119501834,0.6281068921089172,0.764208197593689,-0.1465180218219757,0.5253364443778992,-0.8747638463973999,-0.06250105798244476,-0.4469393491744995,-0.47040027379989624,0.6582367420196533
183,1.3927907707211975,-0.8809157776598953,-2.6654092223300587,0.6263883709907532,0.7713220715522766,-0.11269339919090271,-0.4279620349407196,0.31556937098503113,-0.29567381739616394,0.5247651934623718,0.8975468277931213,-0.2842944860458374
184,1.3878546320806344,-0.9016665565100345,-2.5372378239563584,0.6099527478218079,0.7843617796897888,-0.11284752190113068,-0.7088565826416016,0.8779323101043701,0.26024559140205383,0.5962393283843994,0.5559703707695007,-0.05684550106525421
185,1.5592746676684006,-0.8671504906152839,-2.4265210540378157,0.6469590663909912,0.7624884247779846,-0.0074543715454638,-0.7820908427238464,1.0826045274734497,0.0751897320151329,-0.24315041303634644,0.23551279306411743,-0.20720624923706055
186,1.6651230697543011,-0.8919451737223457,-2.383027484656941,0.6251081228256226,0.778294563293457,0.0591399185359478,0.6077188849449158,1.3259459733963013,-0.1909538060426712,-0.30363595485687256,-0.7003984451293945,0.01422429084777832
187,1.6893438406983035,-0.9061916332294925,-2.4931087829847924,0.6124192476272583,0.7871606349945068,0.07294280081987381,0.367300808429718,-0.05027111619710922,0.2183779627084732,-0.4129411578178406,-0.5686853528022766,-0.08826256543397903
188,1.6082386174359735,-0.834491196900265,-2.575504463284873,0.6710840463638306,0.7409549355506897,0.025138672441244125,1.1239874362945557,-0.12841805815696716,0.42608925700187683,0.5689366459846497,1.0620845556259155,0.39073967933654785
189,1.6569924536619693,-0.820767275249366,-2.4891272951283936,0.6791293025016785,0.7316690683364868,0.05868372321128845,-0.6339818239212036,2.893465518951416,-0.5437672734260559,0.19341403245925903,0.6071217656135559,0.019014116376638412
190,1.700345936655482,-0.8774068710502005,-2.6586272696779094,0.6337917447090149,0.769084095954895,0.082569919526577,1.1502336263656616,0.19102998077869415,-0.0480773039162159,0.3335391879081726,-0.42139720916748047,-0.46291041374206543
191,1.5902365388045967,-0.8695659317401789,-2.7334079787442036,0.645036518573761,0.7640489935874939,0.012541226111352444,-0.42431190609931946,-2.2938449382781982,0.24269059300422668,-0.572007954120636,-0.4490159749984741,0.15512239933013916
192,1.523095386798488,-0.8518214695508026,-2.585240162703213,0.6578644514083862,0.7524812817573547,-0.03140457347035408,-0.7604374885559082,-1.3188376426696777,0.04130716621875763,-0.33329474925994873,-0.14786702394485474,-0.016630053520202637
193,1.3795807313332136,-0.8727677402801121,-2.5240825463176675,0.6309944987297058,0.7661107182502747,-0.12214834988117218,-1.249794840812683,-3.7517809867858887,-0.047565676271915436,0.7394430637359619,0.20990240573883057,0.45146358013153076
194,1.4707180431787796,-0.8983097429370845,-2.373032644162631,0.6198161244392395,0.7822751402854919,-0.06223805993795395,0.39509811997413635,2.2591302394866943,0.004024162422865629,0.16161692142486572,0.25956445932388306,-0.17312872409820557
195,1.6707210044490022,-0.8868838925519824,-2.377443823903004,0.6286789178848267,0.77510666847229,0.06303046643733978,0.09769925475120544,1.0399885177612305,-0.20699089765548706,-0.1797804832458496,-0.1261959671974182,-0.24395392835140228
196,1.7820258483103706,-0.9162871459342472,-2.3536386180576074,0.5952393412590027,0.7933468222618103,0.12763607501983643,-0.5046947002410889,0.5853808522224426,-0.22945547103881836,-0.3372132182121277,-0.5807919502258301,-0.16473020613193512
197,1.7164842569714143,-0.9190114650146424,-2.4326135209655657,0.60017991065979,0.7950023412704468,0.08806289732456207,1.1041558980941772,-0.5724850296974182,0.7632777094841003,-0.3122771978378296,-0.23776674270629883,-0.09357132017612457
198,1.5556647717558765,-0.8534835280492294,-2.4218780569329588,0.6572867631912231,0.7535749077796936,-0.009946529753506184,-1.7606568336486816,0.2932104468345642,0.36363598704338074,0.18299949169158936,0.09682786464691162,1.2078683376312256
199,1.7456695285251005,-0.8619579339477107,-2.44036060825486,0.6410243511199951,0.7591185569763184,0.11325480788946152,1.2952265739440918,2.114590644836426,-0.22382846474647522,0.2263614535331726,0.1599487066268921,-0.5863382816314697
200,1.7200888795005422,-0.8878823755062809,-2.627690054939977,0.6240366101264954,0.7757371664047241,0.09386239945888519,1.2005354166030884,0.1867644041776657,0.16860167682170868,0.0012532472610473633,-0.3654588460922241,-0.060338862240314484
201,1.5752997955549584,-0.8691627130223906,-2.6702573891712413,0.6454600095748901,0.7637887597084045,0.0029068286530673504,-0.582724928855896,-1.5386402606964111,0.2862962484359741,-0.5310495495796204,-0.43245929479599,0.08141326904296875
202,1.4844540025189876,-0.866469126663229,-2.6125979184009633,0.6451093554496765,0.7620473504066467,-0.05583907291293144,0.6607928276062012,-0.9805532693862915,-0.004241608083248138,0.07624995708465576,0.13597828149795532,-0.08406878262758255
203,1.3476455272939962,-0.8803832937693054,-2.4550690837575746,0.6210649013519287,0.7709830403327942,-0.14093834161758423,-1.5046346187591553,0.12026750296354294,0.09723804891109467,0.6885054111480713,0.3123146891593933,0.5552602410316467
204,1.560801066934584,-0.884036307017664,-2.3228769896307,0.6340034604072571,0.7733043432235718,-0.0063372403383255005,-0.07227791100740433,1.4511796236038208,0.32274994254112244,-0.054169416427612305,0.3350940942764282,-0.2532604932785034
205,1.6678828151348444,-0.8923155308138716,-2.3961003528688716,0.624655544757843,0.7785270810127258,0.06083688139915466,0.8788045644760132,1.7814871072769165,-0.32839518785476685,-0.2673405408859253,-0.42534714937210083,-0.04336559772491455
206,1.7323364761142446,-0.9179982305234504,-2.482977782847225,0.5995036959648132,0.7943873405456543,0.09769519418478012,0.23295731842517853,0.4896999001502991,-0.1282622069120407,-0.3168192505836487,-0.5174859762191772,-0.1294640153646469
207,1.6167696057168286,-0.8954235514014173,-2.586767417328383,0.6245276927947998,0.7804739475250244,0.028731830418109894,0.3653646409511566,-1.6446162462234497,0.559894859790802,0.08766096830368042,0.3065163493156433,0.1249699592590332
208,1.5620899286317196,-0.8630706746089861,-2.4929846772536974,0.6500825881958008,0.7598423957824707,-0.005660020746290684,-0.577681303024292,1.2053338289260864,0.4021669030189514,0.4657926559448242,0.36610352993011475,0.5132588744163513
209,1.6995633092243425,-0.870941966308572,-2.5227254297318185,0.6387737989425659,0.7649360299110413,0.0827106237411499,0.9547234773635864,1.6357779502868652,-0.23567228019237518,0.20651733875274658,0.06581354141235352,-0.4647754430770874
210,1.6497120502781353,-0.880745499200522,-2.685190448178742,0.6345949769020081,0.7712136507034302,0.0501837395131588,0.3568103313446045,-0.9229056239128113,0.24335001409053802,-0.1295291781425476,-0.3041117191314697,0.03587578982114792
211,1.585025099056929,-0.8563626224009545,-2.609514722679963,0.6551233530044556,0.7554643750190735,0.009322229772806168,-1.0297386646270752,-1.1478917598724365,0.21542006731033325,-0.5323206782341003,-0.47018611431121826,0.032792091369628906
212,1.4899576525564147,-0.8554130189950385,-2.546413122069895,0.653765082359314,0.7548418641090393,-0.05296492576599121,0.6943956613540649,-1.1352463960647583,-0.08902918547391891,0.1383492350578308,0.18909740447998047,-0.032163865864276886
213,1.325380546183514,-0.8685834858042016,-2.4745892592533107,0.6265546679496765,0.763414740562439,-0.15692970156669617,-0.699619710445404,0.4608010947704315,-0.03915724530816078,0.8621079921722412,0.3024115562438965,0.7164084911346436
214,1.5374679724204903,-0.8755002338144907,-2.3687784469463016,0.6402570009231567,0.7678640484809875,-0.021346617490053177,0.12288359552621841,1.4554492235183716,0.2928335666656494,-0.06971567869186401,0.4605752229690552,-0.3131108283996582
215,1.6249802401894657,-0.8834568567670684,-2.4535331798396105,0.6335518956184387,0.7729368209838867,0.034361954778432846,0.6598933339118958,1.3142309188842773,-0.49014347791671753,-0.2652505040168762,-0.3847074508666992,-0.058714985847473145
216,1.6756190683384382,-0.923646990772496,-2.510500667355568,0.5996055006980896,0.7978057265281677,0.06308351457118988,0.15435630083084106,0.6540380120277405,-0.11827355623245239,-0.3195762038230896,-0.5774686932563782,-0.05221926420927048
217,1.5990759294768788,-0.8912112090993246,-2.6120292695548706,0.6282191276550293,0.7778335213661194,0.017770525068044662,1.0148930549621582,-0.27563533186912537,0.960014283657074,-0.005996227264404297,0.2707352042198181,0.08188462257385254
218,1.5306992601617375,-0.8456617175934222,-2.545389098665117,0.6627030968666077,0.748410165309906,-0.02658670023083687,-1.007747769355774,1.573141098022461,0.44837966561317444,0.30890029668807983,0.4402037262916565,0.454595685005188
219,1.724542056067117,-0.8623680541699253,-2.563079729437524,0.6429663896560669,0.7593854665756226,0.0996396616101265,0.7986636161804199,1.3195631504058838,-0.2044016271829605,0.4006584882736206,0.05274832248687744,-0.6643521785736084
220,1.6424286456404553,-0.870751973439308,-2.731858056342419,0.6425996422767639,0.7648136019706726,0.04610979184508324,0.9148561358451843,-0.7447190284729004,0.3176010847091675,-0.25049448013305664,-0.29594141244888306,0.04001081362366676
221,1.4825445413478375,-0.8640579012990588,-2.7187607385473593,0.6468298435211182,0.7604838609695435,-0.05723255127668381,-1.1907081604003906,-1.3697866201400757,0.05148796737194061,-0.49828553199768066,-0.5585795640945435,0.1384398341178894
222,1.4123824466390356,-0.8683244401357755,-2.674354147182482,0.6380161643028259,0.7632474303245544,-0.10192464292049408,0.7231618762016296,-1.6285169124603271,0.08253004401922226,0.3423304557800293,0.4714021682739258,-0.02284645289182663
223,1.3453871262196309,-0.8854569223782509,-2.5177317421412098,0.6169243454933167,0.7742042541503906,-0.1414644867181778,-1.2439285516738892,1.0405384302139282,0.10018984973430634,0.6507605910301208,0.6143302917480469,-0.1350095272064209
224,1.5215133633202906,-0.8768386345838972,-2.4180774204997326,0.638808012008667,0.7687207460403442,-0.031507864594459534,-0.1213831752538681,1.3774281740188599,0.3484373390674591,-0.18539315462112427,0.38208186626434326,-0.17146456241607666
225,1.6294449461443616,-0.8818681014351764,-2.45079468089722,0.634617030620575,0.7719277739524841,0.037262145429849625,0.10329163074493408,1.0360236167907715,-0.31122347712516785,-0.2891275882720947,-0.42512619495391846,-0.0073549784719944
226,1.7256857418699416,-0.9046675956154141,-2.4199618127721214,0.6105495095252991,0.7862197756767273,0.09533122926950455,0.4340778589248657,0.26624011993408203,-0.21573548018932343,-0.504119336605072,-0.6534834504127502,-0.17962072789669037
227,1.5587284821888379,-0.8633012674921781,-2.5252745882172,0.6498847007751465,0.7599923014640808,-0.00784308835864067,-0.05639081448316574,-1.9166364669799805,0.8878781795501709,0.588991641998291,0.6218894124031067,0.3226166367530823
228,1.60924690706021,-0.8251064395726062,-2.443353371123547,0.6779770851135254,0.7346199750900269,0.026081467047333717,-0.22861891984939575,1.9509915113449097,0.057746563106775284,0.38528579473495483,0.6972341537475586,-0.11461305618286133
229,1.7155364214248343,-0.8651221062759973,-2.5419559234078277,0.6417655944824219,0.7611744403839111,0.09354335814714432,1.6500396728515625,1.9323681592941284,-0.3227558135986328,0.25873178243637085,-0.029759705066680908,-0.39461445808410645
230,1.6145559804919274,-0.8775759853492185,-2.738246383237321,0.6384059190750122,0.7691921591758728,0.02795426733791828,0.12866638600826263,-1.4041047096252441,0.1376555860042572,-0.31060129404067993,-0.2837337851524353,0.1522367000579834
231,1.5472811267092483,-0.8680164839416623,-2.6685303001375957,0.6461626887321472,0.7630484104156494,-0.015197445638477802,-0.9691544771194458,-1.6294933557510376,0.12775659561157227,-0.42835867404937744,-0.5020773410797119,-0.026413261890411377
232,1.4520202092268393,-0.8689724351820773,-2.60811507368356,0.6410629153251648,0.7636659145355225,-0.07650306075811386,0.128067284822464,-1.6083757877349854,0.02701537311077118,0.4392898678779602,0.520498514175415,0.08552098274230957
233,1.4353850498282967,-0.8882077155807948,-2.4459054129839917,0.6250291466712952,0.7759423851966858,-0.0851571187376976,-1.7571593523025513,0.8849164247512817,-0.03492918238043785,0.7308362126350403,0.38519030809402466,0.028745420277118683
234,1.5885184896594873,-0.87227016219945,-2.330522871276343,0.6429885029792786,0.7657908201217651,0.01139634009450674,0.1992896944284439,0.6028574109077454,0.2889367640018463,-0.18467563390731812,0.2736377716064453,-0.2090282440185547
235,1.5885486632716501,-0.8776010106237179,-2.425797310821541,0.6388976573944092,0.7692081332206726,0.01134311780333519,0.4806291460990906,0.7307943105697632,-0.22404375672340393,-0.2994201183319092,-0.4135563373565674,-0.02568638324737549
236,1.580303054620057,-0.8838384023018607,-2.48381179715359,0.6341593265533447,0.7731788158416748,0.006028961855918169,0.22411978244781494,-0.27668312191963196,0.24150750041007996,-0.288563072681427,-0.3678444027900696,0.02255082130432129
237,1.4783466520869473,-0.8610511306637925,-2.5307933803974554,0.6488577723503113,0.758527934551239,-0.060158178210258484,-0.013123074546456337,-0.08199374377727509,0.40258654952049255,0.22917866706848145,0.1986863613128662,0.4535144567489624
238,1.5749162546708215,-0.8260654644501921,-2.4692586891381882,0.6777682900428772,0.7352703213691711,0.0027923723682761192,-0.479457825422287,1.4913849830627441,0.1917327493429184,0.2598384618759155,0.6215106844902039,-0.0586395263671875
239,1.7397209687023218,-0.8579469488217207,-2.543417840556344,0.6446832418441772,0.7565014958381653,0.1099507138133049,1.5011565685272217,1.8523757457733154,-0.1368294209241867,0.32742369174957275,-0.04103207588195801,-0.4803426265716553
240,1.640304357187018,-0.8560200883162908,-2.7021515785122054,0.65386563539505,0.7552399039268494,0.04552224650979042,0.2176450490951538,-1.1810661554336548,0.4477861821651459,-0.20963656902313232,-0.3638063073158264,0.05793237313628197
241,1.4869676700359729,-0.82917514810588,-2.6431751272565154,0.6731120944023132,0.7373744249343872,-0.056558627635240555,-1.1910669803619385,-1.8155052661895752,-0.0072111040353775024,-0.401261568069458,-0.35845303535461426,0.07328225672245026
242,1.3521572654545775,-0.8514366734238472,-2.645720934988559,0.6432169079780579,0.752227783203125,-0.14291691780090332,0.26382336020469666,-2.4642391204833984,-0.12393178045749664,0.6251699328422546,0.5372161269187927,0.3734467029571533
243,1.4070608395223112,-0.884985432907666,-2.490912811606539,0.6248306035995483,0.7739057540893555,-0.10323111712932587,-1.3837847709655762,1.3699818849563599,-0.16171053051948547,0.43971407413482666,0.33726972341537476,-0.27334052324295044
244,1.5907044948957343,-0.888406902736505,-2.4096463509696737,0.630524218082428,0.7760680317878723,0.01255424041301012,-0.0403398834168911,1.0219212770462036,-0.02346527948975563,-0.09796196222305298,0.2205749750137329,-0.16460800170898438
245,1.6279467413060746,-0.9184306527298763,-2.4959833044573987,0.6060768365859985,0.7946498990058899,0.03467530384659767,0.7096788883209229,1.0260275602340698,-0.49740326404571533,-0.3174416422843933,-0.4714382290840149,-0.08550238609313965
246,1.6049049591299498,-0.9512045986292925,-2.6180416145886847,0.5803650617599487,0.814115583896637,0.019803138449788094,0.5269292593002319,0.10099044442176819,0.16897527873516083,-0.22730720043182373,-0.5270215272903442,-0.021649479866027832
247,1.5278665317525908,-0.8793566054901402,-2.564285854789691,0.6370595097541809,0.7703287601470947,-0.02736564725637436,-1.3477364778518677,-2.003743886947632,0.33420461416244507,0.45078539848327637,0.810207188129425,0.43115895986557007
248,1.6612534971006407,-0.8551043647320149,-2.4850557804062654,0.6534571051597595,0.7546393871307373,0.05927163362503052,0.5243039131164551,2.593970537185669,-0.3874092102050781,0.1158604621887207,0.6117851138114929,-0.4012058973312378
249,1.6988223123513382,-0.8805108346843873,-2.683192596930085,0.631545901298523,0.771064281463623,0.08129895478487015,0.866123616695404,0.5522364377975464,0.27597150206565857,0.3024445176124573,-0.1819988489151001,-0.32160961627960205
250,1.6073923000449009,-0.8647406991946068,-2.6758655551609163,0.6484031677246094,0.7609270215034485,0.023739544674754143,-0.3038337230682373,-1.3136522769927979,-0.06184661015868187,-0.4823874831199646,-0.39323586225509644,0.20366215705871582
251,1.5344620630905828,-0.8548668283323427,-2.665408455908105,0.6558858752250671,0.7544835209846497,-0.023841623216867447,-0.18176081776618958,-1.4073076248168945,0.052803006023168564,-0.27179163694381714,-0.38160449266433716,-0.23134636878967285
252,1.3904172313239638,-0.8624739938292548,-2.6132953393451284,0.6400058269500732,0.7594543695449829,-0.11671223491430283,-1.1122784614562988,-3.1827573776245117,0.007756043691188097,0.6256649494171143,0.4428008794784546,0.621381402015686
253,1.4815047381584852,-0.8822967118157578,-2.4947216608198755,0.6328480839729309,0.7722002267837524,-0.05665867030620575,-0.7733141779899597,1.6985914707183838,-0.11652077734470367,0.4252421259880066,0.16301101446151733,-0.32130151987075806
254,1.6468131483272037,-0.8738303052816295,-2.5472581823572322,0.6400407552719116,0.7667931914329529,0.048747796565294266,0.5022450089454651,2.3368074893951416,0.07555849105119705,-0.11402446031570435,0.31812208890914917,-0.11794637888669968
255,1.746275133514754,-0.8948328561776865,-2.5592686293114437,0.616041362285614,0.7801045179367065,0.10922563821077347,-0.3308675289154053,0.17084695398807526,-0.27488216757774353,-0.25207340717315674,-0.5126025676727295,-0.15111099183559418
256,1.7361672798581873,-0.8970325241269768,-2.568367526725154,0.6154196858406067,0.7814788222312927,0.1027105450630188,0.3238776922225952,-0.24233144521713257,0.4390571117401123,-0.31137311458587646,-0.37054443359375,-0.13719534873962402
257,1.5559606598749927,-0.8579696249773887,-2.588449156703143,0.6539028882980347,0.7565163373947144,-0.009701796807348728,-0.8200531601905823,-1.9550681114196777,0.26084980368614197,0.39390289783477783,0.42362892627716064,0.5701113939285278
258,1.6633741205249608,-0.808227459638261,-2.5770185318239833,0.6878229975700378,0.7230638861656189,0.06385967880487442,0.0454382449388504,1.9024215936660767,-0.12579002976417542,0.22836041450500488,0.9620099067687988,-0.5342576503753662
259,1.733467733844007,-0.8253686340396952,-2.753239305035675,0.6693316102027893,0.7347978949546814,0.10985179245471954,1.6627691984176636,1.2739092111587524,0.32234644889831543,0.4064740538597107,-0.2814592123031616,-0.2759590148925781
260,1.5880429403616434,-0.8131891017663029,-2.8583174074420863,0.6870830655097961,0.7264823913574219,0.01185103040188551,0.08034232258796692,-1.1641912460327148,-0.0172360111027956,-0.5038859844207764,-0.3194083571434021,0.15424084663391113
261,1.4949854450847637,-0.8135558146742982,-2.8742108914107836,0.6849457621574402,0.7267343401908875,-0.05202604830265045,-0.37710198760032654,-1.3003915548324585,-0.20221176743507385,-0.2882477641105652,-0.19655239582061768,-0.14179110527038574
262,1.3679345427281495,-0.8447249017500171,-2.854289852691749,0.6503223180770874,0.7477884888648987,-0.1337655484676361,-1.4354143142700195,-2.982640504837036,-0.1274281144142151,0.6928325891494751,0.3928212523460388,0.3932107090950012
263,1.440185311025175,-0.8690013093332212,-2.656804178634631,0.6400908827781677,0.7636845707893372,-0.08408159017562866,-0.8805924654006958,1.245882272720337,-0.03144913166761398,0.2892761826515198,0.43071240186691284,-0.40996748208999634
264,1.6181399633109488,-0.8506620583828696,-2.6127546926856864,0.6587468385696411,0.751717209815979,0.031210793182253838,0.2764666676521301,1.4558892250061035,0.06633006036281586,-0.12838178873062134,0.28676557540893555,-0.1737736463546753
265,1.6808271713016372,-0.870524806705356,-2.673305154203002,0.6405283808708191,0.7646672129631042,0.07076368480920792,0.12059137225151062,0.9731174111366272,-0.30324772000312805,-0.3663889169692993,-0.5471837520599365,-0.07564640045166016
266,1.6876892624318989,-0.8804765186920106,-2.720213342829669,0.6324382424354553,0.7710424065589905,0.07426612824201584,0.6390936970710754,-0.31279072165489197,0.3116597831249237,-0.2621226906776428,-0.3848424553871155,-0.07516646385192871
267,1.5037732057946058,-0.8436258597460733,-2.798312426893442,0.6632660031318665,0.7470583319664001,-0.04452084004878998,-0.2514272928237915,-1.1304049491882324,0.19250692427158356,0.3175079822540283,0.5478940606117249,0.5617785453796387
268,1.6526017514183435,-0.8193472987579861,-2.734135177299805,0.6804150938987732,0.7307003736495972,0.055786143988370895,-0.21848000586032867,2.3731701374053955,-0.2940385937690735,0.1541796326637268,0.8455477356910706,-0.3803558349609375
269,1.72802722699306,-0.8542871977135995,-2.876355522844191,0.648655116558075,0.7541029453277588,0.1028374657034874,1.3500676155090332,1.2019214630126953,0.002567108254879713,0.4341849088668823,-0.18417179584503174,-0.5391014814376831
270,1.5878552851409071,-0.8378159074547017,-2.9915030983881405,0.6689903140068054,0.7431835532188416,0.011413385160267353,-0.36286643147468567,-2.2596142292022705,0.24916473031044006,-0.4423515200614929,-0.29816097021102905,0.1985018253326416
271,1.4861393949845205,-0.8325310950940265,-2.89730309542553,0.670595645904541,0.7396371960639954,-0.05690658092498779,-0.7769620418548584,-1.5333621501922607,0.00022880197502672672,-0.374178409576416,-0.35532933473587036,-0.07157242298126221
272,1.3673471903153576,-0.866546627843964,-2.8859368227951196,0.6341086030006409,0.7620975375175476,-0.13081878423690796,-0.725097119808197,-2.771530866622925,-0.2799278795719147,0.7688606977462769,0.5058162808418274,0.30823272466659546
273,1.401685441684216,-0.9036178976722502,-2.7092994805142157,0.6099451780319214,0.7855706810951233,-0.10414304584264755,-1.2773852348327637,1.0683461427688599,-0.0036012413911521435,0.6828863024711609,0.330502986907959,-0.31136906147003174
274,1.5994262431114676,-0.8768696777328715,-2.6056978390446823,0.6392988562583923,0.7687405943870544,0.01830807514488697,-0.23072293400764465,0.9956653118133545,0.391356498003006,-0.13758975267410278,0.31200897693634033,-0.17310845851898193
275,1.657354814231479,-0.8780826834784167,-2.641238073399912,0.6362369060516357,0.769515872001648,0.055209655314683914,0.5684771537780762,1.2201350927352905,-0.23303885757923126,-0.37709689140319824,-0.5201566815376282,-0.11117887496948242
276,1.661368010919149,-0.9145564269702635,-2.760318837160953,0.6076412200927734,0.7922919988632202,0.05518607050180435,0.7963684797286987,0.660383403301239,0.011338175274431705,-0.32053178548812866,-0.4021705985069275,-0.09774279594421387
277,1.5361034187779061,-0.8757619901294431,-2.790071338494,0.6400265693664551,0.7680317163467407,-0.022213295102119446,-0.526854395866394,-2.796849012374878,0.18922573328018188,0.2699923515319824,0.4409526586532593,0.456447958946228
278,1.645260283489137,-0.842169066920814,-2.7027469521282868,0.6640008091926575,0.7460891604423523,0.04953571781516075,-0.16419902443885803,2.4980926513671875,-0.1292014718055725,0.22070372104644775,0.7598769664764404,-0.32478904724121094
279,1.7469087392306373,-0.8789249917889034,-2.8013542550319928,0.6281111240386963,0.770053505897522,0.11177616566419601,1.0724011659622192,0.9335010647773743,-0.009856248274445534,0.27115029096603394,-0.14877671003341675,-0.37425780296325684
280,1.5941608329829786,-0.8728011667582067,-2.9387124619125515,0.6425076127052307,0.7661321759223938,0.015014604665338993,0.26151061058044434,-1.6993032693862915,0.10378915816545486,-0.4353085160255432,-0.3607214689254761,0.1571502685546875
281,1.4785387023101852,-0.8778609723298122,-2.936879707810841,0.6360818147659302,0.7693742513656616,-0.05885045975446701,-0.24574008584022522,-1.1979241371154785,-0.17958609759807587,-0.2775917649269104,-0.22079014778137207,-0.05916101485490799
282,1.3655070992861853,-0.8960610457772992,-2.886837431185938,0.611573338508606,0.7808723449707031,-0.12734337151050568,-1.8693969249725342,-2.9930367469787598,0.07280560582876205,0.6616352200508118,0.2620963454246521,0.45830655097961426
283,1.4820422390692811,-0.901831111757882,-2.6548695681931456,0.6177334785461426,0.7844638228416443,-0.05497078597545624,-0.9439864754676819,0.6573320031166077,0.0815669447183609,0.09207481145858765,0.41890525817871094,-0.43981069326400757
284,1.592849770898369,-0.8746992990452436,-2.6321523378670775,0.6410717368125916,0.7673507332801819,0.014140132814645767,0.3992651104927063,1.3685868978500366,0.10650418698787689,-0.17995113134384155,0.22125095129013062,-0.06161022186279297
285,1.6411412363221252,-0.8911895125944937,-2.7231691303836842,0.6269330978393555,0.7778198719024658,0.0441744402050972,0.25073927640914917,0.8253290057182312,-0.22121699154376984,-0.3575696349143982,-0.5440093278884888,-0.0337831936776638
286,1.6579779141082238,-0.8930106449544755,-2.750113875976935,0.6246881484985352,0.7789631485939026,0.05459970608353615,0.43268027901649475,-0.06580839306116104,0.3757692277431488,-0.25945383310317993,-0.31401264667510986,-0.06442642211914062
287,1.5462225674450307,-0.8395238178942315,-2.7349944522508505,0.6676158308982849,0.7443252205848694,-0.0164091344922781,-1.2328503131866455,-1.2099971771240234,0.5815734267234802,0.2369099259376526,0.3318009376525879,0.63954758644104
288,1.657138361965671,-0.7997749775936195,-2.6881261348837606,0.6942722201347351,0.7171993255615234,0.060094282031059265,-0.3855450451374054,1.8398785591125488,-0.04261404275894165,0.11424529552459717,0.7673587799072266,-0.5000967979431152
289,1.7822848254872588,-0.8216834993357965,-2.765552403255249,0.6658165454864502,0.7322933077812195,0.14295019209384918,0.8672062158584595,0.6135642528533936,0.0030894563533365726,0.40223759412765503,-0.06704068183898926,-0.386877179145813
290,1.6508267980452376,-0.8055252941968029,-2.8273345109019297,0.6905152797698975,0.7211946249008179,0.055380549281835556,-0.41845187544822693,-2.333190441131592,0.3606312572956085,-0.39850783348083496,-0.31842362880706787,0.03817105293273926
291,1.4384913624785018,-0.7925811442679451,-2.7915755145546397,0.6958741545677185,0.7121676206588745,-0.09260860085487366,-0.14070308208465576,-1.392545461654663,-0.416032612323761,-0.6266756057739258,-0.08298677206039429,0.13316649198532104
292,1.356960177051285,-0.8545451042311829,-2.764020881815651,0.6416078805923462,0.7542723417282104,-0.13932910561561584,-1.3560388088226318,-2.6107723712921143,-0.15885943174362183,0.9118436574935913,0.22399914264678955,0.47017019987106323
293,1.441379531483696,-0.8832906938603358,-2.5787049937211437,0.6293041706085205,0.772831380367279,-0.08190028369426727,-1.1076053380966187,0.8939835429191589,-0.14446617662906647,0.18760555982589722,0.5537523627281189,-0.5098355412483215
294,1.6217801882962304,-0.8773924932521595,-2.5716552150778313,0.6383282542228699,0.7690748572349548,0.0325726680457592,0.6338309645652771,2.003648281097412,-0.06838667392730713,-0.12300843000411987,0.03005850315093994,-0.03942393884062767
295,1.6897653872144633,-0.9221403063740868,-2.6564660593264726,0.5998457074165344,0.7968964576721191,0.07170168310403824,0.4235271215438843,1.1416540145874023,-0.5589357614517212,-0.3443983793258667,-0.5773835182189941,-0.14003050327301025
296,1.6777599304233584,-0.9317658469667731,-2.7456304139315737,0.5930089950561523,0.8026743531227112,0.06367339938879013,0.2109442800283432,-0.4441380500793457,0.6824896335601807,-0.20592403411865234,-0.4123697876930237,-0.06283426284790039
297,1.547620774146659,-0.8529114063062063,-2.700365167538486,0.6576166749000549,0.7531986832618713,-0.01524335891008377,-0.8985894918441772,-1.6545048952102661,0.5456100106239319,0.023657798767089844,0.4577084183692932,0.5676878094673157
298,1.7369382163024332,-0.8215492248439437,-2.624030182530703,0.671709418296814,0.732201874256134,0.11263736337423325,0.3704306483268738,2.495485544204712,-0.28478261828422546,0.3555275797843933,0.7441775798797607,-0.5612914562225342
299,1.7033123810845638,-0.8443560737397378,-2.804035407413586,0.6583894491195679,0.7475435733795166,0.08776148408651352,0.5594208836555481,0.2215990573167801,-0.03707892447710037,0.16604292392730713,-0.1711580753326416,-0.1739126443862915
300,1.5660460685767879,-0.8398066888135641,-2.8755972291141707,0.6675991415977478,0.7445141077041626,-0.0031712923664599657,0.02734329178929329,-1.736892580986023,0.11249013245105743,-0.4971737861633301,-0.3992688059806824,0.11021173000335693
301,1.4865583749921298,-0.8490042812798804,-2.7599160981799873,0.6583878993988037,0.7506228685379028,-0.05559280514717102,-0.8669328093528748,-1.2269318103790283,-0.335693359375,-0.2997605800628662,-0.15379071235656738,-0.06193041056394577
302,1.3583686119928415,-0.891497623770328,-2.664832085312417,0.6141258478164673,0.7780135273933411,-0.1324557512998581,-1.611656904220581,-2.4637372493743896,-0.08442835509777069,0.6033576130867004,0.2335221767425537,0.5958499312400818
303,1.4944023129305293,-0.9222203610164121,-2.497178082186841,0.6022903919219971,0.796944797039032,-0.046101100742816925,-0.40482640266418457,1.0981502532958984,-0.0016817105934023857,0.29491114616394043,0.20406228303909302,-0.42379331588745117
304,1.6057608503448977,-0.8995914489841419,-2.5255464308715863,0.6215497255325317,0.7830728888511658,0.021741051226854324,0.41225379705429077,1.3858414888381958,-0.0519590750336647,-0.12373179197311401,0.13251549005508423,-0.15356171131134033
305,1.7053415057219823,-0.9265740553349425,-2.5857491157072485,0.5951489806175232,0.7995671033859253,0.08056113123893738,0.1570110023021698,1.431810736656189,-0.21681255102157593,-0.2498120665550232,-0.5410526990890503,-0.08632898330688477
306,1.740790101084093,-0.9264468294901061,-2.6196609133421767,0.5920203924179077,0.7994906902313232,0.10162054002285004,0.4874749481678009,-0.025073174387216568,0.22877979278564453,-0.24172431230545044,-0.43559908866882324,-0.07340705394744873
307,1.6159614592571416,-0.8907720438369755,-2.677472634267982,0.6281707882881165,0.7775574326515198,0.02839072421193123,-0.33197182416915894,-0.7916122674942017,0.22788257896900177,0.29013365507125854,0.6351012587547302,0.44560837745666504
308,1.7153003545279428,-0.8521599004998159,-2.635021518774529,0.6514971256256104,0.7527041435241699,0.09480476379394531,-0.3542419373989105,1.1037119626998901,0.09982901066541672,0.5494000911712646,1.02000093460083,-0.5492115020751953
309,1.7987950516386177,-0.8794037883513568,-2.7458327285991104,0.6211095452308655,0.7703588604927063,0.14411814510822296,1.2897368669509888,1.5075887441635132,-0.09618250280618668,0.25080806016921997,-0.07101809978485107,-0.19412113726139069
310,1.7366957696225347,-0.8964046530454175,-2.878669619491654,0.6158488988876343,0.7810869216918945,0.10311674326658249,0.30242225527763367,-0.48938626050949097,0.08787211775779724,-0.41650819778442383,-0.2989856004714966,0.01021026074886322
311,1.6442575813094433,-0.8840026587319069,-2.8989165704772804,0.6323510408401489,0.7732830047607422,0.046537045389413834,-0.6379129886627197,-1.8146212100982666,0.04119411110877991,-0.3096886873245239,-0.5481700897216797,-0.22234880924224854
312,1.4985719736936187,-0.878652304028025,-2.842560141482143,0.6365256309509277,0.7698795199394226,-0.046052753925323486,-0.252262145280838,-3.860818386077881,0.06995229423046112,0.6153817772865295,0.6138028502464294,0.2348650097846985
313,1.415978331203496,-0.8854907004234646,-2.710334270684494,0.6253398060798645,0.774225652217865,-0.09759484231472015,-1.3772387504577637,0.44243305921554565,0.105976402759552,0.5826221704483032,0.3258872628211975,-0.07920872420072556
314,1.569175660782508,-0.8828656570755186,-2.681735172044929,0.6349391341209412,0.7725615501403809,-0.00102902518119663,0.9014241099357605,2.457306385040283,0.08442547917366028,-0.1353815793991089,0.4957185387611389,-0.13172245025634766
315,1.6614273933367105,-0.9010902418410197,-2.7544806715023573,0.6182078719139099,0.7840041518211365,0.056182753294706345,-0.11227276921272278,0.25065550208091736,-0.20728929340839386,-0.1483592987060547,-0.37584686279296875,-0.14616382122039795
316,1.6960086167473987,-0.9063558239718251,-2.7328913156127252,0.6117916107177734,0.7872619032859802,0.07700669020414352,0.24699649214744568,0.12045013159513474,0.08833165466785431,-0.35497087240219116,-0.45230090618133545,-0.06359421461820602
317,1.5978183896132325,-0.8867320521777781,-2.8193883371757584,0.6317173838615417,0.7750107049942017,0.01707446202635765,0.5818402767181396,-1.197616457939148,0.4115176200866699,-0.018024146556854248,0.08389121294021606,0.17669689655303955
318,1.554058392399265,-0.8446551725086183,-2.762530827543726,0.6638962030410767,0.7477421760559082,-0.011113288812339306,-0.784842848777771,1.48548424243927,0.6190487146377563,0.5339187383651733,0.4289392828941345,0.5817004442214966
319,1.7596935367461344,-0.8460650470854133,-2.790079300861277,0.6511419415473938,0.7486776113510132,0.12448303401470184,1.3460367918014526,1.7110077142715454,0.08484957367181778,0.2415124773979187,0.008539736270904541,-0.6209735870361328
320,1.6929399083783798,-0.8500853245235663,-2.963102270187302,0.6550025343894958,0.7513366937637329,0.0804046094417572,1.3401329517364502,-0.30565565824508667,0.3102562725543976,-0.11076736450195312,-0.3269287347793579,-0.05213010311126709
321,1.5149081195995764,-0.8358559085377176,-3.0394134203644967,0.6694959402084351,0.7418707013130188,-0.03745593503117561,-0.49380606412887573,-1.2542544603347778,0.27025726437568665,-0.5037091970443726,-0.3840063810348511,0.17878282070159912
322,1.4372914845791627,-0.8435849073957068,-2.972053671225966,0.6588734984397888,0.7470310926437378,-0.08848915994167328,0.37225982546806335,-0.5055344104766846,-0.2022797167301178,-0.01904195547103882,0.2272425889968872,-0.03524434566497803
323,1.3127523344754974,-0.8798421255714902,-2.898627017724501,0.6161734461784363,0.7706382870674133,-0.1626255363225937,-1.0884630680084229,-0.09517896920442581,-0.2594665288925171,0.690421462059021,0.26790541410446167,0.6438267230987549
324,1.5100146085037536,-0.9012021921377278,-2.746910167195799,0.6195215582847595,0.7840736508369446,-0.03770202770829201,-0.13266171514987946,1.0984959602355957,0.2861243188381195,-0.1018671989440918,0.35951149463653564,-0.3623986840248108
325,1.6007997592141245,-0.8989463139720785,-2.8042634450791013,0.6221546530723572,0.7826715111732483,0.018672378733754158,0.45503807067871094,0.8744370341300964,-0.4389437437057495,-0.23189592361450195,-0.31807202100753784,-0.11327695846557617
326,1.659960756329476,-0.939743606947911,-2.812656073868841,0.5876513123512268,0.8074068427085876,0.052536897361278534,-0.04743251949548721,0.44551557302474976,-0.1099705696105957,-0.2999926209449768,-0.5887178182601929,-0.08590792864561081
327,1.59268280880885,-0.9320522631409827,-2.896807287588284,0.5960449576377869,0.8028451800346375,0.013047411106526852,1.2392669916152954,-0.2648463249206543,0.4526507556438446,-0.08664554357528687,-0.0545082688331604,0.05743288993835449
328,1.5184248723650777,-0.8735324069881787,-2.919135381402414,0.6412423253059387,0.7666019797325134,-0.033613529056310654,-0.1473427563905716,0.99083411693573,0.725702166557312,0.21088474988937378,0.33607447147369385,0.5824568867683411
329,1.684174755282401,-0.8609596274484027,-2.902460193020614,0.6475259065628052,0.7584683299064636,0.0737316682934761,0.627231776714325,1.5806169509887695,-0.14755764603614807,0.0203513503074646,0.1936497688293457,-0.6719067096710205
330,1.6599624361224088,-0.8731025968627911,-3.0055554153219908,0.639899730682373,0.7663258910179138,0.057209063321352005,1.12893807888031,-0.2875153124332428,0.12218433618545532,0.06652110815048218,-0.3709707260131836,-0.15233230590820312
331,1.412227475976462,-0.8629753685748245,-3.0636215769624804,0.6420227885246277,0.7597804665565491,-0.10266675055027008,-0.4883275032043457,-2.051516532897949,-0.14344219863414764,-0.51999831199646,-0.3087306022644043,0.3639277219772339
332,1.3689895095960944,-0.8834762548718977,-3.0119927749047966,0.6215924024581909,0.7729490995407104,-0.12717269361019135,0.05891980230808258,-1.0429259538650513,-0.1916593462228775,0.05229681730270386,-0.1350858211517334,-0.18027664721012115
333,1.2922693131706713,-0.9083214020956807,-2.930334669630973,0.5913662910461426,0.7884724140167236,-0.16910722851753235,-1.4237713813781738,-0.9308100342750549,-0.016155032441020012,0.6637301445007324,0.21840929985046387,0.5981233716011047
334,1.4188810795946456,-0.9224035614866203,-2.7713944142637597,0.596950888633728,0.7970554232597351,-0.09139006584882736,0.13857299089431763,0.964209794998169,0.2205049693584442,-0.1068844199180603,0.29902905225753784,-0.31011444330215454
335,1.5354852428713661,-0.8917427327487687,-2.783058768493171,0.6276655197143555,0.7781674861907959,-0.02217276766896248,0.23655089735984802,1.1893781423568726,-0.03831277787685394,-0.2080182433128357,0.04466283321380615,-0.11890995502471924
336,1.613105820567029,-0.9075130145132709,-2.829575558260123,0.6151566505432129,0.7879748940467834,0.026042506098747253,0.05408019945025444,0.967214047908783,-0.20497778058052063,-0.3392471671104431,-0.5217242240905762,0.008137229830026627
337,1.633019163144847,-0.9053920679494586,-2.8691816805096084,0.6161823868751526,0.7866672873497009,0.03839017450809479,0.7886359691619873,-0.10647816210985184,0.31151485443115234,-0.20778095722198486,-0.2554630637168884,-0.04734707251191139
338,1.5073533523916567,-0.8544301646113452,-2.926856533249923,0.6553272008895874,0.7541968822479248,-0.041631776839494705,-0.5774880051612854,-0.4632217586040497,0.5872647166252136,0.3646923303604126,0.38758766651153564,0.629034161567688
339,1.6865205808663293,-0.8157637519357931,-2.7968309559846465,0.680728554725647,0.728249192237854,0.07913035899400711,-0.5763415694236755,2.1641182899475098,-0.22212935984134674,0.21613723039627075,1.0206215381622314,-0.4835340976715088
340,1.766336378218109,-0.8325397474097274,-2.9445582604563323,0.6601740121841431,0.7396429777145386,0.1307613104581833,0.5814020037651062,0.26115351915359497,0.20283037424087524,0.5141881108283997,-0.23796457052230835,-0.3886042833328247
341,1.638006692522454,-0.8114668177253248,-2.987727817038553,0.6868810057640076,0.725297749042511,0.046235162764787674,0.19570966064929962,-1.7082644701004028,0.3202153444290161,-0.40036672353744507,-0.269975483417511,-0.000916600227355957
342,1.4608725418774329,-0.7931933573104059,-2.9323683063633914,0.6973391175270081,0.7125972509384155,-0.07696440070867538,-1.2507929801940918,-2.470404863357544,-0.07709142565727234,-0.5095949172973633,-0.27851516008377075,0.1508779525756836
343,1.355159016771633,-0.8439648932537901,-2.86105913496924,0.649115264415741,0.7472836971282959,-0.14218415319919586,-0.4984124004840851,-1.9698288440704346,-0.4732890725135803,0.7094509601593018,0.6729890704154968,0.10063447058200836
344,1.3280297659561746,-0.8907494567559416,-2.7071360595453444,0.610390305519104,0.7775432467460632,-0.1511637270450592,-1.5394244194030762,0.6483792066574097,-0.06464827060699463,0.5661844611167908,0.4467610716819763,-0.15065516531467438
345,1.4729995122362156,-0.8780494213051628,-2.725628450847418,0.6356017589569092,0.7694945931434631,-0.062358755618333817,1.1500132083892822,2.1854875087738037,0.2755933105945587,-0.24020075798034668,0.16689151525497437,-0.13928616046905518
346,1.555144905138846,-0.8971263703372363,-2.800432516673617,0.6237820386886597,0.7815374135971069,-0.009763873182237148,0.015475818887352943,1.2684011459350586,-0.48094990849494934,-0.35418975353240967,-0.29418694972991943,-0.08094966411590576
347,1.623930082277415,-0.9287411598410714,-2.8167976795093588,0.5979976058006287,0.8008667230606079,0.03180379420518875,0.5894763469696045,0.28257516026496887,0.03579294681549072,-0.1921900510787964,-0.5975586175918579,-0.06595301628112793
348,1.4632168223466542,-0.8960481829225782,-2.920119901653088,0.6210891604423523,0.7808642983436584,-0.06707543134689331,0.5683677792549133,-1.244271159172058,0.6161354780197144,0.09412074089050293,0.23636281490325928,0.31982195377349854
349,1.4622498579140926,-0.8341568491294348,-2.8831917665454556,0.6678487062454224,0.740730345249176,-0.07277867943048477,-0.5241667032241821,1.1109000444412231,0.6350823044776917,0.16128337383270264,0.47121429443359375,0.43430519104003906
350,1.6620182523496954,-0.8265220028393379,-2.8847670681871525,0.6746215224266052,0.7355796694755554,0.061711546033620834,1.424450159072876,2.797449827194214,-0.10802403092384338,0.08685314655303955,0.1925055980682373,-0.6601002216339111
351,1.628087207048483,-0.8248564021472542,-3.0021263676067154,0.6775487661361694,0.7344503402709961,0.03885988891124725,-0.06614384055137634,-1.756272554397583,0.3709418773651123,-0.012982845306396484,-0.31172096729278564,0.04604005068540573
352,1.4992876214568311,-0.8050892167425099,-2.8464972377297584,0.6912757158279419,0.7208924889564514,-0.04951666295528412,-1.184035062789917,-1.820193886756897,0.09035950154066086,-0.6122199296951294,-0.4197602868080139,0.04597663879394531
353,1.4250503921570474,-0.8485402878432432,-2.7463124854237493,0.6540703773498535,0.7503162026405334,-0.09600885957479477,-0.3283204436302185,-1.9857136011123657,-0.5223385095596313,0.09527355432510376,-0.017329692840576172,-0.032531216740608215
354,1.2595513149807778,-0.8986078675366648,-2.6361381613848764,0.592781126499176,0.7824608087539673,-0.19069816172122955,-0.7618343830108643,0.09582416713237762,-0.1842796802520752,0.6984328627586365,0.2515662908554077,0.5461821556091309
355,1.4030399503182447,-0.9189229604224124,-2.5434854517884555,0.5981602668762207,0.7949486374855042,-0.10129722952842712,0.1331612765789032,1.5576764345169067,0.18324732780456543,-0.10409587621688843,0.3288154602050781,-0.12142004072666168
356,1.491917608935814,-0.9073557962289568,-2.665376174462639,0.6139165759086609,0.7878780961036682,-0.04852563515305519,1.2379709482192993,1.4938198328018188,-0.17884700000286102,-0.1443120241165161,-0.15173906087875366,-0.1723758578300476
357,1.5640456235474542,-0.9172548897272774,-2.752392632823317,0.607988178730011,0.7939355969429016,-0.004104409832507372,-0.2706243395805359,0.6511483192443848,-0.005743496119976044,-0.1850450038909912,-0.5065057873725891,0.045394718647003174
358,1.5664016017087559,-0.9020297196917553,-2.7586458393872264,0.6200129985809326,0.7845869660377502,-0.0027248042169958353,0.5025073289871216,-0.4662133753299713,0.5993695259094238,-0.13315075635910034,-0.00034612417221069336,0.016091465950012207
359,1.560758891545476,-0.8514716755295798,-2.7315551386305277,0.6588435173034668,0.7522508502006531,-0.006613321602344513,0.12798729538917542,0.8838620185852051,0.4904927909374237,0.04699748754501343,0.16585516929626465,0.5825105309486389
360,1.6781181573185133,-0.8504916465254442,-2.792404454292659,0.6558187007904053,0.7516047954559326,0.07065514475107193,1.943605661392212,2.1816513538360596,-0.24051256477832794,0.04060769081115723,0.13367962837219238,-0.6113502979278564
361,1.6011259287941926,-0.8623976381563337,-3.016125351702693,0.6503191590309143,0.759404718875885,0.019729971885681152,0.49085986614227295,-0.771816074848175,0.1953476518392563,0.06334954500198364,-0.3368126153945923,-0.07185399532318115
362,1.47928253863669,-0.853916506593343,-2.944663069609976,0.6542865037918091,0.7538594603538513,-0.060043949633836746,-0.9449698328971863,-1.748611330986023,-0.02387390285730362,-0.4157305359840393,-0.37000930309295654,0.16168272495269775
363,1.3942871396008032,-0.874352722825826,-2.878886073660432,0.6315264701843262,0.7671284675598145,-0.11264247447252274,0.12302511930465698,-1.046988844871521,-0.28101274371147156,-0.09087705612182617,-0.11319780349731445,-0.038678884506225586
364,1.2571824388396335,-0.9006933954356688,-2.8130472470022934,0.5907739996910095,0.783757746219635,-0.19159796833992004,-0.9221184253692627,-1.438033103942871,0.08578834682703018,0.5802311897277832,0.3628181219100952,0.7892999649047852
365,1.4434846998415434,-0.9398474991503042,-2.677454585181336,0.5851369500160217,0.8074681758880615,-0.07489984482526779,0.05826375633478165,1.1671018600463867,0.010631740093231201,0.2094491720199585,0.250103235244751,-0.3619897961616516
366,1.466736416880387,-0.9071368919637901,-2.7513797061656855,0.612671434879303,0.7877432703971863,-0.06398565322160721,0.5979681015014648,1.0168997049331665,-0.09722559154033661,-0.3647618889808655,-0.12183451652526855,-0.1387578845024109
367,1.5591902943544924,-0.9344592499898945,-2.808011254521729,0.594213604927063,0.8042778372764587,-0.006896772421896458,0.2194308191537857,1.0670032501220703,-0.2264595478773117,-0.2270107865333557,-0.5078147649765015,-0.0619966983795166
368,1.5350723880661619,-0.9197798669591829,-2.8583459849797235,0.6056085824966431,0.7954682111740112,-0.021643932908773422,0.12361980974674225,-0.38611793518066406,0.625239372253418,-0.05496472120285034,-0.073788583278656,0.17694789171218872
369,1.5729762661172602,-0.8663650678876513,-2.766468259137766,0.6475992798805237,0.7619799971580505,0.0014117293758317828,0.08671798557043076,0.9775668382644653,0.6146396398544312,0.1951131820678711,0.09174942970275879,0.5975263118743896
370,1.6795330931577983,-0.8551687375228985,-2.788134233543023,0.6522161960601807,0.7546816468238831,0.07120072096586227,1.3670352697372437,1.7178826332092285,-0.14266476035118103,-0.01447516679763794,0.13969695568084717,-0.5985902547836304
371,1.6005008307363953,-0.8610150829951027,-2.9905383145553475,0.6513803601264954,0.7585044503211975,0.019354622811079025,0.39056727290153503,-1.5748542547225952,0.16563890874385834,-0.04347020387649536,-0.2924399971961975,-0.016913175582885742
372,1.4574333039524003,-0.8611574429444786,-2.9576276347555917,0.6473776698112488,0.758597195148468,-0.07370469719171524,-0.2421390414237976,-0.8474342226982117,-0.19046078622341156,-0.4943472743034363,-0.3794468641281128,0.22726911306381226
373,1.3898051490093273,-0.888807814694589,-2.9592133013921367,0.620042085647583,0.7763208150863647,-0.11346380412578583,-0.022780921310186386,-0.9650753736495972,-0.2266916185617447,0.12316781282424927,0.014206647872924805,-0.06192071735858917
374,1.319584754821994,-0.9175107769221021,-2.822524985898656,0.5887211561203003,0.7940911054611206,-0.15108521282672882,-0.7937076091766357,-0.021776657551527023,0.03952641785144806,0.5795222520828247,0.4451819658279419,0.4388965368270874
375,1.5081895499094982,-0.9213528233217736,-2.6628698312672405,0.6035585999488831,0.7964204549789429,-0.03783630579710007,-0.3868062198162079,0.4940474331378937,0.5471802353858948,-0.08697229623794556,0.32616865634918213,-0.16696715354919434
376,1.5240388735221249,-0.8941834645570444,-2.67380954150354,0.625471293926239,0.7796980738639832,-0.029266776517033577,0.2188255339860916,0.7662802338600159,-0.2179221361875534,-0.3774397373199463,-0.20538777112960815,-0.10015827417373657
377,1.591506791909893,-0.9130124876571019,-2.6892801220738405,0.6112335920333862,0.7913490533828735,0.012660742737352848,0.13616463541984558,0.3169137239456177,-0.12271063774824142,-0.31266486644744873,-0.5252968072891235,0.014347314834594727
378,1.5157593810877472,-0.9193814178072542,-2.749475508576747,0.6053943634033203,0.7952266931533813,-0.03335273638367653,0.022026395425200462,-0.47041457891464233,0.07273920625448227,0.06176573038101196,0.03398174047470093,0.43133246898651123
379,1.548439638685137,-0.8793576364955373,-2.7324729894434427,0.6374867558479309,0.7703294157981873,-0.014254467561841011,0.07060719281435013,0.28021618723869324,0.8957697749137878,0.3157755732536316,0.42641735076904297,0.13572967052459717
380,1.6547562711888175,-0.8478480004422947,-2.665876345724013,0.6592679619789124,0.7498583793640137,0.05548253282904625,0.8129554986953735,1.1956369876861572,-0.23848213255405426,-0.15517860651016235,0.19076967239379883,-0.45404207706451416
381,1.6121143774787279,-0.8665947919809169,-2.796476568005891,0.646872878074646,0.7621287703514099,0.02674274705350399,0.8892346024513245,-1.7072468996047974,0.05264010652899742,-0.07884925603866577,-0.2077617049217224,-0.16738295555114746
382,1.3674438680992973,-0.8813319617145416,-2.8134307776045753,0.6230168342590332,0.7715868353843689,-0.12846770882606506,0.1369081735610962,-1.447848916053772,-0.31078699231147766,-0.4879307150840759,-0.3861802816390991,0.2682992219924927
383,1.2796938915386693,-0.9102408397727232,-2.9364635198050526,0.5877422094345093,0.7896515130996704,-0.17609566450119019,0.8578099012374878,0.2204282283782959,-0.5442865490913391,0.4284931421279907,0.1292175054550171,0.21921700239181519
384,1.298196254528677,-0.9606722718976081,-2.8690877822584047,0.5518117547035217,0.8195769190788269,-0.1542641520500183,-0.5438138842582703,-0.37351635098457336,-0.1956367790699005,0.577781081199646,0.3659698963165283,0.219434455037117
385,1.4251554347477593,-0.9737434465353787,-2.8328331000649625,0.556255578994751,0.8269960880279541,-0.08159126341342926,-0.07221798598766327,1.7127114534378052,-0.020763130858540535,-0.25118666887283325,0.23376435041427612,-0.28204095363616943
386,1.5503787824495607,-0.9821407550391609,-2.820915519646696,0.5551276803016663,0.8316879272460938,-0.011335919611155987,0.05669637769460678,0.3865143060684204,-0.1126941666007042,-0.17027050256729126,-0.15506744384765625,-0.29390090703964233
387,1.4832238582207784,-0.9763578781118515,-2.825201362942606,0.557897686958313,0.8284631371498108,-0.04898175224661827,-0.2971319556236267,-0.6217485070228577,0.22912073135375977,-0.2601223587989807,-0.5779899954795837,0.19155985116958618
388,1.4334033463724607,-0.967655524154532,-2.8631522772790725,0.5618865489959717,0.8235580921173096,-0.07768872380256653,0.6342578530311584,0.22282837331295013,0.13539783656597137,-0.05849909782409668,-0.017924606800079346,0.26151132583618164
389,1.483085625179975,-0.9204806682607322,-2.809761851149531,0.603110134601593,0.7958927154541016,-0.05303528532385826,-0.7817721366882324,0.38113370537757874,0.4629356265068054,0.04146683216094971,0.5465601682662964,0.33163022994995117
390,1.6143888151672283,-0.9201155599087705,-2.789175076200582,0.6051526665687561,0.7956716418266296,0.02639683336019516,0.8966607451438904,1.415656328201294,-0.3284003436565399,0.02498948574066162,0.10336089134216309,-0.45469582080841064
391,1.4976664508003925,-0.9296999677700477,-2.9882430909011135,0.5964758396148682,0.8014405369758606,-0.04369812831282616,0.6278338432312012,-1.6718487739562988,0.2334672510623932,0.14867186546325684,-0.30525529384613037,-0.2605164051055908
392,1.3394263639872261,-0.9213620598240141,-2.9252032536966572,0.5886215567588806,0.7964260578155518,-0.13867269456386566,-0.04077819734811783,-0.9292930364608765,0.039809033274650574,-0.3952927589416504,-0.40641146898269653,0.47724997997283936
393,1.2600869386701519,-0.9310865985555273,-2.9836019945853542,0.5683782696723938,0.8022691011428833,-0.18251186609268188,-0.05612732470035553,-0.866922914981842,-0.31326860189437866,0.0444909930229187,0.0535963773727417,-0.13705295324325562
394,1.2571045546213615,-0.9734326029258772,-2.8565405817578564,0.5350168347358704,0.8268213272094727,-0.17356103658676147,-0.5870373249053955,-0.773209810256958,-0.1377657949924469,0.5142384767532349,0.44080251455307007,0.5107802748680115
395,1.3435774051849225,-0.9932725399454246,-2.846035272990334,0.5319185256958008,0.8378171324729919,-0.12298580259084702,0.10006579756736755,1.133239984512329,-0.024419015273451805,-0.027798593044281006,0.16051983833312988,-0.3241119384765625
396,1.4427175038229114,-0.9951744495267949,-2.8770026367217874,0.5398978590965271,0.8388539552688599,-0.06953009217977524,0.18322183191776276,0.8331879377365112,-0.21291984617710114,-0.3042258024215698,-0.13771259784698486,-0.15485042333602905
397,1.44189011060263,-1.001752501893164,-2.9432855958938817,0.534356415271759,0.8424165844917297,-0.0692659467458725,-0.16479963064193726,0.35161057114601135,0.06756740808486938,-0.33452725410461426,-0.6001832485198975,0.06917440891265869
398,1.4400561978365596,-0.9731131286216356,-2.9654445592533474,0.5579262971878052,0.8266415596008301,-0.0733618214726448,0.21829663217067719,-0.4870398938655853,0.3460548520088196,-0.09642428159713745,-0.11677223443984985,0.23180913925170898
399,1.5461750529849558,-0.910127427969462,-2.8673776524113297,0.6134592890739441,0.7895819544792175,-0.015107201412320137,-0.08689887076616287,0.29273536801338196,0.6818475127220154,0.1362507939338684,0.42285090684890747,0.5028696060180664
400,1.6801014846592874,-0.8607301275567067,-2.7807073764645267,0.6479935050010681,0.7583187222480774,0.07111246883869171,-0.7928155064582825,0.5147060751914978,-0.16913025081157684,0.12608474493026733,0.41158783435821533,-0.5890415906906128
401,1.6791357917586567,-0.8754802827037622,-2.766003820860031,0.6368723511695862,0.7678512930870056,0.06926964223384857,0.4764311909675598,-0.9831008911132812,-0.09531004726886749,-0.13171488046646118,-0.1755659580230713,-0.36300134658813477
402,1.3887323707652866,-0.8794094542617837,-2.903781778319868,0.6270679831504822,0.7703624963760376,-0.11544486880302429,1.2895236015319824,-2.500746726989746,-0.19239605963230133,-0.4544758200645447,-0.39069318771362305,0.3711516857147217
403,1.299576065036751,-0.9090278195489584,-2.919425840313203,0.5920493602752686,0.7889066934585571,-0.16463252902030945,-0.5943239331245422,-0.2894260287284851,-0.18584415316581726,0.11901021003723145,-0.15420210361480713,0.057546377182006836
404,1.2816058307169187,-0.95103744733628,-2.7705456961831065,0.5567197203636169,0.8140185475349426,-0.16564160585403442,-0.43252310156822205,-0.41870972514152527,-0.14784620702266693,0.5399294495582581,0.3913952708244324,0.6520612835884094
405,1.3935156308537895,-0.9537597819467747,-2.7469831611457987,0.5695518851280212,0.8155967593193054,-0.1020418033003807,-0.29858267307281494,0.8401224613189697,0.21904990077018738,0.040524959564208984,0.3451850414276123,-0.3726590871810913
406,1.528310843024199,-0.9360192086762334,-2.599526800165193,0.5924631357192993,0.805203914642334,-0.025186238810420036,-0.3276747465133667,0.46313902735710144,-0.22816431522369385,-0.38930755853652954,-0.06896722316741943,-0.3031524419784546
407,1.5053710999415268,-0.9584856593168292,-2.7198258467615837,0.5735302567481995,0.8183221220970154,-0.037576980888843536,1.2486323118209839,0.41830724477767944,-0.10591526329517365,-0.15867435932159424,-0.5962762236595154,0.18766248226165771
408,1.4664590147626133,-0.9510559897276963,-2.76333636283763,0.5776652693748474,0.8140292763710022,-0.060491710901260376,-0.10332759469747543,0.1752883940935135,0.09088633209466934,-0.1522502303123474,-0.012988686561584473,0.189367413520813
409,1.4856259867609212,-0.9178287016677642,-2.7418714046816457,0.6053439378738403,0.7942843437194824,-0.051682375371456146,-0.06618689000606537,-0.15773779153823853,0.38157063722610474,0.14866912364959717,0.4191402792930603,0.32650840282440186
410,1.5810051798469928,-0.8828461644831108,-2.6748002560228055,0.6349218487739563,0.7725492119789124,0.006482048891484737,-0.5332738757133484,1.0358871221542358,0.023118771612644196,-0.0249670147895813,0.18793052434921265,-0.2798128128051758
411,1.6270749308356827,-0.8972316457942615,-2.7845850886954118,0.6227886080741882,0.7816030979156494,0.035086724907159805,1.2900218963623047,0.5748270153999329,-0.04485173895955086,0.11459237337112427,-0.06015217304229736,-0.3159095048904419
412,1.5186520663501826,-0.8864539746222605,-2.89699240394382,0.6313045024871826,0.774834930896759,-0.032948773354291916,0.22416794300079346,-0.7758417725563049,0.21274995803833008,-0.37474316358566284,-0.43862271308898926,0.11491900682449341
413,1.3831109564531714,-0.896833618719739,-2.933226260831057,0.6131272912025452,0.7813547253608704,-0.11644554138183594,-0.1647205948829651,-1.0493253469467163,-0.3631102442741394,-0.05001699924468994,-0.1647929549217224,0.07726097851991653
414,1.3528839181480592,-0.9430262688378985,-2.835127553424033,0.573451578617096,0.8093392848968506,-0.12697848677635193,-0.7132558822631836,-0.931124746799469,-0.20118632912635803,0.6016888618469238,0.44847339391708374,0.2913004159927368
415,1.4531109070309562,-0.9817215984099046,-2.726986487450129,0.5517489910125732,0.8314551115036011,-0.06523425132036209,-0.2845541834831238,0.5475361943244934,0.1038215383887291,0.07381558418273926,0.22677242755889893,-0.27305305004119873
416,1.4637672491215892,-0.9497464981152657,-2.715727825891159,0.5785598158836365,0.8132680058479309,-0.06216026097536087,0.4930668771266937,0.5061233639717102,0.16124539077281952,-0.2770156264305115,-0.017659425735473633,-0.058933503925800323
417,1.4863175127997614,-0.9473847330352184,-2.8249052547700733,0.5817264318466187,0.811891496181488,-0.04926080256700516,0.5302242040634155,0.7577359676361084,-0.01570223644375801,-0.28802525997161865,-0.5198534727096558,-0.011621713638305664
418,1.4457802427407167,-0.9214711630684063,-2.853014558568269,0.5999303460121155,0.7964920401573181,-0.07539413124322891,0.19736406207084656,-0.4035632610321045,0.32356181740760803,-0.21637004613876343,-0.07543784379959106,0.1745762825012207
419,1.4621744944340005,-0.887397904883868,-2.8594522414651316,0.6277105808258057,0.7754313349723816,-0.06845249980688095,-0.16576054692268372,0.7409545183181763,0.581381618976593,0.34709715843200684,0.24139916896820068,0.37912142276763916
420,1.6343029196974064,-0.8574845833504936,-2.7463370560699607,0.6530227661132812,0.7561990022659302,0.04152709245681763,0.44302740693092346,1.161630392074585,-0.1681760847568512,-0.26616668701171875,0.3670309782028198,-0.47672295570373535
421,1.6304035205630776,-0.8841867824632342,-2.99410223057159,0.6327928304672241,0.7733997106552124,0.03776374086737633,1.7793817520141602,0.7845346927642822,0.19611310958862305,0.2886549234390259,-0.3277515172958374,-0.30767643451690674
422,1.4567189976692125,-0.8728787156364883,-3.0298022713001074,0.6384468078613281,0.7661820650100708,-0.0731498971581459,-1.063830018043518,-2.3331336975097656,0.0596155971288681,-0.41136544942855835,-0.44167327880859375,0.3102714419364929
423,1.3688127530764052,-0.8912796699710405,-2.939434387162671,0.6156418323516846,0.7778765559196472,-0.12606863677501678,-0.16715988516807556,-0.8468688130378723,-0.2538720667362213,-0.22324681282043457,-0.20381039381027222,-0.08637946844100952
424,1.2595307484578326,-0.9334790756475962,-2.872148191599151,0.5664477944374084,0.803695023059845,-0.1822395771741867,-0.7417170405387878,-2.0099129676818848,0.006304494105279446,0.4938396215438843,0.32296818494796753,0.8270607590675354
425,1.4618320163489436,-0.9768633289196377,-2.693043306871677,0.5563057661056519,0.8287460803985596,-0.06085852533578873,-0.6659692525863647,0.6686340570449829,0.11968666315078735,0.04475313425064087,0.12830036878585815,-0.45565152168273926
426,1.5570401294331848,-0.9486541118005571,-2.647751032688207,0.5827220678329468,0.8126319050788879,-0.008016545325517654,0.5906930565834045,1.0532138347625732,-0.14494246244430542,-0.40684932470321655,0.09081041812896729,-0.15473365783691406
427,1.5552869127592157,-0.9710152492810965,-2.8142981523451667,0.5643941760063171,0.8254591822624207,-0.008754124864935875,0.829883337020874,0.8766658306121826,-0.19281691312789917,-0.21249592304229736,-0.5481458902359009,0.05564439296722412
428,1.4877061164321412,-0.9636230024736032,-2.9199956010029875,0.5685797929763794,0.8212640285491943,-0.047352440655231476,0.5200284123420715,-0.46303829550743103,0.27072107791900635,-0.17763447761535645,-0.3150079846382141,-0.004542704671621323
429,1.4169762616294066,-0.9022867518141,-2.9490273633003428,0.6124987006187439,0.7847463488578796,-0.09496475011110306,-0.4168691337108612,0.1019197627902031,0.5498771667480469,0.18535280227661133,0.4170815348625183,0.65159010887146
430,1.5637261854049693,-0.8738208339720392,-2.8759784999156217,0.6418856978416443,0.7667871117591858,-0.0045382981188595295,0.01339908130466938,1.175606369972229,-0.17084936797618866,-0.128106951713562,0.42937999963760376,-0.43621182441711426
431,1.6058584240426061,-0.9025843079122684,-3.0427070912804317,0.6192025542259216,0.7849307060241699,0.021719440817832947,1.405125617980957,0.8025192618370056,0.2709822952747345,0.4017477035522461,-0.16804850101470947,-0.39214181900024414
432,1.4462655685509305,-0.8771502451195384,-3.0230488748220505,0.6343938708305359,0.7689200043678284,-0.07941248267889023,-1.3091877698898315,-2.606234312057495,0.06093624234199524,-0.3853856921195984,-0.39868080615997314,0.29408836364746094
433,1.363210875843114,-0.8861997515460421,-2.941746341229687,0.6187847256660461,0.7746742367744446,-0.13032813370227814,-0.20956172049045563,-0.9211700558662415,-0.20873942971229553,-0.34092217683792114,-0.24299699068069458,-0.06570154428482056
434,1.2865205043444592,-0.9304959646526713,-2.8478795238187176,0.5734584331512451,0.8019163608551025,-0.167558491230011,-0.6972216367721558,-1.6553494930267334,-0.09112124145030975,0.5807927846908569,0.250818133354187,0.6237657070159912
435,1.4589039272816793,-0.9594421061688483,-2.677885667134258,0.5703878402709961,0.8188714981079102,-0.06408975273370743,-0.7347387671470642,0.47065410017967224,0.16925914585590363,0.07768350839614868,0.37232130765914917,-0.4712953567504883
436,1.4694996706813608,-0.9214778034136201,-2.640161706623337,0.6015443205833435,0.7964960336685181,-0.06114370375871658,0.3794136047363281,0.7138491272926331,-0.1016862615942955,-0.4220704436302185,0.060498595237731934,-0.059629619121551514
437,1.5283734195748362,-0.9458096069971715,-2.7564217884524207,0.5845603346824646,0.8109709024429321,-0.024813637137413025,0.7905220985412598,1.2151280641555786,-0.2152058482170105,-0.3077353239059448,-0.4685635566711426,0.01285075768828392
438,1.4788817723481262,-0.9424275461360281,-2.8530275526384083,0.5853445529937744,0.8089874386787415,-0.053953707218170166,0.35798534750938416,-0.4497811794281006,0.18265612423419952,-0.12617707252502441,-0.28313910961151123,0.10587942600250244
439,1.4430815428175825,-0.9027227456383579,-2.8431515008188386,0.6144296526908875,0.7850164771080017,-0.07890120893716812,-0.3509331941604614,-0.049508798867464066,0.4447440803050995,0.17780667543411255,0.4855828285217285,0.5615519881248474
440,1.5597226840357037,-0.8761569133611102,-2.7680141144066357,0.640069305896759,0.7682845592498779,-0.007088188547641039,-0.7868091464042664,0.9627649784088135,-0.11014161258935928,0.10065335035324097,0.7399399280548096,-0.22795820236206055
441,1.6204158683249665,-0.9079052230074198,-2.8963534518694387,0.6146405935287476,0.7882163524627686,0.030523238703608513,1.297965407371521,1.527251958847046,-0.02981061488389969,0.30651718378067017,-0.1084831953048706,-0.44118309020996094
442,1.4779587647053727,-0.8934778150352474,-2.916302967013616,0.6240067481994629,0.7792560458183289,-0.05809827521443367,-1.2332175970077515,-2.440744638442993,0.23932328820228577,-0.29063278436660767,-0.3266041874885559,0.2973408102989197
443,1.3946045516103254,-0.8937024664067904,-2.7860214649451964,0.6168307662010193,0.7793967723846436,-0.10981925576925278,-0.25955042243003845,-1.0727311372756958,-0.18739275634288788,-0.33378028869628906,-0.3953331708908081,-0.07745181024074554
444,1.2671725185495983,-0.9169227769012794,-2.728201992578767,0.5804431438446045,0.7937335968017578,-0.18185938894748688,-0.9098948240280151,-2.6904823780059814,-0.027918778359889984,0.649827241897583,0.3031902313232422,0.6027578115463257
445,1.4008549934219003,-0.9465543583907317,-2.56890753085259,0.5760625600814819,0.8114064335823059,-0.09885028004646301,-0.542391300201416,1.533540964126587,-0.019290277734398842,0.11937189102172852,0.24921667575836182,-0.3334617614746094
446,1.533197866266151,-0.9237729010914723,-2.536300332834882,0.6023880243301392,0.7978816628456116,-0.02265954203903675,0.45368361473083496,0.7908896803855896,0.07841236144304276,-0.24562233686447144,0.11717265844345093,-0.1388242244720459
447,1.5585077755716565,-0.9384425137603574,-2.701239048870377,0.5910003781318665,0.8066385388374329,-0.007262904196977615,0.9242920279502869,1.482420563697815,-0.2508789896965027,-0.27558600902557373,-0.48046666383743286,-0.0238192081451416
448,1.5381040286690124,-0.934766175840075,-2.759409254281721,0.5936890244483948,0.8044602274894714,-0.019415976479649544,0.021569596603512764,-0.672502338886261,0.14651308953762054,-0.20607006549835205,-0.4973466396331787,0.0738593339920044
449,1.4874722385699173,-0.8915472716989922,-2.7199925857442544,0.6260296106338501,0.7780447006225586,-0.05228440463542938,-0.8469479084014893,-0.05408347398042679,0.37534427642822266,0.15589183568954468,0.618592381477356,0.7154923677444458
450,1.6465717326243698,-0.8629539205392274,-2.6306179345657243,0.6483300924301147,0.7597665190696716,0.049221720546483994,-0.5023210644721985,0.9747166037559509,-0.10220368951559067,0.19941765069961548,0.5995626449584961,-0.4651916027069092
451,1.666401640659501,-0.885281750678674,-2.7855694860408295,0.630180299282074,0.7740933895111084,0.06043282151222229,1.2850261926651,1.0767264366149902,-0.008430583402514458,0.22216039896011353,-0.12963855266571045,-0.2617114782333374
452,1.5315980870439914,-0.8712690414337732,-2.874594375123635,0.6433615684509277,0.7651466131210327,-0.025231564417481422,-0.7049074769020081,-1.8916476964950562,0.10115201771259308,-0.40887975692749023,-0.3730262517929077,0.19048422574996948
453,1.4669295477719428,-0.8738227839156177,-2.7428051223359855,0.638440728187561,0.7667883634567261,-0.06655228137969971,-0.3244571089744568,-1.5198818445205688,-0.16595561802387238,-0.32504040002822876,-0.3373754024505615,-0.07915390282869339
454,1.301946917108245,-0.9062125137694721,-2.7136557480365187,0.5945770740509033,0.7871735095977783,-0.16381776332855225,-1.1947654485702515,-3.1824400424957275,-0.1754239946603775,0.7513092756271362,0.31161201000213623,0.6258233785629272
455,1.422973726592677,-0.9397706524303132,-2.532201126254916,0.5835393071174622,0.8074228167533875,-0.08689414709806442,-1.0171047449111938,1.0633258819580078,-0.04202783480286598,0.45686596632003784,0.2449912428855896,-0.46788489818573
456,1.5813293272002626,-0.913803181625674,-2.524665889834712,0.6107048392295837,0.7918322086334229,0.006432792637497187,0.7510101795196533,1.8653236627578735,-0.06185620650649071,-0.22839587926864624,0.11991095542907715,-0.08268094062805176
457,1.6560426978236218,-0.9538451831973465,-2.690078383684078,0.5764500498771667,0.8156461715698242,0.04925965517759323,0.8021572232246399,1.7941908836364746,-0.4185127019882202,-0.25213974714279175,-0.5462828874588013,-0.13730287551879883
458,1.6167398659303642,-0.9644389875107062,-2.8220083309262445,0.5692763328552246,0.8217293620109558,0.02617298811674118,0.11341893672943115,-0.8294606804847717,0.16531260311603546,-0.11207735538482666,-0.44651585817337036,-0.023701077327132225
459,1.518926697111462,-0.9258861659005979,-2.7427857067141828,0.6003181338310242,0.799153745174408,-0.031166234984993935,-1.2736655473709106,-1.3925858736038208,0.4339972138404846,0.06282883882522583,0.5238595008850098,0.5730668306350708
460,1.6367380064351729,-0.886800485528643,-2.646922988399178,0.6305215954780579,0.7750539779663086,0.04163802042603493,-0.7863320708274841,0.7332972288131714,-0.0797257050871849,0.29280298948287964,0.9353188276290894,-0.7878233194351196
461,1.6951863747190916,-0.9155573125287947,-2.745851669051143,0.6046403646469116,0.7929022908210754,0.07560157775878906,1.2888182401657104,1.3533504009246826,-0.1521439254283905,0.17638063430786133,-0.03046649694442749,-0.19619180262088776
462,1.5342604324158213,-0.926781619484657,-2.896046295059139,0.600010097026825,0.7996917366981506,-0.021931665018200874,-0.16621606051921844,-1.6333271265029907,0.0014365727547556162,-0.45843905210494995,-0.43734127283096313,0.11421680450439453
463,1.4200172179917612,-0.9383706541370881,-2.8168783588717954,0.5843964219093323,0.806596040725708,-0.08878864347934723,-0.27603375911712646,-1.7081525325775146,-0.1905730813741684,-0.14163219928741455,-0.31022775173187256,-0.04074322432279587
464,1.2823369245116207,-0.9528438928738991,-2.723135290960588,0.5554298758506775,0.8150664567947388,-0.16481590270996094,-1.183140754699707,-3.0557899475097656,0.09919729828834534,0.6774497032165527,0.10015565156936646,0.6874294281005859
465,1.4105439022615702,-0.9592666951568829,-2.5438147416229238,0.5667645335197449,0.8187707662582397,-0.09161095321178436,-0.519861102104187,1.0478366613388062,0.15777121484279633,0.1384052038192749,0.37374943494796753,-0.45450109243392944
466,1.5132790206335618,-0.9116548759188021,-2.5485102322298423,0.6114257574081421,0.7905183434486389,-0.035206396132707596,0.4939174950122833,1.410589337348938,0.1289488822221756,-0.2820953130722046,0.16033315658569336,-0.1421923041343689
467,1.585360399808093,-0.9288790670355287,-2.624841036723995,0.5986684560775757,0.8009493350982666,0.008719667792320251,-0.0019164467230439186,0.9245368838310242,-0.1885017454624176,-0.39066070318222046,-0.5561984777450562,0.00241923239082098
468,1.655148621447491,-0.9331357106353805,-2.6163090043631114,0.5932009220123291,0.8034906387329102,0.05015687644481659,0.33858317136764526,-0.01632826402783394,0.2073715180158615,-0.19516009092330933,-0.3060845136642456,-0.05803035944700241
469,1.5086753475478922,-0.8835182646112336,-2.623758419954405,0.6332118511199951,0.772975742816925,-0.03938641771674156,-1.2423208951950073,-1.3847514390945435,0.5453037619590759,0.12731671333312988,0.3889962434768677,0.467319130897522
470,1.6510791524495187,-0.8499816970939098,-2.5152451145294896,0.6578708291053772,0.7512683272361755,0.05292949452996254,-0.4548969268798828,1.171486496925354,-0.23372086882591248,0.26952773332595825,0.9316843748092651,-0.6329466104507446
471,1.6954665283540271,-0.8767923479337452,-2.667124381476868,0.6346557140350342,0.7686911821365356,0.07953514158725739,1.1801451444625854,0.9082046747207642,-0.0586235448718071,0.28010863065719604,-0.1118919849395752,-0.2213808298110962
472,1.5736973470328999,-0.8760416594712835,-2.7609067454608613,0.6401941180229187,0.768210768699646,0.0018572212429717183,0.07769294828176498,-0.8801304697990417,0.10024406760931015,-0.4285242557525635,-0.3208842873573303,0.06862306594848633
473,1.4829468455517374,-0.8746919348311398,-2.73559022048332,0.6387603282928467,0.7673460245132446,-0.05625956878066063,-0.32766300439834595,-1.7495667934417725,-0.11664187163114548,-0.25202643871307373,-0.3472411036491394,-0.11376915872097015
474,1.3321896151546126,-0.8975404373892034,-2.645333839980312,0.6058688759803772,0.7817956805229187,-0.1473718285560608,-1.014703392982483,-3.189769983291626,-0.12975823879241943,0.7324947118759155,0.4755590558052063,0.3703637719154358
475,1.3851074065518,-0.9166793811617794,-2.4993577593417986,0.5979987978935242,0.7935855388641357,-0.11233586072921753,-0.8189953565597534,1.1753871440887451,0.06377668678760529,0.47686076164245605,0.297249972820282,-0.5493921041488647
476,1.5567448603733258,-0.8931913504606853,-2.505252684680426,0.6268669366836548,0.7790764570236206,-0.008808979764580727,0.7110636234283447,2.092127561569214,0.16548822820186615,-0.09032219648361206,0.3173742890357971,-0.12433922290802002
477,1.6283646249142603,-0.9138149390689895,-2.624022774724964,0.609717845916748,0.7918394207954407,0.03513924404978752,0.44968611001968384,1.4057828187942505,-0.2507987916469574,-0.33365577459335327,-0.5204007029533386,-0.08135807514190674
478,1.6858764310137297,-0.9189485315894366,-2.641385142948428,0.6026436686515808,0.7949641942977905,0.06966008245944977,0.0855853334069252,-0.19803698360919952,0.10930866003036499,-0.3169991970062256,-0.457516074180603,-0.08142459392547607
479,1.5516189174124935,-0.8815122595236129,-2.693453102725103,0.6358679533004761,0.7717015147209167,-0.012195794843137264,-0.05627753585577011,-1.5356858968734741,0.2964286506175995,0.4018822908401489,0.6005366444587708,0.3129007816314697
480,1.628431414645228,-0.8481293406114234,-2.592292993536842,0.6602891683578491,0.7500444650650024,0.03809801861643791,-0.1786074936389923,1.0644181966781616,0.2443854659795761,0.16881239414215088,0.6211408376693726,-0.17397761344909668
481,1.7151307515216256,-0.8714883252412252,-2.6754079918977633,0.6369951367378235,0.7652878165245056,0.09258414059877396,1.6003717184066772,1.9332133531570435,-0.13192127645015717,0.24098026752471924,0.0028854012489318848,-0.37775564193725586
482,1.594877343845778,-0.8795012517486885,-2.853521616683636,0.637350857257843,0.770421028137207,0.015351024456322193,0.04709833860397339,-1.391638159751892,0.11803428083658218,-0.22226595878601074,-0.29137122631073,0.1683952808380127
483,1.5030261897441786,-0.8652373930381354,-2.776271307014026,0.6469708681106567,0.7612492442131042,-0.043912552297115326,-0.839420735836029,-1.9887819290161133,0.13318897783756256,-0.34913456439971924,-0.49942368268966675,-0.13557660579681396
484,1.3739290941015292,-0.8801003577374078,-2.6995185955214573,0.6247682571411133,0.7708027958869934,-0.12461040169000626,-0.4239298105239868,-3.456723928451538,-0.08866026252508163,0.5566740036010742,0.6421762704849243,0.29062604904174805
485,1.339786943727985,-0.9045320436430779,-2.555464900219669,0.6016353368759155,0.7861360311508179,-0.14150965213775635,-1.1125398874282837,1.0645372867584229,-0.0887579694390297,0.5157809853553772,0.42049843072891235,-0.40834081172943115
486,1.5493481364650807,-0.8991720280500679,-2.491118413226814,0.6221151947975159,0.7828119397163391,-0.013345290906727314,0.37157681584358215,1.4922326803207397,0.36663150787353516,0.01063627004623413,0.4042607545852661,-0.16542667150497437
487,1.6328512227448273,-0.9041260622483732,-2.5769945324532277,0.6171823143959045,0.7858850359916687,0.038348421454429626,0.49155595898628235,1.5870819091796875,-0.24750322103500366,-0.2969919443130493,-0.431225061416626,-0.11476445198059082
488,1.6859850244837586,-0.9138503925093653,-2.6297862091751654,0.6066544055938721,0.7918610572814941,0.0701904445886612,0.4355139136314392,0.010568812489509583,0.050869766622781754,-0.2525741457939148,-0.4815734624862671,-0.0983276292681694
489,1.5373762201124386,-0.882403047419133,-2.709704066136207,0.6349425315856934,0.772267758846283,-0.021227750927209854,0.038773346692323685,-1.8442927598953247,0.37196093797683716,0.23390817642211914,0.41115814447402954,0.34048736095428467
490,1.6038458371887676,-0.8478659903982471,-2.6380361586782266,0.6612236499786377,0.7498703002929688,0.021861078217625618,-0.6277777552604675,1.9362725019454956,0.03714922443032265,0.3011024594306946,0.7271041870117188,-0.08791637420654297
491,1.7238005929915836,-0.8799755674469474,-2.704122685654084,0.6297261118888855,0.770723283290863,0.09710975736379623,1.8517545461654663,1.7823997735977173,-0.11326517909765244,0.3452188968658447,-0.12483417987823486,-0.5048093795776367
492,1.610191344427943,-0.8864862459738658,-2.8898674201534837,0.6316481232643127,0.774855375289917,0.024896670132875443,0.1986847221851349,-1.4256155490875244,0.1602584570646286,-0.38305193185806274,-0.2476184368133545,0.12375450134277344
493,1.5102260656527329,-0.8876070630572739,-2.828423420713497,0.6301121711730957,0.7755633592605591,-0.03821280226111412,-0.860936164855957,-1.8723390102386475,-0.08769230544567108,-0.3243412971496582,-0.4653064012527466,-0.05907726287841797
494,1.3800021132964462,-0.9063620466217776,-2.785211408849327,0.6054248809814453,0.7872657179832458,-0.1169339120388031,-0.6823639869689941,-3.3671109676361084,-0.16585992276668549,0.6463757157325745,0.5455437898635864,0.3091031312942505
495,1.4065855402705518,-0.9316149201974471,-2.579594467066143,0.5885138511657715,0.8025843501091003,-0.0975184366106987,-1.2765134572982788,0.9664626717567444,0.11861196160316467,0.5630059242248535,0.34768420457839966,-0.3620610237121582
496,1.5721763528163064,-0.903240339764467,-2.525158389243583,0.6190679669380188,0.7853370308876038,0.0008543304284103215,0.32053521275520325,1.3025873899459839,0.22318758070468903,-0.1027105450630188,0.36819690465927124,-0.16816699504852295
497,1.6164692923634312,-0.9207793064947603,-2.625569275260504,0.6045688986778259,0.7960734963417053,0.027631670236587524,0.5488753914833069,1.2897042036056519,-0.37552595138549805,-0.3209385275840759,-0.5436320900917053,-0.11967265605926514
