,attitude.roll,attitude.pitch,attitude.yaw,gravity.x,gravity.y,gravity.z,rotationRate.x,rotationRate.y,rotationRate.z,userAcceleration.x,userAcceleration.y,userAcceleration.z
0,1.5335149366529033,-0.9089799269590747,-2.736142714490372,0.6141237616539001,0.7888772487640381,-0.022906001657247543,-0.20600812137126923,-0.3659711480140686,0.34655946493148804,0.31048256158828735,0.4267141819000244,0.43295544385910034
1,0.042736131112161034,0.10748612925926916,-1.1260042811205542,0.04247656464576721,-0.10727927833795547,-0.9933211207389832,-0.13523729145526886,-1.1782890558242798,-0.29439783096313477,0.04880150780081749,-0.03476477414369583,-0.40919041633605957
2,0.11108560926575398,0.0539682190032039,-1.152161006710687,0.11069588363170624,-0.05394202470779419,-0.9923893809318542,-0.8316421508789062,1.380613088607788,-0.40361711382865906,0.011511757969856262,0.2044394612312317,-0.39616042375564575
3,0.2561266978048577,0.045713632330104344,-1.2103091033954096,0.2530708611011505,-0.045697711408138275,-0.9663679003715515,0.3262798488140106,1.7123266458511353,-0.1680723875761032,0.0200309157371521,0.050336387008428574,0.142805278301239
4,0.2831627016716656,0.035892611925506385,-1.2035285748014901,0.2792138457298279,-0.035884905606508255,-0.9595581889152527,-0.2979193329811096,-0.4142405390739441,-0.05436677485704422,-0.02619260549545288,0.07690052688121796,0.3275696635246277
5,0.31294173655335045,-0.011570643064953744,-1.1910728771965122,0.30783823132514954,0.011570384725928307,-0.9513683319091797,-1.253389596939087,0.11558528989553452,-0.14934833347797394,0.12026232481002808,-0.03619806468486786,0.15217405557632446
6,0.32313475712664697,-0.11268181153774932,-1.205055718232304,0.3155268430709839,0.11244350671768188,-0.9422309994697571,-0.045763351023197174,1.9112659692764282,-0.3061479330062866,0.2541905641555786,0.24551242589950562,0.3499305844306946
7,0.5981215088927877,-0.20820734133835456,-1.1368152934278146,0.5509300231933594,0.20670628547668457,-0.8085471987724304,-2.314446449279785,2.2883827686309814,0.8926710486412048,0.4478340148925781,0.12430262565612793,-0.3215034604072571
8,0.8641596141174828,-0.36432874585081276,-0.925182883215193,0.7106298208236694,0.35632216930389404,-0.6066628694534302,-1.083718180656433,1.272538185119629,1.1988633871078491,-0.08535516262054443,-0.04945269227027893,-0.3921164274215698
9,1.0510667151678512,-0.3704467050730008,-0.8447811973812691,0.8090764284133911,0.36203187704086304,-0.4629558324813843,-2.048508882522583,2.0854761600494385,-0.33844855427742004,-0.2068273425102234,-0.21136662364006042,0.08774223923683167
10,1.2334887780607435,-0.5361613842937092,-0.9420851548794112,0.8112325072288513,0.5108398199081421,-0.284507691860199,4.050151824951172,2.908198595046997,-3.6134743690490723,-0.03434646129608154,0.37966322898864746,0.12155905365943909
11,0.6874224608342547,-0.8496294479132501,-1.9456461525223376,0.41896703839302063,0.7510358095169067,-0.510305643081665,4.678999900817871,0.9176054000854492,-6.175696849822998,0.7494289875030518,-0.38090336322784424,0.001516580581665039
12,0.515642287491643,-0.7442994207124753,-2.4287220369683236,0.3627013862133026,0.6774566769599915,-0.6399220824241638,1.2436248064041138,0.37104666233062744,-2.1101796627044678,0.4677582383155823,0.3505737781524658,-0.0011149048805236816
13,0.5310297978234554,-0.7135224090722039,-2.6937615232573684,0.38288572430610657,0.6545009613037109,-0.6519410014152527,0.5307294130325317,2.6303279399871826,-1.7265872955322266,-0.08022761344909668,0.36419105529785156,-0.2583068013191223
14,0.6686088865626343,-0.7403828833717883,-2.819320405433439,0.45761287212371826,0.674570620059967,-0.579262375831604,-1.7827593088150024,1.9870853424072266,0.15047994256019592,-0.11474788188934326,-0.38501983880996704,0.1166921854019165
15,0.8784203384029683,-0.7402678966166223,-2.699981922894567,0.5682833790779114,0.6744857430458069,-0.47129926085472107,-1.2040555477142334,-0.8409936428070068,0.8001192212104797,-0.022644340991973877,-0.4364181160926819,0.20884805917739868
16,1.0199563668386775,-0.7678457670050752,-2.3918478265183243,0.6129975318908691,0.6945870518684387,-0.37654078006744385,-1.39992094039917,0.538735568523407,1.4658150672912598,-0.21103519201278687,0.2926718592643738,0.2509456276893616
17,1.0332028768317962,-0.7172327210186864,-2.397981226137596,0.6473235487937927,0.657301664352417,-0.38591039180755615,-0.8687604665756226,-2.4480555057525635,-0.6490074396133423,0.7363129258155823,0.251389741897583,-0.24755823612213135
18,1.10461188567198,-0.7463923425347251,-1.8800868694706703,0.6558026075363159,0.6789946556091309,-0.32998353242874146,-7.5718536376953125,-2.2565042972564697,3.419175148010254,-0.0736035704612732,-0.8165832161903381,-0.21982112526893616
19,1.574796849064353,-0.4755968319354052,-1.085850847283195,0.8890125155448914,0.45786911249160767,0.0035565332509577274,0.016568277031183243,1.0441694259643555,2.4250974655151367,-0.22995489835739136,0.37191906571388245,0.256758451461792
20,1.5645170035081353,-0.4023840205452421,-1.0287636936632485,0.9201117753982544,0.39161306619644165,-0.005777755286544561,-1.5233335494995117,-0.9144925475120544,-0.3944990634918213,-0.07326436042785645,-0.5347863435745239,0.663263738155365
21,1.599024564599792,-0.24445042051998195,-0.702518801762607,0.969883918762207,0.24202312529087067,0.02738538756966591,-3.882180690765381,-0.10780899971723557,1.477698564529419,-0.5185136795043945,0.09751543402671814,0.17395436763763428
22,1.7160599087242192,-0.16427144875375385,-0.08810458550804,0.9761471748352051,0.16353362798690796,0.14280451834201813,-5.429134845733643,0.626297652721405,-2.0624747276306152,-0.049969375133514404,0.581064760684967,-0.08469904959201813
23,1.652513437064017,-0.21013768992202475,0.0400219571137636,0.974738597869873,0.20859456062316895,0.0798305943608284,-0.8946540355682373,-0.7009379863739014,-0.26667433977127075,0.3133167624473572,-0.40175557136535645,-0.2588620185852051
24,1.579871950208328,-0.21456235089247022,0.1981736163741675,0.9770293831825256,0.21291983127593994,0.008867394179105759,-0.33613264560699463,-1.4566189050674438,0.11775054037570953,0.5646575689315796,0.6439069509506226,0.05886638164520264
25,1.4370263548139695,-0.13304860643567257,0.18490138162936484,0.9823071360588074,0.13265641033649445,-0.13219264149665833,-0.16467884182929993,-1.0113285779953003,1.4204955101013184,-0.36112189292907715,-0.02669939398765564,0.21692468225955963
26,1.4034571449871787,0.008779394987309768,0.17750549414264094,0.9859933853149414,-0.008779281750321388,-0.1665528565645218,0.5247349739074707,-0.20557081699371338,1.312994360923767,-0.18364059925079346,-0.07003236562013626,0.07173474133014679
27,1.4766029306529935,0.11916484660621852,0.17045483411129875,0.9885067939758301,-0.11888302117586136,-0.0933871641755104,-0.49273085594177246,1.792497158050537,0.18035490810871124,-0.4060940742492676,-0.06918155401945114,0.0667911171913147
28,1.5429580792274622,0.13152364483283932,0.21818704377472808,0.9909791946411133,-0.13114477694034576,-0.027594253420829773,-0.6211159229278564,-0.12544076144695282,0.5282699465751648,0.4803037643432617,-0.08345483243465424,-0.25377780199050903
29,1.493646903034801,0.2085864660635907,0.28753071249343687,0.9754143953323364,-0.20707720518112183,-0.07540231943130493,-0.06466346234083176,-0.6512218713760376,0.5899039506912231,0.49451035261154175,0.11648580431938171,-0.042105600237846375
30,1.367027621664441,0.3164036503199189,0.280860747439831,0.9306985139846802,-0.31115075945854187,-0.19231638312339783,-0.054846517741680145,-1.3632949590682983,1.2656190395355225,-0.09189236164093018,-0.04530981183052063,0.5134833455085754
31,1.2652659344068595,0.3294994718226752,0.32613457326435863,0.9023833870887756,-0.32356947660446167,-0.2846173942089081,-0.7599126100540161,-0.4470627009868622,0.2785836160182953,-0.22750234603881836,0.2508307993412018,-0.03540518879890442
32,1.0256328280540266,0.45665368405792417,0.5445467770942737,0.7674288749694824,-0.44094714522361755,-0.4654228389263153,-0.5810410380363464,-0.6888022422790527,2.117971658706665,-0.5026431679725647,0.04633966088294983,0.4359581172466278
33,1.1053153056953413,0.516201400373844,0.5711403014933174,0.7771693468093872,-0.49358007311820984,-0.39036738872528076,-0.015231788158416748,1.8921594619750977,0.01053566299378872,-0.16306400299072266,0.022266536951065063,-0.06179630756378174
34,1.2376581806956417,0.4415720408806015,0.6424382150510236,0.8543753623962402,-0.42736124992370605,-0.29564374685287476,-1.405672311782837,0.7472612857818604,-0.13859856128692627,0.6326394081115723,-0.5519630908966064,-0.19793230295181274
35,1.3599984609520746,0.42591602558674774,0.7451910849333317,0.8905024528503418,-0.41315513849258423,-0.19054678082466125,-1.8808221817016602,2.4859163761138916,0.6460385918617249,0.15829509496688843,0.2119375467300415,0.34377557039260864
36,1.3625551811111665,0.3167581808511052,1.024011350737308,0.9297209978103638,-0.31148767471313477,-0.19645410776138306,-3.685539960861206,2.937577962875366,-1.5153441429138184,-0.41870421171188354,-0.5795035362243652,0.21233852207660675
37,1.567710962365337,0.198139280535259,1.1467608603678174,0.980430006980896,-0.19684535264968872,-0.0030249934643507004,0.11853943765163422,0.46038371324539185,0.037485696375370026,-0.5332711338996887,0.030631333589553833,-0.13666921854019165
38,1.7063096593623317,0.22134326476602784,1.1141000718919107,0.9666591882705688,-0.2195403128862381,0.1318030059337616,0.7908334732055664,3.2590086460113525,0.08292842656373978,0.012802481651306152,0.04731437563896179,0.09829950332641602
39,1.853272622183953,0.22752366661445483,1.0791387677857813,0.9356176853179932,-0.22556570172309875,0.27155113220214844,-1.143837332725525,-1.09035062789917,0.04400870203971863,0.8421381711959839,0.0042063891887664795,0.01133158802986145
40,1.8088562069061775,0.20647871085531105,1.1801335705738512,0.9511552453041077,-0.2050146907567978,0.23080863058567047,-0.2613885700702667,1.411646842956543,-0.8373157382011414,0.08577096462249756,-0.33433768153190613,0.25571784377098083
41,1.8798975299660743,0.1840345199413501,1.1441566078847258,0.9365211129188538,-0.1829974353313446,0.29906561970710754,0.8868270516395569,-0.08878803253173828,0.17367145419120789,-0.19987255334854126,-0.008729249238967896,-0.10730838775634766
42,1.82034455074854,0.1922830770245527,1.0890252757203684,0.9511653780937195,-0.19110038876533508,0.2424147129058838,0.07366316765546799,-1.676567792892456,0.5848633050918579,-0.25031405687332153,-0.08393925428390503,-0.24563434720039368
43,1.7871489791081856,0.23558746177634268,1.0506288343867143,0.9497084617614746,-0.23341426253318787,0.20873907208442688,-0.19586239755153656,-0.5437619090080261,0.3419323265552521,-0.20915353298187256,0.01348927617073059,-0.058012694120407104
44,1.794074848367051,0.16363655157845797,1.0323065401945766,0.9621497988700867,-0.16290724277496338,0.2184699922800064,0.12349510937929153,-0.46004781126976013,-0.7500729560852051,0.44414597749710083,-0.007090926170349121,-0.18548047542572021
45,1.8043729393055534,0.10672830033751418,1.0098356342517554,0.9673092365264893,-0.10652579367160797,0.23014147579669952,0.6610932946205139,0.6596938967704773,0.4513234794139862,0.23027682304382324,-0.25867804884910583,0.37129902839660645
46,1.8248181779940413,0.1474805899889555,0.9205421674528493,0.9574025273323059,-0.14694653451442719,0.24857081472873688,1.4093821048736572,0.2830926477909088,1.1431952714920044,0.07041442394256592,-0.015666380524635315,0.0852304995059967
47,1.8598757403415611,0.22517749338772938,0.8493262603457513,0.9343085885047913,-0.22327937185764313,0.2778731882572174,-0.4644445478916168,0.1984912008047104,1.1713796854019165,-0.3402840495109558,-0.009264558553695679,-0.10076454281806946
48,1.7254067009075897,0.41528835602748065,0.8481710309260829,0.9040855765342712,-0.4034537971019745,0.14090555906295776,0.2019234448671341,-0.8652913570404053,2.5434553623199463,-0.21676868200302124,0.1347160041332245,-0.266515851020813
49,1.6796163080876305,0.5177873679788524,0.9185178697396601,0.8637767434120178,-0.494958758354187,0.09436896443367004,-3.346132755279541,0.47627779841423035,0.10800547152757645,0.7267230749130249,0.3603152334690094,0.11067866533994675
50,1.7208501200326474,0.557704919558927,1.0321095146982715,0.8389377593994141,-0.5292403101921082,0.12683920562267303,1.6297634840011597,-1.4105499982833862,0.37514784932136536,-0.20469099283218384,-0.8026994466781616,-0.45194292068481445
51,1.581524512469804,0.5949873871315273,1.0219417220771043,0.8281079530715942,-0.5604982972145081,0.008884436450898647,-0.3894299864768982,-0.15851695835590363,0.6535013914108276,-0.007352948188781738,0.18629181385040283,0.6517753601074219
52,1.6698588901934082,0.6629347193864841,1.0131911376264147,0.7843254208564758,-0.615432620048523,0.07795244455337524,0.48387303948402405,1.1712454557418823,0.655316174030304,-0.5537497401237488,0.3536222577095032,-0.24341881275177002
53,1.7573284627713937,0.7586713690000139,0.945402171458387,0.7131613492965698,-0.6879578232765198,0.13459216058254242,-0.11932037025690079,1.2135365009307861,2.1283538341522217,-0.3242300748825073,0.3674469590187073,-0.1371861696243286
54,1.7556784003755213,0.9318954304101299,0.9544907323851214,0.5861510038375854,-0.8027516603469849,0.10962066054344177,-0.3854130804538727,0.12336616218090057,-0.8920444846153259,0.46545422077178955,0.28106898069381714,-0.001344330608844757
55,1.7212317759451508,0.8223040474221271,1.0553737929923328,0.6728489398956299,-0.7327157855033875,0.10199087858200073,0.18892641365528107,-0.055119678378105164,-0.19296887516975403,0.020403623580932617,-0.8866385221481323,-0.11473190784454346
56,1.7398743663834986,0.7655683898554191,0.9233468512019573,0.7107076644897461,-0.6929469108581543,0.12132337689399719,1.6105748414993286,-1.2350037097930908,-0.9372263550758362,-0.1585683822631836,-0.0744938850402832,0.0995781421661377
57,1.782419611763027,0.6686158622014402,0.7448319538898455,0.7671753764152527,-0.6199004650115967,0.16482001543045044,0.8901305198669434,-0.3676033318042755,-0.5522510409355164,-0.15850216150283813,0.3275572657585144,-0.010187491774559021
58,1.7591104159627815,0.6637962589227014,0.733153802836477,0.7737340331077576,-0.6161114573478699,0.14745214581489563,-0.32515209913253784,-0.6317281126976013,0.46008944511413574,-0.08867549896240234,0.34313178062438965,-0.09303930401802063
59,1.709971528849675,0.6983556873407281,0.7438114194570086,0.7584947943687439,-0.6429591774940491,0.1062505692243576,-0.8456868529319763,-0.08945415169000626,-0.04684694483876228,0.2585340142250061,-0.04849278926849365,-0.02803397923707962
60,1.524901312068456,0.6684903193274958,0.9644764380477984,0.7839319705963135,-0.619801938533783,-0.036003850400447845,-1.5279006958007812,-0.9811913967132568,-0.34498506784439087,0.4081151485443115,-0.30613183975219727,0.07134318351745605
61,1.3303418686048765,0.6175295971364888,1.1224045657039514,0.7918546795845032,-0.5790227651596069,-0.1941615343093872,-0.25173959136009216,0.203606516122818,0.33059802651405334,-0.15008533000946045,-0.2281671166419983,0.3331691026687622
62,1.4569895605930885,0.6470977841887364,1.2028296263511662,0.7926754355430603,-0.6028734445571899,-0.09060332924127579,-1.1317334175109863,3.1907241344451904,0.38743722438812256,-0.29739052057266235,0.4506670832633972,0.06940890103578568
63,1.5272418584412664,0.6488773898725421,1.3568457890970438,0.7960070371627808,-0.6042923331260681,-0.03469160199165344,-0.8471922874450684,1.75544273853302,0.20704200863838196,-0.48994630575180054,0.5232986807823181,-0.25818556547164917
64,1.5796677072059604,0.7236247390990161,1.4741014422700123,0.7493811249732971,-0.6621054410934448,0.006648219656199217,-0.7641273736953735,0.7499712109565735,-0.07911603897809982,0.3986748456954956,-0.10759365558624268,-0.17301487922668457
65,1.4973879597022426,0.7114702581997813,1.439568037265304,0.755362868309021,-0.6529480814933777,-0.05554977431893349,0.08920067548751831,-0.9600255489349365,1.0328820943832397,0.1285024881362915,-0.4374755024909973,0.0722733736038208
66,1.4481859306425224,0.7653363431683843,1.5114116635585826,0.715735673904419,-0.6927796006202698,-0.08819904923439026,-0.3971919119358063,0.5879996418952942,-0.2682109475135803,0.06029587984085083,-0.255279541015625,0.44417130947113037
67,1.5633950061595756,0.7713703889903722,1.434836530135961,0.7169363498687744,-0.6971184015274048,-0.005306372418999672,1.6168434619903564,-0.003130559343844652,0.7006146907806396,-0.2811453938484192,0.03789299726486206,-0.18040835857391357
68,1.7011603694259736,0.9281620960695206,1.335812971934879,0.5942208766937256,-0.8005198240280151,0.07790687680244446,0.03609278425574303,1.1975600719451904,1.397868275642395,-0.5879800915718079,0.7931956648826599,-0.28733372688293457
69,1.8009923535177605,1.0715567024763641,1.225862622822629,0.4661291241645813,-0.8779468536376953,0.1092374324798584,0.21334345638751984,-0.4996176064014435,2.302626609802246,0.5648461580276489,-0.20306193828582764,-0.018676534295082092
70,1.5618486570650736,1.1856590164694607,1.436961856606587,0.3756710886955261,-0.9267468452453613,-0.0033614705316722393,-1.4732749462127686,-1.225344181060791,-1.2250343561172485,0.274521142244339,-0.7472947835922241,-0.1374160647392273
71,1.3613745886131237,0.9465044693011955,1.4638020742154545,0.5717516541481018,-0.811377227306366,-0.12151894718408585,-0.14446677267551422,-1.1131722927093506,-2.285399913787842,0.06777465343475342,-0.14515036344528198,0.31854045391082764
72,1.269637032678925,0.7618819230660316,1.4877955525253028,0.690974235534668,-0.6902843117713928,-0.2146213799715042,0.34382376074790955,-0.39914581179618835,-1.4543156623840332,-0.3280896544456482,0.509894847869873,0.2051304280757904
73,1.3929325102877728,0.6951670870262157,1.3808872793064808,0.7558315992355347,-0.6405137777328491,-0.13587090373039246,-0.9215396642684937,0.49132367968559265,-0.21744874119758606,-0.4830959439277649,0.22655797004699707,-0.00487615168094635
74,1.3245817121784373,0.7196212949111855,1.3952342587728301,0.7293749451637268,-0.6590999364852905,-0.18330183625221252,0.5330881476402283,-1.3900985717773438,0.03112848661839962,0.37559032440185547,-0.16522562503814697,-0.28628742694854736
75,1.295216055935952,0.6794034805855513,1.4240897715911824,0.7485936880111694,-0.6283290982246399,-0.2116837203502655,-1.4104976654052734,0.2017022967338562,-0.199216827750206,0.3316980004310608,-0.45403778553009033,0.03134007751941681
76,1.2529623831706462,0.6944839110661698,1.5646301487501069,0.7298992872238159,-0.6399889588356018,-0.2401275336742401,0.7998454570770264,0.43796229362487793,0.6992189884185791,0.07211792469024658,-0.0991315245628357,0.3578338027000427
77,1.3405538808271258,0.7529306451810586,1.483933433930814,0.7104322910308838,-0.6837801337242126,-0.16652469336986542,0.5049312710762024,0.7825292348861694,0.1723460853099823,-0.21964865922927856,0.20143461227416992,0.1451166421175003
78,1.4776836802137827,0.8183668246976431,1.3814266720020338,0.6804540753364563,-0.7300306558609009,-0.06354261934757233,0.9469236731529236,0.18696416914463043,0.4996558725833893,-0.3099554181098938,0.6862531900405884,-0.15293383598327637
79,1.6288978335604265,0.887458774319168,1.2734732538085993,0.6303191781044006,-0.7754697799682617,0.036663759499788284,0.019873978570103645,-0.10237210988998413,0.8491740822792053,0.1565002202987671,0.030352652072906494,-0.04414058104157448
80,1.468762621348599,0.926042369038466,1.4162903280903472,0.5978758335113525,-0.799247682094574,-0.0612160749733448,-0.856757640838623,0.29966965317726135,-0.20805412530899048,0.5762421488761902,-0.286430299282074,-0.2176840901374817
81,1.452157733426107,0.8526618569784384,1.4049655869184852,0.6533558964729309,-0.7530345320701599,-0.07787895202636719,-0.14549250900745392,0.03272988274693489,-1.091033697128296,-0.1957905888557434,-0.2577381730079651,0.2352428436279297
82,1.4069221303869004,0.7532951276973056,1.4327498575325013,0.7196664214134216,-0.6840460896492004,-0.11900191754102707,0.5110732913017273,-0.6156090497970581,-0.22434961795806885,-0.13298118114471436,0.13237982988357544,0.23220688104629517
83,1.4375930408509485,0.7656455093541096,1.4127392665622613,0.7145485877990723,-0.6930025219917297,-0.09574718028306961,-0.5167883634567261,0.3940283954143524,0.42975208163261414,-0.5759226083755493,0.3458651900291443,-0.023835942149162292
84,1.3886611593475813,0.7845409621604248,1.4214480643080747,0.6960064768791199,-0.7065004110336304,-0.1281878650188446,1.0128624439239502,-0.19341406226158142,0.40429192781448364,0.10129576921463013,-0.10639631748199463,-0.08961606025695801
85,1.4166654762966593,0.7348095466167186,1.2748421144972697,0.7331629395484924,-0.6704458594322205,-0.11390646547079086,-0.05770110338926315,-0.7067705988883972,-0.699971616268158,0.37306880950927734,-0.3593698740005493,-0.3082737326622009
86,1.2567614885553542,0.6817886031289426,1.3250290945705865,0.7384746670722961,-0.6301828026771545,-0.23984338343143463,1.0998008251190186,-1.8021016120910645,-0.24166296422481537,0.030278384685516357,-0.16312164068222046,0.29657554626464844
87,1.240452050007569,0.7256989014658628,1.1563414412560373,0.7075900435447693,-0.6636583805084229,-0.24263939261436462,0.834941029548645,0.35772064328193665,0.2710372507572174,-0.029703080654144287,0.09105712175369263,0.3947848081588745
88,1.478397884873569,0.7912781185144844,1.1748042537936305,0.699938178062439,-0.7112522721290588,-0.06485787779092789,-0.37810981273651123,2.904629945755005,1.0428147315979004,-0.42222827672958374,0.4366247057914734,-0.1893230676651001
89,1.548170674241753,0.8500410216086265,1.171154934236069,0.6597835421562195,-0.751307487487793,-0.014930580742657185,0.1485878974199295,0.5606664419174194,0.4466608762741089,0.2197941541671753,0.14531993865966797,0.1441572904586792
90,1.5485393311258557,0.892121823415253,1.2273671614759525,0.627606213092804,-0.778405487537384,-0.013970935717225075,-0.2652873992919922,0.10788103193044662,0.3457295000553131,0.6631957292556763,-0.3314577341079712,-0.5739654302597046
91,1.4385117871120932,0.882408216237224,1.2850153854743245,0.6297426819801331,-0.7722710371017456,-0.08379457145929337,-0.5009035468101501,-0.8579506874084473,-0.6707507371902466,-0.06806671619415283,-0.3242254853248596,0.2551354765892029
92,1.3385382895167723,0.8284737471736117,1.317276093319238,0.6578500866889954,-0.7369005084037781,-0.1555989384651184,0.08233527094125748,-0.7077243328094482,-0.10853839665651321,-0.28855687379837036,-0.0190809965133667,0.2166188359260559
93,1.3379581597900885,0.8168968936894762,1.270799794197398,0.6660163402557373,-0.7290253043174744,-0.15793852508068085,0.3052917718887329,-0.2629930377006531,-0.18468961119651794,-0.36189335584640503,0.5700744986534119,0.04398590326309204
94,1.3653859043748837,0.7987243783524963,1.1811684028016585,0.6829554438591003,-0.7164667844772339,-0.14229309558868408,0.8793041706085205,-0.40719395875930786,-0.38427454233169556,-0.11975347995758057,0.1807154417037964,-0.20257079601287842
95,1.3843522833894926,0.7559949084265501,1.1361491525744547,0.714979887008667,-0.686012864112854,-0.13487012684345245,-0.44907569885253906,-0.01280817948281765,-0.6431212425231934,0.22352713346481323,-0.22643214464187622,-0.39161914587020874
96,1.2280851161483883,0.7051921220068476,1.226210386910723,0.7172042727470398,-0.6481801271438599,-0.25589150190353394,0.23314876854419708,-1.5214800834655762,0.02230558730661869,0.05763697624206543,-0.46534520387649536,0.15086528658866882
97,1.2348909614463475,0.7471764553579126,1.0794148391711422,0.6926108002662659,-0.6795700788497925,-0.2418157309293747,1.0495136976242065,-0.7330296635627747,0.10511881858110428,0.21685880422592163,0.4011276960372925,0.3706914782524109
98,1.343087256873571,0.7590078351710264,1.0203845288571547,0.7067906260490417,-0.6882019639015198,-0.1637832671403885,-0.8855613470077515,2.744028091430664,0.5731755495071411,-0.575885534286499,0.27371227741241455,-0.05516509711742401
99,1.4216002137000934,0.797112058633561,1.1242469376791826,0.6910127401351929,-0.7153410315513611,-0.10386823862791061,0.3514363169670105,0.438401460647583,0.43814167380332947,-0.11476457118988037,0.20940536260604858,0.1299302577972412
100,1.5435984744446942,0.8509657082718682,1.167875093962354,0.6590136885643005,-0.7519174218177795,-0.01792817749083042,-1.5880144834518433,1.4144017696380615,0.3418818712234497,0.6410199403762817,-0.01428753137588501,-0.8672036528587341
101,1.4016443946030186,0.8391270051476201,1.2887993684005303,0.6585772037506104,-0.7440601587295532,-0.11247438192367554,-0.2162957787513733,-1.1560866832733154,-0.39795470237731934,0.13359802961349487,-0.2382548451423645,0.19961732625961304
102,1.2830623952629283,0.7788405997513373,1.2808758890388272,0.6824688911437988,-0.702454686164856,-0.20197434723377228,0.2829015254974365,-0.9177228808403015,-0.2763090431690216,-0.21204042434692383,-0.05325204133987427,0.17791128158569336
103,1.264172054652634,0.7846313844936135,1.1798526423668694,0.6746426224708557,-0.7065643668174744,-0.21359820663928986,0.34488871693611145,-0.8820461630821228,-0.07002284377813339,-0.4312191605567932,0.47960513830184937,0.18839067220687866
104,1.2059813494794682,0.7802802840772571,1.1764024314535095,0.663943886756897,-0.7034786343574524,-0.25356683135032654,0.1284765601158142,-0.25064370036125183,-0.05772221088409424,-0.24219101667404175,0.21095556020736694,0.11973199248313904
105,1.3709676491947738,0.7888018209497701,1.1325997113950748,0.6906729936599731,-0.7095094323158264,-0.1398831605911255,-0.8195334076881409,1.6719964742660522,-0.0932985171675682,0.25703513622283936,-0.04944753646850586,-0.5938204526901245
106,1.2333125185310045,0.7430170075611701,1.2113666138740455,0.694889485836029,-0.6765127778053284,-0.24384252727031708,-0.12320972979068756,-1.0652196407318115,0.01854652166366577,0.26035648584365845,-0.6782845854759216,0.4581521451473236
107,1.1821860449793422,0.773426149474813,1.0702095720732212,0.6621696352958679,-0.6985908150672913,-0.27111297845840454,1.2373147010803223,-0.9248533248901367,-0.12777133285999298,0.16015702486038208,0.19424206018447876,0.20162445306777954
108,1.3173381575393794,0.8034248243633713,0.9832576242516222,0.6720654368400574,-0.7197380065917969,-0.17408432066440582,-0.3941718637943268,1.5764662027359009,0.37992751598358154,-0.5079266428947449,0.3599205017089844,0.01890242099761963
109,1.3750776983524247,0.8295096431223007,1.0647543897769778,0.6623460054397583,-0.7376003265380859,-0.1313144415616989,0.06698828190565109,1.0060882568359375,0.33559054136276245,-0.1639939546585083,0.40474510192871094,0.1379215121269226
110,1.4918569804609803,0.8668622003938858,1.1377583066038757,0.645206093788147,-0.7623018622398376,-0.05103820562362671,-0.995597243309021,1.6783329248428345,0.3884730637073517,0.37273818254470825,-0.03211641311645508,-0.8587670922279358
111,1.382969845177328,0.8544515764504004,1.260383652721814,0.6450836658477783,-0.754210889339447,-0.12260902673006058,-0.4092921316623688,-0.7085132002830505,-0.2638448178768158,0.3054473400115967,-0.2850040793418884,0.2738693952560425
112,1.2871520922769415,0.7913419348166717,1.2515545453380323,0.6748054027557373,-0.7112971544265747,-0.19670851528644562,0.16332392394542694,-0.8207120299339294,-0.3240969181060791,-0.22302311658859253,-0.14295095205307007,0.16405466198921204
113,1.2789229453608655,0.7927988171801764,1.1498052934082774,0.6721706986427307,-0.7123204469680786,-0.20195646584033966,0.33795011043548584,-0.4396892488002777,-0.12180624902248383,-0.3792477250099182,0.44899946451187134,0.12613549828529358
114,1.2478320177604947,0.7773867846848961,1.172083528691152,0.6758988499641418,-0.7014192342758179,-0.2262115180492401,0.03534725680947304,0.34694287180900574,-0.0557144358754158,-0.3456376791000366,0.34511131048202515,0.08203120529651642
115,1.3768067869946972,0.7803446323876326,1.1318288378175958,0.6973411440849304,-0.7035244107246399,-0.13699974119663239,-0.7677353620529175,1.1448969841003418,-0.08679917454719543,0.36721885204315186,-0.3345463275909424,-0.5035337209701538
116,1.2744842097780222,0.7332122938860646,1.2059232745397983,0.7106471061706543,-0.6692599058151245,-0.216960608959198,-1.0609402656555176,-1.1809335947036743,0.07753398269414902,0.4252018928527832,-0.934606671333313,0.3965412974357605
117,1.2048867638283651,0.7664840948044082,1.0778279535493918,0.6726653575897217,-0.6936068534851074,-0.25774168968200684,1.1732738018035889,-1.473589301109314,0.040177229791879654,0.31293028593063354,0.002521038055419922,0.3596551716327667
118,1.3351480038228047,0.8026242879013983,0.9680289644343087,0.6756190657615662,-0.7191819548606873,-0.16222241520881653,0.13371020555496216,2.0079123973846436,0.2629043459892273,-0.41397666931152344,0.28705310821533203,-0.05803816020488739
119,1.433433320646962,0.8319846317225509,1.0263822906401618,0.6670669913291931,-0.7392693161964417,-0.09221101552248001,-0.14171810448169708,0.49768340587615967,0.21780720353126526,-0.28066861629486084,0.4309195876121521,0.14785981178283691
120,1.5403932925593538,0.8612338148199825,1.03900463563331,0.6512008309364319,-0.7586469650268555,-0.019804583862423897,-0.6406933069229126,1.8723164796829224,0.46414992213249207,0.43581998348236084,-0.24942487478256226,-0.42805618047714233
121,1.438913350329692,0.8576222238836085,1.2231025058290839,0.6485562324523926,-0.7562890648841858,-0.08603289723396301,-1.2034273147583008,-0.3943272829055786,-0.16595101356506348,0.44067710638046265,-0.5209935903549194,0.3416176438331604
122,1.3232928727623845,0.796277034518707,1.3141852072156481,0.6780606508255005,-0.7147573232650757,-0.17133526504039764,-0.400723397731781,-0.014236203394830227,-0.4770088493824005,-0.131384015083313,-0.4272409677505493,0.15223127603530884
123,1.332008126824199,0.7952747026330038,1.238911037548069,0.680223822593689,-0.7140559554100037,-0.16558872163295746,0.40529975295066833,-0.8345043063163757,0.021279629319906235,-0.40205609798431396,0.42448997497558594,0.10374487936496735
124,1.27375572926375,0.7951127125473879,1.235569193341286,0.6695402264595032,-0.7139425277709961,-0.20494399964809418,0.2719363868236542,-0.24574866890907288,-0.033405717462301254,-0.3409116864204407,0.4426411986351013,0.06280836462974548
125,1.3598864169543794,0.7889531864960853,1.214246923742499,0.6889753937721252,-0.7096160650253296,-0.14750541746616364,-0.8339786529541016,1.603871464729309,-0.06406446546316147,0.41826331615448,-0.41018062829971313,-0.42341744899749756
126,1.2587032302816068,0.7315100823686524,1.2819367576065024,0.7082180380821228,-0.6679941415786743,-0.22849729657173157,-0.48560434579849243,-1.1674010753631592,-0.11822063475847244,0.4117160439491272,-0.9446462392807007,0.36471253633499146
127,1.194760977513011,0.7465485083799649,1.1175316136768894,0.6827484369277954,-0.6791092753410339,-0.2695646584033966,1.1781693696975708,-1.1498148441314697,-0.27613672614097595,0.3516601324081421,-0.03877091407775879,0.2910185754299164
128,1.3147529258635502,0.7650349478490276,1.0445442107317922,0.6978415846824646,-0.6925622224807739,-0.18268752098083496,-0.3052443563938141,1.678083896636963,0.41208916902542114,-0.5215721130371094,0.3463555574417114,-0.02844838798046112
129,1.3895973971716065,0.7920841388321871,1.1258112747497744,0.6908644437789917,-0.7118186354637146,-0.12657219171524048,-0.42029908299446106,1.020079255104065,0.4124467968940735,-0.2954482436180115,0.3366050720214844,0.2322850376367569
130,1.4873988809221408,0.8421105275871854,1.200561809916874,0.6635753512382507,-0.7460501790046692,-0.055469147861003876,-1.2227160930633545,1.8855801820755005,0.6963216662406921,0.393172025680542,-0.2945839762687683,-0.532436728477478
131,1.3766747274709996,0.8483888156749356,1.3612477074791045,0.6487738490104675,-0.7502160668373108,-0.12754718959331512,-1.2109752893447876,-0.5956111550331116,0.031904298812150955,0.3898003101348877,-0.2780737280845642,0.3016347289085388
132,1.2732892839456311,0.7946970002844894,1.4155012967584786,0.66972815990448,-0.7136513590812683,-0.20534323155879974,-0.06518925726413727,-0.4053267240524292,-0.18724676966667175,-0.22919166088104248,-0.2653524875640869,0.13223838806152344
133,1.235251262495096,0.8073152112388527,1.3497893729547175,0.6528796553611755,-0.7224333882331848,-0.2276802510023117,0.544188916683197,-1.0974680185317993,0.06948424875736237,-0.41732966899871826,0.5246795415878296,0.17659378051757812
134,1.191618244407539,0.8106559530177652,1.325020391028319,0.6400813460350037,-0.7247393131256104,-0.2550468146800995,0.3714003264904022,0.009258290752768517,-0.059581056237220764,-0.28221702575683594,0.38390374183654785,0.11524584889411926
135,1.3195923330232187,0.7995630276205438,1.314367484418578,0.6751434206962585,-0.7170515656471252,-0.17325854301452637,-1.5181949138641357,2.190549612045288,-0.04510946199297905,0.519604504108429,-0.40662091970443726,-0.5015156269073486
136,1.205419298460936,0.7406797555959652,1.4130339792594118,0.6892933249473572,-0.6747897267341614,-0.26369205117225647,-0.477120578289032,-0.8385376930236816,0.027213633060455322,0.4324565529823303,-0.9273067116737366,0.44591256976127625
137,1.1343459907188411,0.7661851393232697,1.2701828738295788,0.6530141830444336,-0.6933914422988892,-0.3045993745326996,1.1956478357315063,-1.183410406112671,-0.17377448081970215,0.27171415090560913,0.07074135541915894,0.24380835890769958
138,1.2488408784962763,0.7990783768222363,1.159708073350041,0.6615356206893921,-0.7167136669158936,-0.22066248953342438,0.1792057901620865,1.1060060262680054,0.1218433529138565,-0.46474307775497437,0.28824692964553833,0.04930630326271057
139,1.3395540958179926,0.8151390060822149,1.2491978065432783,0.6675137877464294,-0.7278209328651428,-0.15716885030269623,-0.7451761364936829,1.6427429914474487,0.37485069036483765,-0.23765850067138672,0.3995433449745178,0.22391080856323242
140,1.4642648698142704,0.85392660940082,1.3265924946446246,0.6533031463623047,-0.7538660764694214,-0.06986182183027267,-0.5992796421051025,2.411268711090088,0.700335681438446,0.5083789229393005,-0.21650123596191406,-0.4967275857925415
141,1.3728725302193938,0.858259090592826,1.5216828253652308,0.6409924030303955,-0.7567055821418762,-0.12855064868927002,-0.7751836776733398,-0.6484300494194031,-0.08347341418266296,0.4387347102165222,-0.4420706033706665,0.2386123090982437
142,1.26341843901628,0.8119871462835931,1.5462384443555939,0.6558087468147278,-0.7256558537483215,-0.20817911624908447,0.05042634904384613,-0.7487963438034058,-0.27925345301628113,-0.10601931810379028,-0.34084194898605347,0.09210550785064697
143,1.2094826306065432,0.818615088644128,1.4889061488848614,0.639119029045105,-0.7302002906799316,-0.24152526259422302,0.2900141775608063,-1.117339015007019,-0.06618817150592804,-0.353901743888855,0.5021576881408691,0.20682674646377563
144,1.1813045206428165,0.8108603145379127,1.4587262741455336,0.6372796893119812,-0.7248800992965698,-0.2615784704685211,0.3219645321369171,0.3315262496471405,-0.13786981999874115,-0.39741164445877075,0.5106009840965271,0.14056101441383362
145,1.3050378462627454,0.7933922750494227,1.4336697355074726,0.676806628704071,-0.7127368450164795,-0.18422478437423706,-0.9699057936668396,1.1337202787399292,-0.21593588590621948,0.5650146007537842,-0.5339519381523132,-0.46822577714920044
146,1.2100960168299921,0.7304128166174597,1.5014717911080464,0.6969647407531738,-0.6671772003173828,-0.26289689540863037,-0.6180784106254578,-1.0672509670257568,-0.13229985535144806,0.5744891166687012,-1.1750316619873047,0.30136430263519287
147,1.119458254385185,0.7575449572370718,1.3467543099724162,0.6537740230560303,-0.6871398687362671,-0.3168884813785553,0.881851851940155,-1.5616451501846313,-0.13688763976097107,0.34349459409713745,-0.01047670841217041,0.3356568217277527
148,1.2029951199113151,0.7816858897538196,1.2713503378656337,0.6622604727745056,-0.7044769525527954,-0.2551926374435425,0.03187292069196701,1.4619771242141724,0.26473090052604675,-0.4894242286682129,0.2542664408683777,0.07979288697242737
149,1.2915850109093328,0.7941061677982767,1.3218899190930609,0.6737778782844543,-0.7132374048233032,-0.19317254424095154,-0.35965001583099365,1.379515528678894,0.32577255368232727,-0.2919725179672241,0.3559376001358032,0.24911126494407654
150,1.4415792788325155,0.830270345888695,1.3611339612950328,0.6690515875816345,-0.7381138205528259,-0.08693727850914001,-0.33489319682121277,1.4668885469436646,0.47258320450782776,0.3365636467933655,-0.26998865604400635,-0.5835644602775574
151,1.3515404603410406,0.8334758846716545,1.5629484464348904,0.656211256980896,-0.7402727007865906,-0.14622893929481506,-1.4233794212341309,-0.18260125815868378,0.05432707443833351,0.44678550958633423,-0.48702216148376465,0.48901766538619995
152,1.2121974563017193,0.8005626723216743,1.6186564114134814,0.6520107388496399,-0.7177479863166809,-0.2443762719631195,0.05917888879776001,-0.9829049110412598,-0.1246299296617508,0.005368351936340332,-0.4190469980239868,0.1838598996400833
153,1.1825565466410761,0.8144140840246769,1.5737294276785512,0.635218620300293,-0.727323591709137,-0.2598036527633667,0.20867212116718292,-0.30289721488952637,0.047817304730415344,-0.2710675597190857,0.4404125213623047,0.2040480077266693
154,1.186160355669524,0.8153205762213886,1.5708092015915387,0.635539174079895,-0.7279454469680786,-0.25726518034935,0.7407909035682678,0.20610377192497253,-0.21078668534755707,-0.2979995608329773,0.4841862916946411,0.06472977995872498
155,1.2727339723126516,0.8085904057771482,1.496181811626668,0.6600719094276428,-0.7233145236968994,-0.20278362929821014,-0.3907262086868286,-0.2738233208656311,-0.3974570333957672,0.2895588278770447,-0.13775420188903809,-0.5849055647850037
156,1.1987275623827869,0.7544922678388098,1.5142615014967549,0.6787651777267456,-0.6849188208580017,-0.26488474011421204,-0.7808432579040527,-1.4613693952560425,-0.23603378236293793,0.4516211152076721,-0.838137149810791,0.1667250096797943
157,1.09222012598603,0.7357293655152395,1.5302975751574242,0.658052921295166,-0.6711280345916748,-0.34139949083328247,-0.2588226795196533,-0.6416630148887634,0.09068995714187622,0.341977596282959,-0.2016899585723877,0.41476374864578247
158,1.2076694121551292,0.7815881610400587,1.4922866595194764,0.6635104417800903,-0.7044075727462769,-0.25211870670318604,0.7343042492866516,2.168398141860962,0.5298622250556946,-0.12106049060821533,0.47233664989471436,0.28638994693756104
159,1.4034303340576608,0.8020241387038173,1.4188730524904634,0.6855384111404419,-0.7187648415565491,-0.11581925302743912,0.09120042622089386,-0.9002137780189514,0.5949517488479614,-0.5253517031669617,0.24056971073150635,-0.1758372187614441
160,1.420868391502028,0.8713830931714363,1.4141939594105815,0.6365466713905334,-0.765220046043396,-0.09615769982337952,-0.34540024399757385,0.589148223400116,0.5198342204093933,0.245167076587677,-0.08301591873168945,-0.27502763271331787
161,1.337325496018723,0.8669032545288751,1.529509863990945,0.6296315789222717,-0.7623283863067627,-0.1497310996055603,-1.2239011526107788,-0.33287307620048523,-0.13276493549346924,0.5245125889778137,-0.49954289197921753,0.1136898547410965
162,1.2020581563474897,0.828255363293842,1.6289988200097048,0.6307124495506287,-0.7367528080940247,-0.24371498823165894,-0.5278189778327942,-0.8155170679092407,-0.11257917433977127,-0.12219804525375366,-0.5058161020278931,0.07614302635192871
163,1.1551656779168862,0.8416768275934917,1.6337117490555377,0.6094930768013,-0.7457612752914429,-0.26899489760398865,0.23597343266010284,0.08101893961429596,0.10506784915924072,-0.30035001039505005,0.42995017766952515,0.19395214319229126
164,1.1469264654867268,0.8424322852223352,1.69980963328761,0.6067423820495605,-0.7462643980979919,-0.2737756371498108,-0.2056412696838379,0.3773701786994934,0.34252649545669556,-0.2836986184120178,0.38499730825424194,0.0024438798427581787
165,1.2068725250142092,0.8689347778148413,1.6086751922826723,0.6033557653427124,-0.7636415958404541,-0.22981171309947968,0.2719198763370514,-0.9161469340324402,-0.25698980689048767,0.2836376428604126,-0.1121213436126709,-0.2783517837524414
166,1.1527564617171235,0.801869215260801,1.7240065997851715,0.6354843974113464,-0.7186571359634399,-0.28229716420173645,-1.0693073272705078,-0.6735575199127197,-0.5490626096725464,0.6431869268417358,-0.9578108191490173,0.20130351185798645
167,1.12815494623295,0.7958352179969058,1.7494169752435784,0.6322548985481262,-0.7144482731819153,-0.2996959984302521,0.8717407584190369,-0.756960391998291,-0.09118200838565826,0.24175339937210083,-0.2010486125946045,0.2568645179271698
168,1.3459933733638894,0.8229659213049303,1.5834103637148835,0.6629384160041809,-0.7331660389900208,-0.15159280598163605,0.8499159812927246,2.6982924938201904,-0.02520814538002014,-0.5163624286651611,0.2519495487213135,-0.21400779485702515
169,1.4385130648384774,0.8351230256079111,1.5696482536957217,0.6652233004570007,-0.7413790822029114,-0.08851481229066849,-0.22036013007164001,0.7657364010810852,0.42703479528427124,-0.2287609577178955,0.2617649435997009,0.14065410196781158
170,1.5099088490077015,0.8879747673532213,1.5432105132082659,0.629815399646759,-0.7757954597473145,-0.03839533030986786,-0.5798659324645996,0.21650657057762146,0.4774003326892853,0.5254276394844055,-0.2330852746963501,-0.670650064945221
171,1.3845577228681265,0.9080364498826287,1.6594905883126367,0.6046550273895264,-0.7882971167564392,-0.11393038183450699,-1.0001732110977173,-0.537014365196228,0.016030803322792053,0.41426587104797363,-0.2505059838294983,0.5057455897331238
172,1.3104077113623576,0.8649813802437608,1.8029709368491782,0.6267881393432617,-0.76108318567276,-0.16699999570846558,0.21877418458461761,-0.40495631098747253,0.051517438143491745,-0.4182157516479492,-0.520929753780365,-0.16895276308059692
173,1.300802511005662,0.8862896622917704,1.7710888914896146,0.6093845367431641,-0.7747310996055603,-0.16864807903766632,-0.23124027252197266,0.021565062925219536,0.10652220994234085,-0.18903547525405884,0.4283261299133301,0.13163025677204132
174,1.2762740099792502,0.8902229072561929,1.8004050485559409,0.6021443605422974,-0.7772120237350464,-0.1826571822166443,0.36019694805145264,-0.47546279430389404,0.036284372210502625,-0.31900233030319214,0.41264909505844116,-0.03928188979625702
175,1.288324380478534,0.9052872553567868,1.7312624236283711,0.5929895043373108,-0.7866025567054749,-0.1721048802137375,-0.27691325545310974,0.1818857491016388,0.009538048878312111,0.3165717124938965,-0.2729526162147522,-0.3354482054710388
176,1.186168265535442,0.8568492153993442,1.8549312415100643,0.606979489326477,-0.7557831406593323,-0.24569866061210632,-1.3688547611236572,-0.09278041869401932,-0.18545398116111755,0.43237292766571045,-0.8879546523094177,0.3919541835784912
177,1.1773471485934626,0.8517096016994176,1.8730004660849635,0.6083681583404541,-0.7524076104164124,-0.2525291442871094,0.8489168882369995,-0.0400550551712513,-0.04321661591529846,0.1572873592376709,-0.048602521419525146,0.14432907104492188
178,1.3564588226454593,0.87253429066189,1.7144596548620945,0.6281766295433044,-0.7659606337547302,-0.1367422640323639,0.9509313702583313,1.2101290225982666,-0.10835617035627365,-0.36789220571517944,0.3006286025047302,-0.02703028917312622
179,1.4468548886296604,0.8875550724874992,1.6777386184186662,0.6264672875404358,-0.7755305767059326,-0.07804529368877411,-0.29853662848472595,0.27257078886032104,0.31972867250442505,-0.1758905053138733,0.3658168315887451,0.1513943076133728
180,1.4738779188238917,0.9122696122030226,1.6456914297028598,0.6090804934501648,-0.7908946871757507,-0.05921664088964462,-0.037457793951034546,0.428710401058197,0.10804780572652817,0.5508925914764404,-0.21423226594924927,-0.43234527111053467
181,1.3904723961393444,0.9070730104865599,1.7323513238051869,0.6060651540756226,-0.7877039313316345,-0.11048822849988937,-0.23668895661830902,-1.1674329042434692,-0.2440481036901474,0.48063528537750244,-0.345032274723053,0.24369746446609497
182,1.2711418137964325,0.8654299444257807,1.8067561199208946,0.6194230318069458,-0.7613740563392639,-0.19137553870677948,-0.34431853890419006,0.08062766492366791,-0.36371108889579773,-0.2594377398490906,-0.4497770071029663,0.15422041714191437
183,1.3133855732363782,0.869177272629864,1.6745296225210016,0.624189019203186,-0.763798177242279,-0.16431835293769836,1.0214967727661133,-0.705443263053894,-0.24772080779075623,-0.23179399967193604,0.46423763036727905,0.19724678993225098
184,1.2679738673759644,0.8551397291936232,1.7035959104783718,0.6262590289115906,-0.7546625733375549,-0.19566303491592407,-0.2083052694797516,-0.3999283015727997,-0.18704888224601746,-0.2620011568069458,0.4226161241531372,-0.14544719457626343
185,1.2601292580086063,0.8562680152699165,1.6487337016292773,0.6238938570022583,-0.7554023861885071,-0.20030935108661652,0.26589110493659973,-0.913291871547699,-0.12471193820238113,0.16327661275863647,-0.0869438648223877,-0.38771864771842957
186,1.2211588967727809,0.820225321657564,1.698597322420009,0.6407901048660278,-0.7312995195388794,-0.23364339768886566,-0.723021388053894,-0.1367904245853424,-0.19476814568042755,0.19589513540267944,-0.4264459013938904,0.2721717655658722
187,1.1559768198515719,0.808786930389256,1.7372679647333962,0.6318249702453613,-0.723450243473053,-0.27823880314826965,0.3569973409175873,-0.257412850856781,0.10165126621723175,0.3313402533531189,-0.11529487371444702,0.42666110396385193
188,1.3292702961363985,0.8403656859114016,1.562058804216084,0.6478247046470642,-0.7448871731758118,-0.15958172082901,1.2753151655197144,1.1690599918365479,-0.13101214170455933,-0.3560309410095215,0.13358956575393677,-0.04795306921005249
189,1.4566876031153302,0.8624038356009479,1.5277479647316643,0.6463828086853027,-0.759408712387085,-0.0740797221660614,-0.22355733811855316,0.6483362913131714,0.5388708114624023,-0.32864898443222046,0.4557587504386902,0.004743747413158417
190,1.4940918119985143,0.9125602280677735,1.5428278983730694,0.609923779964447,-0.7910724878311157,-0.04687587916851044,-0.6406278014183044,0.6100654006004333,0.45331519842147827,0.5929875373840332,-0.5009196996688843,-0.5330954194068909
191,1.3776616799617272,0.9240689516834548,1.7468566336948843,0.5913744568824768,-0.7980600595474243,-0.11565651744604111,-1.1863044500350952,0.1337853968143463,0.025671713054180145,0.3912457823753357,-0.3636678457260132,0.4620310068130493
192,1.4144174686592474,0.8976778667288632,1.7643225801112676,0.615820050239563,-0.7818813323974609,-0.09709399193525314,1.5691345930099487,-0.6992227435112,-0.28940123319625854,-0.5247708559036255,-0.17252540588378906,-0.26342540979385376
193,1.435458729679175,0.90219457582499,1.6550616217410716,0.6142208576202393,-0.78468918800354,-0.08363844454288483,-0.357298880815506,-0.15330101549625397,0.008847257122397423,-0.08695346117019653,0.4419921636581421,0.09473157674074173
194,1.3891100826469658,0.8842094045267955,1.6965207032663365,0.6234674453735352,-0.7734140753746033,-0.11453854292631149,-0.1617099642753601,-0.213433638215065,-0.12236639112234116,-0.42260074615478516,0.2714608907699585,-0.11393129825592041
195,1.3703499503058947,0.8793435326939784,1.6766444487172298,0.6248896718025208,-0.7703204154968262,-0.1269618272781372,0.03057042509317398,-0.0869319885969162,-0.20935292541980743,0.425693154335022,-0.10823482275009155,-0.2756260633468628
196,1.2803347024679168,0.8472703585708393,1.7874816425489872,0.6343001127243042,-0.7494760751724243,-0.18960218131542206,-1.0430293083190918,-0.702734649181366,-0.03423183411359787,0.3420029878616333,-0.7090199589729309,0.18844252824783325
197,1.245076561147685,0.8412538930594998,1.7235257211011272,0.6314831376075745,-0.7454794645309448,-0.21328306198120117,0.8208193778991699,-0.4022589325904846,-0.1900661438703537,0.2647266387939453,0.08822238445281982,0.26572751998901367
198,1.4234739705925255,0.8549839491822493,1.584042595736686,0.6491219997406006,-0.7545604109764099,-0.09632808715105057,0.9433115720748901,1.118994951248169,-0.03595113754272461,-0.34664708375930786,0.16277891397476196,-0.14851443469524384
199,1.49669001190167,0.8814809665798413,1.5385756607142367,0.6342633366584778,-0.7716816067695618,-0.04708915203809738,-0.03443615883588791,0.01917141303420067,0.4456218183040619,-0.24656802415847778,0.38824355602264404,0.09959465265274048
200,1.5481166674215123,0.9247906139571074,1.5434196575827597,0.6018469929695129,-0.7984947562217712,-0.01365202572196722,-0.8801829814910889,0.7660603523254395,0.520846962928772,0.45744866132736206,-0.40809398889541626,-0.6281784176826477
201,1.3968304840613426,0.9311418278979371,1.738961960909246,0.5879083275794983,-0.8023020625114441,-0.10332037508487701,-1.0655405521392822,-0.022148441523313522,-0.053091052919626236,0.44382989406585693,-0.37778210639953613,0.4093964099884033
202,1.3736956279963666,0.8835898697154773,1.8155454707120264,0.6220978498458862,-0.7730212211608887,-0.12422880530357361,0.6654794812202454,-0.49948549270629883,-0.17830047011375427,-0.43208009004592896,-0.20009297132492065,-0.16521520912647247
203,1.386321005398925,0.8855915523609122,1.740094548940051,0.6220939755439758,-0.7742894887924194,-0.11608076840639114,-0.3062588572502136,-0.1030958965420723,0.051519885659217834,-0.22817307710647583,0.4904608726501465,0.05234481394290924
204,1.3358211585107025,0.8748316407254799,1.7702456446308121,0.6235079765319824,-0.7674355506896973,-0.14926621317863464,0.28212234377861023,-0.3441871106624603,-0.013264836743474007,-0.3262667655944824,0.19845062494277954,-0.044886648654937744
205,1.2925224849512142,0.8785750919558242,1.7328228124482656,0.6136958599090576,-0.7698302268981934,-0.17532452940940857,-0.42048463225364685,-0.35898083448410034,-0.2289954274892807,0.2906009554862976,-0.06969302892684937,-0.33102309703826904
206,1.1675248420314484,0.8403205153046971,1.8796792442758596,0.6137009263038635,-0.7448570132255554,-0.26183846592903137,-0.2664055824279785,-0.49617302417755127,-0.018915433436632156,0.24616235494613647,-0.4973915219306946,0.17390206456184387
207,1.1868577501124784,0.8548068729058282,1.808454903147561,0.6085786819458008,-0.7544441819190979,-0.24585777521133423,0.8952441215515137,0.5022214651107788,-0.10211794078350067,0.05774211883544922,0.1076546311378479,0.17797142267227173
208,1.45229224958367,0.8767384114646911,1.6170996290761814,0.6351754069328308,-0.7686566710472107,-0.0756252110004425,0.8401240706443787,0.9552099108695984,0.07516834884881973,-0.4197670817375183,0.3429974317550659,-0.2492496371269226
209,1.4819970818949526,0.9076172892765351,1.633677527836251,0.6131997108459473,-0.7880391478538513,-0.05459524691104889,0.6042971611022949,-0.13799378275871277,0.26272180676460266,0.01823955774307251,0.31811410188674927,0.1477348804473877
210,1.4965384625843174,0.9367469540590844,1.6631765948424801,0.590779185295105,-0.8056352138519287,-0.04395081847906113,-1.2136833667755127,0.6040557622909546,0.2617610692977905,0.42063432931900024,-0.14001286029815674,-0.7107031345367432
211,1.3263838473650384,0.906570249716769,1.8559974201714295,0.5981288552284241,-0.787394106388092,-0.14917244017124176,-1.4153469800949097,0.242665097117424,-0.36699768900871277,0.14434856176376343,-0.34747833013534546,0.6010309457778931
212,1.3304535842290646,0.8659128589691182,1.8651206334256432,0.6293207406997681,-0.7616870403289795,-0.1542339324951172,0.6288442015647888,-0.8984382152557373,0.07859647274017334,-0.16412609815597534,-0.014619052410125732,-0.03323553502559662
213,1.3356932110978157,0.8689516262695378,1.8134555746669172,0.6278665661811829,-0.763652503490448,-0.15039460361003876,-0.3322393000125885,0.16580317914485931,-0.014032639563083649,-0.25733739137649536,0.4894062876701355,0.06454867124557495
214,1.341113548379837,0.8580933924524525,1.800674229465648,0.6367095112800598,-0.7565972208976746,-0.14886826276779175,0.6340019702911377,-0.18745645880699158,-0.07369229197502136,-0.27870774269104004,0.17259764671325684,-0.11378121376037598
215,1.34764110467286,0.857882853617087,1.740511572545075,0.6378228664398193,-0.7564595341682434,-0.14474418759346008,-0.6676771640777588,-0.37442129850387573,-0.34077486395835876,0.2562047839164734,-0.14452606439590454,-0.3250129222869873
216,1.2065847422878746,0.8007780264275461,1.888838281472974,0.6504844427108765,-0.7178979516029358,-0.2479768991470337,-0.4836913049221039,-0.37908923625946045,0.02454083412885666,0.11369097232818604,-0.3223700523376465,0.2668672800064087
217,1.2455430742552833,0.8165404918405226,1.8113868914714384,0.6488451361656189,-0.7287812829017639,-0.21880990266799927,1.525484323501587,0.4880558252334595,-0.06989672780036926,-0.12328672409057617,0.11972677707672119,0.18514902889728546
218,1.499712055355503,0.8505883463031266,1.5980869412537755,0.6578751802444458,-0.7516685724258423,-0.0468435063958168,0.5392396450042725,0.4376696050167084,0.2168162316083908,-0.47237420082092285,0.36128783226013184,-0.2698069214820862
219,1.5022137465461953,0.8830195828670913,1.6336117974134556,0.6333284378051758,-0.7726593017578125,-0.0435035265982151,0.3781152367591858,0.4661555886268616,0.44115856289863586,-0.020291388034820557,0.2690582871437073,0.1325232982635498
220,1.49884232517424,0.9188455414439934,1.6930471482281753,0.6051682233810425,-0.7949016690254211,-0.04361958056688309,-1.2102996110916138,0.22973310947418213,0.4130043387413025,0.3436232805252075,-0.2960101366043091,-0.6091209053993225
221,1.339076302151408,0.9069396247427727,1.8672619447497407,0.5996907353401184,-0.7876217365264893,-0.14150206744670868,-1.0411981344223022,0.15736205875873566,-0.2470189779996872,0.07859289646148682,-0.2733064889907837,0.5107494592666626
222,1.3402286426992471,0.8777660794879283,1.8391253964184877,0.6219648718833923,-0.769313633441925,-0.1460014283657074,0.9469479918479919,-0.8033941388130188,0.048824701458215714,-0.22038406133651733,0.002834022045135498,0.004888162016868591
223,1.3619009854692112,0.8860459310430642,1.7652559519178113,0.6187299489974976,-0.7745769619941711,-0.13116323947906494,-0.5426647663116455,0.21433770656585693,-0.04069722443819046,-0.35086196660995483,0.5375316739082336,0.11263908445835114
224,1.3587060608041746,0.8676779667347562,1.7828213943490252,0.6321113109588623,-0.7628295421600342,-0.13611167669296265,0.3412851393222809,-0.414105623960495,-0.1441807895898819,-0.3013313412666321,0.06651002168655396,-0.27923256158828735
225,1.3089026697016808,0.8545662701570356,1.778740868679274,0.6341584920883179,-0.7542862296104431,-0.16998633742332458,-0.6345780491828918,0.06027848646044731,-0.2190764844417572,0.33163124322891235,-0.11856228113174438,-0.4441494345664978
226,1.1841213382881206,0.818474140874083,1.9272036612190773,0.6328840851783752,-0.7301040291786194,-0.2576935589313507,0.3048684597015381,-0.44597893953323364,-0.10042500495910645,0.20579999685287476,-0.20249789953231812,0.3318970203399658
227,1.2254842044198564,0.8364391350598048,1.830428584557104,0.6305534243583679,-0.7422616481781006,-0.22682584822177887,1.1195839643478394,0.7120665907859802,-0.06719734519720078,-0.0711967945098877,0.14018034934997559,0.15875637531280518
228,1.4494394816898182,0.8580810800590586,1.6676196881425343,0.6490814089775085,-0.7565891742706299,-0.0791594609618187,0.3117794692516327,1.009193778038025,0.010444356128573418,-0.39187920093536377,0.3512241840362549,-0.1687958836555481
229,1.4649194082338843,0.8867598135139864,1.7002801093617486,0.6283879280090332,-0.7750282883644104,-0.06678150594234467,0.6360310912132263,0.2115626186132431,0.35534679889678955,0.0809626579284668,0.2616921067237854,0.21003097295761108
230,1.473745628610397,0.9216567598476365,1.7501825906595283,0.601656436920166,-0.7966042160987854,-0.05857519432902336,-1.2094156742095947,0.2917342185974121,0.2764059603214264,0.5173773169517517,-0.10827243328094482,-0.7614321112632751
231,1.3097909615308971,0.8928384850814861,1.9181249138645762,0.6059610247612,-0.7788552045822144,-0.1618511825799942,-1.432665467262268,0.2501439154148102,-0.3537582755088806,-0.03125399351119995,-0.28752046823501587,0.543290376663208
232,1.2817521599448967,0.8641788704077008,1.94487669462968,0.6223313212394714,-0.7605623602867126,-0.18506400287151337,0.7623483538627625,-0.6353409290313721,0.043628107756376266,-0.061326682567596436,0.10722684860229492,0.18382799625396729
233,1.3005729167184619,0.8602820415843049,1.928445761800934,0.628555417060852,-0.7580265402793884,-0.17410901188850403,-0.4744233787059784,0.2193106710910797,-0.09377043694257736,-0.4436951279640198,0.5287173986434937,0.05409865081310272
234,1.2886676140327034,0.8532771355102374,1.8741421644014153,0.6315226554870605,-0.7534392476081848,-0.18305346369743347,0.6941601037979126,-0.7666553258895874,-0.013756053522229195,-0.28914594650268555,0.10109549760818481,-0.07526254653930664
235,1.2760181339025802,0.8509731472806653,1.830822507759067,0.6308160424232483,-0.7519223093986511,-0.19153085350990295,-0.8020756840705872,0.3810322880744934,-0.17799505591392517,0.10142278671264648,-0.22161895036697388,-0.45875293016433716
236,1.1610414417984525,0.8094861778901449,1.9559671016322613,0.6327621340751648,-0.7239328026771545,-0.2748337686061859,0.057906076312065125,-0.3172193467617035,-0.011745868250727654,0.15013593435287476,-0.24208593368530273,0.3349228799343109
237,1.2088879373173096,0.8265233943838171,1.8598100349566569,0.6335545778274536,-0.7355806231498718,-0.2398531287908554,0.8680649995803833,0.7358583807945251,-0.08844232559204102,0.03066045045852661,0.1242525577545166,0.164596825838089
238,1.4367403861541177,0.8520370118258028,1.718583030123472,0.6525436639785767,-0.7526232600212097,-0.0880051702260971,0.5448589324951172,1.092069387435913,0.23920762538909912,-0.49739235639572144,0.3023059368133545,-0.1600264310836792
239,1.4701998853072191,0.8901684846357361,1.723828459110551,0.6260995864868164,-0.7771778106689453,-0.06319671124219894,-0.08631815761327744,0.6211932301521301,0.4644736051559448,0.015334069728851318,0.38095295429229736,0.17942291498184204
240,1.4653190637540892,0.9293505954071524,1.7972665932678558,0.5950289964675903,-0.8012315630912781,-0.06299582123756409,-1.293703317642212,0.1805744171142578,0.28196659684181213,0.5262630581855774,-0.09937268495559692,-0.6928178071975708
241,1.2884660858092507,0.8935996011928784,1.9859807067434978,0.6018026471138,-0.7793323397636414,-0.1745702624320984,-1.5343941450119019,0.4923393428325653,-0.4146443009376526,0.04758089780807495,-0.41836053133010864,0.5818578600883484
242,1.2637793203533496,0.8550831723521439,1.9933056039081718,0.6254734396934509,-0.7546254992485046,-0.1983010619878769,0.603093683719635,-1.1074997186660767,0.010137327015399933,-0.19906657934188843,0.14608979225158691,0.07966400682926178
243,1.2779871997465002,0.855548026738264,1.9140599924805917,0.6278918385505676,-0.7549304366111755,-0.18929345905780792,-0.26179006695747375,0.43910014629364014,-0.10080324113368988,-0.4224322438240051,0.596101701259613,0.15581567585468292
244,1.2729534285451496,0.8322922640575028,1.9306356979278156,0.6435434222221375,-0.7394764423370361,-0.19755129516124725,0.2944183647632599,-0.5837904214859009,-0.10641229152679443,-0.24257296323776245,0.016179323196411133,-0.14474910497665405
245,1.2626595624702843,0.8260322021395755,1.8829873362480996,0.6458743810653687,-0.735247790813446,-0.2055652141571045,-0.8271090388298035,-0.12337274849414825,-0.3339795768260956,0.28654444217681885,-0.01356196403503418,-0.815263032913208
246,1.1439088616684145,0.7657038003556031,2.0126173205109787,0.6562009453773499,-0.6930445432662964,-0.29847902059555054,-0.043222036212682724,-0.3116881251335144,-0.06940679997205734,0.06654685735702515,-0.3164617419242859,0.42346373200416565
247,1.2016905502270325,0.7837072080276224,1.9449531027677496,0.6605975031852722,-0.7059100866317749,-0.2555420696735382,1.405933141708374,1.0126100778579712,-0.07929215580224991,-0.1383044719696045,0.10237926244735718,0.06795051693916321
248,1.4022655699623148,0.8258030214153592,1.8255501989131084,0.668361485004425,-0.7350924611091614,-0.11371814459562302,0.6348166465759277,0.46191006898880005,0.3258380591869354,-0.4903067946434021,0.4496157765388489,-0.04646860808134079
249,1.4417233037645154,0.8719906516521019,1.8337123651840204,0.6379523873329163,-0.7656110525131226,-0.08280277997255325,-0.004760405980050564,0.490600049495697,0.6142375469207764,0.037706732749938965,0.20253127813339233,-0.06903742998838425
250,1.4371322637968933,0.9086491038427471,1.8490330035534899,0.6093277931213379,-0.7886739373207092,-0.08193375915288925,-0.9492855072021484,0.15749067068099976,0.3950593173503876,0.3364882469177246,-0.06212562322616577,-0.5455381870269775
251,1.2990106251338032,0.9044879516190061,2.0029286362273875,0.5953998565673828,-0.7861087918281555,-0.1659269779920578,-1.0724202394485474,0.13346543908119202,-0.05878565460443497,0.2791270613670349,-0.26368051767349243,0.5034666657447815
252,1.28124506583076,0.8749882151572412,2.033450943445546,0.6143222451210022,-0.767535924911499,-0.1830214262008667,0.8572627305984497,-0.5242182612419128,-0.01532026194036007,-0.2205386757850647,-0.24769234657287598,-0.0508347749710083
253,1.3533521080176862,0.8893872854235708,1.9274992377571418,0.6150556206703186,-0.7766859531402588,-0.13588875532150269,-0.35617896914482117,0.3131985664367676,0.016045983880758286,-0.26239442825317383,0.5102827548980713,0.028115928173065186
254,1.3258219804723157,0.8827680616099077,1.9323355221784602,0.6160559058189392,-0.7724996209144592,-0.15401114523410797,0.5173243284225464,-0.5953680872917175,-0.04171265661716461,-0.406827449798584,0.22026878595352173,-0.003459557890892029
255,1.3022520736696825,0.8828310801397917,1.9003908813953556,0.6122082471847534,-0.7725396156311035,-0.16847452521324158,-0.7719764113426208,0.3252973258495331,-0.09731926023960114,0.3540850877761841,-0.11301946640014648,-0.2778908610343933
256,1.1737329955123013,0.8344098305266727,2.030597537271638,0.6193636655807495,-0.7409002780914307,-0.25972142815589905,-0.5055046677589417,-0.3842219114303589,0.012769495137035847,0.2960720658302307,-0.5730645060539246,0.30198827385902405
257,1.2130847949431762,0.8476259139039347,1.9986984605092517,0.6198753714561462,-0.7497114539146423,-0.2317046970129013,0.7247499823570251,0.8116151094436646,0.05720137804746628,0.038983821868896484,0.05700826644897461,0.1807251125574112
258,1.449128103712962,0.873019997735416,1.8393389963119056,0.637765645980835,-0.7662728428840637,-0.07798098027706146,0.6346008777618408,0.9249352812767029,0.11937277019023895,-0.38530898094177246,0.35402607917785645,-0.18830013275146484
259,1.4728612553253018,0.9113689545710678,1.8482631921439923,0.6097285747528076,-0.790343165397644,-0.05990545451641083,0.4419468939304352,0.1787187159061432,0.44510623812675476,-0.04445153474807739,0.3950490355491638,0.17587226629257202
260,1.441907035434602,0.938183124059687,1.8947514256293294,0.5863499045372009,-0.8064851760864258,-0.07599551230669022,-1.4658998250961304,0.27058476209640503,0.35933762788772583,0.3657679557800293,-0.18399327993392944,-0.4712609648704529
261,1.294216690569703,0.9244644400125357,2.0815645230496806,0.5793734192848206,-0.7982983589172363,-0.16445790231227875,-1.2726327180862427,0.46986493468284607,-0.1777009814977646,0.03003215789794922,-0.2674213647842407,0.38603079319000244
262,1.2885993847937809,0.9071248926137011,2.0698707836532892,0.5916472673416138,-0.7877358794212341,-0.17153891921043396,0.8170819878578186,-0.7597134113311768,-0.04632466286420822,-0.033404529094696045,0.0911417007446289,0.07359273731708527
263,1.271556985881455,0.9014289324669842,2.0222571391615984,0.5929161310195923,-0.7842143774032593,-0.18291640281677246,-0.2795654535293579,-0.3763505816459656,-0.13044512271881104,-0.3388420343399048,0.5505412220954895,0.08956313133239746
264,1.2558719967272487,0.8837791118628335,1.977902939139334,0.6030421853065491,-0.7731412053108215,-0.19645047187805176,0.69527667760849,-0.45274606347084045,-0.2917460799217224,-0.22232013940811157,0.2360929250717163,-0.07259248197078705
265,1.235004281922163,0.8657027081887034,1.955282770455787,0.6119081974029541,-0.7615509033203125,-0.21356171369552612,-0.882806122303009,-0.24768105149269104,-0.3440428078174591,0.23855561017990112,-0.0018157958984375,-0.4982455372810364
266,1.1217485751056004,0.8137503652792283,2.0319901216997147,0.6186908483505249,-0.7268679738044739,-0.2981354594230652,-0.45495471358299255,-0.05919012054800987,0.01100145187228918,0.2443767786026001,-0.4347836375236511,0.5453125834465027
267,1.1907133796501885,0.8264846592495154,1.9802683343103131,0.6291176676750183,-0.7355543971061707,-0.2513381242752075,1.7053190469741821,0.9558457732200623,-0.20668603479862213,-0.1789376139640808,0.056187331676483154,-0.07008826732635498
268,1.4035882806277795,0.8596576379907014,1.853651582609699,0.643593966960907,-0.7576191425323486,-0.10862834751605988,-0.19786392152309418,0.7714494466781616,0.22981132566928864,-0.4228755831718445,0.4595843553543091,-0.026564553380012512
269,1.4688092557362773,0.8936270710581393,1.8601391941144265,0.6233334541320801,-0.7793495655059814,-0.06379328668117523,0.6258533596992493,0.370310515165329,0.2778402268886566,-0.09829384088516235,0.4107888340950012,-0.14514529705047607
270,1.4187560316160743,0.9140276278886864,1.9513917753229584,0.6035177111625671,-0.7919692397117615,-0.09247265011072159,-1.0653005838394165,0.42365357279777527,0.2680005431175232,0.49079692363739014,-0.2090684175491333,-0.5649217963218689
271,1.2586429603319877,0.8774485349273581,2.1409137798162363,0.6082301139831543,-0.7691106796264648,-0.19627796113491058,-1.3089609146118164,0.2641453444957733,-0.177615225315094,-0.0957942008972168,-0.38768863677978516,0.422657310962677
272,1.2643846095186348,0.8720170523595091,2.0804999900517567,0.6133208870887756,-0.7656280398368835,-0.1940397322177887,1.2805349826812744,-1.0026334524154663,-0.14155623316764832,-0.10296010971069336,0.22635191679000854,0.08600753545761108
273,1.2764467157324715,0.8681590357612919,1.999190706732762,0.6184386014938354,-0.7631405591964722,-0.1874833106994629,-0.3671036660671234,-0.03165353089570999,-0.1117788702249527,-0.3946227431297302,0.5153379440307617,0.018232837319374084
274,1.2491472302157056,0.8665034430268603,1.9565632321007598,0.6142886877059937,-0.762069582939148,-0.20469366014003754,0.5615119934082031,-1.0416375398635864,0.02934224158525467,-0.14842259883880615,0.02192676067352295,-0.24100035429000854
275,1.2056976603128242,0.8516730873411242,1.97844995582825,0.6153075695037842,-0.7523835897445679,-0.2351921796798706,-1.2545084953308105,0.05017644166946411,0.004169914871454239,0.31904906034469604,-0.5859189033508301,-0.1087866723537445
276,1.1055154682000434,0.8341500642758275,2.0541069590198995,0.6003913283348083,-0.7407258152961731,-0.3014223873615265,0.11015941947698593,-0.4546525776386261,0.04014110192656517,0.5160636901855469,-0.1759917140007019,0.5452731847763062
277,1.2542009648226837,0.8583781161568795,1.9388826926670035,0.6211792230606079,-0.7567833662033081,-0.2035077065229416,1.4784475564956665,1.3372009992599487,-0.08341436833143234,-0.3774200677871704,0.23114866018295288,0.009614229202270508
278,1.4546487323000448,0.88925852564984,1.830965146813547,0.6257435083389282,-0.7766048312187195,-0.07300719618797302,0.04628850147128105,0.4910297095775604,0.3006383776664734,-0.3862110376358032,0.509804904460907,0.009149134159088135
279,1.492956592697171,0.9244124414872152,1.8312759901624598,0.6004801988601685,-0.7982670068740845,-0.046835850924253464,-0.22193843126296997,0.2513161897659302,0.24157385528087616,0.5204762816429138,-0.3716855049133301,-0.36220651865005493
280,1.3398125801945246,0.91034331006866,2.0462250562756172,0.5971818566322327,-0.7897143959999084,-0.1404459923505783,-1.7406119108200073,-0.4738174378871918,-0.2615891695022583,0.49820083379745483,-0.554325520992279,0.519581139087677
281,1.256932787641575,0.853896056845142,2.1605856844883276,0.6249527931213379,-0.7538460493087769,-0.2028551697731018,0.705361008644104,-1.2271053791046143,-0.14655853807926178,-0.11253213882446289,-0.5015098452568054,-0.2626599669456482
282,1.2096724564544827,0.840723592210329,2.1080917797548495,0.6239075064659119,-0.7451258897781372,-0.2356414496898651,-0.09103430807590485,-0.15651772916316986,-0.1678512841463089,-0.24048465490341187,0.5258113145828247,0.22256463766098022
283,1.2019646538234567,0.8175724167734011,2.0902663860473725,0.6379950046539307,-0.7294875383377075,-0.24659761786460876,0.38048815727233887,-0.5752125382423401,-0.3107685148715973,-0.40021729469299316,0.37696373462677,0.06851232051849365
284,1.265302634198232,0.8357805302103,1.9573026558138782,0.6395491361618042,-0.7418201565742493,-0.20169201493263245,0.7833978533744812,-0.14036646485328674,-0.12262185662984848,0.20104223489761353,-0.18878281116485596,-0.42730581760406494
285,1.1909550016923907,0.8032502318041985,2.0137592568197675,0.6448789834976196,-0.7196167707443237,-0.2574542164802551,-0.8164640069007874,-0.33146780729293823,-0.3371427655220032,0.5213654637336731,-0.5562315583229065,0.3366778790950775
286,1.169590866252595,0.7780215190609535,2.0295010107550033,0.6557402610778809,-0.7018715143203735,-0.2781747877597809,0.330923467874527,0.32376593351364136,-0.08435489982366562,0.29413461685180664,-0.09053266048431396,0.2697519063949585
287,1.316307784754134,0.794954368608228,1.9476103047580624,0.6777614951133728,-0.7138316631317139,-0.17630517482757568,0.5714110136032104,1.3904595375061035,0.20030367374420166,-0.4882168769836426,0.14361071586608887,-0.06986485421657562
288,1.41097786771126,0.838988603065732,1.8984628807303912,0.6596997976303101,-0.7439676523208618,-0.10633911937475204,0.24480190873146057,0.30136018991470337,0.3808567225933075,-0.2070174217224121,0.5051219463348389,0.16978517174720764
289,1.4503077847907768,0.8804669070132313,1.8857251416153489,0.6321744918823242,-0.7710362672805786,-0.07654053717851639,0.29591065645217896,-0.09199661016464233,0.31952106952667236,0.428036630153656,-0.2890222668647766,-0.44090020656585693
290,1.353914537239757,0.8858314536918906,1.9999099350712362,0.6178248524665833,-0.7744412422180176,-0.13613618910312653,-0.7972416877746582,-0.7881345152854919,-0.2635625898838043,0.675143837928772,-0.37987077236175537,0.057553425431251526
291,1.2707518346755684,0.8367099880678079,2.0981162184051225,0.639979898929596,-0.7424431443214417,-0.19800017774105072,0.027285683900117874,-0.18563884496688843,-0.31043630838394165,-0.27827030420303345,-0.5769080519676208,0.04776217043399811
292,1.2934080009033686,0.8438069927554592,2.012113914105797,0.6392172574996948,-0.7471787333488464,-0.18200357258319855,0.41482850909233093,0.28096306324005127,-0.0834956094622612,-0.12505710124969482,0.45353859663009644,0.22483497858047485
293,1.3000225477310743,0.8463518990333915,2.0513676437721338,0.6385728716850281,-0.7488677501678467,-0.1772623211145401,0.13702178001403809,-0.49008768796920776,0.11630820482969284,-0.4419786334037781,0.4009520411491394,-0.044829368591308594
294,1.2999033173600063,0.8799912824806954,1.9611263427896375,0.6139221787452698,-0.7707332968711853,-0.1704983413219452,0.6453636288642883,-0.8477696180343628,-0.017039543017745018,0.2795714735984802,-0.08352994918823242,-0.3478121757507324
295,1.2432083848560427,0.8552740959027123,2.006727959418914,0.6211257576942444,-0.7547507286071777,-0.21107842028141022,-1.1889495849609375,-0.5299096703529358,-0.07906915247440338,0.2963241934776306,-0.678705632686615,0.211322620511055
296,1.16005087733103,0.8486834544903241,2.009835721504526,0.6059943437576294,-0.7504108548164368,-0.263921320438385,0.4109877049922943,-0.5810984373092651,0.001500407699495554,0.3568199872970581,-0.05578726530075073,0.50443035364151
297,1.3164515527036473,0.865925125845912,1.9245632458696251,0.6270906329154968,-0.7616950273513794,-0.16302797198295593,0.7457568049430847,1.7533454895019531,-0.041712723672389984,-0.2883760333061218,0.16763979196548462,-0.01705622673034668
298,1.4308671650096716,0.8850257108856742,1.8548946039962935,0.627079963684082,-0.7739312648773193,-0.08832399547100067,-0.05340006947517395,0.10556076467037201,0.3425583243370056,-0.2817736268043518,0.4104211926460266,0.10660404711961746
299,1.501225383791685,0.909892249928674,1.84391034119809,0.6123459339141846,-0.7894375920295715,-0.0426703505218029,-0.46839967370033264,0.7892839312553406,0.18893484771251678,0.35385584831237793,-0.31357449293136597,-0.4250115156173706
300,1.3645626797687584,0.9125987010236049,1.9928303288736733,0.5987297892570496,-0.791096031665802,-0.125259131193161,-0.5188443660736084,-0.8653326034545898,-0.1323055922985077,0.7618811726570129,-0.2684285044670105,0.21008270978927612
301,1.2770670497610734,0.8696993133598524,2.066124829575124,0.617429256439209,-0.7641350030899048,-0.18675918877124786,0.36554232239723206,-0.27875444293022156,-0.3543138802051544,-0.1839575171470642,-0.5307106375694275,0.04808734357357025
302,1.3184308675875376,0.8769801577118875,1.9188897542629761,0.619219958782196,-0.7688112854957581,-0.1596740037202835,0.4116629660129547,-0.21642979979515076,-0.16096286475658417,-0.10122990608215332,0.5082827210426331,0.23554068803787231
303,1.2954698826800737,0.8577571300507667,1.9733075325768148,0.6294986009597778,-0.7563773393630981,-0.17783403396606445,0.2200787216424942,-0.24284480512142181,-0.1881314218044281,-0.39695465564727783,0.44726473093032837,0.005714893341064453
304,1.3240565303302074,0.8648414522104668,1.870058364287741,0.629112184047699,-0.7609924077987671,-0.1584557592868805,0.40507733821868896,-0.529704213142395,-0.06131930276751518,0.19593048095703125,-0.12581777572631836,-0.362128347158432
305,1.2637361812964312,0.8285986782445386,1.928889486886172,0.6442944407463074,-0.73698490858078,-0.2042987048625946,-1.1147689819335938,-0.5181242823600769,-0.32669422030448914,0.3585437536239624,-0.589339554309845,0.2621905505657196
306,1.1760449472720986,0.812157792364273,1.973631542153096,0.6350265145301819,-0.725773274898529,-0.26456475257873535,0.705989420413971,-0.20644955337047577,0.05348837003111839,0.4022201895713806,-0.08294254541397095,0.40024590492248535
307,1.3598296259328406,0.8424584020310705,1.8231906100070987,0.6508724689483643,-0.7462817430496216,-0.13938647508621216,1.1721796989440918,1.6896241903305054,0.046737298369407654,-0.34999966621398926,0.15665167570114136,-0.002825438976287842
308,1.4912271731576023,0.8852431060798839,1.729475452457123,0.6310982704162598,-0.7740688920021057,-0.05032220110297203,0.11736106872558594,-0.006285299081355333,0.5346801280975342,-0.35878992080688477,0.4443417191505432,0.08045828342437744
309,1.5059060407775182,0.9357020703737308,1.7625520350677282,0.5920050144195557,-0.8050158023834229,-0.03846938535571098,-0.5270015597343445,0.38325512409210205,0.37883850932121277,0.5264948010444641,-0.3152236342430115,-0.3815593123435974
310,1.3729671710386033,0.9444716359154223,1.9180593268196702,0.574738085269928,-0.8101873397827148,-0.11520681530237198,-1.1095415353775024,-0.9456163644790649,-0.10400895774364471,0.6165612936019897,-0.35385990142822266,0.28991997241973877
311,1.263844401063508,0.8875366570755492,2.0599779847852413,0.6018155217170715,-0.7755189538002014,-0.19075743854045868,0.12519022822380066,0.3141840398311615,-0.4418385624885559,-0.1799405813217163,-0.6351103782653809,0.1096111536026001
312,1.309100138120697,0.8914837811846036,1.8981829229783087,0.606867790222168,-0.7780048251152039,-0.16254261136054993,0.5665544867515564,-0.5342085957527161,-0.2908870279788971,-0.007105827331542969,0.4808093309402466,0.13156723976135254
313,1.2536951444153206,0.881289350240548,1.9219344095743263,0.6044402122497559,-0.7715597748756409,-0.1983623504638672,0.17160098254680634,-0.5602043271064758,-0.10440617799758911,-0.44252920150756836,0.4337453842163086,0.1258525848388672
314,1.222836749803994,0.8951597967151584,1.8527881920470655,0.5879145264625549,-0.7803090214729309,-0.2132471203804016,0.48731729388237,-1.0570094585418701,-0.0015557620208710432,0.26543325185775757,-0.1558024287223816,-0.4697820544242859
315,1.1834700452040645,0.8534939962275471,1.9087479527310123,0.608659029006958,-0.7535818219184875,-0.2482920140028,-0.9445865750312805,-0.17451420426368713,-0.36824992299079895,0.19344979524612427,-0.5407451391220093,0.2474069893360138
316,1.1193787637174126,0.8190454592769261,1.9544323689519056,0.6145103573799133,-0.7304942607879639,-0.2979174554347992,0.34892207384109497,-0.24392485618591309,-0.2366415411233902,0.39017391204833984,-0.10309326648712158,0.3242083787918091
317,1.2829102454933865,0.8365690246916031,1.7632977244553583,0.642440140247345,-0.7423486709594727,-0.19023427367210388,1.6396280527114868,1.5130761861801147,-0.09792114049196243,-0.41567927598953247,0.17549997568130493,0.14558710157871246
318,1.4338020621759036,0.868799249511828,1.6926639268049155,0.6396939158439636,-0.7635540962219238,-0.08818676322698593,-0.6705304384231567,0.4416271448135376,0.5238909721374512,-0.33331263065338135,0.40343141555786133,0.034796297550201416
319,1.4616890793420534,0.9237583768303543,1.712873879104392,0.5992411375045776,-0.7978729009628296,-0.06564223766326904,-0.17829012870788574,0.16218748688697815,0.4457002878189087,0.4755726456642151,-0.29104000329971313,-0.47538864612579346
320,1.3365200231560421,0.9305051139259115,1.8898770248062686,0.5811086893081665,-0.8019217848777771,-0.1386866271495819,-0.9626314043998718,-0.49250656366348267,0.0361003577709198,0.5842965245246887,-0.29440683126449585,0.3413081169128418
321,1.2330195747599146,0.8888324528403804,2.0108180771607156,0.5947020053863525,-0.7763363718986511,-0.20888158679008484,-0.14850027859210968,0.2979258894920349,-0.16551168262958527,-0.27658677101135254,-0.5379489064216614,0.08005166053771973
322,1.264325680096111,0.9002165072966817,1.9198349173186418,0.5924839377403259,-0.7834614515304565,-0.18748584389686584,0.1964235007762909,0.21469509601593018,-0.11862634122371674,-0.15339702367782593,0.4706105589866638,0.22471731901168823
323,1.2768150444892505,0.8851120216505067,1.9654626707331873,0.6060370206832886,-0.7739859223365784,-0.18347999453544617,0.11665022373199463,0.19332364201545715,-0.08128071576356888,-0.3599127531051636,0.44670015573501587,-0.012305498123168945
324,1.2974903429272902,0.8982388220856203,1.9190437440808614,0.5998656749725342,-0.7822309136390686,-0.16815471649169922,0.4639947712421417,-0.051187664270401,0.05591515824198723,0.08276677131652832,0.07153761386871338,-0.22781085968017578
325,1.3007722303955427,0.8774824402155593,1.92367798446816,0.6159318685531616,-0.7691323757171631,-0.1704801321029663,-0.920418381690979,-0.2994595170021057,-0.1644061952829361,0.2840162515640259,-0.3566458225250244,-0.1482912302017212
326,1.1729431631448402,0.8406645048298862,2.002267421542122,0.6148743629455566,-0.7450864911079407,-0.25841012597084045,0.48432549834251404,-0.4311063289642334,-0.420817106962204,0.16196590662002563,-0.2043001651763916,0.32615914940834045
327,1.2301739828565723,0.8557395028669714,1.868471085390163,0.6179906129837036,-0.7550559639930725,-0.21903888881206512,1.2384285926818848,0.1175093948841095,-0.0987689420580864,0.03336125612258911,0.11304247379302979,0.29777419567108154
328,1.4538368049967463,0.8813342176232349,1.7371049653087465,0.6317762732505798,-0.7715882658958435,-0.07423104345798492,0.031339630484580994,0.11259498447179794,0.3445914685726166,-0.43016189336776733,0.317990243434906,-0.41514885425567627
329,1.4393587474008713,0.9084700138225263,1.7688263433548528,0.6096486449241638,-0.7885637879371643,-0.08059539645910263,0.03523828834295273,0.6287476420402527,0.3013077974319458,0.033066749572753906,0.0937548279762268,0.09165805578231812
330,1.417068410884586,0.9375784948865171,1.8561566401987435,0.5847634673118591,-0.8061275482177734,-0.0906093642115593,-1.000927448272705,0.35209864377975464,0.2105344980955124,0.34652620553970337,-0.08985322713851929,-0.3246433734893799
331,1.2929680264750256,0.9228906154901945,2.0089677659446123,0.5803748369216919,-0.7973495125770569,-0.16552552580833435,-0.6948513388633728,-0.03950762748718262,-0.14170433580875397,0.11142808198928833,-0.35479581356048584,0.32333189249038696
332,1.2680748443439438,0.903779419272492,2.0185473820968824,0.5905142426490784,-0.7856706380844116,-0.1844298094511032,0.670337975025177,-0.743202269077301,-0.024105817079544067,-0.3001853823661804,-0.22273683547973633,-0.11085830628871918
333,1.2604165058405885,0.9066210156714274,2.0250011718909935,0.5869566202163696,-0.7874253988265991,-0.18826419115066528,-0.7994733452796936,0.33818936347961426,0.00029642507433891296,-0.21856361627578735,0.46769261360168457,0.0836193859577179
334,1.2465127301932568,0.8875762250000304,2.0768039213998333,0.5983899235725403,-0.7755439281463623,-0.2011488974094391,0.11948919296264648,0.2980300784111023,-0.009206653572618961,-0.33250558376312256,0.37657248973846436,-0.10349282622337341
335,1.2813293754547548,0.8847453539424434,2.0015022411268166,0.6071310639381409,-0.7737537026405334,-0.18082328140735626,0.14867998659610748,-0.1434670090675354,-0.35128453373908997,0.23243802785873413,-0.37048763036727905,-0.22776126861572266
336,1.2369431307309366,0.847405285910344,2.0432377313668324,0.6253830790519714,-0.7495654225349426,-0.21690526604652405,-0.8960481882095337,-0.35013559460639954,0.012767888605594635,0.23275601863861084,-0.6943738460540771,0.04222258925437927
337,1.1425015886973438,0.8443885747056022,2.025402854179493,0.6041958332061768,-0.7475651502609253,-0.2758508622646332,0.6310256123542786,-1.1244463920593262,-0.09657225012779236,0.46063870191574097,-0.04891306161880493,0.43580880761146545
338,1.333111494970416,0.8602612091843674,1.870178108753424,0.6339023113250732,-0.7580129504203796,-0.15357187390327454,1.1512120962142944,1.8320258855819702,-0.18409205973148346,-0.33019137382507324,0.21312159299850464,-0.047691524028778076
339,1.4219490815458866,0.8831121095171294,1.8772738544756908,0.6277309656143188,-0.7727180123329163,-0.09413222968578339,-0.68015456199646,0.42272743582725525,0.4922192096710205,-0.39559900760650635,0.42136913537979126,0.11901932954788208
340,1.4629707182440375,0.9276079723489472,1.9163731418333714,0.5962668061256409,-0.8001875877380371,-0.06454315781593323,-0.3075823485851288,0.8444541692733765,0.4276094436645508,0.37335294485092163,-0.23635715246200562,-0.2790847420692444
341,1.3990116962525414,0.9518495611000775,2.0333459858664087,0.5716381669044495,-0.8144899606704712,-0.09917613118886948,-0.5658987164497375,-0.532134473323822,0.050522301346063614,0.716920793056488,-0.21065646409988403,-0.015585236251354218
342,1.2994613220566027,0.9199831779583253,2.073390607465903,0.5836687088012695,-0.795591413974762,-0.16237424314022064,-0.21782773733139038,-0.4917541742324829,-0.43425023555755615,-0.16142743825912476,-0.3944721221923828,0.28285765647888184
343,1.3233492958945734,0.9105805722688656,2.0086899767409325,0.5946069955825806,-0.78985995054245,-0.1502121537923813,0.8030886054039001,-0.38003304600715637,-0.09116886556148529,-0.10751599073410034,0.2648050785064697,0.0401809960603714
344,1.3276105323689462,0.901883305591087,2.024306039600651,0.6018868684768677,-0.7844961881637573,-0.1493256837129593,-0.2990957796573639,0.2844807505607605,-0.1284433752298355,-0.4258003830909729,0.46305447816848755,0.08804641664028168
345,1.3961006298553067,0.9067149833897613,1.9489857543245919,0.6069550514221191,-0.7874833345413208,-0.10712441802024841,1.269087791442871,0.02290380746126175,-0.033346280455589294,-0.14250802993774414,0.0790940523147583,-0.2168043851852417
346,1.4515784411463135,0.8947621324423636,1.875635743605034,0.6212630867958069,-0.7800602912902832,-0.0744185745716095,-0.34550559520721436,0.07720724493265152,-0.34352967143058777,0.20268100500106812,-0.2439875602722168,-0.2774338126182556
347,1.2962750600428345,0.8723873454029397,1.9887847917539405,0.618922770023346,-0.7658661603927612,-0.17430835962295532,0.16765040159225464,-1.5382007360458374,0.003476899117231369,0.20540273189544678,-0.3419218063354492,0.08571584522724152
348,1.2877652776038868,0.8920822982586232,1.9261069372449957,0.602814793586731,-0.7783806920051575,-0.17532198131084442,0.8584445714950562,0.5440967679023743,0.03908563032746315,-0.07232785224914551,0.27043086290359497,0.3213791251182556
349,1.5644907533789085,0.907193302922517,1.7240336117937405,0.6159470081329346,-0.7877780199050903,-0.003883950412273407,0.4202105700969696,0.9490639567375183,0.22170479595661163,-0.48664402961730957,0.35097992420196533,-0.2662423849105835
350,1.5398248422872796,0.9374635358485991,1.7660691002017537,0.5915504097938538,-0.8060595393180847,-0.018327055498957634,-0.13240870833396912,0.25548091530799866,0.37818098068237305,0.1714499592781067,0.10804629325866699,0.19069033861160278
351,1.5199543544975402,0.9650964661263512,1.8894984678024547,0.5686017870903015,-0.8221038579940796,-0.028933770954608917,-0.8797833919525146,-0.060633786022663116,0.0964391902089119,0.5386979579925537,-0.16309505701065063,-0.7060210704803467
352,1.332673989096209,0.9210324510860219,2.0606886357633116,0.5879270434379578,-0.7962266802787781,-0.14270606637001038,-0.7230885028839111,0.01650562696158886,-0.6162520051002502,-0.10581034421920776,-0.2996137738227844,0.46024149656295776
353,1.343196289606975,0.8937170894506915,2.015727110134628,0.610361635684967,-0.779405951499939,-0.1413678377866745,1.05442214012146,-1.1826225519180298,0.008302642032504082,-0.23885595798492432,0.12022638320922852,0.023737803101539612
354,1.3399879184402492,0.8998308583250988,1.9587732452306446,0.605255126953125,-0.7832217812538147,-0.14223268628120422,-0.4146369695663452,0.12743499875068665,-0.040201231837272644,-0.3499144911766052,0.5007051229476929,0.03127078711986542
355,1.3512600186633386,0.8920642545043388,1.9437010311242966,0.6127384305000305,-0.7783693671226501,-0.1367219239473343,0.30459070205688477,-0.31380176544189453,0.0596529021859169,-0.24034768342971802,0.15036338567733765,-0.1835142970085144
356,1.3325223147481333,0.884777374448395,1.8994183204308497,0.6155644059181213,-0.7737739682197571,-0.14951328933238983,-0.22121229767799377,-0.4064224660396576,-0.29097145795822144,0.1958826780319214,-0.35320961475372314,-0.6126327514648438
357,1.2145444506310215,0.8406446755069565,2.0218950786169607,0.6251033544540405,-0.7450732588768005,-0.2326195240020752,0.18447628617286682,-1.2649385929107666,-0.3211163282394409,0.25531357526779175,-0.29977238178253174,0.08398362994194031
358,1.2283629970617087,0.8435895248029693,1.8961264755433618,0.6261883974075317,-0.7470341920852661,-0.2232218086719513,0.9265159964561462,0.383159875869751,-0.1689196079969406,-0.05563175678253174,0.1848393678665161,0.2658090591430664
359,1.4758091558974966,0.8559756011057557,1.706625881992476,0.6525272130966187,-0.7552107572555542,-0.062168799340724945,0.9505050182342529,1.3794695138931274,0.06346330046653748,-0.42021214962005615,0.2682112455368042,-0.15891575813293457
360,1.5195376669892948,0.9072756730110578,1.719193886455679,0.6150854825973511,-0.7878287434577942,-0.03155609965324402,-0.28454068303108215,0.019740553572773933,0.6877375841140747,0.057781338691711426,0.2106192708015442,0.1237955093383789
361,1.487587675771551,0.9631100166820294,1.849107234293757,0.5689943432807922,-0.8209712505340576,-0.047454822808504105,-0.7238926887512207,0.4694420099258423,0.31933218240737915,0.44135117530822754,-0.15099847316741943,-0.7064971923828125
362,1.30480068486275,0.9394339490658724,2.0874992838031274,0.5694867372512817,-0.8072240948677063,-0.1551576852798462,-0.9517356157302856,0.9648971557617188,-0.5164656043052673,0.031755268573760986,-0.35548025369644165,0.4105440676212311
363,1.3869751094006069,0.913838117474913,2.004226405318837,0.6004219651222229,-0.7918535470962524,-0.11163048446178436,1.443821668624878,-0.9222643971443176,0.007272479590028524,-0.22464382648468018,0.25793325901031494,0.020443975925445557
364,1.4190117655172607,0.9196941529297982,1.9010090472569803,0.599095344543457,-0.7954162955284119,-0.0916382446885109,-0.31910786032676697,-0.1035628616809845,0.06466671824455261,-0.3082323670387268,0.49881601333618164,0.014489836990833282
365,1.4107882780917447,0.9170171107248164,1.8652550436233928,0.6004214882850647,-0.7937909960746765,-0.09690064936876297,0.4704516530036926,-0.2479550540447235,0.13022947311401367,-0.2344089150428772,0.039762794971466064,-0.21628598868846893
366,1.3717880278817745,0.9014126448238039,1.8753868638162636,0.6082560420036316,-0.7842042446136475,-0.12267173826694489,-0.8800075054168701,0.2135809063911438,-0.48331204056739807,0.41104626655578613,-0.23421311378479004,-0.25277072191238403
367,1.2290750332659184,0.8680520901059224,2.0051099916603996,0.6089439988136292,-0.7630714178085327,-0.21658599376678467,0.3418232202529907,-0.6854992508888245,-0.027653781697154045,0.09282302856445312,-0.25722289085388184,0.4770229756832123
368,1.321153259319748,0.8932395372799806,1.858179690939755,0.6074581146240234,-0.7791066765785217,-0.15487858653068542,1.5052295923233032,0.9796090722084045,-0.15470761060714722,-0.2430019974708557,0.2465749979019165,0.13200564682483673
369,1.5515612288334037,0.9158705663521578,1.7254675102687895,0.6089876294136047,-0.7930931448936462,-0.011715381406247616,-0.550901472568512,0.10497161746025085,0.2233959585428238,-0.4399508237838745,0.598177433013916,-0.23260831832885742
370,1.538657412431094,0.9543764333824153,1.7789680368201592,0.5778194069862366,-0.8159534335136414,-0.018576884642243385,-0.0743713527917862,0.5739913582801819,0.333023339509964,0.304932177066803,-0.17888927459716797,-0.03022068925201893
371,1.4621027719008262,0.9798938791099855,1.9133260876626572,0.5538231730461121,-0.8304382562637329,-0.06043519824743271,-1.1220711469650269,-0.6950709223747253,0.12619175016880035,0.6353248357772827,-0.29376840591430664,0.013132922351360321
372,1.3066315500049726,0.9288758681107612,2.1056363202179185,0.5779651999473572,-0.800947368144989,-0.15633150935173035,-0.36764970421791077,0.2730364501476288,-0.6534007787704468,-0.18698924779891968,-0.465593159198761,0.28301000595092773
373,1.3440359499014387,0.9181497484254834,2.0062315376892643,0.5917443037033081,-0.7944793105125427,-0.13653239607810974,1.3059072494506836,-0.8977012038230896,-0.19148719310760498,-0.24024289846420288,0.3848114609718323,0.07066018879413605
374,1.3964658757077926,0.9117999799458574,1.8925541474465388,0.6030428409576416,-0.790607213973999,-0.10620682686567307,-0.34892982244491577,-0.024376317858695984,-0.10701671242713928,-0.3926545977592468,0.5706821084022522,-0.007135465741157532
375,1.3177667918343416,0.9057178727860307,1.9341768374220918,0.5974709391593933,-0.7868683934211731,-0.1544889509677887,0.1845962107181549,-0.7270374298095703,0.19103263318538666,-0.05755394697189331,-0.15968012809753418,-0.2573763132095337
376,1.2730320287697785,0.8779028109414345,1.9577960493913622,0.610657274723053,-0.769400954246521,-0.1874035745859146,-1.0728647708892822,0.17507168650627136,-0.3087908923625946,0.2974848747253418,-0.14420390129089355,-0.4304095506668091
377,1.1176230500034594,0.820645996689594,2.1299083573275306,0.612934410572052,-0.7315863966941833,-0.29848363995552063,0.3342365026473999,-0.4800146520137787,-0.23010630905628204,0.23655277490615845,-0.20522695779800415,0.21976354718208313
378,1.203589747602848,0.8400352330339617,2.002851683473252,0.6229411959648132,-0.7446666359901428,-0.23961617052555084,1.2391269207000732,0.535661518573761,-0.20902661979198456,-0.30862540006637573,0.2967754602432251,0.11850716173648834
379,1.415440767731436,0.8520692928349369,1.8336545167618699,0.6504974961280823,-0.7526444792747498,-0.10187935829162598,0.1238195076584816,1.3189265727996826,0.24902382493019104,-0.4390259385108948,0.2836502194404602,-0.06377007067203522
380,1.4539829313360781,0.9097682654450827,1.867272352284809,0.6097447872161865,-0.7893614768981934,-0.0715521052479744,0.3660082221031189,0.0021439092233777046,0.49409961700439453,0.3967706561088562,-0.08917850255966187,-0.16964352130889893
381,1.3989763274223905,0.9425785865138124,1.999320623701502,0.5790499448776245,-0.8090762495994568,-0.10048314183950424,-1.5400651693344116,0.156069815158844,0.38690459728240967,0.512975811958313,-0.4762631058692932,0.08932900428771973
382,1.2868437500059389,0.89489734114906,2.2511730941644124,0.6005474328994751,-0.7801448702812195,-0.1752629280090332,-0.30552908778190613,1.0636448860168457,-0.5006617903709412,-0.2900004982948303,-0.5258244872093201,0.1880650371313095
383,1.3325944132438512,0.8884327498142731,2.1079220348028938,0.612822413444519,-0.7760843634605408,-0.14880049228668213,0.9951687455177307,-0.7254679203033447,-0.3228552043437958,-0.05129903554916382,0.39762067794799805,0.08506454527378082
384,1.2730625232715538,0.8678684391961301,2.129834505905067,0.6180127859115601,-0.7629526853561401,-0.18964028358459473,-0.46534568071365356,-0.5006281137466431,-0.1876411736011505,-0.36523568630218506,0.5210551023483276,0.08807778358459473
385,1.2670492531941182,0.855296459710159,2.069302589283335,0.6259650588035583,-0.7547654509544373,-0.19620664417743683,0.6803626418113708,-1.0109484195709229,-0.12487908452749252,-0.10634225606918335,0.02657020092010498,-0.33028262853622437
386,1.2165515587155897,0.825079493783364,2.0881589269977825,0.6363698244094849,-0.7346017360687256,-0.2353590577840805,-1.1694731712341309,0.4350493848323822,-0.15060357749462128,0.2444896101951599,-0.5551627278327942,-0.1603013575077057
387,1.1184596970903513,0.782617169986544,2.181209035725743,0.6377579569816589,-0.7051376104354858,-0.30991223454475403,0.014246298000216484,-0.36008796095848083,-0.11982665210962296,0.329237163066864,-0.07965236902236938,0.5079102516174316
388,1.255107195007072,0.8098046378163483,2.0349971696538347,0.6555596590042114,-0.7241524457931519,-0.21411359310150146,1.5923393964767456,0.8744920492172241,-0.09943569451570511,-0.3437616229057312,0.20652860403060913,0.06968918442726135
389,1.483258335752995,0.8418960510777259,1.8314465086229652,0.6634992361068726,-0.7459073066711426,-0.0582302063703537,0.02391933649778366,0.24166229367256165,0.14837601780891418,-0.32405227422714233,0.33153975009918213,-0.11695592850446701
390,1.48343255791258,0.9017782398370847,1.861837889429405,0.6178504824638367,-0.7844310402870178,-0.05411549657583237,0.8956220746040344,-0.0026725302450358868,0.44723913073539734,0.3676077723503113,-0.0453571081161499,-0.20442938804626465
391,1.416382605915799,0.9293154337717355,1.9892837892423074,0.5912628769874573,-0.8012105226516724,-0.09203172475099564,-1.370600938796997,-0.40427055954933167,0.2246895581483841,0.6015928983688354,-0.43687230348587036,0.15399765968322754
392,1.2896352054850808,0.8909161734980221,2.160516569531182,0.6040132641792297,-0.7776480913162231,-0.1744462102651596,0.001284956932067871,0.061714138835668564,-0.351784348487854,-0.25109273195266724,-0.5361489057540894,0.1352616548538208
393,1.308674491613464,0.8914838597002006,2.1028547939851747,0.6067983508110046,-0.7780048251152039,-0.1628008633852005,0.18562902510166168,-0.04087047651410103,-0.1513330340385437,-0.054460763931274414,0.4417470097541809,0.110203817486763
394,1.2898790640150952,0.884932375640084,2.102007615133731,0.6085158586502075,-0.7738721370697021,-0.17558585107326508,0.18748901784420013,-0.49458175897598267,-0.0883474349975586,-0.46399986743927,0.5251691341400146,0.05530083179473877
395,1.2749312933564012,0.8846948241633965,1.9966674823391302,0.6059991121292114,-0.7737216949462891,-0.1847154200077057,0.2416602224111557,-1.4397867918014526,-0.21716192364692688,0.1487310528755188,-0.24121659994125366,-0.3800276517868042
396,1.2142803283803711,0.8262625267194533,2.0599622156040494,0.6350185871124268,-0.7354038953781128,-0.23650024831295013,-1.7415755987167358,-0.11585616320371628,-0.2523888051509857,0.21730679273605347,-0.7380610108375549,0.19621707499027252
397,1.1210191319451777,0.8020782949969354,2.0665560837388646,0.6260711550712585,-0.7188025116920471,-0.3022548258304596,0.8437263369560242,-0.6279194951057434,-0.21597439050674438,0.35017091035842896,0.08870607614517212,0.4804774522781372
398,1.3151126374691198,0.831642845704653,1.8899653459279246,0.6517623662948608,-0.7390390634536743,-0.17037397623062134,1.4276647567749023,1.1474374532699585,-0.167270228266716,-0.39427024126052856,0.14602142572402954,-0.020238831639289856
399,1.4180747817566577,0.8621458117549009,1.8446462889179247,0.6432349681854248,-0.7592408061027527,-0.0990067794919014,-0.33033487200737,0.2617981433868408,0.5645086169242859,-0.34767216444015503,0.3743835687637329,0.1059952825307846
400,1.4623475109933597,0.9157040206805992,1.8557802789712385,0.6056536436080933,-0.7929916977882385,-0.06594113260507584,-0.5341571569442749,0.8701057434082031,0.41834279894828796,0.6894056797027588,-0.3518601655960083,-0.5344769358634949
401,1.3322824562137892,0.932506685366403,2.0149130877312973,0.578954815864563,-0.8031160235404968,-0.14076831936836243,-1.051274299621582,-0.6969107389450073,0.03708026930689812,0.6382997035980225,-0.1206357479095459,0.4634764790534973
402,1.248539611246178,0.87449615685034,2.1348889460007365,0.6083671450614929,-0.7672204375267029,-0.20313124358654022,0.08851904422044754,0.6720167994499207,-0.5652252435684204,-0.19888228178024292,-0.4970617890357971,0.18651443719863892
403,1.3174490462474042,0.8729606093033256,1.9817779884505333,0.6220495700836182,-0.7662346363067627,-0.16105516254901886,0.08941125124692917,-0.5787091255187988,-0.20185180008411407,-0.06052619218826294,0.44473201036453247,0.05219896137714386
404,1.259069670574673,0.8534280134683794,2.011913331213577,0.6257205605506897,-0.7535384297370911,-0.2016274333000183,0.3870483636856079,-0.4069891571998596,-0.22892208397388458,-0.4263034462928772,0.42605429887771606,0.10206389427185059
405,1.2389627663830582,0.8592774117110613,1.9098130417743195,0.6173624396324158,-0.7573709487915039,-0.21272756159305573,0.6681129336357117,-1.1741613149642944,-0.15097899734973907,0.302986741065979,-0.22918617725372314,-0.29947951436042786
406,1.199464622615488,0.8274620291819175,1.9641422077652007,0.630622923374176,-0.7362161874771118,-0.24556204676628113,-1.5877081155776978,-0.31672829389572144,-0.08473259955644608,0.33066558837890625,-0.6239675879478455,0.26982352137565613
407,1.1284254258314803,0.8098855351456932,2.0069607178736004,0.623201847076416,-0.7242082357406616,-0.29519835114479065,0.721019983291626,-0.386678546667099,-0.1651318222284317,0.322690486907959,0.015498518943786621,0.29895204305648804
408,1.3104515570200106,0.8416308403619591,1.812757595103881,0.6437956690788269,-0.7457306385040283,-0.17150120437145233,1.6431419849395752,1.0629775524139404,-0.14143623411655426,-0.34928590059280396,0.2094300389289856,0.01464088261127472
409,1.4727084146540284,0.8768563705034828,1.697800662759299,0.6364967823028564,-0.7687321305274963,-0.06263364106416702,-0.08388970047235489,0.514188826084137,0.5191088318824768,-0.37703633308410645,0.40278053283691406,0.06942379474639893
410,1.523994858386427,0.9334597715898368,1.6842259714933014,0.5944055318832397,-0.8036835193634033,-0.027839381247758865,-0.3683645725250244,0.636194109916687,0.37423476576805115,0.6876226663589478,-0.3931853771209717,-0.4825823903083801
411,1.367970944387657,0.9443669139701831,1.9068569946142357,0.5742384791374207,-0.8101259469985962,-0.11809398233890533,-1.784548282623291,-0.047774214297533035,-0.03537137061357498,0.47713786363601685,-0.3284543752670288,0.5567994117736816
412,1.309889147281603,0.8955866287255162,2.0086547834477844,0.6039065718650818,-0.7805758714675903,-0.1612389087677002,0.522738516330719,-0.4918665289878845,-0.25721490383148193,-0.24920082092285156,-0.3549830913543701,-0.04156564176082611
413,1.3345419998431227,0.8985135287433076,1.8685126981016607,0.6054741740226746,-0.7824020385742188,-0.14576810598373413,0.5670283436775208,-0.6361449360847473,-0.24302272498607635,-0.2516533136367798,0.4345930814743042,0.025879785418510437
414,1.2896954363424205,0.8832652790161408,1.8680686845800885,0.6097222566604614,-0.7728152275085449,-0.17605523765087128,-0.15943312644958496,-0.27467742562294006,-0.05114670470356941,-0.2927666902542114,0.3235354423522949,0.04363948106765747
415,1.2624095816579555,0.8928660042409042,1.8129895145820794,0.5975947380065918,-0.7788724303245544,-0.1903635710477829,0.011065431870520115,-0.44719937443733215,-0.25947681069374084,0.3760838508605957,-0.2607545852661133,-0.3887990117073059
416,1.134881988817242,0.8277234111669207,1.956263615495505,0.613285481929779,-0.7363930344581604,-0.2856677174568176,-1.2695844173431396,-0.6442075967788696,-0.15237639844417572,0.5190844535827637,-0.8650015592575073,0.24079161882400513
417,1.120491803245017,0.8243027364275761,1.9343728058041136,0.6113756895065308,-0.7340744733810425,-0.29555779695510864,0.9124979376792908,0.10148356854915619,-0.14871615171432495,0.13992130756378174,0.12999427318572998,0.26450616121292114
418,1.3625736320343491,0.8519207074661777,1.7447809295480041,0.6443145871162415,-0.7525466680526733,-0.136134073138237,1.2308368682861328,1.5996795892715454,0.03968849033117294,-0.5653350949287415,0.2381575107574463,-0.059987202286720276
419,1.4685831360305102,0.8922701933532688,1.6830833280274784,0.6243703961372375,-0.778498649597168,-0.06404207646846771,0.2081248164176941,0.4736129343509674,0.5569033026695251,-0.18775546550750732,0.34476757049560547,0.0956583023071289
420,1.4845753879706225,0.9519388019776461,1.6975643297571645,0.5779499411582947,-0.814541757106781,-0.04995523765683174,-1.1788947582244873,0.5089620351791382,0.5521133542060852,0.5479044914245605,-0.1651182770729065,-0.7784749269485474
421,1.288009415994936,0.9358818082591209,1.9392911408406428,0.569551408290863,-0.8051223754882812,-0.16549688577651978,-0.9927906394004822,-0.21290738880634308,-0.506246030330658,0.11096006631851196,-0.23197174072265625,0.4089966416358948
422,1.279969587505168,0.8878596246082722,1.9338147487731574,0.6045732498168945,-0.7757228016853333,-0.1809568554162979,0.9156001806259155,-0.9984555840492249,-0.1588720977306366,-0.32976245880126953,-0.27197617292404175,-0.07420063018798828
423,1.2768266859768653,0.9013981412555998,1.8154476096822827,0.5938948392868042,-0.7841952443122864,-0.17979636788368225,-0.05528956651687622,-0.41836923360824585,-0.18505436182022095,-0.258384644985199,0.5354160070419312,0.12636007368564606
424,1.2684344659704845,0.8776813609937207,1.8077658411273994,0.6099516153335571,-0.769259512424469,-0.19025978446006775,0.2915419340133667,0.2029241919517517,-0.3017318546772003,-0.26769697666168213,0.325961172580719,0.03481847047805786
425,1.310963879131564,0.8746478930140077,1.704518184598739,0.6197417974472046,-0.7673177719116211,-0.1647534817457199,0.17649443447589874,0.1536037176847458,-0.35034677386283875,0.3418518304824829,-0.19871622323989868,-0.3206438422203064
426,1.1973605984053182,0.8195394003049853,1.828081065654426,0.6355156302452087,-0.730831503868103,-0.2490083873271942,-1.1348059177398682,-0.8279874324798584,-0.0842447429895401,0.34844744205474854,-0.5976138710975647,0.034561336040496826
427,1.1509246089146057,0.8176536370008257,1.7904524226603893,0.6245291233062744,-0.7295430898666382,-0.27880147099494934,1.1545456647872925,0.1113814264535904,-0.15182317793369293,0.11048668622970581,0.09309905767440796,0.40731099247932434
428,1.3786677387621447,0.8484358961956376,1.5408273714148937,0.6489923000335693,-0.7502471804618835,-0.12624721229076385,2.0519959926605225,1.3512715101242065,-0.2228238880634308,-0.5043999552726746,0.29770195484161377,0.0017049163579940796
429,1.5168572976600152,0.8952255135774061,1.4727491437802325,0.6244333982467651,-0.7803501486778259,-0.03371403366327286,-0.42954152822494507,0.4344339370727539,0.6017820835113525,-0.14138591289520264,0.37147557735443115,-0.013252556324005127
430,1.5242594342796936,0.9520465744443886,1.52552745320055,0.579389214515686,-0.8146042823791504,-0.02698245458304882,-1.0833323001861572,0.5766236782073975,0.4161930978298187,0.6096824407577515,-0.2534956932067871,-0.7112530469894409
431,1.2986847923230533,0.946288383600377,1.7477221178511713,0.5631844997406006,-0.8112509250640869,-0.15714691579341888,-0.9833013415336609,-0.33240827918052673,-0.21895332634449005,0.3469107151031494,-0.3039224147796631,0.4561581015586853
432,1.2543154057074388,0.8876545914884264,1.8168295649415322,0.5998836755752563,-0.7755934000015259,-0.1964549422264099,0.1889871060848236,-0.3610782027244568,-0.24669650197029114,-0.23927271366119385,-0.12748277187347412,0.03487962484359741
433,1.2533697707854947,0.8807500705956938,1.741671795890039,0.6047708988189697,-0.7712165713310242,-0.19868887960910797,0.0920247733592987,-0.36507993936538696,-0.235182985663414,-0.3838083744049072,0.5610877871513367,0.15745961666107178
434,1.261056865399479,0.8586765704649814,1.7619195680567505,0.6223447322845459,-0.756978452205658,-0.1991753727197647,-0.19995419681072235,0.48426005244255066,0.006167469546198845,-0.2732388377189636,0.2453053593635559,-0.03855660557746887
435,1.2547709145865218,0.8823499332558109,1.7149775098226847,0.6038750410079956,-0.7722340226173401,-0.19745753705501556,0.024194864556193352,-0.15527133643627167,-0.2803483307361603,0.4245520234107971,-0.18462932109832764,-0.43726229667663574
436,1.1443954822514921,0.8155563007956035,1.849788535915979,0.6240873336791992,-0.7281070351600647,-0.2835054099559784,-1.707169771194458,-0.1448162943124771,-0.2637091875076294,0.44599634408950806,-0.6258969306945801,0.1982392966747284
437,1.144864448935908,0.8032372791178539,1.845057233680849,0.6323407292366028,-0.7196077704429626,-0.28689703345298767,1.1974201202392578,-0.08661161363124847,-0.17565977573394775,0.19581478834152222,-0.06428200006484985,0.24121224880218506
438,1.3624293200558868,0.8407308100030831,1.620204688758544,0.6524931788444519,-0.745130717754364,-0.13796044886112213,1.7263721227645874,0.9179006218910217,-0.10607423633337021,-0.44643843173980713,0.322157084941864,-0.06035804748535156
439,1.4563659452994695,0.8803507148307598,1.5687637553471736,0.6327157020568848,-0.7709622979164124,-0.07271958142518997,-0.39292559027671814,0.34028199315071106,0.77126544713974,-0.288874089717865,0.3411983847618103,0.06478499621152878
440,1.454199588572092,0.9281081613810083,1.592148433842105,0.5952798128128052,-0.8004875183105469,-0.0697239339351654,-1.320649266242981,0.7895795106887817,0.41066789627075195,0.3908956050872803,-0.19638431072235107,-0.6097347140312195
441,1.3061973029629381,0.9240424144089545,1.8099413871336143,0.5816271305084229,-0.7980440855026245,-0.15759310126304626,-1.1836799383163452,-0.042887721210718155,-0.23097319900989532,0.40518927574157715,-0.334142804145813,0.3957064747810364
442,1.2910185944202153,0.8823973403972147,1.8729623005449616,0.6105990409851074,-0.7722641229629517,-0.1754334568977356,0.6417990922927856,-0.7269922494888306,-0.15431079268455505,-0.3376803994178772,-0.31782370805740356,-0.1284147948026657
443,1.2982773245742347,0.8928448405880977,1.766290256365495,0.6040525436401367,-0.7788591980934143,-0.1688157618045807,0.11011499166488647,-0.565420925617218,-0.05984792858362198,-0.2971983551979065,0.5091449022293091,0.119484081864357
444,1.235109665690233,0.8821994685409267,1.7984224161480875,0.5999859571456909,-0.7721384167671204,-0.20932979881763458,0.10557489097118378,-0.4371994733810425,-0.01839025877416134,-0.2636823058128357,0.3010386824607849,0.035684794187545776
445,1.255466846319525,0.8873947312493167,1.660953472867927,0.6003010869026184,-0.7754293084144592,-0.19582659006118774,0.43090519309043884,-0.34157508611679077,-0.59959477186203,0.3343760371208191,-0.22913306951522827,-0.34009259939193726
446,1.207452806394227,0.8313233829413182,1.784750740442266,0.6299023032188416,-0.7388238310813904,-0.23950454592704773,-1.6269649267196655,0.17435762286186218,-0.006615986581891775,0.41636234521865845,-0.7130804657936096,-0.03831225633621216
447,1.163082847585411,0.8181110514114517,1.7960829637368139,0.6275662183761597,-0.7298558354377747,-0.27105554938316345,1.021536111831665,-0.803798258304596,-0.3136172890663147,0.23530304431915283,-0.04855602979660034,0.39697110652923584
448,1.3010245996802805,0.8323523058929095,1.5970448237970074,0.6487918496131897,-0.7395168542861938,-0.17939898371696472,1.4241056442260742,1.0524002313613892,-0.3997575640678406,-0.3437533974647522,0.34024012088775635,0.06121969223022461
449,1.469632804360837,0.8502565026838608,1.5312179128715286,0.6564172506332397,-0.7514496445655823,-0.066632941365242,-0.44301876425743103,0.4980646073818207,0.46348458528518677,-0.37074214220046997,0.273162841796875,0.01751493662595749
450,1.5246610100220561,0.9023034796277034,1.514179537335564,0.6191443800926208,-0.7847567200660706,-0.028584705665707588,-0.39172035455703735,0.7665692567825317,0.41153261065483093,0.7415885925292969,-0.33560454845428467,-0.5484569072723389
451,1.3986905022848306,0.9188963736140973,1.6688047142913112,0.5977346301078796,-0.7949325442314148,-0.10390151292085648,-0.965266764163971,-0.7748480439186096,-0.13132460415363312,0.5048196911811829,-0.1116684079170227,0.3524061441421509
452,1.2882470808890998,0.8765579242161585,1.7982001817043827,0.6144307255744934,-0.7685412168502808,-0.17837931215763092,-0.2807071805000305,0.41817206144332886,-0.2821183502674103,-0.23955285549163818,-0.31368833780288696,0.13890482485294342
453,1.29123444708377,0.8797371897392904,1.7367312375995947,0.6126094460487366,-0.7705714106559753,-0.1758679449558258,0.2759632468223572,-0.8822625279426575,0.008043150417506695,-0.2783045768737793,0.40608471632003784,0.1079511046409607
454,1.2124421651412924,0.8755650575318652,1.760171214657621,0.5998715162277222,-0.767905592918396,-0.22466687858104706,0.04784545674920082,-0.18054108321666718,0.027965955436229706,-0.22342193126678467,0.419700026512146,0.04226332902908325
455,1.2635687019961546,0.8963547362376231,1.6724202166075497,0.5952213406562805,-0.781055748462677,-0.1888478696346283,0.7103133201599121,-0.7121092081069946,-0.20902223885059357,0.328011691570282,-0.188487708568573,-0.4871317148208618
456,1.2171396509809738,0.8584998813291185,1.7590965538152041,0.6131256222724915,-0.756862998008728,-0.22635246813297272,-1.59316086769104,-0.42847469449043274,-0.17049305140972137,0.31683653593063354,-0.6433598399162292,0.06506705284118652
457,1.1373901573686551,0.8369061068586751,1.8036637888833882,0.6078375577926636,-0.7425745129585266,-0.2812768816947937,0.5829308032989502,-0.2326081246137619,-0.13266286253929138,0.2732964754104614,-0.03229731321334839,0.4338952898979187
458,1.245895735340448,0.8542824770141166,1.6674877412663562,0.6223998069763184,-0.7540998458862305,-0.20964732766151428,1.2369084358215332,0.38265883922576904,-0.23985780775547028,-0.29577016830444336,0.30935192108154297,0.1444159746170044
459,1.4582494092563152,0.8581793715934658,1.4889706501026392,0.6496796011924744,-0.7566534876823425,-0.07342973351478577,0.0933171883225441,0.6096901297569275,0.21007850766181946,-0.39116519689559937,0.44450438022613525,0.020680129528045654
460,1.4588215256978654,0.9160566743971136,1.5246061103526163,0.6051390171051025,-0.793206512928009,-0.06804495304822922,-0.035145021975040436,-0.19117262959480286,0.7318921685218811,0.6893708109855652,-0.5830446481704712,-0.4269959330558777
461,1.4260796386098114,0.9573299742944941,1.5990559845652124,0.5696870684623718,-0.8176573514938354,-0.08302362263202667,-1.0626463890075684,-0.2482929229736328,0.19015106558799744,0.7481991648674011,0.047424256801605225,0.07037413865327835
462,1.2869791047231056,0.9136222714210271,1.695028204282508,0.5864428877830505,-0.7917217016220093,-0.17106054723262787,-0.31520766019821167,-0.26425328850746155,-0.45315027236938477,-0.09871089458465576,-0.4043538570404053,0.37772560119628906
463,1.2633362544824838,0.8928986286346237,1.7088710972203955,0.5977466702461243,-0.7788929343223572,-0.18980203568935394,0.4987073838710785,-0.5907109379768372,0.06234653294086456,-0.33209115266799927,0.3506244421005249,0.04533177614212036
464,1.247543395206392,0.8981356765193631,1.631151817437991,0.5907986164093018,-0.7821666598320007,-0.1979195922613144,-0.02046806737780571,-0.2287183403968811,-0.05672653764486313,-0.36664706468582153,0.508103609085083,0.20536591112613678
465,1.2826173749761898,0.9153275312557404,1.6063286110412738,0.5843958854675293,-0.792762279510498,-0.17323285341262817,1.531839370727539,-0.6422863602638245,0.017346680164337158,0.2463078498840332,-0.12128502130508423,-0.4739381670951843
466,1.3409520718382104,0.8736966556028045,1.526909996273018,0.6251134276390076,-0.7667074203491211,-0.1462634652853012,-1.9919350147247314,0.27833595871925354,-0.4381810128688812,0.14798837900161743,-0.5651865601539612,-0.1275249719619751
467,1.1739687089436255,0.8091914176174042,1.7637706926106296,0.6364584565162659,-0.7237294316291809,-0.2667135000228882,-0.150813490152359,-0.7161838412284851,0.04273037612438202,0.07408219575881958,-0.22892248630523682,0.40804043412208557
468,1.2488099693236165,0.846256350659725,1.616154922966678,0.6287292838096619,-0.7488043904304504,-0.20974117517471313,1.450081706047058,0.2809921205043793,0.06537280976772308,-0.27829599380493164,0.3554786443710327,0.16979368031024933
469,1.4736733745155979,0.8714892331387074,1.3573139128683704,0.6406541466712952,-0.7652884125709534,-0.062418609857559204,1.6028202772140503,0.7817783355712891,-0.2906915247440338,-0.31696945428848267,0.4847402572631836,-0.056340575218200684
470,1.5302329250236821,0.9064245863813056,1.3510026456193773,0.616057276725769,-0.7873042821884155,-0.025003094226121902,-0.5666168332099915,0.21232706308364868,0.5107243061065674,0.5104227066040039,-0.4390444755554199,-0.3089812994003296
471,1.5132179719525323,0.9484146753650177,1.4444887934580504,0.5820056796073914,-0.812492311000824,-0.033548012375831604,-1.2200309038162231,-0.787272036075592,0.29976990818977356,0.6941173076629639,-0.18016809225082397,0.08875429630279541
472,1.3121839943893208,0.9046145923220013,1.6379042948879676,0.5974379181861877,-0.7861870527267456,-0.1580439656972885,-1.1539416313171387,0.34673961997032166,-0.43039804697036743,-0.17444908618927002,-0.3779670000076294,0.4054957628250122
473,1.3227167138429787,0.8759291977362845,1.6442743960560038,0.620681643486023,-0.7681387662887573,-0.15721701085567474,0.6804467439651489,-0.7089918851852417,-0.014137317426502705,-0.35374438762664795,0.3002738356590271,0.016454637050628662
474,1.3273752657554292,0.8804225352277725,1.556839211185487,0.6180513501167297,-0.7710080146789551,-0.15349039435386658,0.15370085835456848,0.18765902519226074,0.04723062366247177,-0.36586934328079224,0.4581723213195801,0.17953717708587646
475,1.3525070545295377,0.8996494450225395,1.4894543763816979,0.6071268916130066,-0.7831089496612549,-0.13467521965503693,0.8098123073577881,-1.8475234508514404,-0.11688926070928574,0.2506306767463684,-0.15349090099334717,-0.5492084622383118
476,1.304716247708775,0.8464256821847509,1.511550600484961,0.6393445134162903,-0.7489166259765625,-0.1742485612630844,-2.0839381217956543,0.4135681092739105,-0.3625825345516205,0.07435482740402222,-0.622528076171875,0.2499016523361206
477,1.161008913752466,0.7951761412426939,1.6940308772967498,0.6421898007392883,-0.7139869332313538,-0.2789534330368042,0.08062883466482162,-0.7091314196586609,-0.027013814076781273,0.12021559476852417,-0.22615283727645874,0.3552626371383667
478,1.2398349983817774,0.8265623470881778,1.5862670242160162,0.6406458616256714,-0.7356070280075073,-0.2201254814863205,1.1705342531204224,0.3790721595287323,0.05272206291556358,-0.3291682004928589,0.3009756803512573,0.11726593971252441
479,1.411369002109388,0.847602203655243,1.4182920571695592,0.6533900499343872,-0.7496957182884216,-0.10505984723567963,0.6390671730041504,0.7052556872367859,-0.08202095329761505,-0.346688449382782,0.4761515259742737,0.08981633931398392
480,1.475203984855392,0.8826347545850012,1.4443296091797606,0.6322186589241028,-0.7724149227142334,-0.0606200248003006,-0.11893221735954285,0.3868802785873413,0.4801081717014313,0.3258501887321472,-0.0870058536529541,-0.2261536717414856
481,1.4735289251302812,0.9257164468089215,1.537011562329825,0.5984205007553101,-0.7990517616271973,-0.05839106813073158,-1.5768142938613892,0.35898709297180176,0.4643784165382385,0.5567156672477722,-0.33731621503829956,-0.2752423882484436
482,1.2907583677111967,0.9057367081013922,1.794968623286514,0.5930666923522949,-0.7868800163269043,-0.17056326568126678,-0.985555112361908,0.7404568195343018,-0.20518521964550018,-0.06523466110229492,-0.3705754280090332,0.4086766839027405
483,1.33596215423201,0.8929752124333805,1.761427038728596,0.6098853349685669,-0.7789409160614014,-0.14591407775878906,1.1770734786987305,-0.6580464839935303,0.047098077833652496,-0.2997657060623169,0.17850756645202637,0.0062503814697265625
484,1.3895215250094057,0.9124975321407103,1.641299660954395,0.6017479300498962,-0.7910341024398804,-0.11029248684644699,0.2938963770866394,0.5717268586158752,0.10168389976024628,-0.3851494789123535,0.5514253973960876,0.1997547745704651
485,1.461770048113663,0.92231066988367,1.5732837893088505,0.600394070148468,-0.7969993352890015,-0.06571933627128601,1.0006272792816162,-1.63090181350708,-0.5730966329574585,0.315682590007782,0.061998724937438965,-0.6679537296295166
486,1.5108675781645906,0.9013237849148507,1.426297745158253,0.6194582581520081,-0.7841491103172302,-0.03716786578297615,-0.9289385676383972,0.9769123792648315,0.20681770145893097,-0.4095432162284851,-0.258209228515625,0.27454882860183716
487,1.3793011537943014,0.8730920019017002,1.6566876177420946,0.6307164430618286,-0.7663190960884094,-0.12227748334407806,-1.0159367322921753,-2.1885337829589844,-0.5842612981796265,0.2423761487007141,-0.1204911470413208,0.14420433342456818
488,1.357745196294097,0.8665757789791547,1.5947128412986775,0.6328015923500061,-0.7621164321899414,-0.13689666986465454,0.9774601459503174,0.43126940727233887,0.0008823743555694818,-0.1246381402015686,0.1672983169555664,0.19323211908340454
489,1.467416541532227,0.8835355923044413,1.4889097424239353,0.6310352087020874,-0.7729867696762085,-0.06546968221664429,0.14162495732307434,0.4362437129020691,0.19532330334186554,-0.3547137379646301,0.42699360847473145,-0.05438811331987381
490,1.5359451199628642,0.9107957741992073,1.4812285729322054,0.6127448081970215,-0.7899919152259827,-0.021363545209169388,-0.19853515923023224,0.5435433983802795,0.3201373219490051,0.03581470251083374,0.15408200025558472,-0.03648251295089722
491,1.616105382292779,0.9760810557082267,1.51952861434043,0.5596981644630432,-0.8283080458641052,0.025376763194799423,0.13251951336860657,0.1552494764328003,0.6935369968414307,0.5259647369384766,-0.3651124835014343,-0.6867079734802246
492,1.4355688079395816,1.0193107979512552,1.6810516219249387,0.519169807434082,-0.8517470955848694,-0.07063713669776917,-1.1625421047210693,0.4706985354423523,-0.14831312000751495,0.27682018280029297,-0.2680343985557556,0.4848216772079468
493,1.4120356455118053,0.9814187563713926,1.812552965897978,0.5488535761833191,-0.8312867879867554,-0.08787591010332108,0.5578664541244507,-0.05606122687458992,-0.2283134162425995,-0.3223826289176941,-0.16599714756011963,0.0063024163246154785
494,1.507809571762915,0.9632794674671336,1.5827163763880112,0.5696984529495239,-0.8210679888725281,-0.03593098744750023,1.2012860774993896,-0.44336560368537903,-0.26944294571876526,-0.3299218416213989,0.4511644244194031,0.14979207515716553
495,1.6316825207955747,0.9547353308744526,1.4814285387142159,0.5767539143562317,-0.8161608576774597,0.03515981137752533,0.03706851601600647,-0.315123975276947,-0.07125408947467804,-0.32679980993270874,0.3465564250946045,-0.335834264755249
496,1.544793073780299,0.90560180724308,1.4926909403193074,0.6170035004615784,-0.7867967486381531,-0.01604771614074707,-0.22870387136936188,-0.20183506608009338,-0.7892265915870667,0.41850370168685913,-0.014289677143096924,-0.37405848503112793
497,1.363614132032407,0.8742640888037574,1.7435191359355013,0.6278411746025085,-0.7670716047286987,-0.13197121024131775,-1.1780574321746826,-1.3574707508087158,-0.3902147710323334,0.1914488673210144,-0.3903380036354065,0.10949501395225525
498,1.283845616656309,0.8624502892135226,1.708112391767055,0.6239774227142334,-0.7594389319419861,-0.18413259088993073,0.7474361658096313,0.008221169002354145,-0.05529742315411568,0.0386660099029541,0.14615768194198608,0.2519579529762268
499,1.4455758829144987,0.885511832068531,1.5580547982390924,0.627937912940979,-0.7742390036582947,-0.07904423773288727,1.2938116788864136,0.3317926526069641,-0.07707744836807251,-0.4077078104019165,0.513695240020752,0.08209598064422607
