,attitude.roll,attitude.pitch,attitude.yaw,gravity.x,gravity.y,gravity.z,rotationRate.x,rotationRate.y,rotationRate.z,userAcceleration.x,userAcceleration.y,userAcceleration.z
0,1.341168512305253,0.8896119988599246,1.5173164641107513,0.6131842136383057,-0.7768274545669556,-0.14333230257034302,1.1394035816192627,-1.5462300777435303,-0.48699742555618286,0.40500426292419434,-0.20927178859710693,-0.5303279757499695
1,0.11146867087170363,0.5401795059839128,-0.729302571697804,0.09539951384067535,-0.5142899751663208,-0.852293848991394,0.4104059338569641,-0.7602609395980835,0.34058713912963867,-0.05291903764009476,0.07332617044448853,-0.07693588733673096
2,0.03530103515481423,0.5356764231118011,-0.7511086626560473,0.030349887907505035,-0.5104228258132935,-0.8593878149986267,-0.23919087648391724,-0.9986339807510376,-0.7451187372207642,-0.04295365512371063,-0.029097437858581543,-0.2717004418373108
3,0.04137267980635965,0.47491883009633334,-0.8553178928460781,0.03678346425294876,-0.45726627111434937,-0.8885688185691833,-0.43096691370010376,0.23542746901512146,-1.2727601528167725,-0.10882019996643066,-0.009942591190338135,-0.22901540994644165
4,0.031596620100564334,0.4878518867711404,-1.0124151981852405,0.027905970811843872,-0.4687294661998749,-0.8829008936882019,0.8921712040901184,-1.9944201707839966,-1.2284058332443237,-0.06577828526496887,0.12182086706161499,0.1420866847038269
5,-0.06394487894162999,0.5103785395836793,-1.1117139426673288,-0.05575770512223244,-0.48850756883621216,-0.8707762956619263,-0.48716819286346436,1.5797240734100342,-0.35168445110321045,-0.010785888880491257,0.18612417578697205,0.6286346316337585
6,-0.049973140633042534,0.44917704252162727,-1.0954146102112867,-0.044997308403253555,-0.43422436714172363,-0.8996801972389221,0.4880121946334839,-2.0357701778411865,1.5425893068313599,0.10244664549827576,-0.013712644577026367,-0.2591027617454529
7,-0.3907929745831026,0.5663474810821363,-0.8057242593947371,-0.3214470446109772,-0.5365533828735352,-0.7802450060844421,2.2457876205444336,-2.1922852993011475,4.034581184387207,-0.012430548667907715,0.008706092834472656,0.0019857287406921387
8,-0.9644205017954022,0.271607389120793,-0.28936745634915395,-0.7915953993797302,-0.2682802379131317,-0.5490014553070068,2.2865195274353027,-2.7315101623535156,5.348850727081299,-0.4582672715187073,0.4452822208404541,-0.6255896091461182
9,-0.9717369485282463,-0.07538134209283949,0.16234137475228982,-0.8235210180282593,0.07530996948480606,-0.5622645616531372,1.8438974618911743,1.734704613685608,4.386906623840332,-0.29873234033584595,0.061164624989032745,-0.3085392117500305
10,-0.5985614011161359,-0.18161062787553145,0.5653766917594321,-0.5541880130767822,0.1806139498949051,-0.8125602602958679,2.430128335952759,2.4334535598754883,1.253790020942688,-0.6608235836029053,-0.2354540377855301,0.3526756763458252
11,-0.5389034954351398,-0.03466287986167763,0.5517612522435151,-0.5128869414329529,0.034655939787626266,-0.8577563762664795,0.4191775918006897,-1.0543911457061768,-1.735720157623291,-0.14771181344985962,-0.37590348720550537,0.2948291301727295
12,-0.6907357767190202,0.04483812740650805,0.3760316845986931,-0.6364641189575195,-0.04482310637831688,-0.7700027823448181,-1.1546522378921509,-3.1546390056610107,-2.2991716861724854,-0.1213025450706482,-0.4741435647010803,-0.3607955574989319
13,-1.0627450036881279,0.15286197422314346,0.07791227647289459,-0.8635063171386719,-0.15226735174655914,-0.4808030128479004,-0.9072677493095398,-4.530550956726074,-2.1705069541931152,-0.08623123168945312,0.5274351835250854,-0.4886183738708496
14,-1.3123752212235413,0.36940200157830316,-0.17446220200627194,-0.901577889919281,-0.361057847738266,-0.23831555247306824,0.06741294264793396,-3.013723373413086,-2.367067337036133,0.014065861701965332,0.3670393228530884,-0.3257713317871094
15,-1.5894972358887087,0.8025816065285624,-0.19526859788169054,-0.6947307586669922,-0.7191523313522339,0.012993612326681614,-0.18177759647369385,-0.9255189299583435,-4.7187700271606445,0.636564314365387,0.7377681136131287,0.20398640632629395
16,-1.9552526083611437,1.138446409042638,0.12321186794175353,-0.3884193003177643,-0.9079836010932922,0.1571502387523651,-0.9850714802742004,0.9498451948165894,-1.6148302555084229,0.2143317461013794,0.06391322612762451,0.246185302734375
17,-1.4853196617468543,1.205587236776385,-0.16228206979421694,-0.35584041476249695,-0.934049129486084,-0.030490346252918243,0.16989298164844513,4.620931625366211,1.1676366329193115,0.12952208518981934,0.26528704166412354,0.2681612968444824
18,-1.4588566658558404,1.1705149887416213,-0.01350406965475839,-0.3872385323047638,-0.9209514260292053,-0.043529316782951355,0.3740725517272949,-1.1896353960037231,0.09723058342933655,-0.27136126160621643,-0.4680866599082947,-0.06198525056242943
19,-1.6938194399892574,1.1884683818957298,0.06331597151364789,-0.370261549949646,-0.9277986288070679,0.045781929045915604,0.5402114391326904,-4.21586799621582,-0.09955048561096191,-0.0010915696620941162,0.08893150091171265,-0.39775633811950684
20,-2.306958127872966,1.1110292886814719,0.31838452603760264,-0.32883358001708984,-0.8961558938026428,0.2979481518268585,0.18885448575019836,-1.8045979738235474,0.6287000179290771,0.09119316935539246,0.1747204065322876,0.14876818656921387
21,-2.531164017519454,1.02246450364672,0.34038029633550715,-0.298798531293869,-0.8533952832221985,0.42712530493736267,0.5300156474113464,-2.1201517581939697,0.47758224606513977,0.15348905324935913,0.480485737323761,-0.42428719997406006
22,-2.5794443074964337,0.9528890604467392,0.30934548382924143,-0.30878615379333496,-0.8150926232337952,0.49017849564552307,0.4580291211605072,-0.10954257100820541,0.5131638050079346,0.019647419452667236,-0.12225472927093506,0.22075888514518738
23,-2.6123117840170447,0.9122582473266113,0.2983628609188335,-0.3089870810508728,-0.790887713432312,0.528226912021637,0.2087542563676834,-0.1627882570028305,0.18317289650440216,-0.031833261251449585,-0.666662335395813,0.7597979307174683
24,-2.735474395730424,0.9148321622462531,0.4310884378648296,-0.24094796180725098,-0.7924602031707764,0.5603129267692566,-0.0283900648355484,-2.1057138442993164,-0.44360360503196716,-0.361163854598999,-0.2685443162918091,-0.43940240144729614
25,-2.8135429499425366,0.8986647475777004,0.49534073899576425,-0.2006179690361023,-0.7824962139129639,0.5894508957862854,0.7135130763053894,-0.27100732922554016,-0.122416652739048,-0.05655369162559509,0.059351563453674316,-0.2837105393409729
26,-2.9120841837729774,0.9805270777560627,0.514317739830311,-0.12662248313426971,-0.8307908773422241,0.5419903993606567,-1.903064489364624,-0.9937528967857361,0.17434151470661163,-0.13180039823055267,0.32079625129699707,-0.14661985635757446
27,-3.030152158039021,1.0969790835319726,0.47504127149133696,-0.05074360966682434,-0.8898330330848694,0.4534561038017273,-1.3880993127822876,-1.3785253763198853,-0.11843990534543991,0.15737202763557434,0.1788039207458496,-0.08323204517364502
28,-2.9758959330534025,1.1320723243289454,0.3496096448336574,-0.07006373256444931,-0.9052944183349609,0.4189663231372833,-0.473515123128891,-0.5579260587692261,0.14620672166347504,0.4146835207939148,-0.5122011303901672,0.625665545463562
29,-3.029640533844501,1.1636408944710157,0.3761040559963375,-0.04424033313989639,-0.9182509779930115,0.3935196101665497,0.0540335439145565,-0.19954532384872437,-0.5390779972076416,-0.3013101816177368,-0.6771621108055115,0.32596272230148315
30,-0.8986729030041852,1.254285153448498,-0.689543937852811,-0.24355599284172058,-0.9503270983695984,-0.19380144774913788,-2.30855393409729,1.3206117153167725,0.0909339040517807,0.2649182379245758,0.3940984010696411,0.060943156480789185
31,-0.6172526943141007,1.1868829800083684,-0.928276247717774,-0.2167895883321762,-0.9272059798240662,-0.30543655157089233,-1.7451248168945312,1.5788313150405884,-0.5700919032096863,0.0632556676864624,0.39166826009750366,0.37107986211776733
32,0.32880828561082537,0.28008131343184245,-0.9573747047608864,0.310332328081131,-0.2764337956905365,-0.9095483422279358,0.45641273260116577,1.1650737524032593,-0.8023303747177124,-0.22431856393814087,0.029287189245224,-0.05593627691268921
33,0.2325252316331741,0.3266156960737093,-1.0313658811915516,0.2182532250881195,-0.3208394944667816,-0.9216439127922058,1.0957521200180054,-0.8099892735481262,-0.47655051946640015,-0.0565558522939682,0.053200334310531616,-0.3610098361968994
34,0.029293158229410185,0.3701344813977652,-1.1039176781014708,0.02730548195540905,-0.3617407977581024,-0.9318787455558777,0.0430777370929718,-3.495530843734741,-0.9251667261123657,-0.0836867094039917,0.029190778732299805,-0.3283293843269348
35,-0.1336476198066193,0.3269863808713865,-1.1919070379991696,-0.12618979811668396,-0.3211905360221863,-0.9385695457458496,-0.13542702794075012,-0.03464561328291893,-0.564190149307251,0.09588584303855896,0.2885825037956238,0.1866011619567871
36,-0.1259163058026548,0.3470427825951648,-1.1988000524298987,-0.11809685826301575,-0.3401183784008026,-0.9329376220703125,0.2330467402935028,1.2652201652526855,0.43944454193115234,-0.014227360486984253,-0.0019684135913848877,0.393280029296875
37,-0.022915144440511914,0.34219109243596196,-1.1533505138657343,-0.02158467471599579,-0.3355519473552704,-0.9417743682861328,-0.13165488839149475,0.12315669655799866,-0.013418341055512428,0.023965030908584595,-0.046406060457229614,0.12118721008300781
38,-0.05757067054726118,0.31757611421394355,-1.171895668469355,-0.054661646485328674,-0.3122648000717163,-0.9484212398529053,-0.6922439336776733,-1.1308873891830444,0.253592848777771,-0.06280051171779633,-0.07825338840484619,-0.3922159671783447
39,-0.21882596255264997,0.22560763140018947,-1.1492751616671486,-0.2115824818611145,-0.22369863092899323,-0.9514156579971313,-0.5407489538192749,-3.2848684787750244,-0.7696735262870789,-0.002589881420135498,0.0008897930383682251,-0.5968631505966187
40,-0.4601586470165733,0.24165655641610065,-1.2698816791132435,-0.4311862587928772,-0.23931138217449188,-0.8699473738670349,-0.2370082288980484,-3.7455782890319824,-2.5166356563568115,-0.1426662802696228,0.3831712603569031,-0.2274952530860901
41,-0.6963369019354992,0.22423542904154026,-1.5559637660274888,-0.6253535747528076,-0.2223609983921051,-0.7479896545410156,-1.6255159378051758,-0.7893456816673279,-0.4859345853328705,0.07380938529968262,0.11391676962375641,0.4920387268066406
42,-0.7681257421790432,0.28642812224789993,-1.6214228527793895,-0.666482150554657,-0.2825276851654053,-0.689912736415863,0.7501756548881531,-1.6786447763442993,-1.1059409379959106,0.33835726976394653,0.10406091809272766,0.35763734579086304
43,-0.928833345908732,0.378013005759644,-1.7601234332362807,-0.7443767189979553,-0.3690744936466217,-0.5564956068992615,-1.1969749927520752,-3.1528995037078857,-0.4431079924106598,0.3296886086463928,-0.6578725576400757,0.06288909912109375
44,-1.1951291841959104,0.5184252437602317,-1.612079440403006,-0.8080270290374756,-0.4955129325389862,-0.3186836540699005,3.2238967418670654,-1.3579953908920288,-0.32357916235923767,-0.8763144016265869,0.2545003592967987,-0.3211631774902344
45,-1.3649784142462447,0.3101110343525111,-1.232215461975084,-0.93220055103302,-0.3051643669605255,-0.19461946189403534,3.628701686859131,1.8402642011642456,4.22627592086792,-0.2767990231513977,0.2915230691432953,-0.5719210505485535
46,-1.15467783562353,0.10588275667942472,-0.9160388051859485,-0.9095423221588135,-0.1056850254535675,-0.4019494950771332,1.2216445207595825,2.7186543941497803,0.949027419090271,0.5743220448493958,-0.5092442035675049,0.33067572116851807
47,-1.079628137942638,0.17751996811524892,-0.8306613493458151,-0.8679250478744507,-0.17658905684947968,-0.4642440974712372,0.42813876271247864,-0.08061424642801285,-1.3774149417877197,0.33051037788391113,-0.14349457621574402,0.3547012209892273
48,-1.0436316783085335,0.4472719806581343,-0.9878870868441033,-0.779222309589386,-0.4325074851512909,-0.45359668135643005,-0.6187934875488281,0.014394938945770264,-4.238586902618408,-0.1409895420074463,-0.11419963836669922,0.30074942111968994
49,-0.9312783050552202,0.658092555001894,-1.265036219567978,-0.6348140239715576,-0.6116088628768921,-0.47217148542404175,-0.0137353939935565,-0.7523753046989441,-3.7070817947387695,-0.21668744087219238,-0.09179079532623291,-0.32915908098220825
50,-0.753678888240671,0.8148062430775789,-1.6228207906020076,-0.4694540202617645,-0.7275927066802979,-0.5002217888832092,-0.6816306710243225,-1.6019206047058105,-2.7898168563842773,-0.303479939699173,0.20966362953186035,-0.05377912521362305
51,-0.6960732196883258,0.8901680148250803,-1.9080520631146485,-0.40350115299224854,-0.7771775126457214,-0.48288917541503906,-1.6133784055709839,-1.476237416267395,-2.248634099960327,-0.07861554622650146,0.7192398905754089,0.20842933654785156
52,-0.6088100313560181,1.0213942703062788,-2.317160283086134,-0.29862886667251587,-0.8528369069099426,-0.42835724353790283,-1.4206842184066772,-3.449540138244629,-4.070761203765869,0.15792760252952576,0.5613635778427124,0.5904971957206726
53,-0.3713047595226697,1.1125534142484999,-2.7969638316777945,-0.1605069488286972,-0.8968311548233032,-0.41222748160362244,0.14055533707141876,-0.8797336220741272,-0.17799952626228333,0.4448087215423584,-0.5188182592391968,-0.16806429624557495
54,-0.39642019538740375,1.1759265442821687,-2.8220283076106796,-0.14853526651859283,-0.9230466485023499,-0.3548552393913269,0.5380159616470337,0.6238522529602051,-1.6883060932159424,0.00043345987796783447,-1.2715182304382324,-0.4543183445930481
55,-0.2190499056843097,1.2547979475731608,-3.006902635334451,-0.06753005087375641,-0.9504866003990173,-0.30333948135375977,0.30014604330062866,1.2755082845687866,-0.14698746800422668,-0.2287651151418686,-0.3352494239807129,0.28785184025764465
56,-0.1530379081401935,1.225342371003196,-3.0316836651214714,-0.051620207726955414,-0.9409218430519104,-0.334665983915329,-0.034737952053546906,-1.54807448387146,-0.2752420902252197,-0.153854638338089,0.36029452085494995,0.13366195559501648
57,-0.5154109169161172,1.1890556205066267,-3.0220285268308285,-0.18362049758434296,-0.9280175566673279,-0.3241405189037323,-0.9050498008728027,-2.9891443252563477,0.4741196632385254,0.16463853418827057,0.1152428388595581,0.2656993567943573
58,-0.7878290505708401,1.2441876416752757,-2.9257249957009877,-0.2274138331413269,-0.9471358060836792,-0.2263108789920807,1.6180847883224487,-2.5387823581695557,-1.0259718894958496,0.049984633922576904,0.690696656703949,-0.1051863431930542
59,-1.0418795173318462,1.432468324732146,-2.9197859923216223,-0.11904506385326385,-0.9904479384422302,-0.0695774182677269,0.4092508852481842,-2.1321628093719482,-0.854308009147644,0.047649189829826355,-0.5099029541015625,-0.1317623257637024
60,-1.4960862548979064,1.4749571203276988,-2.6664029092572767,-0.09542495757341385,-0.9954109191894531,-0.007142499089241028,0.2735157012939453,-0.3518412709236145,-0.45690155029296875,0.18006546795368195,-0.11448276042938232,0.4249587059020996
61,2.5710372934205115,1.4317755932516936,-0.29891518417524043,0.07484396547079086,-0.9903521537780762,0.1166243702173233,1.1207414865493774,2.94708251953125,-2.1221635341644287,-0.04467733949422836,-0.3224378228187561,0.5673508644104004
62,2.776655420629577,1.2323190932210273,-0.42777943324088086,0.1185060665011406,-0.9432613849639893,0.3101845979690552,0.6426268219947815,-1.4249858856201172,-0.2750786244869232,-0.1574922651052475,0.4991236925125122,-0.3315010964870453
63,2.7541190044538255,1.2348729293150165,-0.4629590594861155,0.12455496937036514,-0.9441063404083252,0.3052034378051758,0.18575695157051086,-0.4390280246734619,-0.08416377007961273,-0.09728751331567764,0.44045954942703247,-0.14996054768562317
64,2.581879722821309,1.2559297599748607,-0.3104206262940992,0.16442729532718658,-0.9508377313613892,0.2624329626560211,-0.2899680435657501,-0.9342193603515625,0.19589728116989136,0.031434521079063416,-0.6650221347808838,-0.15881064534187317
65,2.4199200096881843,1.2287580057360221,-0.23696119800687776,0.22158437967300415,-0.9420729279518127,0.251791387796402,-0.7195040583610535,0.09688609838485718,-1.0666921138763428,-0.18563467264175415,-0.5064743757247925,0.3579956293106079
66,2.2695721325290226,1.192440853376747,0.0425740316116485,0.2828187644481659,-0.9292733669281006,0.23762372136116028,-0.44963550567626953,2.4153122901916504,-0.6917054653167725,0.204684317111969,0.329831600189209,0.3218398690223694
67,2.395305890077563,1.1501111073030723,0.2160376493356735,0.277260422706604,-0.9128093123435974,0.29984328150749207,0.37414243817329407,2.7448787689208984,-0.44738447666168213,-0.026421159505844116,0.18655186891555786,-0.19175001978874207
68,2.547285776396481,1.1448023720207054,0.16388916220587013,0.23137971758842468,-0.9106284379959106,0.34237322211265564,0.34680163860321045,0.29108041524887085,0.34754082560539246,-0.14136812090873718,0.6067954301834106,-0.15153157711029053
69,2.6654068944395735,1.1299962371589476,0.19037488470343494,0.19557948410511017,-0.9044106006622314,0.37919726967811584,-0.05146118625998497,1.7198607921600342,-0.878779947757721,0.3495407700538635,-0.5358361005783081,-0.06353837251663208
70,2.660721887572635,1.194376573267897,0.20707841681194042,0.1700306534767151,-0.9299866557121277,0.3259052038192749,-1.0484645366668701,0.17385540902614594,-0.6826724410057068,0.6058177351951599,-0.31300944089889526,0.3525920808315277
71,2.372438042951223,1.168421496084542,0.5074163764846685,0.2723718583583832,-0.9201335906982422,0.28136736154556274,-0.01073403935879469,-0.9779337048530579,0.5799328684806824,-0.22886908054351807,-0.10064882040023804,0.2872665822505951
72,2.435108568373704,1.153276190117521,0.3316316444686739,0.2632323205471039,-0.9140973091125488,0.30843913555145264,0.5142689943313599,-1.3380091190338135,0.613346517086029,-0.12756645679473877,0.17096388339996338,0.035341352224349976
73,2.381330993455493,1.143250114871179,-0.01472541471394244,0.2857322096824646,-0.9099858999252319,0.30047038197517395,1.187226414680481,-5.607216835021973,0.164491668343544,0.07515335083007812,0.8519263863563538,-0.5083866715431213
74,2.281240234430502,1.1117403693462238,-0.12287952220773891,0.3359033763408661,-0.8964712023735046,0.2889779508113861,0.40239232778549194,1.9639164209365845,0.41649001836776733,-0.05399724841117859,-0.18943572044372559,0.13640651106834412
75,2.0788584187061545,1.1256291726885355,-0.2512035417461382,0.3762184679508209,-0.9025387167930603,0.20948493480682373,0.32739678025245667,0.02073955535888672,-0.46882399916648865,-0.17271193861961365,-0.579669713973999,0.39348140358924866
76,2.0200020176012448,1.1474738407654244,-0.06641582794692613,0.3700384199619293,-0.911729097366333,0.17838656902313232,-0.820792555809021,0.7104448080062866,-0.27944353222846985,0.24611151218414307,0.0005504488945007324,0.5264474153518677
77,1.9520414186598412,1.1539268234298432,-0.012950788584810982,0.3758285939693451,-0.9143609404563904,0.15065358579158783,0.3554215431213379,-0.2401464581489563,0.009889809414744377,-0.03200235962867737,0.3088924288749695,0.03998968005180359
78,2.0028755115929293,1.1695152939485953,-0.15492556194732646,0.3547006845474243,-0.9205613732337952,0.16356664896011353,0.5114555954933167,-0.9937266707420349,0.7016133666038513,-0.3955484926700592,0.6538530588150024,-0.142677441239357
79,2.077783572577897,1.1693041534751525,-0.1723308901298483,0.3416348695755005,-0.920478880405426,0.1897474080324173,-0.394226610660553,1.3754490613937378,-0.8628469705581665,-0.06343662738800049,0.1130753755569458,-0.12860551476478577
80,2.1257790569702633,1.1756939991365005,-0.14346402198381006,0.3271324932575226,-0.922957181930542,0.20281626284122467,0.17106372117996216,1.0140265226364136,0.7227230668067932,-0.06887748837471008,-0.605302095413208,-0.18778634071350098
81,1.9276429047844335,1.237475534816607,0.01748745710066626,0.30657142400741577,-0.9449610710144043,0.11429194360971451,-1.8450764417648315,-0.14973275363445282,0.210484117269516,0.2986684739589691,-0.0593571662902832,0.3939173221588135
82,1.7182063911084957,1.2464220606018899,0.29629869953942667,0.31525906920433044,-0.9478503465652466,0.04681192338466644,0.704681932926178,0.6871623992919922,0.0525706484913826,-0.21358978748321533,0.04852789640426636,0.14460957050323486
83,1.9879046203298958,1.21858599126156,-0.03587033448016344,0.31539684534072876,-0.9386125206947327,0.13975505530834198,1.3393610715866089,-0.7160686254501343,0.18533001840114594,-0.17435985803604126,0.6087784767150879,-0.2393338680267334
84,2.1113840066949963,1.2050012908556733,-0.12711222235415245,0.3066871464252472,-0.9338396787643433,0.18408244848251343,-1.191890001296997,2.181914806365967,0.003940455615520477,-0.20190507173538208,-0.013059675693511963,-0.0851903110742569
85,1.9527383532350122,1.163996327904312,0.06540169738436252,0.367161363363266,-0.9183917045593262,0.14747636020183563,0.9338752031326294,-1.8100999593734741,-0.4245471954345703,0.11797654628753662,-0.6493420600891113,-0.33265697956085205
86,1.8487954932761574,1.1702140071630514,-0.02560326396537198,0.37498316168785095,-0.9208340644836426,0.1070161759853363,-0.15648210048675537,-0.01821579411625862,0.6155126690864563,0.3355881869792938,-0.20798075199127197,0.5338987112045288
87,1.8029751345777476,1.2115521952277455,0.00202839704403251,0.3421333432197571,-0.9361628293991089,0.08089496195316315,-0.32687026262283325,-0.11166706681251526,-0.3983115255832672,0.05157396197319031,0.4300440549850464,0.03551435470581055
88,1.7192798775283176,1.1718418925225067,0.3034362775554402,0.38418030738830566,-0.921467661857605,0.05746741220355034,-1.0779151916503906,2.3300116062164307,-0.6888135075569153,-0.29979923367500305,0.5727129578590393,-0.08627606928348541
89,1.6779408649486434,1.125796237767519,0.4611065886423265,0.42798930406570435,-0.9026105999946594,0.04603300243616104,-0.08768569678068161,0.08315546065568924,0.038286179304122925,-0.25530561804771423,0.16158288717269897,-0.14718353748321533
90,1.7443553813149102,1.1596213821947337,0.3570705161416499,0.39368170499801636,-0.9166518449783325,0.06902146339416504,1.2350876331329346,-1.156395673751831,0.7609898447990417,0.18709826469421387,-0.5858810544013977,-0.6538755893707275
91,1.5884876213642163,1.2390186340379186,0.4366895176894148,0.3256731331348419,-0.9454647898674011,0.005762180313467979,-2.1588518619537354,-0.4924831986427307,0.4545266032218933,0.4449567496776581,-0.4143373370170593,0.3297938108444214
92,1.4360167970699262,1.2163893078512082,0.6455907524909313,0.3438866138458252,-0.9378524422645569,-0.0466315783560276,0.36434584856033325,0.30328550934791565,-0.48038503527641296,-0.33434993028640747,0.08725142478942871,0.4272315502166748
93,1.6888003129867735,1.2211597352782355,0.49101095490403684,0.34017428755760193,-0.9394972920417786,0.04032928869128227,1.7043006420135498,-0.9467944502830505,0.5219911336898804,-0.033167481422424316,0.5617507100105286,-0.6667026281356812
94,1.746206938984028,1.2105394618681964,0.22907189278452905,0.34710532426834106,-0.9358063340187073,0.06151820346713066,0.35027000308036804,-0.771778404712677,-0.29046308994293213,0.00021520256996154785,0.3999329209327698,0.14476537704467773
95,1.8777380247544644,1.1347650454445093,0.06841167141415982,0.40260589122772217,-0.906434953212738,0.12760943174362183,0.6692880988121033,-1.9173178672790527,-0.7388612031936646,-0.05540737509727478,-0.40115177631378174,-0.6106569766998291
96,1.65241054608305,1.1296237840405974,0.17904441327545528,0.42557886242866516,-0.9042516350746155,0.03481061011552811,-0.2606763541698456,-0.9097773432731628,0.17069613933563232,0.23785802721977234,-0.1264185905456543,0.32084131240844727
97,1.6651683021513584,1.218351479015571,0.06963116126261377,0.34365713596343994,-0.9385315775871277,0.03252822533249855,0.7133322358131409,-0.1344923973083496,0.3683668076992035,0.25129827857017517,0.30214864015579224,0.17560172080993652
98,1.8738124568624723,1.1796268390484441,-0.07066922290072575,0.36389943957328796,-0.9244638085365295,0.11377100646495819,0.29156938195228577,0.6374759674072266,-0.6030876040458679,-0.18303701281547546,0.5823160409927368,-0.1486067771911621
99,1.7899460187823413,1.1217578382134155,0.01924738777033779,0.42371708154678345,-0.9008648991584778,0.09437313675880432,-0.545601487159729,-0.019497402012348175,-0.6516561508178711,-0.30044135451316833,0.27049386501312256,-0.033048033714294434
100,1.9758283326066302,1.115757465624827,-0.08689726115028146,0.4039371907711029,-0.8982439637184143,0.17318297922611237,-0.31678441166877747,0.49562084674835205,0.3565921485424042,0.14460095763206482,-0.5648601651191711,-0.29961729049682617
101,1.8802039832779067,1.20314040203683,0.016188179003962504,0.3423607647418976,-0.9331724643707275,0.10944400727748871,-1.2668215036392212,-0.5103377103805542,1.5939611196517944,0.5823675990104675,-0.6410003304481506,0.0847850814461708
102,1.4908799791416194,1.257678227732704,0.5124952011831615,0.30704301595687866,-0.9513777494430542,-0.024590127170085907,0.04593417048454285,3.162019968032837,-0.35863497853279114,0.15447425842285156,-0.06894677877426147,0.968575119972229
103,1.8125074417665759,1.2109609982829506,0.328303366169002,0.34188395738601685,-0.9359548091888428,0.08428501337766647,1.178734302520752,0.722620964050293,0.4110807478427887,-0.12234053015708923,0.13056540489196777,-0.45476841926574707
104,1.9522593774918493,1.2063857590924159,0.060990489513664974,0.33078113198280334,-0.9343339800834656,0.13267967104911804,-0.0832105353474617,-2.155447244644165,0.10103936493396759,-0.06251636147499084,0.5423815250396729,-0.15778040885925293
105,1.9407035804745245,1.1648402367162334,-0.010442988617986364,0.3681873083114624,-0.9187252521514893,0.1427670121192932,0.5364365577697754,0.5651196241378784,-0.564735472202301,0.20320862531661987,-0.3094242811203003,0.042612090706825256
106,1.8994365198303516,1.0961454735783356,-0.03785862451996379,0.4325687885284424,-0.889452338218689,0.1475086510181427,-0.20815572142601013,-2.169996976852417,-0.5001996159553528,0.13769790530204773,-0.611402153968811,-0.09390449523925781
107,1.848179730585136,1.1068278866410644,-0.169122188260469,0.43039512634277344,-0.894283652305603,0.12254360318183899,0.9691563248634338,-0.7472331523895264,0.6709869503974915,0.24422642588615417,0.14121663570404053,0.3536679744720459
108,1.9313207019046754,1.089817349408209,-0.19761084686539476,0.4329046905040741,-0.8865424394607544,0.16320578753948212,-0.35481664538383484,1.0845272541046143,-0.47503045201301575,-0.1970801055431366,0.4466773271560669,-0.13407671451568604
109,1.8603883558286236,1.0585470735986742,-0.035885199605166146,0.4697301387786865,-0.8716442584991455,0.13996480405330658,-0.5506255030632019,0.07198503613471985,-0.1768866926431656,-0.40649765729904175,0.38095200061798096,-0.21232198178768158
110,1.9335550458584183,1.0967616535868676,-0.0379921188928308,0.4267725646495819,-0.8897337913513184,0.16198396682739258,0.2088938057422638,0.6336581110954285,0.3431571125984192,0.3259892165660858,-0.5422881841659546,-0.3883328437805176
111,1.6850714305095837,1.166858357310578,0.11067753808423905,0.39047908782958984,-0.9195203185081482,0.04481729492545128,-0.05277739092707634,-1.5378938913345337,1.0099202394485474,0.5210199952125549,-0.6193438768386841,0.17078936100006104
112,1.3345173297482773,1.1826186647680184,0.5234235569552685,0.36798590421676636,-0.9256003499031067,-0.08860233426094055,-1.2407201528549194,3.2273199558258057,-0.3041873872280121,0.07404595613479614,-0.00782555341720581,0.8148902058601379
113,1.6522035202629157,1.1707159206345283,0.4249192638511749,0.3882026970386505,-0.9210296869277954,0.031672488898038864,0.6521865129470825,3.0249924659729004,0.04740389436483383,-0.2388039231300354,0.2688232660293579,0.03793811798095703
114,2.0750614014006055,1.1494586476257855,0.027113363422042864,0.35807517170906067,-0.9125426411628723,0.19760501384735107,0.18960684537887573,-2.2784059047698975,0.053148768842220306,-0.15708646178245544,0.6152863502502441,-0.48237982392311096
115,1.9112276626978792,1.140020971095062,0.07972410233135326,0.3936111629009247,-0.9086422324180603,0.1394258439540863,0.47012266516685486,1.467354416847229,-0.47442033886909485,0.2747543156147003,-0.4297976493835449,0.2850278615951538
116,1.893033592661636,1.0989079642910602,-0.003238605697646826,0.4311717748641968,-0.8907114863395691,0.14395713806152344,-1.9994333982467651,-0.2780085802078247,-0.002425167476758361,0.19823795557022095,-0.7233935594558716,0.5194492340087891
117,1.8041877213512505,1.1754853724878995,-0.04472985568786799,0.37465429306030273,-0.9228768348693848,0.08906414359807968,1.7084780931472778,-2.0033318996429443,1.0404773950576782,0.2975716292858124,0.18053680658340454,0.3110213279724121
118,1.9779290527132112,1.1490474120223049,-0.28236022508213504,0.3758958578109741,-0.9123743772506714,0.1620962768793106,0.1522711217403412,-0.21080303192138672,-0.5724924206733704,-0.1816820204257965,0.5428981184959412,-0.1448996216058731
119,1.7708142494635792,1.0949296275535023,-0.06019531559155122,0.44897595047950745,-0.8888959884643555,0.09102030843496323,-1.3369030952453613,0.6100067496299744,-0.7919602394104004,-0.4022534489631653,0.3989514112472534,0.000440843403339386
120,1.8199221658242513,1.081774733684789,-0.026565375725294316,0.45525994896888733,-0.8827928900718689,0.11582312732934952,-0.7131572365760803,0.1903853416442871,0.15036028623580933,0.06836062669754028,-0.7890210151672363,-0.3156827688217163
121,1.6478804890731196,1.1827673818595266,0.20463967483940443,0.3772406280040741,-0.9256566166877747,0.029137011617422104,-1.300018310546875,1.0494273900985718,1.2664607763290405,0.5279411673545837,-0.6915916800498962,0.2091900110244751
122,1.463018977069161,1.202990239012712,0.5315141362696104,0.3574828505516052,-0.933118462562561,-0.03867843374609947,-0.13915863633155823,1.2250365018844604,-0.20177841186523438,0.035522520542144775,-0.11508405208587646,0.5921452641487122
123,1.6956745194597582,1.215194165421272,0.40284268743439383,0.34544381499290466,-0.9374369978904724,0.04336404800415039,0.8102308511734009,1.697590708732605,0.42318621277809143,-0.08653268218040466,0.4310741424560547,-0.05006265640258789
124,1.9572733612410478,1.2210472928268148,0.11285279389928575,0.3173880875110626,-0.9394587278366089,0.12915875017642975,0.3467809855937958,-1.499096393585205,0.06973384320735931,0.03263324499130249,0.5076808333396912,-0.24453045427799225
125,1.966570402840203,1.1675468380195704,0.024437387595203388,0.3620753884315491,-0.9197907447814941,0.15128260850906372,1.1768831014633179,-0.9225768446922302,-0.3158970773220062,0.15339705348014832,-0.6342558860778809,-0.24738240242004395
126,1.8354850928698005,1.136419299899658,0.018628825633456306,0.4061886668205261,-0.9071323871612549,0.11009679734706879,-1.4296940565109253,-0.24265845119953156,-0.30587518215179443,0.1327974796295166,-0.5871453881263733,0.44770345091819763
127,1.7324225656536973,1.165527693162741,0.10696735051798655,0.38912734389305115,-0.9189965128898621,0.06344662606716156,0.003987194504588842,-0.26864108443260193,0.3197997212409973,0.14464038610458374,0.07933586835861206,0.16564881801605225
128,1.690728043638588,1.1460082938712655,0.261759048185339,0.409167617559433,-0.9111261367797852,0.049308814108371735,-1.0946803092956543,1.2626172304153442,-0.605697751045227,-0.2640107274055481,0.5096062421798706,-0.04094695299863815
129,1.519292042958009,1.124306780585265,0.40558469650321327,0.4312291741371155,-0.9019684791564941,-0.022229809314012527,0.4407605528831482,-0.901008129119873,0.1772051304578781,-0.37080442905426025,0.4184480309486389,-0.023683903738856316
130,1.8579491756225472,1.1450859979582604,0.07979681733317703,0.3960583209991455,-0.9107456207275391,0.11696185171604156,1.5468169450759888,-0.11395309120416641,0.1893054097890854,0.4202868342399597,-0.8032130599021912,-0.46303117275238037
131,1.4908122801594819,1.2404477592128114,0.3428561912154289,0.3233356773853302,-0.9459293484687805,-0.025916988030076027,-1.9624866247177124,0.3626703917980194,0.92581707239151,0.4551219344139099,-0.5764857530593872,0.411521852016449
132,1.2289223154534796,1.2128166148120167,0.7571685076277511,0.3301052153110504,-0.9366065859794617,-0.11746688187122345,0.7156797647476196,1.8450489044189453,-0.21038562059402466,-0.11825224757194519,-0.16758030652999878,0.6799516677856445
133,1.7211454014781644,1.2442603169863709,0.3224099047281725,0.31714579463005066,-0.9471591711044312,0.048045139759778976,2.810837984085083,-0.926859438419342,0.6952869296073914,-0.009101331233978271,0.4433596134185791,-0.663294792175293
134,1.9598780970423755,1.2249240443071803,-0.09215248001896276,0.3136780858039856,-0.9407801032066345,0.12860235571861267,0.6579710841178894,-1.9168261289596558,-0.16724155843257904,-0.04149186611175537,0.5852199792861938,-0.09413281083106995
135,1.988777028782363,1.1337209678459208,-0.20360184370132448,0.38685041666030884,-0.9059935212135315,0.17182067036628723,0.7681527137756348,-1.578998327255249,-0.8809707760810852,0.12531080842018127,-0.732037365436554,-0.42360591888427734
136,1.7937035415620186,1.1075920062721105,-0.1378104960289278,0.43576207756996155,-0.8946253657341003,0.09877593070268631,-1.36538565158844,-0.46327412128448486,0.2802562117576599,0.24838095903396606,-0.6639682650566101,0.4382418394088745
137,1.7981428002636357,1.1915742198284758,-0.15113428917871627,0.360671728849411,-0.9289528727531433,0.08343999832868576,0.21044491231441498,0.2012169063091278,0.6617397665977478,0.2003481388092041,0.27988988161087036,0.17548644542694092
138,1.7848436342279288,1.1806646960194838,-0.02178836017793596,0.37163105607032776,-0.9248589873313904,0.0807841569185257,-0.8389337062835693,1.3375571966171265,-0.6160014271736145,-0.25264304876327515,0.6836786270141602,-0.05781960487365723
139,1.6205674146638647,1.129176771456092,0.23325143247042265,0.42687493562698364,-0.9040606617927551,0.021263590082526207,-0.8536504507064819,0.20311221480369568,-0.43640220165252686,-0.24080926179885864,0.36682915687561035,-0.018883228302001953
140,1.8481882601023072,1.1125364986578314,0.10408871822638835,0.42547690868377686,-0.8968237042427063,0.12114720046520233,1.5372731685638428,0.2720753848552704,0.2595607340335846,0.34623631834983826,-1.0501519441604614,-0.6112594604492188
141,1.463568544732042,1.2149630395994544,0.4342801977542347,0.34637048840522766,-0.9373565316200256,-0.03728353977203369,-2.218010425567627,0.06857216358184814,0.8377867341041565,0.4945107698440552,-0.4722502827644348,0.2942110300064087
142,1.3015731570126152,1.1833695700330604,0.7810115886081799,0.36419734358787537,-0.9258843064308167,-0.10049004852771759,0.572472095489502,1.0916337966918945,-0.4610190987586975,-0.25965943932533264,-0.08525443077087402,0.5450395941734314
143,1.6900179948416514,1.2039147685520026,0.41948797451434366,0.35615989565849304,-0.93345046043396,0.0426643081009388,2.128519058227539,-0.2843577265739441,0.521081805229187,-0.12085410952568054,0.5047090649604797,-0.4439399242401123
144,1.7771865282237969,1.1929699197562296,0.18091713222170705,0.36107200384140015,-0.9294686913490295,0.07559820264577866,0.48727500438690186,-1.864128828048706,-0.2836085855960846,-0.059695690870285034,0.43969202041625977,-0.04407358169555664
145,1.8601059724110904,1.1150068404856197,0.011340940493043225,0.42187827825546265,-0.8979138135910034,0.12557674944400787,1.435935616493225,-1.5251458883285522,-0.45137545466423035,-0.012423932552337646,-0.6617327928543091,-0.6433684825897217
146,1.707810235815977,1.1101854344128617,0.0740488372226794,0.4403297007083893,-0.8957810997962952,0.06071167811751366,-1.0652410984039307,-0.13960430026054382,0.34170371294021606,0.2870720326900482,-0.35554635524749756,0.36482536792755127
147,1.7934905873852804,1.1724208939945806,-0.09578952460405382,0.3783418536186218,-0.921692430973053,0.08567555993795395,1.1142938137054443,-0.4903528392314911,0.3864525258541107,0.2020566165447235,0.36109989881515503,0.07959245890378952
148,1.8677828872695896,1.125339823931055,-0.15124973613798984,0.41200751066207886,-0.902414083480835,0.12608976662158966,-0.22003614902496338,1.1870695352554321,-0.4312187135219574,-0.36647528409957886,0.5135133266448975,-0.015005826950073242
149,1.8134382131898106,1.1219506136217854,-0.044854082864174,0.4212146997451782,-0.9009485840797424,0.1042584776878357,-0.700953483581543,-0.11899954080581665,0.01602996699512005,-0.19274482131004333,0.2761317491531372,-0.26897716522216797
150,1.7680847290985222,1.136794571546644,0.10579938088611734,0.4123477041721344,-0.9072902798652649,0.08242358267307281,-0.7539464235305786,-0.5061986446380615,0.7447221279144287,-0.057382553815841675,-0.8923770189285278,-0.5865586996078491
151,1.5886057616457845,1.2381227142255524,0.24508290770311977,0.3265194594860077,-0.9451726078987122,0.0058157420717179775,-1.7676374912261963,-1.3656411170959473,0.7346633076667786,0.4488559067249298,-0.2662074565887451,0.21935820579528809
152,1.209400999744813,1.1996137836472773,0.6749308131879697,0.3392878472805023,-0.9318990707397461,-0.12824968993663788,-0.020545143634080887,1.7836668491363525,-0.40965262055397034,0.03868761658668518,-0.1195230484008789,0.4976497292518616
153,1.57563260159614,1.1816324027903216,0.38853060524576244,0.37941017746925354,-0.925226628780365,0.0018349462188780308,1.704656720161438,-0.34409099817276,-0.5238664150238037,-0.1468358039855957,0.43036895990371704,-0.06267178058624268
154,1.9411280553676113,1.0445888108103984,-0.11086282339041037,0.46820828318595886,-0.8647180795669556,0.18177944421768188,1.2240033149719238,0.1664631962776184,-1.0492138862609863,-0.39542388916015625,0.33619940280914307,-0.12143099308013916
155,1.9001563168342508,1.0024207536297554,-0.10665005233001433,0.5093321204185486,-0.8427764773368835,0.1740947663784027,0.23311355710029602,-0.9285057783126831,-0.15065841376781464,0.2829653024673462,-0.696896493434906,-0.2394786924123764
156,1.8256035899756666,1.016300392678492,-0.06438718121217606,0.5095148086547852,-0.8501659631729126,0.13271278142929077,-0.6353551149368286,-0.5415265560150146,0.4191185534000397,0.32846736907958984,-0.3202442526817322,0.25156450271606445
157,1.8028223954461373,1.0949297618008134,-0.018102593367469277,0.4458329379558563,-0.8888960480690002,0.1053420901298523,-0.44172635674476624,-0.14409752190113068,0.580480694770813,0.29099878668785095,0.26989269256591797,0.019566431641578674
158,1.7483527231453906,1.0789192297503543,0.04569012068246421,0.46485626697540283,-0.8814479112625122,0.0834166556596756,-0.1495182067155838,0.636913537979126,-0.5651959180831909,-0.24158966541290283,0.5614100694656372,0.03996586799621582
159,1.7676600425986677,1.0058684085384357,0.0825365575112501,0.5250146985054016,-0.8446272015571594,0.104712575674057,-0.10810892283916473,0.5954071283340454,-0.7589737772941589,-0.2990625500679016,0.29000067710876465,-0.1210547685623169
160,1.8187320782840437,0.984369928947188,0.03231073584329415,0.5364660620689392,-0.8329235911369324,0.13580328226089478,-0.43057823181152344,-0.8329420685768127,0.7019200921058655,0.40414679050445557,-1.0225603580474854,-0.43087780475616455
161,1.7060552419961674,1.1119229008054619,0.18907875612696304,0.4388928711414337,-0.8965520858764648,0.05972886458039284,-0.9332152605056763,1.3568036556243896,0.5635910034179688,0.5801501274108887,-0.46747684478759766,0.05535292625427246
162,1.6652595133806742,1.1074072721527408,0.3095659808251792,0.44498950242996216,-0.8945428133010864,0.042160604149103165,0.06863311678171158,-0.10507912933826447,-0.35373422503471375,-0.06454211473464966,0.034099698066711426,0.6074212789535522
163,1.7507875941749456,1.070571123795306,0.24050977496573758,0.4718751013278961,-0.8774745464324951,0.08586262911558151,0.7349305152893066,0.003609340637922287,-0.25317275524139404,-0.20585334300994873,0.3915126919746399,-0.09723043441772461
164,1.8978377435822693,1.0257119770568228,0.01066531408221313,0.4910084903240204,-0.8550835847854614,0.16656112670898438,1.6775479316711426,-1.2799676656723022,-0.20867839455604553,-0.28197839856147766,0.4120447039604187,-0.3514213562011719
165,1.93744109366524,0.968020705222849,-0.15393444066767276,0.5292502045631409,-0.823765218257904,0.2032364010810852,0.3525726795196533,-0.6170819997787476,-0.2750748097896576,0.19867032766342163,-0.48934507369995117,-0.07893837988376617
166,1.8578547564176737,0.969004989383868,-0.12640287488928423,0.5429548025131226,-0.8243228197097778,0.1602868139743805,-0.5567427277565002,-1.2359960079193115,0.3918890953063965,0.14797836542129517,-0.6420009732246399,0.2488776296377182
167,1.8386394754741842,1.0555295638598794,-0.10696653243518973,0.47519680857658386,-0.8701612949371338,0.1304118037223816,-0.5359027981758118,0.4586133360862732,0.6041403412818909,0.25502777099609375,0.24362021684646606,0.12929271161556244
168,1.7932267582654684,1.0432875782541202,-0.0023501158001977074,0.49098095297813416,-0.8640637993812561,0.11104653030633926,-0.30974075198173523,0.826241672039032,-0.5830051302909851,-0.20614513754844666,0.5908094644546509,0.039969682693481445
169,1.8052103784300217,0.9828666680448627,0.06148192587794071,0.5394704341888428,-0.8320907354354858,0.12882784008979797,-0.07085724174976349,0.35310429334640503,-0.5618957281112671,-0.30070096254348755,0.2736801505088806,-0.16764618456363678
170,1.8126320066848174,0.9672050063633824,0.07062662645659291,0.5510855317115784,-0.8233025074005127,0.13593252003192902,-0.2948795258998871,-0.19981171190738678,0.29564380645751953,0.15051347017288208,-0.6379706263542175,-0.5179667472839355
171,1.7907464741336727,1.045206488996093,0.07656844559914602,0.4896358847618103,-0.8650281429290771,0.10946646332740784,-0.9885674715042114,0.9148879051208496,0.909116804599762,0.5502658486366272,-0.4905473589897156,0.12858593463897705
172,1.6959890777895759,1.0644134448405638,0.3364772336258922,0.4812212884426117,-0.874504566192627,0.06056215241551399,-0.2496672123670578,1.1510907411575317,-0.2835938334465027,-0.0007372796535491943,-0.06030982732772827,0.5578765869140625
173,1.7774081085254236,1.0477654237092504,0.26884609285556393,0.48888450860977173,-0.8663092255592346,0.10247158259153366,0.8394812345504761,-0.2838905453681946,0.04429677501320839,-0.23812156915664673,0.32541561126708984,-0.04964566230773926
174,1.8933716491893056,1.0065169208101987,-0.04948188695932904,0.5072232484817505,-0.8449742197990417,0.16953936219215393,1.8759560585021973,-2.0326716899871826,-0.1944933533668518,-0.2995815873146057,0.5155215263366699,-0.23698316514492035
175,1.8893104216973933,0.9769432108022076,-0.12077810057932124,0.531413733959198,-0.8287907838821411,0.17522896826267242,0.4189220368862152,-0.8704261779785156,0.003268683794885874,0.2657206058502197,-0.3788812756538391,-0.15469063818454742
176,1.834834541348759,0.9962741907221947,-0.12006733309006447,0.5246002078056335,-0.8394520878791809,0.14182576537132263,-0.7801671624183655,-0.3621986210346222,0.41368311643600464,0.2237517237663269,-0.5951790809631348,0.3707626760005951
177,1.8278437241747236,1.0712419832905686,-0.1224491218651558,0.4632958769798279,-0.8777961134910583,0.12178309261798859,-0.33623042702674866,0.3098646402359009,0.7712906002998352,0.2911445200443268,0.16479861736297607,0.058011189103126526
178,1.779897323866038,1.0715725607062714,0.024820112262828375,0.46831610798835754,-0.8779544234275818,0.09937797486782074,-0.7615571618080139,1.5260083675384521,-0.7055239081382751,-0.19747257232666016,0.5946598052978516,0.09457647800445557
179,1.779902070746613,1.0063266611771577,0.14617931219378338,0.5233148336410522,-0.8448724150657654,0.11105146259069443,-0.11465869843959808,-0.03198595345020294,-0.47656747698783875,-0.33134394884109497,0.3385552167892456,-0.19308267533779144
180,1.7059905452864845,1.0231788055919406,0.17127853271049967,0.5159037709236145,-0.8537673950195312,0.07017526775598526,-0.7736803889274597,-1.017366886138916,0.4762212336063385,0.10749399662017822,-0.7080764770507812,-0.5106507539749146
181,1.5859418292521807,1.1394249352099723,0.29383003905500743,0.418069064617157,-0.9083932042121887,0.006332350429147482,-1.0624635219573975,1.2252520322799683,1.8935977220535278,0.5025699138641357,-0.6110617518424988,0.1915283203125
182,1.2782154849613683,1.2033473896995681,0.5081929542614774,0.3439694941043854,-0.9332467913627625,-0.10361242294311523,0.7237718105316162,-1.424828290939331,-0.02503306232392788,0.3520296812057495,-0.11423861980438232,0.8474020957946777
183,1.6543126952182565,1.1801879125040153,0.19155614119313494,0.37942400574684143,-0.9246775507926941,0.03176199644804001,1.6323893070220947,2.081955671310425,-0.6419230103492737,-0.16305440664291382,0.5672557353973389,-0.0981987714767456
184,1.9794831954711534,1.075210316659698,-0.09176649577453017,0.4363829791545868,-0.8796901702880859,0.18898478150367737,0.4945404827594757,-1.8755687475204468,-0.32681792974472046,-0.2716796398162842,0.37866783142089844,-0.567952036857605
185,1.8448976013591818,1.0355406086619512,-0.12217637996710358,0.49101945757865906,-0.8601382374763489,0.1380641609430313,0.20439636707305908,-0.01881282404065132,-0.24597233533859253,0.3085256814956665,-1.0231318473815918,0.3115818202495575
186,1.8299507925440899,1.0320482599158083,-0.1549632155095778,0.49592915177345276,-0.8583516478538513,0.1314789354801178,-0.789078414440155,-0.9434370994567871,0.5172117948532104,0.16814863681793213,-0.5549936294555664,0.3416808843612671
187,1.793189373547143,1.144396736444445,-0.226519292729856,0.40340980887413025,-0.9104607701301575,0.09122446924448013,0.38730475306510925,-1.2182905673980713,0.8473504781723022,0.380449503660202,0.4456931948661804,0.26360344886779785
188,1.8301141985357205,1.1176687715190128,-0.234773092493873,0.4231424629688263,-0.8990823030471802,0.1122560054063797,-0.22868479788303375,1.1520017385482788,-0.5255350470542908,-0.2083597481250763,0.5607491731643677,-0.09365558624267578
189,1.8327260707061555,1.077666070127161,-0.10186360333517637,0.4572391211986542,-0.8808553814888,0.12258073687553406,-0.5281838178634644,1.535208821296692,-0.5223827362060547,-0.33051496744155884,0.2788962721824646,-0.17948082089424133
190,1.7813974945821367,1.112214905979869,0.03100852330138846,0.4328955411911011,-0.8966813683509827,0.09254050999879837,-0.4777837097644806,-0.30375492572784424,0.32992252707481384,0.30389028787612915,-0.9313824772834778,-0.3455770015716553
191,1.5544870976658283,1.2058575692897142,0.2507184284887784,0.3568444848060608,-0.9341456294059753,-0.005820374935865402,-2.018637180328369,-0.7373491525650024,0.3303254246711731,0.3101171553134918,-0.3047001361846924,0.2503730058670044
192,1.2365036572036316,1.1945337450573175,0.5178398999635625,0.3471059203147888,-0.930044412612915,-0.1205596923828125,0.5714558959007263,0.38370564579963684,-0.08877734839916229,-0.055632561445236206,-0.10912477970123291,0.712615966796875
193,1.759220206623192,1.1802235715248073,0.11735941032645104,0.37397971749305725,-0.9246911406517029,0.07131266593933105,1.7656364440917969,1.6772745847702026,-0.40509873628616333,-0.19595545530319214,0.6327142119407654,-0.10659098625183105
194,1.970672396165313,1.076059232624647,-0.21496628022798317,0.4373425841331482,-0.8800935745239258,0.184841588139534,-1.0616503953933716,-1.403116226196289,-0.3586195111274719,-0.19535353779792786,0.3299838900566101,-0.07241490483283997
195,1.8914066444044062,1.0388863844585325,-0.15516596108394765,0.48133614659309387,-0.8618399500846863,0.1598358005285263,1.3705564737319946,-1.499961495399475,-0.28862738609313965,-0.21322396397590637,-0.6540597081184387,-0.316070556640625
196,1.7778283422321899,1.066753605137611,-0.07882603250302142,0.4726557433605194,-0.8756372332572937,0.09927736222743988,-0.7179880738258362,-0.3343576192855835,0.4240686297416687,0.3439335823059082,-0.2271459698677063,0.18612301349639893
197,1.6537181491868949,1.1501758758042409,-0.09428941648308523,0.40692394971847534,-0.9128357768058777,0.03382042795419693,0.3344224989414215,-1.6893490552902222,0.15269416570663452,0.22410327196121216,0.4295288920402527,0.19789958000183105
198,1.6794420542074682,1.105027206944392,-0.08118830573793602,0.4464622735977173,-0.8934764266014099,0.048697978258132935,-0.2790859341621399,1.5799992084503174,-0.7253575325012207,-0.3325096666812897,0.5344828367233276,0.010857105255126953
199,1.68742232024783,1.0591078448167015,-0.002459857496766811,0.48632368445396423,-0.8719189763069153,0.05697654187679291,-1.1772983074188232,0.5017377138137817,-0.22049580514431,-0.193507581949234,0.1939711570739746,-0.2643740177154541
200,1.6598804271415946,1.0772849657760717,0.14754251815035377,0.47184285521507263,-0.8806748986244202,0.042145244777202606,-0.8805259466171265,-0.29602330923080444,0.7166380286216736,-0.16674330830574036,-0.9141708016395569,-0.6782689094543457
201,1.4957155555466761,1.1874752322367284,0.30312600296267295,0.3729485869407654,-0.9274276494979858,-0.028054000809788704,-1.546072244644165,-0.7552238702774048,0.7918746471405029,0.32404232025146484,-0.09192031621932983,0.28707194328308105
202,1.401191942077536,1.2016597613153435,0.4024506300082649,0.3556331992149353,-0.9326392412185669,-0.06090203672647476,0.8299437761306763,0.6459326148033142,-0.20254755020141602,0.02986481785774231,0.1410895586013794,0.49286311864852905
203,1.9079909498027119,1.1485621174908205,-0.04191006371002553,0.38672250509262085,-0.9121756553649902,0.13557855784893036,2.441709041595459,-0.6992305517196655,-0.5933495759963989,-0.15167608857154846,0.6487020254135132,-0.5302014350891113
204,1.9136837340772415,1.067550301811325,-0.12320316266723205,0.45419764518737793,-0.8760217428207397,0.1621435284614563,0.44292670488357544,-0.11420959234237671,-0.7224493622779846,-0.28471827507019043,0.017577528953552246,-0.13063406944274902
205,1.913813343382922,1.0187257309754894,-0.2037192871172777,0.49389907717704773,-0.8514404296875,0.1763886660337448,0.5591418743133545,-1.0009961128234863,-0.2726835012435913,-0.02434036135673523,-0.6089630126953125,-0.4051790237426758
206,1.811193470098909,1.054280874577114,-0.07590238751615898,0.479651540517807,-0.8695452809333801,0.11758065968751907,-0.6773824691772461,0.12202315032482147,0.7445709705352783,0.3549736440181732,-0.03621631860733032,0.2688634395599365
207,1.725255374937368,1.1441535115760864,-0.1270596462134112,0.4088900685310364,-0.9103601574897766,0.06366386264562607,0.38754305243492126,-1.7204346656799316,-0.14222827553749084,0.19380152225494385,0.5498409271240234,0.2816272974014282
208,1.7577359238674966,1.0915693975036769,-0.1378728614590092,0.453059583902359,-0.8873516321182251,0.08569535613059998,0.19577687978744507,1.3753013610839844,-0.8216348886489868,-0.37940552830696106,0.5644453167915344,-0.05935873091220856
209,1.7839047215490833,1.0624076297139513,-0.09669500266275272,0.4757589101791382,-0.8735299706459045,0.10295147448778152,-0.8909273743629456,0.16250409185886383,0.11469179391860962,-0.2341664731502533,0.1518043875694275,-0.4195713996887207
210,1.8008607615032508,1.0911944067483117,-0.01862061479506464,0.4492681920528412,-0.8871786594390869,0.10522370040416718,-0.701305627822876,0.5745663642883301,0.6709398627281189,-0.2137487828731537,-0.9441811442375183,-0.6379995346069336
211,1.5962642774886366,1.1899238959479688,0.11840510077852935,0.3716101050376892,-0.9283406734466553,0.009466194547712803,-2.0235722064971924,-1.6268714666366577,0.26658618450164795,0.3864923119544983,-0.24788308143615723,0.32052040100097656
212,1.452815649883105,1.1810889488788219,0.2811719723938502,0.37727639079093933,-0.9250202775001526,-0.04471900314092636,0.3631574809551239,1.306514859199524,-0.41170910000801086,-0.11723613739013672,0.07020777463912964,0.45138096809387207
213,1.7975169670152982,1.135882115709306,0.02325440224954452,0.41054999828338623,-0.9069061875343323,0.09470848739147186,1.9590378999710083,0.2502017617225647,-0.42897412180900574,-0.235287606716156,0.6099397540092468,-0.3341341018676758
214,1.9409876150961747,1.0316518921092197,-0.23952223096295303,0.47862330079078674,-0.8581482172012329,0.18574568629264832,-0.37832510471343994,-0.2654944360256195,-0.5374364852905273,-0.39527979493141174,0.11194765567779541,-0.1728520393371582
215,1.9047733857236813,1.0110028575020467,-0.24609661445090095,0.5016708970069885,-0.8473647832870483,0.17406706511974335,0.7017422914505005,-1.3582619428634644,-0.026170574128627777,0.12711328268051147,-0.5206466913223267,-0.36457300186157227
216,1.7739289970068721,1.047539312515362,-0.1274278675995148,0.48942992091178894,-0.8661962151527405,0.10080960392951965,-0.6337417364120483,-0.32046347856521606,0.3552945852279663,0.27030524611473083,-0.0619959831237793,0.31937170028686523
217,1.7010719175751,1.1343481196439618,-0.15339484536451203,0.4191412031650543,-0.9062588214874268,0.05491488799452782,0.27867501974105835,-0.8277679681777954,0.16958023607730865,0.15463504195213318,0.49123501777648926,0.17534029483795166
218,1.7522989820390806,1.0818919199422359,-0.1706616739963215,0.4619438052177429,-0.8828479647636414,0.08477701991796494,-0.11699770390987396,1.019816517829895,-0.9829702973365784,-0.4056084454059601,0.4707387089729309,0.009964808821678162
219,1.7767475091780414,1.0349030753646218,-0.13148171632050315,0.49981868267059326,-0.85981285572052,0.10441877692937851,-0.5576326847076416,0.3103293776512146,-0.030088534578680992,-0.04893672466278076,0.3417922258377075,-0.3566007614135742
220,1.7279053560513522,1.0546758888499908,0.025157678536631558,0.4874313175678253,-0.8697403073310852,0.07721622288227081,-1.3384069204330444,0.3209969401359558,0.4735454022884369,-0.3116500675678253,-1.15723717212677,-0.5688391923904419
221,1.6086055116229419,1.1366479099527644,0.10857934004725978,0.420337438583374,-0.9072285890579224,0.01590019278228283,-1.5774070024490356,-0.06976145505905151,0.5271661281585693,0.40742138028144836,-0.37122905254364014,0.3833308219909668
222,1.4201736826783884,1.1232632915944556,0.37490248741662724,0.42784321308135986,-0.901517391204834,-0.06493468582630157,0.34601303935050964,0.7677803039550781,-0.051628727465867996,-0.05032557249069214,-0.07461780309677124,0.36905765533447266
223,1.7765368824068417,1.129803346493745,0.05545862962850109,0.4178352952003479,-0.9043282866477966,0.08719951659440994,1.981398582458496,-0.55803382396698,0.039659738540649414,-0.21298617124557495,0.6424418091773987,-0.3714708089828491
224,1.8802753643115744,1.0730013614679648,-0.13731178333213442,0.4548049867153168,-0.8786375522613525,0.14542533457279205,0.19094622135162354,0.1492627114057541,-0.5865393877029419,-0.2959304451942444,0.28253769874572754,-0.09386587142944336
225,1.8992399048852011,1.0281479826278013,-0.1749079287042531,0.48880141973495483,-0.8563440442085266,0.1665770560503006,0.4748350977897644,-1.3264775276184082,-0.1953241229057312,0.051939547061920166,-0.6690617799758911,-0.5209472179412842
226,1.7951798172833144,1.0511688377057384,-0.08017152927119583,0.48410892486572266,-0.8680042028427124,0.11048656702041626,-0.9253273606300354,-0.14672665297985077,0.29506492614746094,0.30541133880615234,-0.2136150598526001,0.3770928382873535
227,1.7037766116139719,1.1390151615362742,-0.035867481787189966,0.4147939383983612,-0.9082217812538147,0.05548687279224396,0.16776078939437866,-1.5877147912979126,0.4666743576526642,0.2999429702758789,0.3430517315864563,0.17456983029842377
228,1.6534857139234087,1.1188701031206787,-0.048260930483360984,0.4352073669433594,-0.8996075987815857,0.03606927767395973,-0.07868845015764236,0.8153539299964905,-0.573713481426239,-0.3023795783519745,0.5450084209442139,0.18464910984039307
229,1.7656301959816412,1.0528409444326037,-0.06233966043212471,0.48573747277259827,-0.8688333034515381,0.09585407376289368,-0.9251075983047485,-0.06543035805225372,-0.2239183485507965,-0.397556871175766,0.31735002994537354,-0.4895460605621338
230,1.751949037423075,1.0580422356014452,0.04162355222782087,0.4825514554977417,-0.8713967204093933,0.08838444203138351,-0.6407887935638428,0.5886558890342712,0.13146337866783142,0.4233475923538208,-1.0601370334625244,-0.35590147972106934
231,1.7258953797591128,1.1260552140868398,0.04769823113948514,0.42505988478660583,-0.9027220606803894,0.06646015495061874,-0.16308428347110748,-0.543999433517456,1.0442966222763062,0.7360423803329468,-0.5041382908821106,0.37721967697143555
232,1.3904692698320407,1.1385146039445697,0.36294119829324933,0.4121507406234741,-0.9080122113227844,-0.0751381441950798,-0.7105788588523865,-0.02612273395061493,-0.3721926510334015,0.07930430769920349,-0.06923699378967285,0.4044533371925354
233,1.6961155716835927,1.1015639422932781,0.11260371147617346,0.4486555755138397,-0.8919156789779663,0.056521378457546234,1.684135913848877,0.2861664593219757,-0.4580686092376709,-0.1411147117614746,0.4024900197982788,0.01900959014892578
234,1.9295252035985637,0.9720558069506257,-0.2874275268273355,0.5277257561683655,-0.8260461091995239,0.19787199795246124,1.0291887521743774,0.582345187664032,-1.1570754051208496,-0.5164647698402405,0.2508661150932312,-0.16334129869937897
235,1.8939082825297402,0.9490110900487051,-0.19724064865227164,0.552344560623169,-0.8128398656845093,0.18495075404644012,0.3268762528896332,-1.0105555057525635,0.32427939772605896,0.19381016492843628,-0.694362223148346,-0.09539689123630524
236,1.8414238367676692,0.9776336755124588,-0.18712545154916874,0.5386411547660828,-0.8291769623756409,0.14943727850914001,-1.5956223011016846,0.3714596629142761,0.5074613094329834,0.42302876710891724,-0.5044870376586914,0.2279735803604126
237,1.8124957043892844,1.0809354529465172,-0.10345732518066318,0.45682671666145325,-0.8823983073234558,0.11261628568172455,-0.2500446140766144,-0.9319179058074951,0.7842758893966675,0.22958987951278687,0.42324620485305786,0.09526943415403366
238,1.6484912748987006,1.0880504076244635,-0.08483700043355584,0.46281254291534424,-0.8857235908508301,0.03603072464466095,0.20467954874038696,-0.43151870369911194,-0.4244675636291504,-0.3585340082645416,0.5060544610023499,0.18606090545654297
239,1.8577213128372543,1.038289519308805,-0.15560553537130845,0.48693931102752686,-0.8615370988845825,0.14367972314357758,-1.1906108856201172,0.18179920315742493,-0.05677013099193573,-0.11064234375953674,0.2945052981376648,-0.7024718523025513
240,1.8780699571823491,1.0538878448632445,-0.09031838700732404,0.47104787826538086,-0.8693511486053467,0.14947479963302612,-0.45571643114089966,0.23190274834632874,0.4420371949672699,0.14902356266975403,-0.8720582723617554,-0.4607694149017334
241,1.6885071097598345,1.1502944450269184,0.05985166025194004,0.4053938686847687,-0.9128841757774353,0.047940853983163834,-1.5310297012329102,-0.8922592401504517,0.3759918212890625,0.4384934902191162,-0.3658785820007324,0.23170697689056396
242,1.5406154715427904,1.1445145290473404,0.2427558533993576,0.41329988837242126,-0.910509467124939,-0.012477532960474491,0.009049066342413425,0.7887622117996216,-0.37331071496009827,0.007751107215881348,-0.01800304651260376,0.4516712427139282
243,1.7295520836857183,1.1207366624162511,0.10801404768837895,0.4295489192008972,-0.900421142578125,0.0687720999121666,0.9890186190605164,0.4795074164867401,-0.04794204980134964,-0.17820614576339722,0.47998046875,-0.0767829418182373
244,1.9440931090711764,1.0259946794621273,-0.20620697069372332,0.4825567603111267,-0.8552300930023193,0.18899855017662048,1.1250300407409668,-0.49800416827201843,-0.950038731098175,-0.3358282446861267,0.31264281272888184,-0.18022477626800537
245,1.9065027481983636,0.9916523811534379,-0.21362885692361264,0.5167556405067444,-0.8369314670562744,0.1803029477596283,0.6455458402633667,-2.070770502090454,0.1504148244857788,0.25451499223709106,-0.7955452799797058,-0.5499318838119507
246,1.7913871866218125,1.0379200841273168,-0.13595822957507767,0.49570319056510925,-0.8613494634628296,0.11115644127130508,-1.102992057800293,-0.5248633027076721,0.6101452112197876,0.2671142518520355,-0.23697829246520996,0.3250923156738281
247,1.7713819480943993,1.1332862431183228,-0.21214542901634184,0.4151903986930847,-0.9058094024658203,0.08441642671823502,0.5929756164550781,-1.1590884923934937,0.7776915431022644,0.2939617931842804,0.4547443985939026,0.21483898162841797
248,1.8369788800868696,1.0943899972972344,-0.26065428217780656,0.442438006401062,-0.8886486887931824,0.1206318810582161,-0.5580596923828125,1.5233771800994873,-0.8050951957702637,-0.3256778120994568,0.4701763987541199,-0.07686973363161087
249,1.7625692677966611,1.0425093672740504,-0.13129196878670443,0.49481409788131714,-0.8636717796325684,0.09607260674238205,-0.5155459642410278,0.6576886177062988,-0.41179922223091125,-0.10698148608207703,0.31556087732315063,-0.09892595559358597
250,1.7180431354731807,1.0421279415265536,0.01406983253883875,0.49892622232437134,-0.863479495048523,0.07400088757276535,-1.0711584091186523,0.5334107875823975,0.12544198334217072,0.20592308044433594,-0.9142305850982666,-0.3629871606826782
251,1.6009172065672073,1.1218384003982373,0.06577292022491689,0.4338301122188568,-0.9008998870849609,0.01307129766792059,-1.5932252407073975,-1.031248688697815,0.2427523285150528,0.4627305269241333,-0.49537086486816406,0.41621947288513184
252,1.4456795903297608,1.081779979977202,0.31177942174582524,0.46608585119247437,-0.8827953934669495,-0.058621350675821304,0.06749788671731949,2.0373294353485107,-0.5321632027626038,-0.1380523443222046,0.07392686605453491,0.3330506682395935
253,1.7531081777908681,1.0722077871957232,0.0735777615890538,0.4702613949775696,-0.8782584071159363,0.08669689297676086,1.7139596939086914,-1.3186248540878296,0.21562790870666504,-0.24482810497283936,0.5465323328971863,-0.14112496376037598
254,1.895162125561916,0.9979207435665987,-0.24757278112897763,0.513784646987915,-0.8403457403182983,0.17275580763816833,0.589928925037384,0.2727946639060974,-0.8561808466911316,-0.38117045164108276,0.06847977638244629,-0.14396248757839203
255,1.8728140336312757,0.9624786300441138,-0.2460445522308412,0.5456211566925049,-0.8206105828285217,0.16998741030693054,0.32169583439826965,-1.316545844078064,-0.06757285445928574,-0.17738085985183716,-0.491141676902771,-0.48332667350769043
256,1.785682913233746,1.003136740823717,-0.11189716907603364,0.5252941846847534,-0.8431616425514221,0.11464881151914597,-0.9204198122024536,0.816251814365387,0.4030652642250061,0.2908373475074768,-0.0672386884689331,0.43944358825683594
257,1.7456823815377691,1.0858069774497368,-0.0511543619175157,0.4590878188610077,-0.884679913520813,0.08111673593521118,0.13802585005760193,-1.7696166038513184,0.17655479907989502,0.19145536422729492,0.437566876411438,0.05122268199920654
258,1.7097287347934125,1.0586849687713238,-0.1368429491365102,0.485297292470932,-0.8717118501663208,0.06786070019006729,0.9248532652854919,0.6863155364990234,-0.7151246666908264,-0.4317999482154846,0.5037461519241333,0.12125670909881592
259,1.857130864883564,1.0156853255218687,-0.1709440211944895,0.5055795907974243,-0.8498419523239136,0.14885540306568146,-0.3350575864315033,0.5653886198997498,0.04127488657832146,-0.06347143650054932,0.3073614835739136,-0.22994065284729004
260,1.90267050887467,1.0260970040966653,-0.12889080782205167,0.4898865520954132,-0.8552831411361694,0.16882485151290894,-0.5575128197669983,0.5465070605278015,0.6561949849128723,-0.001986771821975708,-1.0962700843811035,-0.5196244716644287
261,1.7167803688599752,1.13338692897369,-0.029940745644283544,0.4190884530544281,-0.9058520793914795,0.06161857396364212,-1.310970425605774,-1.84212327003479,0.12364084273576736,0.4846590757369995,-0.20349234342575073,0.3148462772369385
262,1.6067606408573774,1.1161449614535828,0.13252400356063643,0.43886470794677734,-0.8984141945838928,0.01579027622938156,0.35489243268966675,1.5006866455078125,-0.6669803261756897,-0.1204138994216919,0.12131476402282715,0.37532293796539307
263,1.9389432624564915,1.0296968243326148,-0.1265374622951058,0.48056623339653015,-0.8571428656578064,0.18537019193172455,1.7862616777420044,-1.2817057371139526,-0.4327225685119629,-0.22316578030586243,0.44094419479370117,-0.5452792644500732
264,1.9553500332221319,0.9377237447713543,-0.30221199582121056,0.5484157204627991,-0.8062134981155396,0.22194524109363556,0.12077166140079498,-0.15113705396652222,-0.3530958890914917,-0.3891903758049011,0.1192171573638916,-0.16405346989631653
265,1.9002451146875023,0.9316972967170544,-0.3075197820768995,0.564395010471344,-0.8026334643363953,0.19297179579734802,0.01063535176217556,-0.9087850451469421,-0.08542477339506149,0.020276129245758057,-0.562066912651062,-0.18731066584587097
266,1.8526156062995764,0.9861397465529385,-0.22867597538762693,0.5301405191421509,-0.8339016437530518,0.15348897874355316,-0.6413266658782959,0.4613027274608612,1.148518681526184,0.33347636461257935,-0.2133394479751587,0.38870155811309814
267,1.7924967291104004,1.1180222492987784,-0.23039727186150516,0.42675507068634033,-0.8992370367050171,0.09619295597076416,0.18490248918533325,-2.396772623062134,0.3867218792438507,0.30554479360580444,0.538564920425415,0.14126433432102203
268,1.7729986282359929,1.089869479515399,-0.269857729768575,0.45317649841308594,-0.8865665197372437,0.09290293604135513,0.46104320883750916,1.3845875263214111,-0.6039048433303833,-0.29764366149902344,0.5834811925888062,0.0013201236724853516
269,1.8813435768484368,1.0492461081396471,-0.2202349661868664,0.47439321875572205,-0.8670478463172913,0.15224750339984894,-0.386805921792984,1.325278639793396,-0.2651970386505127,-0.08012133836746216,0.15267711877822876,-0.32306957244873047
270,1.959450133545149,1.0541766923123026,-0.18179376577537967,0.45710569620132446,-0.869493842124939,0.18717661499977112,-0.6019224524497986,0.040994465351104736,-0.2677890658378601,0.1605701446533203,-1.021756887435913,-0.5205506086349487
271,1.8618513860322363,1.120852715401133,-0.17750427949865016,0.41662290692329407,-0.9004716277122498,0.12480445951223373,-2.1468377113342285,-1.2440879344940186,1.3445799350738525,0.41789549589157104,-0.07682323455810547,0.5100831985473633
272,1.4294300771556236,1.1138298250958805,0.26589523700921774,0.43682652711868286,-0.8973950743675232,-0.0621672086417675,0.6687703132629395,1.778196096420288,-0.5552417635917664,-0.20506080985069275,0.014399468898773193,0.3295775055885315
273,1.9045407211424308,1.05718811421464,-0.16504887445003572,0.46421295404434204,-0.8709774017333984,0.16094911098480225,1.7006653547286987,-1.63078773021698,-0.16162638366222382,-0.25719699263572693,0.5225430130958557,-0.48608338832855225
274,1.9612606863041653,0.97736531621713,-0.3277210345680057,0.5171185731887817,-0.8290269374847412,0.2128448784351349,0.49750328063964844,0.39876845479011536,-0.6152315139770508,-0.34440428018569946,0.13812410831451416,-0.1863708198070526
275,1.8800623323857835,0.9449145207236296,-0.3332026168595435,0.5580193400382996,-0.8104468584060669,0.17829744517803192,0.16416873037815094,-0.7028669714927673,-0.5504082441329956,0.2818395495414734,-0.7219932079315186,-0.14233256876468658
276,1.8835192530769205,0.9244625950177215,-0.2634226767543388,0.5730535387992859,-0.7982972264289856,0.18528680503368378,-0.8236148953437805,0.34637460112571716,0.2123381346464157,0.1452692151069641,-0.3781554102897644,0.3030097484588623
277,1.8281656211507598,1.0265819802400344,-0.2465313766991736,0.5006928443908691,-0.8555343151092529,0.13178567588329315,0.03201819211244583,-1.8629273176193237,0.7842049598693848,0.18970632553100586,0.5133712887763977,0.15929068624973297
278,1.8314316498086711,1.0101560239494425,-0.28540530016931365,0.5137702226638794,-0.8469148278236389,0.13702352344989777,0.7822237014770508,2.2342522144317627,-0.4207935631275177,-0.34676283597946167,0.4443880319595337,0.05871628224849701
279,1.9269875906058491,0.9720318843425105,-0.26467674039298617,0.5282447338104248,-0.8260326385498047,0.19653910398483276,-0.49877285957336426,0.6073271632194519,-0.4733561873435974,-0.1029822826385498,0.3513164520263672,-0.4894315004348755
280,2.0742771545295664,0.9266251139062327,-0.2714115052689953,0.5260145664215088,-0.7995977401733398,0.2897450029850006,-0.09486960619688034,0.4926599860191345,-0.26083067059516907,-0.04250931739807129,-1.0757837295532227,-0.3375203609466553
281,2.052658640416573,0.9389911251521916,-0.2900923221484431,0.5233526825904846,-0.8069626688957214,0.27370309829711914,-0.3438258469104767,-0.3529372811317444,1.344518780708313,0.6579827666282654,-0.036573827266693115,0.37172845005989075
282,1.5889488281617252,1.130893421702923,0.09939028877392521,0.42578110098838806,-0.9047930240631104,0.0077298409305512905,-1.8890219926834106,-0.3144579827785492,-0.5488502383232117,-0.06155392527580261,-0.4002452492713928,0.6140657663345337
283,1.7785284111388115,1.088698330091593,0.014865086225354707,0.45367175340652466,-0.8860241770744324,0.09562159329652786,1.317644715309143,0.9385565519332886,-0.09355950355529785,-0.19160196185112,0.3946300148963928,0.008321300148963928
284,1.9329335869902433,1.0205284865472497,-0.16933175459012348,0.4889999032020569,-0.8523845076560974,0.18525511026382446,1.2613372802734375,-0.011831252835690975,-0.5659905672073364,-0.39662331342697144,0.5423566102981567,-0.24911311268806458
285,2.057163586983753,0.9410520753411147,-0.2473558658191551,0.5206427574157715,-0.8081781268119812,0.2752798795700073,-0.5100486874580383,-0.1751481294631958,-0.24987736344337463,0.327089786529541,-0.8943211436271667,-0.33359912037849426
286,1.8681082877290816,0.9263396124086458,-0.19882833409661582,0.5744069218635559,-0.799426257610321,0.17599451541900635,-0.12774202227592468,-0.779002845287323,0.15100693702697754,-0.014760434627532959,-0.6305357813835144,0.43692052364349365
287,1.8457075819012578,0.9733134137106166,-0.2966519354129392,0.5414388179779053,-0.8267542719841003,0.152714341878891,0.6507328748703003,-2.286470413208008,1.0049442052841187,0.2967875003814697,0.23893988132476807,0.3341935873031616
288,1.8427589899221526,0.9621773874772853,-0.37638558881259476,0.5507211089134216,-0.8204383850097656,0.15358085930347443,0.05681818723678589,1.2554481029510498,-0.410711407661438,-0.1338663101196289,0.3657417297363281,0.06924319267272949
289,1.9497667758398223,0.9625165035323118,-0.27177593873075695,0.5309097766876221,-0.8206322193145752,0.21141858398914337,-1.477697730064392,-0.2411254197359085,-0.1989731341600418,-0.2930099368095398,0.5244437456130981,-0.703972339630127
290,1.941533675765064,0.9885318749801604,-0.15384652357045403,0.5125557780265808,-0.8352195620536804,0.1992364227771759,-0.06422583758831024,1.1477901935577393,0.15380053222179413,-0.05079430341720581,-1.2570199966430664,-0.06131216883659363
291,1.8891841890135224,1.0275858014746664,-0.17556689525108174,0.4909090995788574,-0.8560535907745361,0.1618042141199112,0.8368756175041199,-1.3180019855499268,-1.0835036039352417,0.7500424385070801,0.003819704055786133,0.0576171875
292,1.7314636871026843,1.1257961505190073,-0.03020445163174732,0.42491400241851807,-0.9026105999946594,0.06886337697505951,-1.9466952085494995,-0.7222280502319336,0.015297753736376762,0.17896783351898193,-0.3136521577835083,0.4914698600769043
293,1.7449590567316944,1.1026780470246578,0.11158242226376776,0.4443820118904114,-0.8924189209938049,0.07818692922592163,0.6099505424499512,1.7955375909805298,0.2434442788362503,-0.21069365739822388,0.23026371002197266,-0.051102638244628906
294,1.9390238560883466,1.0613011977625204,-0.08807394888126907,0.4550422728061676,-0.8729908466339111,0.1755668818950653,1.7701658010482788,-1.1612929105758667,-0.6521076560020447,-0.24622568488121033,0.5873004198074341,-0.4336235523223877
295,2.027974470631584,0.9750713928310056,-0.21276454893681276,0.5034840703010559,-0.8277419209480286,0.24768352508544922,-0.44631126523017883,0.24193215370178223,-0.1594165861606598,0.2200877070426941,-0.7652450799942017,-0.11947917938232422
296,1.970986837393955,0.9616247691124434,-0.30355255155212485,0.5269777178764343,-0.8201223015785217,0.2229209691286087,-0.4951295554637909,-0.24870909750461578,0.6022608280181885,-0.1323702335357666,-0.5027077794075012,0.4908241033554077
297,1.9561325690992335,1.053073815399546,-0.2407214521020203,0.45861193537712097,-0.8689485788345337,0.1860191971063614,-0.22438018023967743,-0.5462186336517334,0.9601329565048218,0.30142828822135925,0.383749783039093,0.20997688174247742
298,1.9009953015219248,1.0710415006588934,-0.2844351312700486,0.4533222019672394,-0.8777000904083252,0.1553749144077301,-0.15040886402130127,-0.43276384472846985,-0.23722481727600098,-0.22834664583206177,0.5166314840316772,0.09814988076686859
299,1.9728522878524701,1.0210903486010479,-0.2919879204312685,0.4807765781879425,-0.8526781797409058,0.20443524420261383,0.9096184968948364,1.5686306953430176,-0.11184150725603104,-0.3023402988910675,0.18124574422836304,-0.38958537578582764
300,2.0051214440460328,1.0450740296527548,-0.26328178925821355,0.455244243144989,-0.8649616837501526,0.2111724615097046,0.07550714164972305,0.9769451022148132,0.34953904151916504,0.1960923969745636,-0.9134348034858704,0.029168695211410522
301,2.0355601427337873,1.07727689572771,-0.2645686065060955,0.4234791100025177,-0.8806710839271545,0.21233074367046356,0.47147247195243835,-0.22034083306789398,1.075528860092163,0.8575268387794495,-0.06169670820236206,-0.004353359341621399
302,1.7099501550760017,1.1809347873037879,0.05029977158450826,0.3763868510723114,-0.9249616861343384,0.05271637439727783,-2.870652914047241,0.13579656183719635,-0.5901491641998291,-0.052625805139541626,0.12508058547973633,0.41546905040740967
303,1.7147513298492578,1.1242441623633042,0.10507938217230027,0.4273912310600281,-0.9019414186477661,0.06195365637540817,2.0869553089141846,1.5632696151733398,-0.31463927030563354,-0.26415279507637024,0.13147950172424316,0.49413764476776123
304,1.949997417533313,1.055398082853717,-0.1570455331431088,0.4578675329685211,-0.8700965046882629,0.18245409429073334,2.5689711570739746,-2.4533581733703613,-0.28377658128738403,-0.09977427124977112,0.26288825273513794,-1.0030107498168945
305,1.9518268391536402,1.0002358256090493,-0.27983234972772353,0.5013684630393982,-0.841598391532898,0.20085228979587555,-0.7790781259536743,-0.018978379666805267,0.20405468344688416,0.07417774200439453,-0.0034332275390625,-0.29617395997047424
306,1.832042410229751,1.0048355997844725,-0.21488806691971038,0.5180320143699646,-0.8440738320350647,0.13849909603595734,0.2456822693347931,-0.7105496525764465,0.1099272295832634,-0.0206412672996521,-0.34296828508377075,0.04982481896877289
307,1.8584131850745844,1.0529651219769272,-0.2690867672582643,0.4746635854244232,-0.8688947558403015,0.14041464030742645,0.3810969293117523,0.35624033212661743,1.3264027833938599,0.15570750832557678,0.22721701860427856,0.11086712777614594
308,1.8413471802471653,1.122213428158255,-0.384993783114343,0.4179130494594574,-0.9010626077651978,0.11590871214866638,0.4874359369277954,-2.1294782161712646,-0.38379138708114624,0.2794899046421051,0.5329595804214478,-0.02698040008544922
309,1.9631826069514755,1.0557733518845507,-0.5971202700158948,0.45512038469314575,-0.8702813982963562,0.18835026025772095,1.1095459461212158,-0.4749528467655182,-0.00033898407127708197,-0.380871057510376,0.1919824481010437,-0.18590891361236572
310,2.059267660987379,1.0272818625479196,-0.6353413086118538,0.4566675126552582,-0.8558964729309082,0.24268506467342377,0.6009392738342285,0.870326042175293,-1.077552080154419,0.07084405422210693,-0.6153407096862793,-0.26658034324645996
311,2.1332184040536513,1.015656828152134,-0.6778474341843628,0.44587650895118713,-0.8498269319534302,0.28104880452156067,0.4454461932182312,-0.32294711470603943,0.4525493085384369,0.6693883538246155,-0.22408664226531982,-0.21613788604736328
312,2.214964543968581,1.081810908479101,-0.8434565642677392,0.375596284866333,-0.8828098773956299,0.28208890557289124,-2.0679545402526855,-1.9633156061172485,1.7349056005477905,0.2427661418914795,0.11103558540344238,0.2288973331451416
313,1.5380725597115519,1.150756259041281,-0.28800549153688465,0.40757858753204346,-0.9130725860595703,-0.013342269696295261,-0.6669215559959412,0.9692612290382385,-0.5249029397964478,-0.25029104948043823,0.06868177652359009,0.2435058355331421
314,1.6796419620162482,1.1402683174013406,-0.46798546844326044,0.41488075256347656,-0.908745527267456,0.045337144285440445,1.2996693849563599,-1.5309062004089355,0.11339489370584488,-0.35735514760017395,0.48117905855178833,0.08019685745239258
315,1.886388063562385,1.0969824576840246,-0.7558162030034998,0.43374869227409363,-0.8898345828056335,0.14162074029445648,1.1754038333892822,0.5880391597747803,-0.5993443131446838,-0.23999258875846863,0.3620331287384033,-0.04147733747959137
316,2.0295791779818386,0.9850967306085482,-0.7929887003106234,0.4956202507019043,-0.8333255648612976,0.24480357766151428,0.6919994354248047,1.03082275390625,-1.0399941205978394,0.14799538254737854,-0.7382990717887878,-0.5221473574638367
317,1.914874789828355,0.9324792215649594,-0.8158741672085824,0.5609203577041626,-0.8030996322631836,0.20099589228630066,-1.9814265966415405,-2.1089882850646973,0.9220457077026367,0.0694812536239624,-0.5594186782836914,0.20690202713012695
318,1.849550227977246,1.067660929359742,-0.8474943516835547,0.4635621905326843,-0.8760750889778137,0.13267412781715393,0.5317894816398621,-1.3812650442123413,1.1520228385925293,0.6646115779876709,0.494925856590271,0.4932718276977539
319,1.9814844237713907,1.042079530116857,-0.9638174932860438,0.4624808728694916,-0.863455057144165,0.20138707756996155,0.7160427570343018,1.4432812929153442,-0.3186857998371124,-0.07205423712730408,0.45252060890197754,-0.1632249355316162
320,2.1526705369445187,0.9981787477533179,-1.0138949327504247,0.45266661047935486,-0.8404855728149414,0.2977869510650635,0.010790135711431503,0.2980895936489105,-0.28395727276802063,-0.31115663051605225,0.4541788101196289,-0.330517053604126
321,2.1470729020168333,1.0020422482545013,-0.9487529707520219,0.45160019397735596,-0.8425726890563965,0.29347676038742065,-0.9644344449043274,2.520857810974121,0.41474419832229614,-0.11682236194610596,-1.6321892738342285,0.01899266242980957
322,2.065290632643494,1.0965291650814764,-0.7972112054183537,0.40197959542274475,-0.8896276354789734,0.21673734486103058,-0.18537186086177826,-1.0743645429611206,2.312851667404175,0.6656625866889954,-0.07013487815856934,-0.05127111077308655
323,1.4680316441105399,1.1909030264034823,-0.36765237232345105,0.3688647747039795,-0.9287042021751404,-0.03804027661681175,-2.7368979454040527,-0.3143991529941559,-0.14909537136554718,0.11959955096244812,-0.08196157217025757,0.6676331758499146
324,1.5435143484406335,1.15253738588131,-0.3056267441980312,0.4060187339782715,-0.9137974977493286,-0.011079743504524231,1.3950599431991577,1.368587613105774,-0.17024245858192444,-0.25137093663215637,0.3778936266899109,0.17367738485336304
325,1.8077210837363404,1.115919692989786,-0.5900451035021432,0.42707812786102295,-0.8983152508735657,0.10312217473983765,1.2187974452972412,-0.820274829864502,-0.25167161226272583,-0.35270681977272034,0.5362393856048584,-0.14447355270385742
326,2.0330334641976364,1.0132780895331903,-0.8449872741819994,0.4735585153102875,-0.8485707640647888,0.235944926738739,0.7825736403465271,0.31025245785713196,-0.8202765583992004,0.1555308699607849,-0.3246774673461914,-0.1965162754058838
327,1.9097367682077642,0.9590516585400524,-0.7876045314006254,0.5416236519813538,-0.8186473250389099,0.1909468024969101,-0.373510479927063,-1.1707887649536133,-0.03471200913190842,0.0029168128967285156,-0.8511679172515869,0.0489061176776886
328,1.8165652089570412,1.0302250988013428,-0.7253111185924263,0.4991615116596222,-0.8574148416519165,0.12520955502986908,-0.00849508959800005,-1.6544721126556396,1.1033540964126587,0.11582872271537781,0.20023411512374878,0.3030436038970947
329,1.7433033366139896,1.059867434641516,-0.7207508192900207,0.48173025250434875,-0.8722906708717346,0.08393611013889313,-0.15108723938465118,1.0690363645553589,-0.26141801476478577,-0.18239855766296387,0.5799931883811951,0.10985053330659866
330,1.7902968867249995,1.0315947965755285,-0.6440481521068913,0.5011312961578369,-0.8581189513206482,0.1117999255657196,-0.5552495718002319,1.0925654172897339,-0.5280750393867493,-0.2599661946296692,0.4457349181175232,-0.05821109563112259
331,1.823937541570842,1.017370150875068,-0.46401530329103857,0.5088542699813843,-0.8507286906242371,0.131635844707489,-2.275472402572632,3.007868766784668,0.02668515220284462,0.16779667139053345,-0.7834571003913879,-0.3678724765777588
332,1.8146963568861294,1.0156001858072445,-0.41996823928727534,0.5115095973014832,-0.8497970700263977,0.12729133665561676,2.600468635559082,-1.0853612422943115,0.49039924144744873,0.26027995347976685,0.3252151608467102,-0.11122381687164307
333,1.5446060503986065,1.1961708110921425,-0.29714302757620525,0.3657981753349304,-0.930644690990448,-0.009582546539604664,-3.1530566215515137,-0.6537678241729736,-0.7424020767211914,0.1644599437713623,-0.052738308906555176,0.665008544921875
334,1.6090223818139482,1.1430928789523978,-0.16873010203516897,0.4144793450832367,-0.9099206924438477,0.01585163176059723,0.518561840057373,1.2494288682937622,-0.35825595259666443,-0.3121996521949768,0.2972344756126404,0.13305890560150146
335,1.8320638240638005,1.0830110946341311,-0.3559769447362252,0.4527655839920044,-0.8833730220794678,0.1210600957274437,1.3963069915771484,0.7885246872901917,-0.4982973039150238,-0.3927985429763794,0.4789693355560303,-0.2716186046600342
336,1.9633012142553599,1.0176584594930198,-0.5254822381717177,0.4854085147380829,-0.8508802056312561,0.20095236599445343,-0.7254086136817932,-0.6839852333068848,-0.5040244460105896,0.047077476978302,-0.5091053247451782,-0.11133739352226257
337,1.8841867007441306,0.995836049615261,-0.4917600711431403,0.5173149704933167,-0.8392139077186584,0.16764616966247559,-0.7126893997192383,1.0688197612762451,-0.07271450757980347,-0.048778653144836426,-0.509952962398529,0.4418203830718994
338,1.7440362167823829,1.062393931024571,-0.17166985844180485,0.47949591279029846,-0.8735232949256897,0.08390893042087555,-1.8701634407043457,0.6278520822525024,0.5768949389457703,0.32566457986831665,-0.21316182613372803,0.30494606494903564
339,1.5028080934116426,1.1099778045167634,-0.02453751854663588,0.4436541795730591,-0.8956888318061829,-0.030209826305508614,-0.0200139582157135,-1.5156052112579346,0.0636141374707222,-0.22543823719024658,0.34313756227493286,0.2852909564971924
340,1.4370576303984333,1.091656747798293,-0.027019092745460545,0.4568992257118225,-0.8873919248580933,-0.06147204339504242,0.22004152834415436,0.4577270746231079,-0.2959378957748413,-0.252202570438385,0.43507564067840576,0.11779224872589111
341,1.734293406511963,1.0702851295387348,-0.14605326798678714,0.4734746515750885,-0.8773373365402222,0.07810895144939423,0.5674269199371338,3.1413865089416504,-0.38729560375213623,0.1964624524116516,-0.03745758533477783,-0.19418251514434814
342,1.7222373040387826,1.1075764294559272,-0.02999139107614508,0.4417170286178589,-0.8946183919906616,0.0674101859331131,0.3611539304256439,-1.4011393785476685,0.5526228547096252,-0.072835773229599,0.02747666835784912,-0.3646361827850342
343,1.4201319782331265,1.173614781379927,0.13070066605571778,0.38243916630744934,-0.9221549034118652,-0.0580599270761013,-1.5330904722213745,-0.13273504376411438,0.07955457270145416,0.35308030247688293,-0.006662964820861816,0.6422884464263916
344,1.5095068495533912,1.1221904715326465,0.25392410537258175,0.432895302772522,-0.9010526537895203,-0.026565199717879295,-0.43407878279685974,1.8736670017242432,-0.8300751447677612,-0.25075116753578186,0.07561320066452026,0.27760279178619385
345,1.7547891414731227,1.068623271733181,0.00017973116419887726,0.47320684790611267,-0.8765386939048767,0.08806264400482178,2.77528977394104,-1.660813808441162,-0.4881633222103119,-0.32809582352638245,0.5225958824157715,-0.3621104955673218
346,1.9194990445100684,0.9930876119515063,-0.16325368436567456,0.5132396817207336,-0.8377161026000977,0.1865929216146469,-0.5480940341949463,0.6229066848754883,-0.3748754858970642,-0.20180773735046387,0.2755821943283081,-0.2854241132736206
347,1.8744322925884873,0.9630523836852816,-0.10792098071815884,0.5448960661888123,-0.8209383487701416,0.1707293689250946,0.7868930697441101,-1.0059040784835815,-0.4617825150489807,-0.28284168243408203,-0.5245969295501709,-0.463576078414917
348,1.7999688103618692,1.0119533372756107,0.011708052504302088,0.5163431763648987,-0.8478691577911377,0.12044770270586014,-1.3450253009796143,1.0071574449539185,0.6544616222381592,0.2756642699241638,-0.1290748119354248,0.4077047109603882
349,1.7160305872937174,1.1196611369128893,0.16632002318275177,0.4313972294330597,-0.89995276927948,0.06309792399406433,-0.5290943384170532,-1.8401647806167603,0.5124762654304504,0.20576396584510803,0.37070173025131226,0.09962176531553268
350,1.5127631155495258,1.1171060074063008,0.19091965289800789,0.437547504901886,-0.8988358378410339,-0.02542083151638508,0.11445607990026474,-0.26402249932289124,-0.26574674248695374,-0.22987541556358337,0.5455033779144287,0.2567593455314636
351,1.7270772962195218,1.0654940551501004,0.11784563290947062,0.4781726896762848,-0.8750281929969788,0.07534368336200714,0.5971457362174988,2.4667141437530518,-0.38619643449783325,-0.18027526140213013,0.22707891464233398,-0.2575336694717407
352,1.6951579351840433,1.0660514551029137,0.23415129438992188,0.4798492193222046,-0.8752979040145874,0.05998437851667404,-1.304505467414856,0.6296302080154419,0.3705306947231293,0.06543880701065063,-0.8618693351745605,-0.12567353248596191
353,1.6984879681989689,1.1478386059455166,0.2070457500905022,0.40711718797683716,-0.9118788838386536,0.05226986110210419,-0.31089362502098083,-0.4469715356826782,0.5415578484535217,0.9548517465591431,-0.9003462195396423,0.36731624603271484
354,1.3130139678901318,1.1366378864350943,0.60501070284753,0.4067477881908417,-0.9072243571281433,-0.10723838955163956,-0.6778958439826965,1.0830363035202026,-0.5643887519836426,0.016897201538085938,-0.10652369260787964,0.49613916873931885
355,1.5791205383819495,1.1058691900014066,0.4112698347564276,0.4483422636985779,-0.8938542604446411,0.0037321820855140686,1.6458884477615356,0.4909793436527252,-0.40663084387779236,-0.17629331350326538,0.4351750612258911,0.06326913833618164
356,1.87415245734734,1.014727467400684,0.1125060882795453,0.5037492513656616,-0.8493367433547974,0.15768225491046906,1.5019421577453613,-0.43763530254364014,-0.725455641746521,-0.3970445990562439,0.37636011838912964,-0.4828927516937256
357,1.8910673617773421,0.976161576318879,0.05898385581522203,0.5317197442054749,-0.8283531665802002,0.17636623978614807,-0.02950870990753174,-0.0658046305179596,-0.14125123620033264,0.31398332118988037,-0.6144110560417175,-0.08972682058811188
358,1.836948805839693,0.9836083649495095,0.09665508670854435,0.5345149040222168,-0.8325018882751465,0.14571961760520935,-1.3099567890167236,0.7001254558563232,0.4266377389431,0.2524570822715759,-0.7501853704452515,0.32242000102996826
359,1.8785900164530078,1.1263401552974102,0.2217951788975864,0.4097605347633362,-0.9028446078300476,0.13026145100593567,-1.0946455001831055,0.47457343339920044,1.2930784225463867,0.264098197221756,0.35735809803009033,0.010088935494422913
360,1.6345745312181799,1.179911095782509,0.3408216751547116,0.3802322447299957,-0.9245721697807312,0.02428346313536167,-0.10036759078502655,-1.7974246740341187,0.017010770738124847,-0.14744418859481812,0.6221888065338135,0.16893863677978516
361,1.6256776342312176,1.16531623098044,0.26068457991676897,0.3938659429550171,-0.9189131259918213,0.021637605503201485,1.0517736673355103,1.06640625,-0.3639044463634491,-0.23152771592140198,0.45190268754959106,0.13397157192230225
362,2.0158975055047423,1.1132875852928226,0.046397526645114644,0.3986770212650299,-0.8971557021141052,0.19017983973026276,-1.5598949193954468,0.6729310750961304,0.10050811618566513,0.14090430736541748,-0.708541989326477,-0.6371402740478516
363,1.859855472889295,1.1486523629408047,0.1661675379204986,0.3927189111709595,-0.912212610244751,0.11679006367921829,0.7898430824279785,0.05510389059782028,0.787319540977478,0.5841182470321655,-0.22693222761154175,0.06178354471921921
364,1.5083777713342013,1.2197719422328965,0.4227696239884823,0.3431906998157501,-0.9390209317207336,-0.02144933119416237,-1.8039251565933228,-0.4560835361480713,-0.014936988241970539,0.23870328068733215,0.029261350631713867,0.41518712043762207
365,1.5482189365976224,1.178790430726659,0.4354847882692468,0.38194540143013,-0.9241445660591125,-0.008624795824289322,1.1711244583129883,1.051350712776184,-0.3147827982902527,-0.10486108064651489,0.23255527019500732,0.309833288192749
366,1.860199389291049,1.0968220837671048,0.14478901188824173,0.4374454915523529,-0.8897613883018494,0.13025499880313873,1.5442363023757935,0.022062955424189568,-0.9976692199707031,-0.28371310234069824,0.4876311421394348,-0.26918625831604004
367,1.9725026769663427,0.9726232793628885,-0.053629833647978235,0.5183054804801941,-0.8263658285140991,0.22017930448055267,0.39398691058158875,0.06526177376508713,-0.4279080927371979,-0.34174609184265137,-0.12982618808746338,-0.17150378227233887
368,1.9829794194198467,0.955266520258937,-0.06575899161024186,0.5290339589118958,-0.8164676427841187,0.23130907118320465,-0.3130955100059509,-1.416947841644287,-0.2119903564453125,0.23762863874435425,-0.5666806697845459,-0.26651105284690857
369,1.8680777080595965,1.0044958398393626,0.05367606490082761,0.5129801034927368,-0.8438915610313416,0.1571565717458725,-0.5427641272544861,1.0326945781707764,1.0477231740951538,0.26637768745422363,-0.14362657070159912,0.3684934079647064
370,1.734293869238433,1.1116007157908465,0.12444801219591999,0.43731656670570374,-0.8964093327522278,0.07214417308568954,-0.4746265709400177,-1.8762586116790771,0.302863210439682,0.14352449774742126,0.389207124710083,0.20112550258636475
371,1.6857856934509898,1.0996680114686153,0.1353110942381066,0.4508945643901825,-0.8910567164421082,0.05207781866192818,0.5575701594352722,1.0343860387802124,-0.3979209065437317,-0.1810123324394226,0.4281507730484009,0.0535740926861763
372,1.8205140712720675,1.058605268111061,0.17376159520708553,0.4748867452144623,-0.8716728091239929,0.12111572176218033,-2.646712303161621,0.787186324596405,-0.5952348113059998,-0.15765661001205444,0.1476433277130127,-0.5426549911499023
373,1.6922493217038301,1.089221601345968,0.38601297676958546,0.4597635567188263,-0.8862666487693787,0.05611585080623627,-0.782709002494812,0.6931893229484558,0.8940348625183105,-0.2730112671852112,-0.44776350259780884,-0.43549513816833496
374,1.7624622660864517,1.1186075221090177,0.22098028157807098,0.42893457412719727,-0.8994929194450378,0.08323387801647186,0.8315557241439819,-1.188064455986023,1.5560165643692017,0.9704642295837402,-0.37836968898773193,0.28146636486053467
375,1.4983756727828088,1.1814490839279994,0.4133114026253325,0.3785894215106964,-0.9251570105552673,-0.02746572718024254,-0.6409313678741455,-0.016016056761145592,-0.6898141503334045,0.1316187083721161,0.062333643436431885,0.5271758437156677
376,1.855783224319618,1.1143955379650639,0.14329564977017492,0.42294397950172424,-0.897644579410553,0.12390624731779099,1.2473154067993164,0.21094396710395813,-0.6513250470161438,-0.26323023438453674,0.4219822883605957,-0.05965149402618408
377,1.9583715626078568,1.0361960220538131,-0.05851586258721347,0.4717066287994385,-0.8604723215103149,0.19256161153316498,1.3893545866012573,-0.7990983128547668,-0.1293894499540329,-0.5238765478134155,0.34464913606643677,-0.31484559178352356
378,2.0761009182774766,0.9832932491494122,-0.20571473508319116,0.4850139319896698,-0.8323273062705994,0.2683147192001343,-0.050352469086647034,-0.4939863681793213,0.15729855000972748,0.4414692223072052,-0.7878051400184631,-0.23132729530334473
379,2.004845215239612,0.9586625514611895,-0.20254847059861378,0.5213311910629272,-0.8184238076210022,0.24165299534797668,-0.7468457221984863,-0.44963687658309937,0.2073943167924881,0.0020909905433654785,-0.6352657079696655,0.21756026148796082
380,1.930921109794287,1.0709779758265012,-0.1768277476731121,0.4485224485397339,-0.877669632434845,0.16888903081417084,-0.18152675032615662,-1.3081750869750977,1.758592963218689,0.49425703287124634,0.18904054164886475,0.37700939178466797
381,1.8729813123521257,1.1160155573313018,-0.25151383210713407,0.41936150193214417,-0.8983573317527771,0.13072837889194489,0.7329515218734741,-0.6176793575286865,-0.19470101594924927,-0.03612178564071655,0.5973930358886719,-0.04062521457672119
382,2.0385459165812803,1.071667709611219,-0.4345788117447094,0.4272453188896179,-0.878000020980835,0.2158178687095642,0.6561834216117859,0.21848472952842712,-0.14271821081638336,-0.3736259341239929,0.61741042137146,-0.16807317733764648
383,2.1467993932141,1.0394030543640362,-0.4250876354854459,0.42497140169143677,-0.8621019124984741,0.2760064899921417,-0.08996395766735077,2.6056692600250244,-0.23869173228740692,-0.07093697786331177,-1.2745863199234009,-0.44469237327575684
384,2.237052460954758,1.0447309223091212,-0.43012017859340884,0.3947487473487854,-0.8647894263267517,0.310342937707901,-0.5838167071342468,-0.35192567110061646,1.2590019702911377,0.6040611267089844,0.18795526027679443,-0.21662339568138123
385,1.9505342977340536,1.1758556430874898,-0.3219370067042805,0.3573440909385681,-0.9230194091796875,0.14261920750141144,-4.014675140380859,-1.747277021408081,1.1463148593902588,0.2539687752723694,-0.019882142543792725,0.449116587638855
386,1.6015470127857632,1.1746214392884122,0.13503627774253382,0.38570988178253174,-0.9225438237190247,0.011864583939313889,1.883182406425476,2.683850049972534,-0.39134007692337036,-0.2718793451786041,0.14822131395339966,0.42499446868896484
387,1.9726879788048135,1.0899862465851595,-0.20448769821673124,0.42564699053764343,-0.8866205811500549,0.18091052770614624,0.8490604162216187,-0.9192848205566406,-0.5806544423103333,-0.29663392901420593,0.5321283340454102,-0.263704776763916
388,2.1712531953940735,0.9613970386364391,-0.45213268191974676,0.47225385904312134,-0.8199920058250427,0.32340309023857117,0.8219958543777466,-0.18199989199638367,-0.9094547033309937,-0.002954542636871338,-0.14503490924835205,-0.29184794425964355
389,2.0215851268851806,0.9264821357728252,-0.33020928784302345,0.5406474471092224,-0.7995119094848633,0.2616886794567108,0.35688677430152893,-0.5983773469924927,-0.430765300989151,0.08215522766113281,-0.6825131177902222,-0.10343971848487854
390,1.9927402447124232,0.952501951221508,-0.3945666426689693,0.5288081765174866,-0.8148682713508606,0.23738525807857513,-0.03837970271706581,-1.582208514213562,1.3640427589416504,0.20097392797470093,0.19528508186340332,0.47939637303352356
391,1.8768652601084825,1.0239857904956122,-0.41711849660715117,0.4958004057407379,-0.8541872501373291,0.1566721796989441,0.06184474751353264,-0.5314550995826721,-0.1295512318611145,-0.0739101767539978,0.5332643985748291,0.10510754585266113
392,2.072947483185882,0.9540914016348676,-0.514949589265505,0.5069524645805359,-0.8157885670661926,0.2783670723438263,0.39931949973106384,1.3752951622009277,-1.2908464670181274,-0.4691259264945984,0.1777728796005249,-0.0824136734008789
393,1.6692113740742145,0.893857273335199,-0.018325037747061117,0.6233787536621094,-0.7794937491416931,0.06154869124293327,-2.081112861633301,3.7883541584014893,-0.01953028328716755,0.15082162618637085,-0.2948164939880371,-0.10096216201782227
394,1.7575621630642142,0.9530729190553137,0.0010577801970170803,0.5691085457801819,-0.8151991367340088,0.10754337906837463,2.001159906387329,0.5365391373634338,-0.31554779410362244,0.7217086553573608,-0.6397720575332642,-0.12231387197971344
395,1.9826883125425638,0.9491839686758926,-0.3606442376767754,0.5336421728134155,-0.8129405379295349,0.23313890397548676,1.1188595294952393,0.333855539560318,3.7315778732299805,0.4973331689834595,0.3954448699951172,0.24353039264678955
396,1.805058115651313,1.1222985729324244,-0.20529046290284023,0.4217686057090759,-0.9010995030403137,0.10065225511789322,-1.8824403285980225,1.2934556007385254,-0.9454602599143982,-0.22045940160751343,-0.0890432596206665,0.6430611610412598
397,2.0649992456245827,1.0440192800621029,-0.22423907682746017,0.4425944983959198,-0.8644319176673889,0.2384694665670395,1.4046517610549927,1.692629337310791,-0.5938342809677124,-0.3094920814037323,0.34255075454711914,-0.2879995107650757
398,2.221882744251412,0.9319973358099835,-0.35347607610793247,0.47425809502601624,-0.802812397480011,0.3613467514514923,0.1973700374364853,-0.8221748471260071,-0.25183719396591187,-0.3934628367424011,0.08174306154251099,-0.4578890800476074
399,2.1044161154471714,0.9190722713579573,-0.34156193371864885,0.5222293734550476,-0.7950392365455627,0.30852779746055603,0.23939870297908783,-0.8488870859146118,-0.08607880026102066,0.41418737173080444,-0.5457964539527893,-0.20301327109336853
400,2.000189966687445,0.8970691502414168,-0.3247292941206233,0.5672643184661865,-0.7815017104148865,0.2597431242465973,-0.27705836296081543,0.279059499502182,0.17249825596809387,0.14995986223220825,-0.3210069537162781,0.537574291229248
401,1.9025786920357826,0.9646112380847676,-0.32805582787376053,0.5386648178100586,-0.8218274712562561,0.18557949364185333,-0.36799561977386475,-0.9604706764221191,0.4419575333595276,0.1885690689086914,0.2863508462905884,0.4143655300140381
402,1.9385318662270985,0.9502298162947984,-0.36365553605039264,0.5426195859909058,-0.8135491609573364,0.209049791097641,0.6358379125595093,0.27131643891334534,-0.11464732140302658,-0.24208247661590576,0.5087090730667114,-0.16582155227661133
403,2.110253976270908,0.8740157405717236,-0.5232110764667856,0.5506150126457214,-0.7669122219085693,0.3296491801738739,0.34872838854789734,-0.018157975748181343,-0.4401354491710663,-0.3017900586128235,0.09859257936477661,-0.2904494106769562
404,2.167761249859842,0.8207872422894075,-0.4954690760850976,0.5637518167495728,-0.7316826581954956,0.38317668437957764,1.8481754064559937,-0.5174362659454346,-0.9785739183425903,0.27636659145355225,-0.6839514970779419,-0.5024698972702026
405,2.299262568315196,0.7960701644280788,-0.5579592972641089,0.5219795107841492,-0.714612603187561,0.4656888246536255,-1.685223937034607,0.6629090905189514,1.5152778625488281,0.6430441737174988,-0.11020117998123169,0.4636476933956146
406,1.8768668804295874,1.0495925254011023,-0.2345747666368741,0.4747834801673889,-0.867220401763916,0.15003171563148499,-2.1714022159576416,-2.227379083633423,-0.137635737657547,-0.010260134935379028,-0.534329891204834,0.4981464147567749
407,2.002508358007125,0.9863204163554258,-0.3131914691116243,0.5011388063430786,-0.834001362323761,0.2308720201253891,1.4477143287658691,0.31329411268234253,-0.6697420477867126,-0.34165388345718384,0.2510850429534912,-0.1630314290523529
408,2.10428013571629,0.9199962452561331,-0.431723940982053,0.5216383934020996,-0.7955993413925171,0.3080829679965973,0.37070366740226746,0.026196381077170372,0.20589831471443176,-0.4351058006286621,0.4785522222518921,-0.5028003454208374
409,1.9732191081341457,0.9201089947136644,-0.3450695523978643,0.5573442578315735,-0.7956676483154297,0.2372346967458725,-0.8048356771469116,-0.5615617632865906,-0.1858270913362503,0.49964725971221924,-0.797090470790863,-0.07414878904819489
410,1.9758169347193308,0.9223036576767965,-0.33519984025691457,0.5551196932792664,-0.7969951033592224,0.23799309134483337,-0.2526208460330963,-0.2580821216106415,0.8524471521377563,0.25739550590515137,-0.5113849639892578,0.38339054584503174
411,1.9288906795591771,1.0081334464036944,-0.43895436161697665,0.49960222840309143,-0.8458376526832581,0.18696552515029907,0.24212253093719482,-0.311328649520874,0.22827984392642975,0.1571207046508789,0.5326510667800903,0.2714848518371582
412,1.9908723500280592,0.9801696787961579,-0.47071048143461464,0.5084654092788696,-0.8305918574333191,0.2271130383014679,0.37676361203193665,0.5937233567237854,-0.1921796351671219,-0.26836830377578735,0.4954172372817993,-0.15702936053276062
413,2.1696523491981137,0.942184214243111,-0.6176645588269266,0.4856956899166107,-0.8088443875312805,0.33146724104881287,0.7781501412391663,-0.13056594133377075,-0.013647640123963356,-0.32666850090026855,0.34714388847351074,-0.35562190413475037
414,2.172675805709526,0.9490991201802118,-0.4801338620608405,0.48006966710090637,-0.8128911256790161,0.3297596275806427,-0.5586177706718445,0.8934322595596313,0.2532442808151245,0.10899591445922852,-0.25627708435058594,-0.3574542701244354
415,2.231909214997678,0.982460368938303,-0.563575880761726,0.43804943561553955,-0.8318653106689453,0.34075412154197693,-0.0625588521361351,0.24721978604793549,0.802899956703186,0.7396087646484375,-0.492841899394989,0.6294914484024048
416,1.8068504873685511,1.1574034946896454,-0.22647363141268956,0.39057815074920654,-0.9157631397247314,0.09394910931587219,-1.8501166105270386,-2.0917794704437256,-0.22302941977977753,0.22799786925315857,-0.4110190272331238,0.3452293872833252
417,1.8949904686745573,1.1321651883595087,-0.3410742288302898,0.40257734060287476,-0.9053338766098022,0.1352863758802414,1.460636019706726,-0.0445372648537159,0.1554374098777771,-0.06387794017791748,0.3463585376739502,-0.00013922154903411865
418,1.9746230106524558,1.0974826239486017,-0.5395347581347693,0.4191722869873047,-0.890062689781189,0.17911703884601593,0.9028663039207458,-0.7285171747207642,-0.13829787075519562,-0.2737255394458771,0.5647453665733337,0.22545455396175385
419,2.173485241085633,1.0184998858051122,-0.7279801387776547,0.43220895528793335,-0.8513219356536865,0.2973993122577667,1.223604440689087,0.009490695782005787,-0.5420585870742798,-0.09325024485588074,-0.3192560076713562,-0.3969171345233917
420,2.0548619074946286,0.9555561040656727,-0.6942251986336311,0.510845422744751,-0.8166348338127136,0.2685970664024353,0.17726129293441772,-0.08854985237121582,-0.1591200828552246,-0.000576317310333252,-0.5801851749420166,-0.015072375535964966
421,1.9842788972159502,1.006114535922174,-0.6629841731379358,0.49004870653152466,-0.844758927822113,0.21502256393432617,0.07923891395330429,-1.7128676176071167,1.4975645542144775,0.41789504885673523,-0.007642805576324463,0.49065065383911133
422,1.859117545591938,1.0758678401463695,-0.6374512122018594,0.455363392829895,-0.8800026774406433,0.13505414128303528,-0.043480128049850464,-0.23209211230278015,-0.14735978841781616,0.11217206716537476,0.37272417545318604,0.006883159279823303
423,1.9456886124791086,1.0484717501685823,-0.6995091090371549,0.46424630284309387,-0.866661787033081,0.18268191814422607,0.8868028521537781,0.8260806798934937,-0.1778462827205658,-0.24513012170791626,0.5153587460517883,-0.06523503363132477
424,2.129718810970291,0.9854237290212217,-0.8176746614390025,0.46843284368515015,-0.8335062861442566,0.2929810881614685,-1.10999596118927,0.9851757884025574,0.19649739563465118,-0.061938703060150146,-0.5220997929573059,-0.2759065628051758
425,2.137137810457938,1.0309354462987241,-0.7135501691889632,0.43376314640045166,-0.8577802181243896,0.2757948637008667,-0.0990324392914772,0.27420639991760254,-0.14507371187210083,0.4466690421104431,-0.2026599645614624,-0.2158125340938568
426,2.127059656693284,1.0682797669332098,-0.7634210190894324,0.4090188443660736,-0.876373291015625,0.2543100118637085,-3.0806922912597656,-1.5301223993301392,1.1629973649978638,0.2839590609073639,0.191680908203125,0.255837082862854
427,1.5648830369413547,1.1131828351632866,-0.30296161762985974,0.4418002963066101,-0.8971094489097595,-0.0026125237345695496,0.911763608455658,1.3553024530410767,-0.42422664165496826,-0.32548266649246216,-0.09034770727157593,0.47867143154144287
428,1.892423712791792,1.0410826130972917,-0.5779929135123955,0.4793766438961029,-0.8629517555236816,0.1597266048192978,0.9874271154403687,0.04554857313632965,-0.6619093418121338,-0.28748205304145813,0.3519958257675171,-0.11179874837398529
429,2.0116788137936394,0.9710658492065628,-0.6997805239824381,0.5104474425315857,-0.8254877924919128,0.2408592402935028,0.7314034700393677,0.35340616106987,0.13232871890068054,-0.35433483123779297,0.19304156303405762,-0.27973872423171997
430,1.959333479875195,0.9559174729091203,-0.7157031719024441,0.5338630676269531,-0.8168433308601379,0.2185346782207489,-0.2656063437461853,-0.7904514670372009,-0.28484824299812317,0.19091415405273438,-0.5703638195991516,-0.1006605327129364
431,1.9161726458605257,0.9282651396102736,-0.6722963561372075,0.5638383626937866,-0.8005815744400024,0.20286764204502106,0.09609528630971909,0.1278337836265564,0.24895071983337402,0.2163587212562561,-0.4863293170928955,0.22927650809288025
432,1.9866502556129888,0.9952786519444685,-0.8004566919223146,0.4978821873664856,-0.8389106392860413,0.21986915171146393,-0.1313462257385254,-0.20242731273174286,0.09730783849954605,0.1591307520866394,0.44074779748916626,0.32236719131469727
433,1.9468338815683885,0.9703483017276081,-0.7584926086220827,0.5255333185195923,-0.825082540512085,0.20749390125274658,0.07796800136566162,0.2843846082687378,-0.3344701826572418,-0.37424236536026,0.5977875590324402,-0.0929156243801117
434,2.058078961484821,0.8906507847068897,-0.8568390543600146,0.5557069182395935,-0.777481198310852,0.2944706082344055,-0.23975558578968048,0.4658889174461365,-1.2564479112625122,-0.268856942653656,0.15629589557647705,-0.19458651542663574
435,2.120099221156483,0.8511066904573921,-0.7355354086691984,0.5621827840805054,-0.7520103454589844,0.3441382050514221,-0.07388895750045776,1.0691858530044556,0.8017508387565613,0.28780806064605713,-0.2674751281738281,-0.44303035736083984
436,2.28178692224118,0.8349342754973373,-0.9150331807727449,0.5085987448692322,-0.7412524223327637,0.43803200125694275,1.3031692504882812,0.5233424305915833,1.1322720050811768,0.9992899298667908,-0.15163081884384155,0.9006825685501099
437,2.080108556344048,1.1247405553463994,-0.7161264861845301,0.3766556680202484,-0.9021556973457336,0.21034565567970276,-3.226470470428467,-3.0410170555114746,0.9057496190071106,0.3023603856563568,-0.4744005799293518,0.1940273940563202
438,1.749961364163449,1.1402443208945503,-0.4295765744390036,0.4106913208961487,-0.9087355136871338,0.0743790939450264,0.5553411841392517,1.371673822402954,-0.19651955366134644,-0.39070233702659607,0.22753751277923584,0.1949232816696167
439,1.8396163214527321,1.1127167850592217,-0.5599512611854109,0.4263438284397125,-0.8969034552574158,0.11745268106460571,0.9719861149787903,-0.551141619682312,-0.07469362765550613,-0.24265852570533752,0.5011515021324158,-0.03816795349121094
440,2.0969133047114177,1.0482946547763363,-0.8146873035248178,0.4315599501132965,-0.8665734529495239,0.25061237812042236,1.0798546075820923,0.2296028882265091,-0.639308750629425,0.02301463484764099,-0.13782107830047607,-0.32834064960479736
441,1.9683971557379838,0.989642435168862,-0.6787985107585727,0.5061635375022888,-0.8358297348022461,0.21257251501083374,-0.08844339847564697,1.2686183452606201,-0.7236220240592957,-0.05938619375228882,-0.5647592544555664,-0.11674737930297852
442,1.9795587085790434,1.0204253055811776,-0.6675358182271655,0.47991520166397095,-0.8523305058479309,0.20788034796714783,0.5980871915817261,-0.210710808634758,1.2043932676315308,0.09248778223991394,0.09171044826507568,0.34023070335388184
443,1.96707741845377,1.116938354510774,-0.7298418102838742,0.4044584631919861,-0.8987623453140259,0.1692320555448532,-0.23975014686584473,-0.9398027658462524,0.2599829435348511,0.07056286931037903,0.5038344264030457,0.061282381415367126
444,1.9281081388009982,1.1172792544176644,-0.7436294384708313,0.4104579985141754,-0.898911714553833,0.15323911607265472,0.32746970653533936,-0.14846163988113403,-0.027269218116998672,-0.21812093257904053,0.600190281867981,-0.07813535630702972
445,2.083226069922475,1.0640914772276506,-0.8559478275205337,0.4229646921157837,-0.8743484020233154,0.23794007301330566,0.7347813844680786,1.8635326623916626,-0.31189095973968506,0.010735780000686646,-0.02015221118927002,-0.16019657254219055
446,2.078890019458552,1.141394204583845,-0.7668521383512747,0.36373379826545715,-0.9092148542404175,0.2025483101606369,-0.5367658734321594,-1.4597958326339722,-0.06859665364027023,-0.14010107517242432,0.08829212188720703,-0.4316590130329132
447,1.6218133200378364,1.2146492159062607,-0.5262223300425437,0.34821224212646484,-0.9372471570968628,0.01778016984462738,-2.4909579753875732,-1.1430898904800415,0.35453227162361145,0.26165106892585754,-0.1482020616531372,0.5355340242385864
448,1.4538115937913454,1.1720016612688513,-0.2601064186797071,0.3856537640094757,-0.9215297102928162,-0.04532254487276077,0.462344765663147,1.798740029335022,-0.506316602230072,-0.1332428753376007,-0.07874494791030884,0.5405312776565552
449,1.8988434033320782,1.1121211171309648,-0.5298543828346196,0.41914957761764526,-0.8966398239135742,0.1426551640033722,1.387968897819519,1.4441970586776733,-0.39766383171081543,-0.28749677538871765,0.45593559741973877,-0.244583860039711
450,2.049522936483202,1.0185421495165907,-0.8609848638630969,0.46563225984573364,-0.851344108581543,0.24166005849838257,0.46296319365501404,-1.4834322929382324,0.042157553136348724,-0.27939873933792114,0.4055739641189575,-0.10361386835575104
451,2.0091073134243667,1.0045761774252489,-0.8004642087177387,0.4857354164123535,-0.8439346551895142,0.22767332196235657,0.10095848143100739,-0.13969190418720245,-0.44787901639938354,0.09779113531112671,-0.7297651171684265,-0.19379882514476776
452,1.9320264547399195,0.9976142037309381,-0.7576553830684741,0.5073091387748718,-0.8401795625686646,0.1916653960943222,-0.712607741355896,0.584639847278595,0.29008057713508606,0.09611493349075317,-0.5755155682563782,0.2210237830877304
453,1.9500720577932598,1.1269052050842379,-0.6894577493630872,0.3989368975162506,-0.9030874371528625,0.1590055376291275,-1.0736865997314453,-0.8175980448722839,0.9542472958564758,0.20607414841651917,0.235393226146698,0.11531700193881989
454,1.7452161890688658,1.1608811449593597,-0.5903058882688961,0.3924846351146698,-0.9171546101570129,0.06915988028049469,0.04357796162366867,-0.05019456893205643,-0.10154459625482559,-0.07618525624275208,0.4920448064804077,0.2872549295425415
455,1.8971939871463537,1.1269159656540444,-0.6739551604322125,0.4067739248275757,-0.903092086315155,0.13769493997097015,0.67643803358078,1.6836063861846924,-0.6379876136779785,-0.2823995053768158,0.49975645542144775,-0.06805384159088135
456,2.026007913881871,1.1030686895653752,-0.6096402252147034,0.40494734048843384,-0.892595112323761,0.1982213258743286,-1.9103976488113403,0.12500813603401184,-0.012537704780697823,-0.15116319060325623,-0.776136577129364,-1.4084111452102661
457,1.9164189422613491,1.1771159302638359,-0.4700490241373649,0.3609059154987335,-0.923503577709198,0.12995345890522003,0.28554484248161316,-1.3046894073486328,0.44081124663352966,0.5440317392349243,0.014552891254425049,-0.12319377064704895
458,1.438659512930779,1.2243422775509698,-0.0973524170698281,0.33660462498664856,-0.9405826926231384,-0.04473854601383209,-2.4915242195129395,0.015504391863942146,0.034547124058008194,0.10655638575553894,-0.3366999626159668,0.4909360408782959
459,1.491332425939166,1.189040169519961,-0.029620438282363812,0.37137532234191895,-0.9280118346214294,-0.02957320399582386,1.3293261528015137,1.1297177076339722,-0.1841581016778946,-0.15653157234191895,0.24980437755584717,0.3486649990081787
460,1.8135423654451166,1.14236526223274,-0.33152452737062693,0.40326395630836487,-0.9096186757087708,0.09985990822315216,1.0910673141479492,0.12216542661190033,-0.4332076907157898,-0.32059186697006226,0.6536983251571655,-0.18089938163757324
461,2.0021825433758726,1.0537581641388973,-0.6051788530560854,0.44902247190475464,-0.8692870736122131,0.20668499171733856,1.300261378288269,-0.6792318820953369,-0.5686702132225037,-0.056780099868774414,-0.10726010799407959,-0.18420878052711487
462,1.9522365813548552,0.9952119067276545,-0.642043933646367,0.5052042007446289,-0.838874340057373,0.20262916386127472,0.8483719229698181,-1.5045782327651978,-0.3311313986778259,-0.0823526382446289,-0.6642536520957947,-0.48990631103515625
463,1.8953867398188182,1.0228854807104832,-0.589135449279549,0.49370408058166504,-0.8536146283149719,0.16612733900547028,-0.6634271144866943,1.195683479309082,0.8282410502433777,0.15542003512382507,-0.1416245698928833,0.3012341260910034
464,1.78578210059919,1.1654772872200194,-0.47340878101415035,0.38523462414741516,-0.9189766645431519,0.08411995321512222,-0.7750061750411987,-2.048781156539917,0.6186842322349548,0.17955419421195984,0.37098777294158936,0.14189326763153076
465,1.6407782776764677,1.1800406841690165,-0.41578362504606536,0.37995460629463196,-0.9246215224266052,0.026633458212018013,0.3772605359554291,0.24727407097816467,-0.16212676465511322,-0.12789472937583923,0.5463104844093323,0.08992838859558105
466,1.8048322265264407,1.1439250609277365,-0.5424811864626988,0.4027378559112549,-0.9102655649185181,0.09601454436779022,0.6165410280227661,1.1988005638122559,-0.44888925552368164,-0.13961529731750488,0.33746588230133057,-0.02052927017211914
467,1.9475284610916348,1.1142439162758213,-0.6234414301053913,0.409939706325531,-0.897577702999115,0.16218380630016327,-0.5030549168586731,-0.26436057686805725,0.002538367873057723,0.023333609104156494,-0.6312002539634705,-0.4789867401123047
468,1.780993308796129,1.1950255905607767,-0.4300934392352863,0.3589121997356415,-0.9302250742912292,0.07657334208488464,-2.008655309677124,-0.7491660714149475,0.8454801440238953,0.475178986787796,-0.7466548681259155,0.14689159393310547
469,1.4228202477746648,1.216512446721392,-0.08399166022721798,0.3431277275085449,-0.9378951787948608,-0.05114857107400894,0.11740121245384216,0.5190645456314087,-0.0683680921792984,-0.016345471143722534,-0.04629683494567871,0.6825114488601685
470,1.5875760589450114,1.1985614116144974,-0.1932842395769636,0.3636466860771179,-0.9315168261528015,0.006102466955780983,1.1416667699813843,0.5549072623252869,-0.4259684085845947,-0.07554557919502258,0.37638694047927856,-0.03459060192108154
471,2.0050240857819417,1.0814941364141544,-0.6301674588309273,0.42639121413230896,-0.8826610445976257,0.19773806631565094,0.9434584379196167,-0.7925757765769958,-0.9049826860427856,-0.2733607590198517,0.3849802017211914,-0.33151179552078247
472,1.9189810645191365,1.0391379484960601,-0.5236323290047723,0.47654280066490173,-0.8619675040245056,0.17297203838825226,-0.1462032049894333,0.6912672519683838,-0.4427747428417206,0.09021443128585815,-0.5777298808097839,-0.022764429450035095
473,1.8588349562004494,1.0201347720664675,-0.5330506213007121,0.5016947984695435,-0.8521785736083984,0.14864113926887512,-0.6220806241035461,0.422339528799057,0.07246355712413788,-0.06263840198516846,-0.39762306213378906,0.31083154678344727
474,1.796325689200572,1.0991315057291853,-0.35276511265975696,0.4428632855415344,-0.8908130526542664,0.10160724818706512,-0.8148291707038879,1.138375997543335,1.066606044769287,0.4071885049343109,-0.10090130567550659,0.2148294299840927
475,1.6572340087890456,1.181305014500359,-0.30185235678662525,0.37830036878585815,-0.9251023530960083,0.03278108686208725,-0.1154356598854065,-1.1720647811889648,-0.07193093746900558,-0.030049026012420654,0.5145646333694458,0.23273706436157227
476,1.646417259267207,1.1562765670998087,-0.2704337426272006,0.40159934759140015,-0.9153098464012146,0.030427338555455208,0.06875000149011612,1.1221064329147339,-0.4631200432777405,-0.25055259466171265,0.5312767028808594,0.05367910861968994
477,1.8356879602277807,1.114869615935944,-0.3278069144973962,0.42493727803230286,-0.8978533744812012,0.11527112126350403,0.035799190402030945,0.3000095784664154,0.26388317346572876,-0.08977803587913513,-0.08736073970794678,-0.6691193580627441
478,1.7775688086460262,1.156963445025697,-0.22565728567032686,0.39355599880218506,-0.9155862927436829,0.08255647867918015,-1.1772218942642212,1.2936776876449585,0.5324838757514954,-0.14366281032562256,-0.7079946994781494,-0.19145846366882324
479,1.6521304187160475,1.2124382839295198,-0.15549311703553334,0.3495773673057556,-0.9364739656448364,0.028495419770479202,-1.7933639287948608,-0.913174569606781,0.11482466757297516,0.3631758689880371,-0.4092442989349365,0.3197559118270874
480,1.4680183555049158,1.178081431996965,0.09674242161096845,0.38067811727523804,-0.9238734841346741,-0.03926367312669754,0.3045223355293274,0.9707504510879517,-0.32481786608695984,-0.08490180969238281,-0.1164400577545166,0.44238561391830444
481,1.6118453054035373,1.1720209418574332,-0.04213445327497248,0.38796281814575195,-0.9215372204780579,0.015934428200125694,0.807278573513031,-0.019656844437122345,-0.08153558522462845,-0.16832786798477173,0.46949559450149536,-0.014652730897068977
482,1.9235527148340426,1.0945460579970707,-0.4015421162331583,0.43022051453590393,-0.8887202143669128,0.15838797390460968,1.9716215133666992,-0.8818868398666382,-0.7222057580947876,-0.3370808959007263,0.2642848491668701,-0.3521287441253662
483,1.9413635085480023,1.0423123936051282,-0.4582971595304276,0.4699992537498474,-0.8635724782943726,0.1826021373271942,-0.4086719751358032,0.7752856016159058,-0.2691482603549957,0.08882346749305725,-0.5434558391571045,-0.0022737830877304077
484,1.8719418515095403,1.0614853448164512,-0.42566851024603336,0.465633362531662,-0.8730806708335876,0.14462192356586456,-1.2882192134857178,0.7689852118492126,0.34959468245506287,0.19058603048324585,-0.6021389365196228,0.4246988296508789
485,1.8136740139763812,1.172960609403731,-0.27869289467246705,0.3760529160499573,-0.9219016432762146,0.09317421168088913,-0.7306722402572632,-1.2808150053024292,1.0515434741973877,0.20344534516334534,0.33623892068862915,0.10349630564451218
486,1.579760271997524,1.1976829844379293,-0.15411282681491592,0.364501953125,-0.9311969876289368,0.0032674630638211966,-0.3921506106853485,-0.3124341666698456,-0.1932612657546997,-0.12492367625236511,0.5852954387664795,0.18061625957489014
487,1.678947853453561,1.152256490826789,-0.1860520586141884,0.40405207872390747,-0.9136833548545837,0.04387002810835838,0.6813175678253174,1.8388527631759644,-0.559353232383728,-0.12029963731765747,0.2684197425842285,-0.0023202933371067047
488,1.844040764471737,1.1296321673783452,-0.2570095987789279,0.4111512005329132,-0.904255211353302,0.1152268648147583,0.009191013872623444,-0.5924439430236816,-0.04889386519789696,0.08958116173744202,-0.3850972056388855,-0.4680863618850708
489,1.7863515032561952,1.1555383955648342,-0.20468695009973994,0.3940899074077606,-0.9150123000144958,0.08628872036933899,-0.04022756218910217,-0.6250156164169312,0.5176565647125244,0.3197620213031769,-0.27909475564956665,0.0434567928314209
490,1.4425599719788407,1.1899234398985623,0.08724312025921753,0.3686787188053131,-0.928340494632721,-0.047538887709379196,-0.7631802558898926,0.5177711844444275,-0.17129014432430267,0.1637767255306244,0.016261637210845947,0.5527268648147583
491,1.5823251138112768,1.1603844592382544,0.014313667988928122,0.3989604711532593,-0.9169565439224243,0.0045997342094779015,0.6729716062545776,1.0101555585861206,-0.29361507296562195,-0.17685356736183167,0.2363230586051941,0.2800835371017456
492,1.9155505604304146,1.090442842270248,-0.24575633582204348,0.43490228056907654,-0.8868316411972046,0.1561712622642517,2.015099287033081,0.16045290231704712,-0.717590868473053,-0.24549496173858643,0.6425079703330994,-0.522244930267334
493,1.9771731876481844,1.0022849726847929,-0.4077212282279784,0.4945317506790161,-0.8427033424377441,0.21281205117702484,-0.5117897391319275,-0.25580617785453796,-0.1763586401939392,-0.19912171363830566,-0.13543063402175903,-0.10357443988323212
494,1.8970382057016537,1.0105897620789848,-0.3626209580613945,0.5033338665962219,-0.8471453785896301,0.17029355466365814,-0.18928128480911255,-0.34116238355636597,0.29326894879341125,-0.028434574604034424,-0.6100080013275146,0.15212464332580566
495,1.8313040975971995,1.0881608579059205,-0.2339047239570983,0.4484556019306183,-0.8857748508453369,0.11954271048307419,-0.68699049949646,1.2720283269882202,1.2123024463653564,0.4427034258842468,-0.12588286399841309,0.3882850408554077
496,1.7164931212655552,1.192116630266608,-0.1739225214999014,0.36577701568603516,-0.929153561592102,0.05367285758256912,-0.2359950840473175,-1.4920659065246582,0.03996145725250244,0.03168386220932007,0.5614015460014343,0.22951507568359375
497,1.6618237290093896,1.161764304648499,-0.1452555733438362,0.39607495069503784,-0.917506217956543,0.036153584718704224,0.23513279855251312,0.5236040353775024,-0.5268363952636719,-0.23703262209892273,0.598078727722168,0.041422128677368164
