,attitude.roll,attitude.pitch,attitude.yaw,gravity.x,gravity.y,gravity.z,rotationRate.x,rotationRate.y,rotationRate.z,userAcceleration.x,userAcceleration.y,userAcceleration.z
0,1.6326085793287661,-1.2785733182286068,2.9237847256739857,0.2875314950942993,0.9576058387756348,0.017795639112591743,0.4848495423793793,-0.12282440811395645,-0.2502315044403076,0.059926390647888184,0.01660674810409546,-0.2896919250488281
1,0.1394107274365585,0.4085712153101083,2.053695000076648,0.12752173840999603,-0.39729854464530945,-0.9087860584259033,-0.05764838308095932,0.4876651465892792,0.34075555205345154,0.01740625500679016,-0.18792176246643066,-0.22179865837097168
2,0.12205736971037849,0.4060448210770678,2.084900331374488,0.11185469478368759,-0.3949788510799408,-0.9118553996086121,0.933306872844696,-0.23473814129829407,0.3019408583641052,0.015418864786624908,0.12061053514480591,-0.21088629961013794
3,0.11845870138838259,0.4132247231373153,2.0886558234851877,0.10823456197977066,-0.40156471729278564,-0.9094125032424927,-0.09528781473636627,-0.1747550070285797,-0.3411117494106293,0.0002859532833099365,0.06553566455841064,0.019962430000305176
4,0.10739831962315811,0.4326711902326253,2.069809775374257,0.09731412678956985,-0.41929733753204346,-0.9026182293891907,0.14677749574184418,-0.20498701930046082,-0.14208462834358215,-0.050225503742694855,0.03514206409454346,0.3333433270454407
5,0.07581755835821564,0.43694844722118653,2.063603282814071,0.06862849742174149,-0.4231765866279602,-0.9034443497657776,-0.06509535759687424,-0.4091022312641144,-0.17518343031406403,0.01648503541946411,0.008717358112335205,0.2082844376564026
6,0.05715479348403944,0.46200373794052363,2.051339437675166,0.051134899258613586,-0.445742666721344,-0.8936994671821594,0.44974038004875183,-0.43935465812683105,-0.0624677874147892,0.030896350741386414,-0.067562997341156,-0.16494005918502808
7,0.07980736696893871,0.46186638616570524,2.0154856304058684,0.07136952131986618,-0.44561970233917236,-0.8923729658126831,0.2677326500415802,1.336714267730713,-0.6836038827896118,0.052425041794776917,0.13394370675086975,-0.3649207353591919
8,0.2489228526274662,0.5517021794721416,1.9265305349051174,0.2098085731267929,-0.5241376161575317,-0.825384795665741,1.036205768585205,1.373550534248352,-1.090871810913086,0.0249783992767334,0.187910258769989,0.13478732109069824
9,0.45860699715605996,0.6456538953380117,1.7624245314130689,0.35358694195747375,-0.6017208099365234,-0.7161762118339539,1.5144060850143433,0.8819044828414917,-1.3469712734222412,0.08571359515190125,0.4193478226661682,0.3305712938308716
10,0.9273009990757443,0.6549724465828829,1.3002517873437285,0.6344545483589172,-0.6091374158859253,-0.4758351743221283,3.018021821975708,2.151397705078125,-4.354150772094727,-0.06762105226516724,0.822195827960968,0.13869225978851318
11,1.2005154250798935,0.1881513510891453,0.8938793936331083,0.9157735109329224,-0.1870431900024414,-0.3554907739162445,-0.1497899889945984,0.08722939342260361,-7.0623779296875,0.48525792360305786,0.1434946060180664,-0.7064141035079956
12,1.0787878751915898,-0.3578901996265148,0.57917474058961,0.8255393505096436,0.3502988815307617,-0.4424649775028229,1.0178594589233398,-1.0970534086227417,-3.9853434562683105,1.3189764022827148,-0.9624662399291992,-0.14093953371047974
13,0.9539628831520568,-0.41326864323166157,0.5269428278283789,0.7470417022705078,0.40160492062568665,-0.5297566652297974,0.4838244318962097,-0.462653249502182,0.459858775138855,0.3939800262451172,0.062170714139938354,0.010988354682922363
14,1.0278099965600342,-0.2922828270837543,0.4835928629778122,0.819858193397522,0.2881389856338501,-0.49478137493133545,0.6216041445732117,1.0011284351348877,1.5769997835159302,-0.2892947196960449,-0.5050884485244751,0.4359281659126282
15,1.168520019959121,-0.09867428846354534,0.7413555400341904,0.9156960844993591,0.09851424396038055,-0.3896094858646393,-2.338313102722168,-0.18407747149467468,3.435767650604248,-0.3554239273071289,-0.00433698296546936,-0.0669640302658081
16,1.39989600902342,-0.0028539499120347387,0.9549105142947047,0.9854280948638916,0.0028539460618048906,-0.17006893455982208,-1.585391879081726,2.5613458156585693,0.39695248007774353,0.3621214032173157,0.19372501969337463,0.09514826536178589
17,1.5488499697150488,-0.09583099290735937,1.0291661201768871,0.9951720833778381,0.09568437933921814,-0.021843908354640007,0.8359779119491577,2.111794948577881,-2.597834348678589,0.28932809829711914,0.31334272027015686,-0.20302486419677734
18,1.544107452445421,-0.5469893155105569,0.9203164055123064,0.853790283203125,0.5201181769371033,-0.022792113944888115,0.7845546007156372,0.6200774908065796,-2.743804454803467,0.5639039278030396,-0.064689040184021,-0.05572962760925293
19,1.6267364130246211,-0.5407345086538844,0.9352821688598559,0.8559898734092712,0.5147658586502075,0.0479341559112072,-0.1281040757894516,0.8512704372406006,0.1612725406885147,-0.47574079036712646,-0.22556602954864502,0.1496824026107788
20,1.680273675707865,-0.5594821123501839,0.9218098892543479,0.8424563407897949,0.5307473540306091,0.09260012954473495,-0.6741811633110046,-0.12355369329452515,-0.5630831718444824,-0.10811173915863037,-0.13154685497283936,-0.10589050501585007
21,1.544053619521934,-0.5900904996922379,0.9625673621386925,0.8305933475494385,0.5564362406730652,-0.022217610850930214,0.13785049319267273,-2.8967018127441406,0.09552823752164841,0.3937718868255615,0.3466399908065796,-0.07615578174591064
22,1.0516733575362103,-0.572484195870316,0.9208016531052831,0.7298182845115662,0.5417218208312988,-0.4170165956020355,0.9384956359863281,-5.702747344970703,0.6503507494926453,0.4692326784133911,0.5951647758483887,-0.5198577642440796
23,0.5280897976251683,-0.5682711952926839,0.9600419482282435,0.4246900975704193,0.5381757616996765,-0.7280144691467285,-1.1717076301574707,-4.0956292152404785,0.19709548354148865,-0.1709670126438141,0.09709334373474121,0.1701379418373108
24,0.0669492632641251,-0.6713459837789673,1.0206410648342787,0.05238112434744835,0.6220404505729675,-0.7812309861183167,-0.8699927926063538,-5.596197128295898,-0.11396797746419907,0.40497055649757385,-0.40399235486984253,0.18273556232452393
25,-0.5622370815454267,-0.829895139960079,0.9373074596952327,-0.3598041832447052,0.7378606200218201,-0.5710539817810059,-1.216578483581543,-2.564633846282959,1.4910051822662354,0.2790851891040802,-0.6563634276390076,0.6675048470497131
26,-0.7512091098396736,-1.0366867557837591,1.0820260204304744,-0.34745532274246216,0.8607222437858582,-0.37206462025642395,1.2204134464263916,-0.07330402731895447,1.2616260051727295,-0.5872675180435181,0.46377116441726685,0.38189125061035156
27,-0.6183486731048937,-1.0317882813094041,1.2610004284648635,-0.2975463271141052,0.858218252658844,-0.4182434380054474,-0.2710464894771576,-2.0773444175720215,1.1168471574783325,-0.543533444404602,0.46882331371307373,-0.4698944091796875
28,-0.6621990987155271,-1.0534255967985324,1.3116732375828142,-0.3041040599346161,0.8691226243972778,-0.3900597095489502,-0.5105372071266174,0.626038670539856,-0.2638435959815979,0.1415216326713562,0.30050933361053467,0.3403618335723877
29,-0.7874726288244157,-1.1085131357714475,1.1915150276469655,-0.31601813435554504,0.895036518573761,-0.31470969319343567,-0.41327473521232605,-0.5472482442855835,-0.8821194767951965,-0.11806386709213257,-0.19095027446746826,-0.12829869985580444
30,-0.9115319899932184,-1.0244340288177898,1.158250092418943,-0.41070041060447693,0.8544202446937561,-0.3182627558708191,0.6688685417175293,0.9681167006492615,0.37309369444847107,0.4425760507583618,-0.7998548746109009,0.2848460078239441
31,-0.8505012106229027,-1.019597377456136,1.1795605812093806,-0.393625408411026,0.8518972396850586,-0.3454417884349823,0.2797740697860718,1.1766728162765503,-0.23478715121746063,0.08841913938522339,-0.19653236865997314,0.0257243812084198
32,-0.6515677370813175,-1.035019831793036,1.2913924559578636,-0.30958986282348633,0.8598724603652954,-0.40592309832572937,0.3780190348625183,1.1311891078948975,0.40272119641304016,-0.4578814208507538,0.4461883306503296,-0.12828707695007324
33,-0.3748136127407573,-0.9642783105101705,1.4255884018079483,-0.2086801826953888,0.821637749671936,-0.5304376482963562,1.1820369958877563,2.231029748916626,-0.38755708932876587,0.0637979507446289,0.5012229681015015,0.4602624773979187
34,-0.23397549822354682,-0.8851273216883976,1.4501329391060898,-0.1468031257390976,0.7739956378936768,-0.6159380674362183,0.1669589877128601,1.226944923400879,-0.01754734478890896,-0.005983114242553711,-0.19374966621398926,0.25660884380340576
35,-0.2804400201026461,-0.7994026682393208,1.227399863724513,-0.1929520070552826,0.7169398069381714,-0.66990065574646,1.03731107711792,1.5984922647476196,-2.111534595489502,0.308796763420105,-0.5440729856491089,0.28540968894958496
36,-0.3453780165433421,-0.738142217674337,1.053387808105376,-0.25043395161628723,0.6729148626327515,-0.6960376501083374,0.17151182889938354,0.12199980765581131,-1.098681092262268,-0.02286618947982788,0.30505138635635376,0.13167613744735718
37,-0.4819618380055389,-0.6999879630081174,0.9745950640416905,-0.35452204942703247,0.6442084908485413,-0.6777238249778748,0.34021133184432983,-1.911310076713562,-1.0661553144454956,-0.11399906873703003,0.5856956839561462,-0.49726396799087524
38,-0.637220769711217,-0.6309784780186731,0.804234503012677,-0.4804040193557739,0.5899351239204407,-0.6489903926849365,0.33352869749069214,0.2544023394584656,-1.9033490419387817,-0.2926825284957886,0.12275713682174683,0.03189444541931152
39,-0.7923760028524297,-0.6488958508239748,0.6936904929453441,-0.5673058032989502,0.6043070554733276,-0.5594434142112732,-1.0831905603408813,-3.141785144805908,0.92402184009552,0.12904304265975952,-0.0030498504638671875,-0.25687140226364136
40,-0.9326495613460593,-0.6879430742107233,0.7429496818931154,-0.6205160021781921,0.6349494457244873,-0.4602164030075073,-0.3552054166793823,-1.3307428359985352,1.0038517713546753,0.45170801877975464,-0.6306769847869873,0.11500155925750732
41,-1.0047421202839564,-0.7481032063971069,0.7466113077882983,-0.618652880191803,0.6802496910095215,-0.3931017220020294,-0.144728884100914,-0.8092527985572815,0.14159810543060303,0.09185844659805298,0.036272525787353516,-0.2884320616722107
42,-1.170146000021334,-0.8036234532313936,0.7941773707926799,-0.6391351819038391,0.7198758721351624,-0.27071210741996765,0.8599564433097839,-2.2455947399139404,0.5091500282287598,-0.4587804675102234,0.5406222343444824,-0.20543840527534485
43,-1.2503313865378038,-0.7813582881293368,0.8831996510262561,-0.6738130450248718,0.7042443752288818,-0.2236422449350357,0.3408423662185669,-1.157857894897461,-0.4049958884716034,0.061233699321746826,0.10943049192428589,0.2869510054588318
44,-1.4308660043113448,-0.7619618106675959,0.9434486021960348,-0.7164115309715271,0.690342128276825,-0.10090716183185577,1.5309303998947144,-2.2027645111083984,-0.43800824880599976,0.0125998854637146,0.18076688051223755,-0.03692549467086792
45,-1.6060010422842532,-0.6766119513214109,1.0218231291818534,-0.7792156338691711,0.6261549592018127,0.027443403378129005,-0.04303751885890961,-1.5835546255111694,0.4236599802970886,0.5376536846160889,-0.7426405549049377,0.08261823654174805
46,-1.5323042912073241,-0.7424299228619077,1.1274850809542367,-0.7362821102142334,0.6760803461074829,-0.028355000540614128,1.5604581832885742,0.15838493406772614,-0.05512659624218941,0.6463773846626282,-0.4459626078605652,-0.2629810571670532
47,-1.730047951933783,-1.2317469644868564,1.017849694761852,-0.3283821642398834,0.9430712461471558,0.052742015570402145,-0.7054673433303833,-2.382201910018921,8.698287010192871,0.2440926432609558,0.02358829975128174,-0.29837799072265625
48,1.523900396554553,-1.3781712190032978,-2.0320885409076714,0.19122610986232758,0.9815050959587097,-0.008974306285381317,-0.2128046452999115,-1.1871733665466309,-1.4627025127410889,0.5676544904708862,0.05906808376312256,0.2950003147125244
49,1.482263040482182,-1.3812514458008291,-2.1087511590352785,0.18767353892326355,0.9820901155471802,-0.016658902168273926,0.15594716370105743,1.5118995904922485,-0.1623324155807495,-0.08389855921268463,-0.12228792905807495,0.2942620515823364
50,2.144216671538328,-1.4184407235329635,-1.4618684525737264,0.12749144434928894,0.988416314125061,0.08233457803726196,-1.8041696548461914,-0.5671868324279785,-0.3902784287929535,-0.011845111846923828,-0.4791390895843506,-0.0017376020550727844
51,2.6107681993877367,-1.3081851652914682,-1.0222362210502967,0.13142243027687073,0.9657154083251953,0.22387874126434326,-0.22992590069770813,-0.395379900932312,0.33078649640083313,-0.12035980820655823,-0.10629475116729736,-0.03805723786354065
52,2.329291456910832,-1.3051885918930466,-1.1628830117536841,0.19053834676742554,0.9649331569671631,0.18055246770381927,0.1894461065530777,-2.087296485900879,-0.39843735098838806,-0.22776979207992554,0.7720816135406494,-0.08002758026123047
53,2.2506187027420212,-1.3294128028551158,-1.194098560740504,0.18590208888053894,0.9710081815719604,0.15027722716331482,0.1484391838312149,-0.3477162718772888,0.04990129545331001,0.24465514719486237,0.0985870361328125,0.2119358628988266
54,1.998866068456537,-1.3704237117084217,-1.3854838840828372,0.18107526004314423,0.9799925088882446,0.08262225985527039,0.09501644223928452,-0.3045801818370819,-0.04697077348828316,0.2515876889228821,-0.07206404209136963,-0.0037189722061157227
55,1.8787169099110765,-1.361637951472401,-1.444814420773799,0.19787061214447021,0.9782060384750366,0.06293002516031265,0.16936923563480377,-1.1338353157043457,0.04309052973985672,-0.1345771700143814,-0.4778398275375366,-0.005068667232990265
56,1.9731115750874701,-1.3360900107642095,-1.4337344547554032,0.2139885574579239,0.9725826978683472,0.09105747938156128,-0.6514039039611816,1.6600011587142944,0.15079393982887268,-0.07856683433055878,-0.271212637424469,-0.13221050798892975
57,2.143339775168913,-1.3577570365239657,-1.2984927921772698,0.17771360278129578,0.977392852306366,0.11454758048057556,0.5545502305030823,0.40501582622528076,-0.3549034595489502,-0.049570292234420776,0.7490628361701965,-0.16001880168914795
58,1.9245835668220193,-1.4388578358731554,-1.4815606581266505,0.1234079897403717,0.9913087487220764,0.045577820390462875,0.36766955256462097,-0.20629708468914032,-0.6560659408569336,0.3355763852596283,0.3964475393295288,0.5428774356842041
59,2.149180603272912,-1.4275102960028612,-1.3559430285049867,0.1195700466632843,0.9897521138191223,0.07806269824504852,-0.6828802227973938,0.6015096306800842,0.3004396855831146,0.053983427584171295,-0.2849791646003723,0.1297924518585205
60,2.487639269886628,-1.334661846703785,-1.0484046168691858,0.14231641590595245,0.9722495675086975,0.1856798380613327,-1.3617322444915771,0.5878004431724548,0.2881010174751282,0.09359970688819885,-0.601445734500885,-0.9334977865219116
61,2.4242280834179066,-1.313723429489118,-1.0746073887335508,0.1671447604894638,0.9671383500099182,0.1915883868932724,0.1074361503124237,-0.6396154165267944,0.3535441756248474,-0.0937652438879013,0.1420535445213318,0.1044168472290039
62,2.220977908622365,-1.3337627110021038,-1.196064102035437,0.18691062927246094,0.9720388054847717,0.1421438455581665,0.7609729170799255,-0.3653795123100281,-0.22567445039749146,-0.18594934046268463,0.489188551902771,-0.015938416123390198
63,1.9994169738398109,-1.3862602657668062,-1.409952054631124,0.16689209640026093,0.9830214977264404,0.07626178115606308,0.16060879826545715,-1.6800310611724854,-0.2314872443675995,0.3857964873313904,-0.04718470573425293,0.14352571964263916
64,1.987738936376117,-1.399254279991387,-1.3979566770787613,0.1560787856578827,0.9853227138519287,0.06912891566753387,-0.022660458460450172,0.18020404875278473,0.06137574464082718,-0.0671810656785965,-0.17810213565826416,-0.1155460998415947
65,2.066046174795931,-1.4278097004473411,-1.188724429799452,0.12537819147109985,0.9897947907447815,0.0677231103181839,-0.8807340860366821,-0.00405145576223731,-0.13664743304252625,-0.25039345026016235,-0.614978015422821,0.24920189380645752
66,2.208037685172899,-1.4072685896813963,-1.1826890499417846,0.13084810972213745,0.9866591095924377,0.09686224162578583,0.32457631826400757,0.6330710053443909,0.10625496506690979,0.09321193397045135,-0.0807449221611023,-0.3369441032409668
67,2.097607638117118,-1.4379240934346913,-1.3542952900076128,0.11451947689056396,0.9911854863166809,0.06660929322242737,0.62908536195755,-0.14719274640083313,-0.5116565227508545,-0.02635417878627777,0.5079753994941711,-0.11076819151639938
68,1.8489289318244264,-1.4804131391640936,-1.5737183763353286,0.08679037541151047,0.9959182143211365,0.024781569838523865,0.10176723450422287,0.5941526293754578,-0.1409604251384735,0.30658119916915894,0.276084840297699,0.48161184787750244
69,1.970081745680097,-1.4576602352887789,-1.562786045370858,0.10401446372270584,0.9936069250106812,0.04388902336359024,-0.6103544235229492,2.2540321350097656,0.4008296728134155,0.03421489894390106,-0.14688152074813843,0.09003734588623047
70,2.419954906341009,-1.3817359403472833,-1.1519843925334303,0.1241534873843193,0.9821812510490417,0.14108838140964508,-0.9135580658912659,-1.9432331323623657,-0.2840930223464966,-0.1473773568868637,-0.6206852793693542,-0.1631678342819214
71,2.4267347903502876,-1.3473887968938647,-1.0372890822034122,0.14523130655288696,0.9751481413841248,0.1673150658607483,-0.28115496039390564,0.07708102464675903,0.380583256483078,-0.07900813221931458,-0.02817225456237793,-0.001268818974494934
72,2.298801826123755,-1.347675084646163,-1.098005421537448,0.1651819497346878,0.9752115607261658,0.14723196625709534,0.25215286016464233,-0.7557439208030701,-0.24246302247047424,0.0837041437625885,0.639793872833252,0.019348248839378357
73,2.0189357795943095,-1.3957861269642002,-1.3857552394227306,0.1569249927997589,0.984724760055542,0.07544364035129547,0.6811845302581787,0.9005098342895508,0.0417032428085804,0.2837335765361786,0.1746227741241455,0.08417856693267822
74,1.8882248637556944,-1.4158513549660647,-1.5472438265590343,0.1466156542301178,0.9880200028419495,0.04816880822181702,0.1785479635000229,0.671911895275116,0.07110363245010376,-0.03862921893596649,-0.33285343647003174,0.05186783894896507
75,1.8398743509430882,-1.4370661873002892,-1.584530584814354,0.1285351812839508,0.9910714626312256,0.03544560447335243,0.02906239777803421,-0.8771136403083801,-0.04191868379712105,-0.002177134156227112,-0.5376869440078735,-0.07762086391448975
76,1.9744814671420987,-1.4222359435942291,-1.4217239702919637,0.13611732423305511,0.9889851808547974,0.05814168602228165,-0.32211148738861084,0.463276743888855,0.080340176820755,-0.012612700462341309,-0.06575214862823486,0.016183853149414062
77,2.2507752347027266,-1.4299105877089677,-1.140190729070684,0.1091882660984993,0.9900919795036316,0.08829252421855927,0.03039008006453514,0.055246178060770035,-0.18027645349502563,0.0937231034040451,0.44757574796676636,0.03505956381559372
78,2.0911451529200233,-1.4580507226146942,-1.356785798479178,0.09761541336774826,0.9936509728431702,0.05593608319759369,-0.021832533180713654,0.6113516092300415,-0.014284230768680573,0.042612843215465546,0.21968203783035278,0.5830409526824951
79,2.3451025572533917,-1.4203824823796667,-1.1308704663701303,0.10712676495313644,0.9887091517448425,0.10477625578641891,-0.5538387298583984,-0.33161479234695435,0.28798189759254456,-0.03229767084121704,-0.34188908338546753,-0.238672137260437
80,2.5203374485736156,-1.367778551886665,-0.8592454691458786,0.11735814064741135,0.9794625639915466,0.1639525294303894,-0.29915717244148254,-0.5316774845123291,-0.07178086787462234,0.05824001133441925,-0.4560402035713196,-0.13802777230739594
81,2.4640305839233694,-1.3415234722785747,-0.852172534791838,0.14247426390647888,0.9738318920135498,0.17706647515296936,0.07905402034521103,-0.8325832486152649,0.10598007589578629,-0.15835866332054138,0.2534172534942627,-0.2722508907318115
82,2.2950684280219287,-1.3893240991771756,-0.9307368903513044,0.13517454266548157,0.9835790395736694,0.11958280950784683,0.7045560479164124,-0.47053244709968567,-0.261214017868042,0.02730102837085724,0.6876397728919983,0.5651706457138062
83,2.015516511057009,-1.4253143185784551,-1.2543597674777793,0.1308680921792984,0.989436149597168,0.06236646696925163,0.34504127502441406,0.6873986124992371,-0.05623679235577583,0.3730381429195404,0.19191449880599976,-0.0062141455709934235
84,1.885580077113352,-1.419978118941365,-1.4271197918889127,0.14286494255065918,0.9886484742164612,0.04651828855276108,0.23231671750545502,0.23914867639541626,0.007472723722457886,-0.10442805290222168,-0.3693094849586487,0.0029050111770629883
85,1.7806732900408608,-1.4346928901514886,-1.529951164706947,0.13270515203475952,0.9907522201538086,0.028268031775951385,-0.054755523800849915,0.10165446251630783,0.08089837431907654,-0.07678171992301941,-0.3506919741630554,0.041601888835430145
86,2.0520955709090094,-1.4080083359415736,-1.3139543270799046,0.14365829527378082,0.9867792725563049,0.0750274658203125,-0.5732265114784241,0.3238169252872467,-0.15715079009532928,-0.06148973107337952,0.10549062490463257,-0.1332550048828125
87,2.2338475870949837,-1.4241828397537812,-1.1189948868391206,0.11513601988554001,0.9892714619636536,0.08992188423871994,0.8460005521774292,0.5391072034835815,-0.41607826948165894,0.12151254713535309,0.4004839062690735,0.07493413239717484
88,2.0266189384498916,-1.4536268651928506,-1.4084754189245934,0.1049647331237793,0.9931434988975525,0.0514596626162529,0.1746518611907959,1.105899453163147,0.012630418874323368,-0.04394485056400299,0.16666167974472046,0.403481125831604
89,2.245632208262061,-1.4301094832099261,-1.2176145294270813,0.10948719829320908,0.9901199340820312,0.08760681003332138,-0.5298111438751221,-0.2582055628299713,0.3111672103404999,-0.05397573113441467,-0.3412094712257385,-0.09668577462434769
90,2.44373487308863,-1.3729706269128998,-0.9675446828798404,0.12629134953022003,0.9804962277412415,0.1505919247865677,-0.4384269714355469,-0.22138004004955292,0.03912289813160896,0.04623979330062866,-0.3701445460319519,-0.08973990380764008
91,2.409225872626391,-1.3445171368424091,-0.9536122295716883,0.15000951290130615,0.9745079278945923,0.16682758927345276,-0.007795724086463451,-0.6923662424087524,0.08130242675542831,-0.12452733516693115,0.15717542171478271,-0.19986285269260406
92,2.2959152077188176,-1.3846906286010476,-0.9849387224258983,0.13848233222961426,0.9827322363853455,0.12271824479103088,0.5575436949729919,-0.760626494884491,-0.3455773591995239,0.09317658841609955,0.596430242061615,0.304115891456604
93,2.0240340413729507,-1.427224880981907,-1.2833563340295617,0.1286325305700302,0.9897112846374512,0.06265106052160263,0.6067811846733093,0.5031373500823975,-0.11699799448251724,0.3791799545288086,0.19128841161727905,0.00883638858795166
94,1.8477656669610008,-1.436946298542357,-1.4975102804101263,0.1283644139766693,0.991055428981781,0.03649090975522995,0.09564828127622604,0.23027685284614563,-0.021669987589120865,-0.061607226729393005,-0.28327661752700806,0.0017781220376491547
95,1.7645855048086532,-1.4518744282721665,-1.5884520791771668,0.11642172187566757,0.9929371476173401,0.02284800261259079,0.03275773674249649,0.22145088016986847,0.03599091246724129,-0.08468343317508698,-0.45652955770492554,0.013528944924473763
96,2.0348097663870592,-1.4283977646389419,-1.3734800298507341,0.1269129514694214,0.9898784160614014,0.06351452320814133,-0.48073941469192505,0.41963034868240356,-0.04985737055540085,-0.03786264359951019,0.08104449510574341,-0.13295722007751465
97,2.153354901819414,-1.435715826243223,-1.2297231382894154,0.11245652288198471,0.9908905029296875,0.0740898922085762,0.4293891489505768,0.37157097458839417,-0.20218554139137268,0.1251838505268097,0.36202991008758545,-0.0728539302945137
98,1.8653516231223692,-1.4540638684641833,-1.6032426004193001,0.11145240813493729,0.9931945204734802,0.03381248936057091,0.14991536736488342,0.8340221643447876,0.0725155770778656,-0.02820044755935669,0.1428072452545166,0.4446878433227539
99,2.110577310674203,-1.4416760219919567,-1.369494584464158,0.11045525968074799,0.9916755557060242,0.06617727130651474,-0.4921533465385437,-0.429107666015625,0.12791146337985992,-0.12383721023797989,-0.17697817087173462,0.03207410126924515
100,2.3222362361782993,-1.3891966548287529,-1.0714277215507162,0.1319681704044342,0.9835560321807861,0.12329649925231934,-0.7915627360343933,-0.7433563470840454,0.05316116288304329,0.130940780043602,-0.44385260343551636,-0.28696227073669434
101,2.2056627284075696,-1.3767793716460306,-1.1259931157573289,0.1552349179983139,0.9812376499176025,0.11434522271156311,-0.1580692082643509,-0.15617609024047852,0.29462501406669617,-0.1416851133108139,-0.009634315967559814,0.05444741249084473
102,2.072638445784901,-1.3964252514223694,-1.1843213730624713,0.15209728479385376,0.9848358631134033,0.08345529437065125,0.3958243727684021,-0.94179767370224,-0.37808698415756226,-0.14967113733291626,0.5036590099334717,0.06534850597381592
103,1.6073860539823055,-1.4283825928596778,-1.6668713323505904,0.14183734357357025,0.9898762702941895,0.005192107055336237,0.6215161681175232,0.43231841921806335,0.2025979459285736,0.23236918449401855,0.2170480489730835,0.06290781497955322
104,1.56220001815584,-1.435035141522106,-1.7112682951435008,0.13533896207809448,0.9907985925674438,-0.0011634441325441003,0.18533554673194885,0.2539909780025482,-0.042966924607753754,0.020178601145744324,-0.1465451717376709,-0.03219228982925415
105,1.409831073863142,-1.4612809237310704,-1.904704292503799,0.10788329690694809,0.9940091967582703,-0.017517011612653732,0.03343205153942108,0.3662365674972534,-0.4035608768463135,-0.1401403844356537,-0.48148179054260254,0.060501039028167725
106,1.6472692093175603,-1.459502153585973,-1.7288471599095239,0.11074087768793106,0.9938132166862488,0.008485221303999424,-0.5250452160835266,0.15016235411167145,0.04152347147464752,-0.06955739855766296,-0.14180809259414673,-0.21116769313812256
107,1.9428474755433804,-1.4600018837448259,-1.4055937391224393,0.10300420969724655,0.9938685894012451,0.0401947945356369,0.3005421459674835,0.27156656980514526,-0.17066209018230438,0.051582589745521545,0.33439385890960693,-0.2698090076446533
108,1.6302026039973692,-1.4747954487028683,-1.797840307101254,0.09568466246128082,0.9953954815864563,0.005690965801477432,0.34443801641464233,0.8423811793327332,0.07107816636562347,0.17494520545005798,0.21625924110412598,0.38954222202301025
109,1.831267625950263,-1.479103462055417,-1.5948680039002947,0.0884757861495018,0.9957991242408752,0.023581119254231453,-0.6270602345466614,-0.4417087137699127,0.07399830222129822,-0.018239587545394897,0.01475989818572998,0.1736997365951538
110,2.351407066121497,-1.413217232367447,-1.021989795385971,0.11149545758962631,0.9876101016998291,0.11043298244476318,-0.4252432882785797,-0.17684750258922577,0.04739437997341156,0.07041983306407928,-0.44615185260772705,-0.2501882314682007
111,2.3417771758278136,-1.3978792882021012,-0.9747615425921118,0.123403400182724,0.9850870370864868,0.11989543586969376,-0.35687556862831116,-0.4536992907524109,0.1692279875278473,-0.0858515277504921,-0.21682238578796387,-0.05879928171634674
112,2.2638567812647645,-1.4233690212999672,-0.9919839145647483,0.1130041852593422,0.9891522526741028,0.09384933859109879,0.3615158498287201,-0.7739158272743225,-0.4585505425930023,-0.21990728378295898,0.5261064171791077,-0.08095575869083405
113,1.8324154720978858,-1.4793762455026644,-1.4087007585993039,0.0881863608956337,0.9958240985870361,0.023612428456544876,0.6282451748847961,0.31534698605537415,0.2535560727119446,0.2101840078830719,0.17483019828796387,0.144997239112854
114,1.704380782813764,-1.4686118045841619,-1.5549103808283016,0.10109843313694,0.9947836995124817,0.013586089946329594,0.12312527745962143,0.009272090159356594,0.05424957349896431,0.0585237592458725,-0.01902991533279419,-0.03490257263183594
115,1.6176393941721208,-1.4755556781163104,-1.6301891717186365,0.09499157220125198,0.995468020439148,0.004452954046428204,-0.030849643051624298,-0.04101478308439255,-0.0201125405728817,-0.08598889410495758,-0.4298400282859802,-0.008816957473754883
116,1.9008500174143401,-1.4611523844759242,-1.3526352473860002,0.10351750999689102,0.9939951300621033,0.03546353057026863,-0.435274600982666,0.007530047558248043,0.035465460270643234,-0.09228705614805222,-0.23107099533081055,-0.13698029518127441
117,1.95564512915579,-1.46923951747064,-1.3283810622312233,0.09396649897098541,0.9948475360870361,0.0380607545375824,0.09338559210300446,0.4247487485408783,-0.13025113940238953,0.07883927971124649,0.4253336787223816,-0.18015062808990479
118,1.53705940471135,-1.4615304653926915,-1.8478163572860749,0.10898736119270325,0.9940364360809326,-0.003678293898701668,-0.17904441058635712,1.871105432510376,0.050485823303461075,0.0009064450860023499,0.33747613430023193,0.5920572280883789
119,2.3105732765556284,-1.4593135944398243,-1.1373238383487847,0.08217239379882812,0.9937922358512878,0.07499714940786362,-0.6813545227050781,-0.17541925609111786,0.1651686728000641,-0.14093399047851562,-0.04481768608093262,0.011779539287090302
120,2.444503864027564,-1.385529453125439,-0.9200298821782914,0.11826007068157196,0.9828871488571167,0.14123573899269104,-0.29822903871536255,-0.3481607139110565,0.17257632315158844,0.03223736584186554,-0.5537031888961792,-0.1654667854309082
121,2.411354425746992,-1.35271347856694,-0.9161827441359414,0.14432160556316376,0.9763140082359314,0.16119076311588287,-0.11185853183269501,-0.35857000946998596,0.2557724416255951,-0.07471099495887756,-0.12455308437347412,-0.11986993253231049
122,2.297337712266995,-1.3798865699438476,-0.9533548327535218,0.14183510839939117,0.9818320274353027,0.12605002522468567,0.344196081161499,-0.4703822135925293,-0.447409063577652,-0.045903101563453674,0.47979211807250977,0.03351116180419922
123,1.871222563692244,-1.4182248383279719,-1.3445876036251696,0.14517411589622498,0.9883835315704346,0.04497542604804039,0.3670239746570587,-0.0725991278886795,0.6178243160247803,0.3386668562889099,0.23958289623260498,0.056526068598032
124,1.7892478631249484,-1.41033920672787,-1.4674484847710454,0.15597271919250488,0.9871543645858765,0.03462501987814903,0.2211669534444809,0.3040589392185211,0.1912110298871994,-0.009213685989379883,-0.23501813411712646,0.05180072784423828
125,1.7600778431304072,-1.424955154916027,-1.5343212027875897,0.1427285224199295,0.9893839955329895,0.027343200519680977,0.01933356001973152,-0.02877223864197731,-0.37137895822525024,-0.1626870334148407,-0.5209850668907166,-0.09475648403167725
126,1.886616184936943,-1.4253753019172275,-1.4095121325722724,0.13774222135543823,0.9894449710845947,0.045008182525634766,-0.33347827196121216,0.7095636129379272,-0.017086133360862732,-0.08027762174606323,-0.21999001502990723,-0.008570194244384766
127,2.147954698907564,-1.4379324701606793,-1.1762320516758467,0.11101516336202621,0.9911865592002869,0.07228358834981918,0.5636731386184692,0.3015327453613281,-0.5132086277008057,0.09281173348426819,0.6784606575965881,-0.20855987071990967
128,1.7483802261138885,-1.474931258950283,-1.6431962558543998,0.09421287477016449,0.9954084753990173,0.016908809542655945,0.11492893099784851,1.4172240495681763,-0.12045417726039886,0.16022741794586182,0.31257492303848267,0.47184550762176514
129,2.2510507931468697,-1.4737947421460966,-1.1615226262257294,0.07529173046350479,0.9952990412712097,0.0609172098338604,-0.644081711769104,-0.5523109436035156,0.06832756102085114,-0.07428466528654099,-0.196821928024292,-0.004230741411447525
130,2.519029445759889,-1.4099229422209685,-0.8017812740602409,0.09340439736843109,0.9870877861976624,0.13012853264808655,-0.3115391135215759,-0.49608704447746277,-0.021388547495007515,0.09737624228000641,-0.5621152520179749,-0.20356905460357666
131,2.4712158631381467,-1.3866674871056324,-0.778274023729493,0.1137501522898674,0.9830961227416992,0.1434667557477951,-0.10514221340417862,-0.7397658824920654,0.08718933910131454,-0.1125752329826355,-0.07838737964630127,-0.16377629339694977
132,2.367345404639708,-1.4173970066296742,-0.7920646414852893,0.10683324187994003,0.9882573485374451,0.10924278199672699,0.4022817611694336,-0.7350027561187744,-0.42290326952934265,-0.24100378155708313,0.46845340728759766,-0.12798058986663818
133,2.012494384024622,-1.479522170330842,-1.1077076066710856,0.08240006119012833,0.995837390422821,0.03896341100335121,0.6418480277061462,0.2083783596754074,0.32395654916763306,0.25379684567451477,0.15496516227722168,0.0664900541305542
134,1.759259402867479,-1.4595684622860121,-1.3934785445485118,0.10903456062078476,0.9938205480575562,0.020795784890651703,0.05499228835105896,-0.13975556194782257,0.14293381571769714,0.041279785335063934,0.0010831356048583984,0.014406325295567513
135,1.7827839254749223,-1.4676273299697529,-1.3574167370720043,0.10068079829216003,0.994682788848877,0.02166864462196827,-0.11839499324560165,-0.0806390643119812,-0.17438854277133942,-0.10850856453180313,-0.5089040398597717,0.010512111708521843
136,2.0399737106686544,-1.4472891004034472,-1.1076398614795508,0.10988038033246994,0.9923826456069946,0.05570181831717491,-0.5921522974967957,0.46619713306427,0.1948082596063614,-0.08926577121019363,-0.22716981172561646,-0.16889144480228424
137,2.145760963084655,-1.4494860507426517,-1.050089431427461,0.10155496001243591,0.9926509261131287,0.06580713391304016,0.3025456666946411,0.43730539083480835,-0.4023996889591217,-0.03195963799953461,0.4333590865135193,-0.07720542699098587
138,1.8641596984770838,-1.4698399453769109,-1.4073534775896244,0.09647870808839798,0.9949082136154175,0.029144225642085075,0.03328918293118477,1.1408072710037231,0.16024957597255707,0.11165118217468262,0.28440386056900024,0.40469372272491455
139,2.166356992577394,-1.4513872715568543,-1.1424924329613098,0.09861595928668976,0.9928792119026184,0.06682606041431427,-0.5090517997741699,-0.2583756446838379,0.09241429716348648,-0.08358605951070786,-0.10692346096038818,-0.011314518749713898
140,2.33359744063416,-1.398556270490873,-0.9144423648793137,0.12389877438545227,0.9852033257484436,0.11842210590839386,-0.01588813215494156,-0.47616827487945557,0.028992803767323494,-0.00503278523683548,-0.46358150243759155,-0.15516529977321625
141,2.28686573108717,-1.378687882438531,-0.909201529488689,0.1440351903438568,0.9816038608551025,0.12533043324947357,-0.10737507790327072,-0.3860132098197937,0.1028442233800888,-0.1410139501094818,-0.13419175148010254,-0.15552759170532227
142,2.208675341137042,-1.4127022310938013,-0.9294401273753422,0.12647788226604462,0.9875291585922241,0.09375201910734177,0.42010170221328735,-0.568108081817627,-0.4730229079723358,0.061434075236320496,0.4260602593421936,-0.02485860139131546
143,1.8809254248743064,-1.46132128192869,-1.2465439916252148,0.104044608771801,0.9940136075019836,0.03334315866231918,0.2778913676738739,0.19377124309539795,0.2454374134540558,0.3647969365119934,0.25168341398239136,-0.039690855890512466
144,1.693700325769443,-1.4571075756090033,-1.46610695169631,0.11258859187364578,0.9935443997383118,0.01390768587589264,0.06822004914283752,0.05562436953186989,0.10555122047662735,-0.0022522881627082825,-0.11134225130081177,0.06559062004089355
145,1.7355216053633344,-1.4587926336783037,-1.4292162185348283,0.11025653779506683,0.9937341213226318,0.018328113481402397,-0.11359649151563644,-0.04147467017173767,-0.052152588963508606,-0.07067524641752243,-0.3985651135444641,-0.043016791343688965
146,1.9237357643493775,-1.4452154029268267,-1.2598575194113966,0.1175309345126152,0.9921250939369202,0.043294068425893784,-0.4252307415008545,0.383583664894104,-0.0047897277399897575,-0.047111622989177704,-0.17632919549942017,-0.13252747058868408
147,1.979922717487482,-1.4589418010360564,-1.2287266353834236,0.10240821540355682,0.993750810623169,0.04440348222851753,0.45766329765319824,0.23041567206382751,-0.28916528820991516,0.03376120328903198,0.363564133644104,0.01698267087340355
148,1.716665478212445,-1.4627332307163083,-1.5863520060040597,0.10670731961727142,0.9941668510437012,0.015676653012633324,-0.03875618800520897,1.455309271812439,0.07957194745540619,-0.01982378214597702,0.32077449560165405,0.311578631401062
149,2.150109717229738,-1.4637531494992426,-1.161464402410729,0.08940687030553818,0.9942763447761536,0.058488860726356506,-0.6797590255737305,-0.7758741974830627,0.14835262298583984,-0.08421888202428818,-0.12982016801834106,-0.016893386840820312
150,2.3744654654762787,-1.4101060419290434,-0.8630936921399581,0.11105117946863174,0.9871170520782471,0.1151852011680603,-0.2645977735519409,-0.3397431969642639,0.03319687396287918,0.011003874242305756,-0.49253392219543457,-0.16488301753997803
151,2.3235571793770604,-1.391450867400277,-0.8799053116816025,0.1301860213279724,0.9839606881141663,0.12195392698049545,-0.05231117457151413,-0.36827728152275085,0.12233676761388779,-0.1368694007396698,-0.08642357587814331,-0.13390162587165833
152,2.2133983476117405,-1.4183268461014038,-0.9287101075324254,0.1215856745839119,0.9883990287780762,0.09101856499910355,0.4042138457298279,-0.35606759786605835,-0.31813305616378784,-0.019626446068286896,0.45885133743286133,0.005432248115539551
153,1.861098795283615,-1.4535362213878849,-1.2926324489482623,0.11209632456302643,0.9931328892707825,0.03348790481686592,0.47556886076927185,0.3271101415157318,0.5072085857391357,0.23923729360103607,0.18251103162765503,0.058003783226013184
154,1.7552378350674986,-1.4450833880934233,-1.4306971967477122,0.12325466424226761,0.9921085238456726,0.022994618862867355,-0.005780864506959915,0.06599045544862747,0.08716903626918793,0.021551236510276794,-0.12569934129714966,-0.010344984009861946
155,1.669298578591198,-1.4483379999039212,-1.5298227126174653,0.12156160175800323,0.9925113320350647,0.012012968771159649,0.052128084003925323,0.3413626253604889,0.007988961413502693,-0.06391385942697525,-0.47760331630706787,-0.0031170817092061043
156,1.9473346138432979,-1.4364557502719562,-1.2753039025700277,0.12455365806818008,0.9909898638725281,0.04924904927611351,-0.43655258417129517,-0.1550494283437729,-0.1431797295808792,-0.07079694420099258,-0.15589159727096558,-0.1556180715560913
157,1.9612953503470765,-1.4539709217516361,-1.2696306888420739,0.10778652131557465,0.9931836724281311,0.04436906799674034,0.5395993590354919,0.27268898487091064,-0.1552709937095642,0.15709081292152405,0.42652469873428345,-0.09980428218841553
158,1.694775614689559,-1.4504451346711436,-1.6423512583632431,0.11913983523845673,0.9927665591239929,0.014847020618617535,0.01387057825922966,1.2528470754623413,-0.07095736265182495,-0.11209025979042053,0.18779081106185913,0.2701718807220459
159,2.0783165853739933,-1.4724102323040758,-1.2291403947367776,0.08584713190793991,0.9951639771461487,0.04774024337530136,-0.7331591248512268,-0.7629125118255615,-0.026233205571770668,-0.10536310821771622,-0.17697232961654663,-0.03751682490110397
160,2.460481630606692,-1.4265622827254685,-0.7794463321387407,0.09050372242927551,0.9896162748336792,0.11166398227214813,-0.12185557931661606,-0.3883764445781708,-0.032393015921115875,0.07386394590139389,-0.4715956449508667,-0.17581188678741455
161,2.406923236221813,-1.415504090851803,-0.779819400718763,0.10368148982524872,0.9879663586616516,0.11477293074131012,-0.13706819713115692,-0.6496558785438538,0.08311815559864044,-0.10856428742408752,-0.0041100382804870605,-0.17925654351711273
162,2.353819883883516,-1.423152326681494,-0.7668326139243107,0.10426830500364304,0.9891204237937927,0.10377427935600281,0.3408064544200897,-0.5197992324829102,-0.24782195687294006,-0.054463617503643036,0.38551342487335205,-0.23562538623809814
163,1.973573203653819,-1.4795086724947617,-1.1021380345225664,0.083866186439991,0.9958361983299255,0.03573289513587952,0.6940943598747253,0.043303150683641434,0.02983284741640091,0.109981469810009,0.12780576944351196,0.23457658290863037
164,1.669794814648309,-1.4531090348814553,-1.4273197588141382,0.11684166640043259,0.9930828213691711,0.01160508580505848,0.0729694589972496,-0.03221743553876877,0.19027310609817505,0.1432749330997467,0.026295900344848633,-0.040245890617370605
165,1.6457334916144537,-1.4629274582223297,-1.4508827615079964,0.10735878348350525,0.9941877722740173,0.008060256019234657,-0.02895122766494751,0.26206260919570923,0.02068120241165161,-0.10099584609270096,-0.4492200016975403,0.03158211708068848
166,1.863530931700548,-1.438037642344662,-1.2721493356315556,0.12673792243003845,0.9912005066871643,0.03819796442985535,-0.5472670793533325,0.02955438382923603,0.12998679280281067,-0.10967859625816345,-0.2806139588356018,-0.21776342391967773
167,2.007154034916016,-1.4355751593752941,-1.1460640351998754,0.1221776157617569,0.9908715486526489,0.056976135820150375,0.16010849177837372,0.551679790019989,-0.20838677883148193,0.0713801234960556,0.4328039884567261,-0.38845813274383545
168,1.7205122671789792,-1.4559593478037656,-1.4878524778220266,0.11330351233482361,0.9934134483337402,0.017091233283281326,0.10957035422325134,1.3322653770446777,0.20971742272377014,0.2004782259464264,0.31600427627563477,0.41656363010406494
169,1.9511019254525281,-1.4607594379188171,-1.3055855918415784,0.10196956247091293,0.9939520359039307,0.04076407849788666,-0.6242167353630066,-0.33693984150886536,-0.210093691945076,-0.14763912558555603,0.031850576400756836,0.16037726402282715
170,2.35694275939216,-1.4137671099411802,-0.8456000443113,0.11049775779247284,0.9876962304115295,0.11066324263811111,-0.5684389472007751,0.021879833191633224,0.2601768970489502,0.06476469337940216,-0.5307565331459045,-0.1547001600265503
171,2.401232398112266,-1.3822210087453413,-0.7748469511436374,0.12645141780376434,0.9822723269462585,0.1383872777223587,-0.28774628043174744,-0.21036458015441895,0.07879750430583954,-0.12780946493148804,-0.13927006721496582,-0.08791126310825348
172,2.3203951126099716,-1.402701000513792,-0.8066587783727024,0.12246111035346985,0.9859052300453186,0.1139926016330719,0.3551124930381775,-0.509870707988739,-0.3170592784881592,-0.19703081250190735,0.4884447455406189,0.07457554340362549
173,1.9504060734390862,-1.4587793404006537,-1.1521270067138318,0.10382486879825592,0.9937326312065125,0.04142199829220772,0.5894593000411987,0.20946405827999115,0.3932036757469177,0.19736835360527039,0.21065878868103027,0.2322596311569214
174,1.789580123667356,-1.44801084112193,-1.3470682178788813,0.11955677717924118,0.9924713373184204,0.02658258192241192,-0.22705799341201782,0.3934227228164673,0.09354424476623535,0.08100473135709763,-0.09772658348083496,0.04711734503507614
175,1.9186203037296305,-1.4555683873926084,-1.2450295326100338,0.10808797925710678,0.9933686256408691,0.03918886184692383,-0.060245320200920105,0.013213427737355232,-0.13692179322242737,-0.14838643372058868,-0.47328805923461914,-0.012028217315673828
176,2.136361177110036,-1.4300361496120224,-1.0461989432449836,0.11844874918460846,0.9901096224784851,0.07518284767866135,-0.3913944363594055,0.41595837473869324,0.05758398771286011,-0.09528592973947525,-0.19207513332366943,-0.1974210888147354
177,2.026462801667505,-1.4558157789209496,-1.2217370974984911,0.1030203253030777,0.9933969974517822,0.050486452877521515,0.7117542624473572,0.4969022870063782,-0.23426547646522522,0.1601174771785736,0.6588550209999084,-0.12041760236024857
178,1.6958654260153747,-1.4651458268657822,-1.6669145243086723,0.10463090986013412,0.9944241642951965,0.013154755346477032,-0.28593918681144714,0.9309706687927246,-0.18543009459972382,-0.14630267024040222,0.23213833570480347,0.4171736240386963
179,2.2050046001079466,-1.477104786100066,-1.1360465667805415,0.07536179572343826,0.9956141710281372,0.055434633046388626,-0.6253035068511963,-0.5709885954856873,0.2448953092098236,-0.09770065546035767,-0.2130976915359497,-0.06504762172698975
180,2.378192226216815,-1.4174305124759194,-0.9242981853718644,0.10561961680650711,0.9882624745368958,0.11037170141935349,0.44312432408332825,-0.4302399158477783,0.016419140622019768,-0.03735180199146271,-0.5115931630134583,-0.21997559070587158
181,2.292303504227052,-1.4065504497362076,-0.9699310287636869,0.12276357412338257,0.9865419268608093,0.1079997792840004,0.026438988745212555,-0.40684401988983154,0.04066518321633339,-0.15233510732650757,0.0902097225189209,-0.1543102264404297
182,2.189933491708277,-1.4459535311298672,-1.009210459677779,0.10140585154294968,0.9922172427177429,0.07226254045963287,0.5582712292671204,-0.5863482356071472,-0.4699203372001648,-0.02059529721736908,0.4896400570869446,0.23863530158996582
183,1.7671529857535284,-1.458068012941233,-1.4318667979016495,0.11032810062170029,0.993652880191803,0.021946439519524574,0.12782858312129974,-0.0355810821056366,0.783870279788971,0.3167349100112915,0.24446046352386475,-0.03981447219848633
184,1.735062620053685,-1.4377982793500015,-1.5058347424281582,0.1308216005563736,0.9911687970161438,0.021684976294636726,-0.06004570052027702,0.2668721079826355,-0.005866519641131163,-0.1086963564157486,-0.2006872296333313,0.07009661197662354
185,1.7442125579087597,-1.4364099675704471,-1.523763383092966,0.1319730281829834,0.9909837245941162,0.023118481040000916,-0.11158540844917297,0.41869786381721497,0.059706877917051315,-0.08097817003726959,-0.4302232265472412,-0.005814909934997559
186,1.9901360391214795,-1.4174733306485414,-1.3095248122243068,0.1394905298948288,0.988269031047821,0.06218220293521881,-0.31269633769989014,-0.07659514248371124,-0.05608290061354637,-0.01636737585067749,-0.11984562873840332,-0.2932460308074951
187,1.9743123647314744,-1.443186952178541,-1.3324720407603015,0.11704184114933014,0.9918689727783203,0.04997030645608902,0.4714816212654114,0.3163175582885742,-0.378827303647995,0.04714272916316986,0.5134562849998474,0.022570010274648666
188,1.7263490475022398,-1.4492543740530563,-1.655219468060569,0.11977896839380264,0.9926228523254395,0.0187836904078722,-0.1326930820941925,0.9076992273330688,0.03823571652173996,0.03196967393159866,0.23610633611679077,0.42572009563446045
189,2.048467087094701,-1.4434366381686603,-1.3293628030597417,0.11279900372028351,0.9919006824493408,0.058390840888023376,-0.6019771099090576,-0.462146133184433,0.18132001161575317,-0.07741387188434601,-0.18429875373840332,-0.00765538215637207
190,2.3509194320284896,-1.3902602372271902,-0.9726772666196495,0.1276346743106842,0.9837476015090942,0.12629517912864685,0.06800742447376251,-0.8161274790763855,-0.1475602090358734,-0.022318482398986816,-0.5156992673873901,-0.28753480315208435
191,2.311257221929773,-1.3825630030621676,-0.9436549027392898,0.1381266862154007,0.9823363423347473,0.12623882293701172,-0.17081966996192932,-0.2988574802875519,0.1306993067264557,-0.1482585221529007,-0.04164731502532959,-0.13389873504638672
192,2.219877106017717,-1.4106962549310356,-0.9823452428164812,0.12699821591377258,0.9872113466262817,0.09636052697896957,0.5333102941513062,-0.6635221242904663,-0.4377271234989166,-0.12361076474189758,0.46457087993621826,-0.03921639919281006
193,1.8252664342221303,-1.4520530192715313,-1.3690268192535084,0.11464986950159073,0.9929583072662354,0.029821455478668213,0.4865820109844208,0.349755197763443,0.5322937965393066,0.26448526978492737,0.11093878746032715,0.07785987854003906
194,1.7700899867006878,-1.4300874270978574,-1.4747673068122182,0.13746896386146545,0.9901168346405029,0.027765264734625816,-0.08026707172393799,0.2292603701353073,0.13191254436969757,0.002072647213935852,-0.15445399284362793,-0.0038393735885620117
195,1.7930845379170206,-1.4301258598139461,-1.4657710269219173,0.1367567777633667,0.9901221990585327,0.03091021440923214,-0.05729576200246811,0.051420390605926514,0.03840799257159233,-0.0887679010629654,-0.39699792861938477,-0.003627423197031021
196,2.0046102907998713,-1.4182559020678267,-1.2690230043850228,0.13787467777729034,0.9883882403373718,0.06386979669332504,-0.3785747289657593,-0.13881200551986694,-0.1568135768175125,-0.035259321331977844,-0.08073443174362183,-0.17931771278381348
197,2.034322667314722,-1.440304503214701,-1.2377293720335927,0.11639153212308884,0.9914979934692383,0.0581781230866909,0.5798652172088623,0.21056753396987915,-0.3008009195327759,0.08926642686128616,0.4558439254760742,-0.06699764728546143
198,1.7795833219705104,-1.4614271591590626,-1.573400200009116,0.10678193718194962,0.9940251708030701,0.022624386474490166,-0.1733974665403366,0.5601765513420105,-0.30942094326019287,-0.09574981778860092,0.19997519254684448,0.3236128091812134
199,2.300996684354895,-1.4800398236853283,-1.0047931843766678,0.0675247460603714,0.9958844780921936,0.060453444719314575,-0.5775734186172485,-0.6512502431869507,0.07129014283418655,-0.0957992896437645,-0.2801557183265686,0.050645824521780014
200,2.514358142023706,-1.4135276672144739,-0.7495186318998398,0.09192221611738205,0.9876587390899658,0.12680892646312714,-0.07191509753465652,-0.23645761609077454,-0.004632808733731508,0.049450457096099854,-0.3723481297492981,-0.22173382341861725
201,2.4275354892451926,-1.3987843276154217,-0.7881949889284029,0.11209679394960403,0.9852423667907715,0.12935121357440948,-0.1703905314207077,-0.39792630076408386,0.20765510201454163,-0.10585594177246094,-0.01661449670791626,-0.19208002090454102
202,2.313670235969043,-1.4177153556380921,-0.8660262710725211,0.1123088076710701,0.9883059859275818,0.1031414195895195,0.5206510424613953,-0.2696623206138611,-0.2911057472229004,-0.1142924502491951,0.4485989212989807,0.1030200719833374
203,1.9668731601799245,-1.4488943194366586,-1.2200178562787922,0.11218580603599548,0.9925791621208191,0.04691345617175102,0.5223653316497803,0.39372605085372925,0.6547796130180359,0.16494432091712952,0.09343457221984863,0.10352301597595215
204,1.8425778663705814,-1.426056804495763,-1.3884994199460488,0.13894081115722656,0.9895434975624084,0.03871962055563927,-0.0867866724729538,0.8030095100402832,0.29206639528274536,0.11591148376464844,-0.12263065576553345,0.008704781532287598
205,1.8760499158315491,-1.421745873124453,-1.4299620405271007,0.14163434505462646,0.9889125227928162,0.044629260897636414,0.21795471012592316,0.6083417534828186,-0.02671545371413231,-0.13484418392181396,-0.42917436361312866,-0.08582806587219238
206,1.9257168257455326,-1.406592787702732,-1.4453514236319596,0.15327900648117065,0.9865488409996033,0.05680745467543602,-0.4696313738822937,0.44223591685295105,0.06552073359489441,-0.0045363157987594604,-0.19942408800125122,-0.10511671751737595
207,1.9603113345328964,-1.4097918991062177,-1.425244726512601,0.14830192923545837,0.9870667457580566,0.06087617576122284,0.6551684141159058,0.4909501373767853,-0.13676311075687408,0.3137494921684265,0.5839019417762756,-0.04715847223997116
208,1.868024985083824,-1.4121150060247976,-1.5901856132485157,0.15108810365200043,0.9874365329742432,0.046278636902570724,-1.1060279607772827,0.040616318583488464,-0.26186978816986084,-0.20322738587856293,0.09804332256317139,0.41865670680999756
209,2.246459799664256,-1.4052832772232102,-1.1789220002423992,0.12855996191501617,0.986333966255188,0.1030426174402237,-0.4685688018798828,-0.5859019160270691,0.07162545621395111,-0.15243995189666748,-0.2161771059036255,-0.1017608642578125
210,2.4034356202764124,-1.3563222366532004,-0.9244875031466921,0.14322122931480408,0.977088451385498,0.15743514895439148,-0.27188506722450256,-0.9542491436004639,-0.15381033718585968,0.04629293084144592,-0.39485883712768555,-0.24486804008483887
211,2.3683100690299947,-1.3471461208777777,-0.8782612296749048,0.15491792559623718,0.9750943779945374,0.15871798992156982,-0.2484641671180725,-0.7114290595054626,0.1295372098684311,-0.13529512286186218,0.017322003841400146,-0.20495212078094482
212,2.285428306137134,-1.368603924791521,-0.8710724447258519,0.15168514847755432,0.9796286821365356,0.13160431385040283,0.5295945405960083,-0.7830185294151306,-0.34058064222335815,0.036394715309143066,0.45895493030548096,0.08113375306129456
213,1.9121181676305885,-1.3904758043520642,-1.250942537553003,0.1689988225698471,0.9837862849235535,0.06003257632255554,0.6955830454826355,0.800209105014801,0.8376656770706177,0.3303755521774292,0.17737698554992676,0.12084507942199707
214,1.7570197068762001,-1.3818132792658724,-1.4573422634629678,0.18461276590824127,0.9821957945823669,0.03478221967816353,-0.175040140748024,0.31563204526901245,0.05309372767806053,0.0008273124694824219,-0.1985958218574524,0.01371026411652565
215,1.8372343089469758,-1.4131423595250947,-1.3878573887562549,0.1514618843793869,0.9875983595848083,0.04133804515004158,0.18245473504066467,0.38954591751098633,-0.2529059946537018,-0.1646454930305481,-0.48959726095199585,-0.04347432032227516
216,1.8742744627184942,-1.4184096172630567,-1.3927565728129683,0.1448615938425064,0.9884116053581238,0.04536359757184982,-0.4716179072856903,-0.03419139236211777,-0.155113086104393,-0.11971507966518402,-0.17345482110977173,-0.1316978931427002
217,2.0570107557501265,-1.4192579766482285,-1.22838270849584,0.13346436619758606,0.98853999376297,0.07054063677787781,0.4860042333602905,0.73096764087677,-0.12092363834381104,0.19560666382312775,0.38131779432296753,-0.1655113697052002
218,1.6902595545764225,-1.4404408862332838,-1.7208105078914593,0.12906001508235931,0.9915157556533813,0.015491691417992115,-0.3903312385082245,1.456868052482605,-0.22593797743320465,-0.06535457074642181,0.3591921925544739,0.5434072017669678
219,2.264649921996397,-1.455202337252262,-1.1757097770138332,0.08866963535547256,0.9933264255523682,0.07375854253768921,-0.5142896175384521,-0.35852888226509094,-0.08964456617832184,-0.20376667380332947,-0.10001587867736816,0.14959955215454102
220,2.435497259709868,-1.3717176158661522,-0.9378850493103291,0.12832437455654144,0.9802491664886475,0.15048088133335114,-1.0901086330413818,-0.2972089648246765,0.2957805097103119,0.11575520038604736,-0.56418776512146,-0.33213675022125244
221,2.3271439467650907,-1.3638010907752975,-0.9943425488220948,0.14948463439941406,0.9786528944969177,0.1410422921180725,-0.022104524075984955,-0.6655106544494629,0.19453656673431396,-0.18123817443847656,-0.14578241109848022,-0.029042720794677734
222,2.2272410250440915,-1.3760419157786234,-1.025704606056229,0.15330466628074646,0.9810952544212341,0.1181095540523529,0.41989144682884216,-0.4814625382423401,-0.33960914611816406,-0.16708335280418396,0.5525504350662231,-0.11946749687194824
223,1.9450914818283138,-1.4362801868452606,-1.2711614235650743,0.12482534348964691,0.9909663200378418,0.04903298616409302,0.729768693447113,-0.04498985409736633,0.32632356882095337,0.2462531328201294,0.06373631954193115,0.1288844347000122
224,1.722636499649414,-1.4141944552000778,-1.5585588507244412,0.15416882932186127,0.987762987613678,0.02359059825539589,0.0921366959810257,0.42287206649780273,0.1390385776758194,-0.014642462134361267,-0.15760844945907593,-0.050690170377492905
225,1.7471576643698525,-1.4370085198265188,-1.5865109995952391,0.13132084906101227,0.9910637736320496,0.02340306155383587,-0.07613411545753479,0.4591214060783386,-0.06381262093782425,-0.13992680609226227,-0.5823875665664673,0.019703030586242676
226,1.9305080025436123,-1.415952602128367,-1.4764334425688699,0.14435623586177826,0.9880356192588806,0.0542885847389698,-0.3806719183921814,0.5921919345855713,0.1665848046541214,-0.07852979004383087,-0.1941206455230713,-0.23727189004421234
227,2.073086343703286,-1.4154310501539153,-1.3483977239019684,0.13562780618667603,0.9879550933837891,0.07449759542942047,0.16854211688041687,0.4266950488090515,-0.40155258774757385,0.028617799282073975,0.37071800231933594,-0.4107249975204468
228,1.6654963779172085,-1.4492303019894301,-1.8235605154596648,0.12072437256574631,0.9926199316978455,0.011466903612017632,0.4242231249809265,0.6540915966033936,0.17418308556079865,0.2665437161922455,0.2892404794692993,0.4686051607131958
229,2.014399295459956,-1.4646644957138435,-1.4204445154986722,0.0956796184182167,0.9943733215332031,0.04546595364809036,-0.6693525910377502,-1.0591741800308228,-0.28381189703941345,-0.06034025549888611,-0.026096343994140625,0.12964391708374023
230,2.53493828499655,-1.3919705891306546,-0.8807049557250161,0.10141035169363022,0.9840532541275024,0.14613483846187592,-1.1207280158996582,0.17983651161193848,0.1304941177368164,0.15605121850967407,-0.4620194435119629,-0.6045241355895996
231,2.4812517140006243,-1.3768328953735969,-0.8447195283633686,0.11822997033596039,0.9812480211257935,0.1522304266691208,-0.3366625905036926,0.023201080039143562,0.21717976033687592,-0.14163696765899658,-0.3095102906227112,0.09989047050476074
232,2.3767466677465996,-1.4202651470832113,-0.9117807998057617,0.10383915901184082,0.9886915683746338,0.10819758474826813,0.8794494867324829,-0.8214427828788757,-0.4616861641407013,-0.023135408759117126,0.48736751079559326,0.11975349485874176
233,1.828623266947197,-1.4635675891410251,-1.468165305180401,0.10348670929670334,0.9942564964294434,0.02728903666138649,0.410603404045105,0.452833354473114,0.560634195804596,0.41352683305740356,0.5100617408752441,0.1785825490951538
234,2.010295347485563,-1.4423873380577084,-1.35900507575322,0.11588699370622635,0.9917668700218201,0.05448643118143082,-0.22880101203918457,0.7373263239860535,-0.11617203801870346,-0.08228713274002075,-0.15582937002182007,0.006365656852722168
235,2.1818912403012947,-1.4712832660128528,-1.2270070332160128,0.0813690647482872,0.9950526356697083,0.05700308829545975,0.183538019657135,0.24609695374965668,-0.019822733476758003,-0.1084686741232872,-0.630459189414978,-0.10013961791992188
236,2.0486870412927103,-1.437409144862378,-1.4002775807954957,0.11809248477220535,0.9911171197891235,0.061163973063230515,-0.41219499707221985,0.3116978406906128,0.38661301136016846,0.005122244358062744,-0.08199846744537354,-0.13078975677490234
237,2.2129370117468827,-1.4490233342571686,-1.247387702711072,0.09727773070335388,0.992594838142395,0.0727517306804657,0.9144852161407471,-0.3159734308719635,-0.4585943818092346,0.10026255995035172,0.46851062774658203,-0.10743498057126999
238,1.3550976785554318,-1.4688668546299912,-2.137742265302418,0.09939523786306381,0.9948096871376038,-0.021778220310807228,0.2487085610628128,0.9652442932128906,0.09565377980470657,0.1430211365222931,0.11693042516708374,0.4079476594924927
239,2.206411160826086,-1.4965294177416772,-1.2973768483558108,0.05970674008131027,0.9972434639930725,0.04404864087700844,-0.5419300198554993,0.09139302372932434,-0.39220312237739563,-0.20558078587055206,-0.06799864768981934,0.20837748050689697
240,2.653499491619101,-1.414197486990343,-0.8113339358711031,0.07313660532236099,0.9877634644508362,0.13774895668029785,-1.3325412273406982,-0.7244462966918945,0.3364068567752838,0.1837451159954071,-0.5546426177024841,-0.48221611976623535
241,2.559552645315929,-1.3947089317959862,-0.8278395391746604,0.09630098193883896,0.9845366477966309,0.14633449912071228,-0.1884956806898117,-0.5521168112754822,0.2522413432598114,-0.06997957825660706,-0.15969228744506836,0.03417694568634033
242,2.4047580193536113,-1.4224487982554448,-0.8797397153475046,0.09931604564189911,0.9890166521072388,0.10946307331323624,0.4106789827346802,-1.093736171722412,-0.3127972185611725,0.031222879886627197,0.5512969493865967,-0.08097495138645172
243,1.9094972716953802,-1.4695511235674092,-1.3128075694163543,0.09533066302537918,0.9948790669441223,0.03358269855380058,0.45112866163253784,-0.3063463270664215,0.39231786131858826,0.24008804559707642,0.022638022899627686,0.07536506652832031
244,1.7667707873840257,-1.4372642488650196,-1.45515863280551,0.1305866688489914,0.9910978078842163,0.02592438831925392,-0.041383419185876846,-0.08719245344400406,0.17406348884105682,-0.027772948145866394,-0.18860763311386108,0.008331537246704102
245,1.6744653639079137,-1.4400900254807525,-1.5508851206313994,0.12963467836380005,0.9914700984954834,0.013487454503774643,0.19794195890426636,0.5631349682807922,0.06778404116630554,-0.13325101137161255,-0.5449826717376709,0.01776254177093506
246,1.876445130248678,-1.4181710250954787,-1.4037401232083397,0.14498698711395264,0.9883753657341003,0.04574868455529213,-0.9616357684135437,-0.42595431208610535,-0.09048796445131302,-0.07929791510105133,-0.11287182569503784,-0.23898601531982422
247,2.105728443870519,-1.4258724509684038,-1.1633210607817661,0.12424252927303314,0.9895169138908386,0.07362134754657745,0.2669004499912262,0.493716299533844,-0.30410027503967285,0.10286928713321686,0.4695437550544739,-0.33266985416412354
248,1.723932417782091,-1.4650123006355495,-1.5667297888162024,0.10435131192207336,0.9944100975990295,0.016106048598885536,0.205530047416687,0.9473147392272949,0.10729628056287766,0.32539722323417664,0.29710906744003296,0.4536663293838501
249,2.2053783180795636,-1.4568756576196502,-1.1400573595689678,0.09154415875673294,0.993518054485321,0.0673907920718193,-0.702215313911438,0.21944890916347504,-0.1760033667087555,-0.20712949335575104,-0.12489622831344604,0.2378002405166626
250,2.569167362879298,-1.375245931709987,-0.7365485095986165,0.10525059700012207,0.9809408783912659,0.1633322685956955,-0.9183300137519836,-0.09620784968137741,0.022224759683012962,0.07846523076295853,-0.48614412546157837,-0.3299429416656494
251,2.5035818731353916,-1.3716748486431278,-0.7536290836763107,0.1178143247961998,0.9802407622337341,0.158895805478096,-0.03751128166913986,-0.7780569791793823,0.2078811675310135,-0.1238873228430748,-0.08276456594467163,-0.08084715902805328
252,2.32899991534072,-1.3889472567360672,-0.8365949074593384,0.13130880892276764,0.9835109710693359,0.12435443699359894,0.5132271647453308,-1.0112322568893433,-0.38436198234558105,-0.18802574276924133,0.6386966109275818,-0.023829467594623566
253,1.943939550300192,-1.445425114124445,-1.1706294355115585,0.11643728613853455,0.9921513199806213,0.045583296567201614,0.6881056427955627,0.22581209242343903,0.3066212236881256,0.25828802585601807,0.17305541038513184,0.19562768936157227
254,1.6752398948484848,-1.43860076679082,-1.4853682052399453,0.13109205663204193,0.991274893283844,0.01374172605574131,0.44427502155303955,0.01848769374191761,-0.031816091388463974,-0.03262712061405182,-0.16682732105255127,0.025030851364135742
255,1.3643384370755425,-1.457123697816454,-1.8197990905226766,0.11101953685283661,0.9935462474822998,-0.023252176120877266,0.08871710300445557,0.4688231348991394,-0.14022403955459595,-0.1060756966471672,-0.6067206859588623,0.07978600263595581
256,1.7437209654087196,-1.4430469114792532,-1.5197586405981742,0.12550216913223267,0.9918511509895325,0.02192135900259018,-0.6577731966972351,0.9555771946907043,0.16620489954948425,-0.021528780460357666,-0.12835627794265747,-0.08092713356018066
257,2.051572444560789,-1.441399271992498,-1.2353521861093923,0.11440800875425339,0.9916398525238037,0.059674955904483795,0.10399103909730911,0.544206976890564,-0.3884272873401642,-0.018414974212646484,0.554853618144989,-0.4437997341156006
258,1.636567568014059,-1.4825131780494292,-1.6810053230588469,0.08797794580459595,0.9961055517196655,0.0057947770692408085,0.36168423295021057,0.83327716588974,0.22113096714019775,0.39754146337509155,0.2335849404335022,0.4706151485443115
259,1.9725808560552494,-1.4822368310819305,-1.340182302072292,0.0814015120267868,0.9960811734199524,0.03458736836910248,-0.7109439373016357,-0.7417930364608765,-0.2644583582878113,-0.1366688311100006,0.019376099109649658,0.3429609537124634
260,2.4936518950119324,-1.4014392437598364,-0.7960371369068874,0.10172722488641739,0.9856933355331421,0.13438913226127625,-0.9622306823730469,0.2630264461040497,0.24239285290241241,0.0512116402387619,-0.45349717140197754,-0.5374195575714111
261,2.4144877502665327,-1.3966388084677768,-0.8269114654337825,0.11518029868602753,0.9848728775978088,0.12945719063282013,0.0003029480576515198,-0.4728655517101288,0.0962190106511116,-0.17208030819892883,-0.2053775191307068,-0.030427679419517517
262,2.3512885382690256,-1.4063583255461873,-0.8489369973111348,0.11631816625595093,0.9865105152130127,0.11518242955207825,0.430107980966568,-0.8140995502471924,-0.3341197669506073,-0.3448795676231384,0.57969731092453,-0.3467041254043579
263,1.9452704833509307,-1.4626341489750292,-1.2271767779918772,0.10047012567520142,0.9941561818122864,0.039486706256866455,0.637158989906311,0.5469390153884888,0.42858198285102844,0.1478056162595749,0.08038294315338135,0.2570068836212158
264,1.6613732635527652,-1.4408433811498393,-1.538989729364332,0.1290559321641922,0.9915679693222046,0.011721564456820488,0.08110156655311584,0.04371051490306854,0.025468340143561363,0.09448529779911041,-0.14720767736434937,-0.004122615791857243
265,1.4893852812619972,-1.4562248303334606,-1.7223036633222182,0.11394257098436356,0.9934438467025757,-0.009296732023358345,0.35764244198799133,0.2668752372264862,-0.2713567912578583,-0.14996856451034546,-0.5527852773666382,0.029133141040802002
266,1.5457878291144005,-1.4472331398228366,-1.7360522973710935,0.12321028113365173,0.9923757910728455,-0.003081946400925517,-0.5056059956550598,0.6836433410644531,0.32218438386917114,-0.05698713660240173,-0.12404394149780273,-0.10508757829666138
267,1.857766522596138,-1.447045258742504,-1.4304921789290146,0.11838667839765549,0.9923526048660278,0.034937821328639984,0.12135213613510132,0.4124753773212433,-0.3230663239955902,0.03905348479747772,0.40730541944503784,-0.38614940643310547
268,1.5083607245520119,-1.456131379443928,-1.8398974562677823,0.1141909658908844,0.9934331774711609,-0.007138860411942005,0.25542783737182617,0.9515749216079712,0.2544456124305725,0.3144589364528656,0.1768854260444641,0.47645342350006104
269,1.8827639443674116,-1.462283546397912,-1.4679664455888137,0.10307201743125916,0.9941182732582092,0.033240560442209244,-0.7017167806625366,-0.5712911486625671,-0.07112424820661545,-0.10717663913965225,-0.1291128396987915,0.15692973136901855
270,2.3661703331688577,-1.3881419033417448,-0.9392173044935851,0.12715154886245728,0.983364999294281,0.12971408665180206,-0.21609586477279663,0.33546218276023865,0.08101820200681686,0.11811822652816772,-0.4420594573020935,-0.3480062484741211
271,2.3656669325154627,-1.367853201895687,-0.8846532205865594,0.14116300642490387,0.9794776439666748,0.14386297762393951,-0.30727332830429077,-0.7210507988929749,0.20192144811153412,-0.058826595544815063,-0.1073768138885498,-0.05166947841644287
272,2.3011158545364805,-1.377690334299422,-0.8770759029165303,0.14296409487724304,0.9814128875732422,0.12802337110042572,0.5349247455596924,-0.9030155539512634,-0.2727436423301697,0.046595826745033264,0.517702043056488,-0.08159090578556061
273,1.937752337860748,-1.4146756710620263,-1.214562225052768,0.14513614773750305,0.9878379106521606,0.05578530579805374,0.5808117985725403,0.01969398744404316,0.5162058472633362,0.26450133323669434,0.1197214126586914,0.09700096398591995
274,1.9123004457880621,-1.3937568041771031,-1.2592145327808122,0.16594621539115906,0.9843693971633911,0.058982282876968384,0.061548858880996704,-0.1296515315771103,0.10187335312366486,-0.09130021929740906,-0.2219792604446411,-0.057532668113708496
275,1.7737163225501758,-1.4141113470996,-1.3728789805256216,0.15284277498722076,0.9877499938011169,0.03144767880439758,0.03378189355134964,0.45291295647621155,-0.058584511280059814,-0.16269996762275696,-0.5189085006713867,0.035797830671072006
276,1.9314268489812798,-1.392000821915414,-1.2776399329692574,0.16640491783618927,0.9840586185455322,0.06275510042905807,-0.511880099773407,0.20194417238235474,0.1370151787996292,-0.10846728086471558,-0.11227810382843018,-0.23154783248901367
277,2.057215501526691,-1.410168880498535,-1.1616193133560127,0.14138685166835785,0.9871271252632141,0.07476498931646347,0.16721424460411072,0.5778511166572571,-0.4458264112472534,0.08297838270664215,0.5168096423149109,-0.18864130973815918
278,1.76246243302428,-1.4317429139830091,-1.5194414904220455,0.13606804609298706,0.9903476238250732,0.026403749361634254,-0.08258013427257538,1.031944990158081,0.08037310838699341,0.09424811601638794,0.18593716621398926,0.5086914300918579
279,2.1220492077063353,-1.42998505878233,-1.1675152714441568,0.11955682933330536,0.9901024699211121,0.07350717484951019,-0.6898541450500488,-0.3145514726638794,0.06730764359235764,-0.11787836998701096,-0.25818413496017456,-0.04450023174285889
280,2.363765473273389,-1.38678161957806,-0.9205026163472023,0.12840130925178528,0.9831170439720154,0.1303604245185852,0.05436519905924797,-0.12920397520065308,-0.002232555067166686,-0.003355547785758972,-0.5263299942016602,-0.18463601171970367
281,2.3357323384509088,-1.3681903542845415,-0.9063614703754077,0.14516796171665192,0.979545533657074,0.13934539258480072,-0.056134335696697235,-0.29525119066238403,0.07423630356788635,-0.05742990970611572,0.17943596839904785,0.01337982714176178
282,2.2094464863059646,-1.4163695106287426,-0.956761471578777,0.12349720299243927,0.9880998730659485,0.09169022738933563,0.8405493497848511,-0.5759392976760864,-0.40662187337875366,0.02452830970287323,0.6362897753715515,0.4963071346282959
283,1.7246243485093575,-1.4226780809583819,-1.472757868368571,0.14583474397659302,0.9890505075454712,0.022612109780311584,0.2959473133087158,0.9061485528945923,0.1307448148727417,0.4379817843437195,0.29891330003738403,0.05536031723022461
284,1.7336366122141469,-1.417642046437607,-1.5010520653222426,0.15053805708885193,0.988294780254364,0.02473265863955021,0.12338052690029144,0.022104056552052498,-0.1362711787223816,-0.10895785689353943,-0.390119731426239,0.01852595806121826
285,1.6741020290044792,-1.4303923895043489,-1.5800579348118422,0.13919664919376373,0.9901595711708069,0.014431181363761425,-0.025623735040426254,0.7692856788635254,0.20214475691318512,-0.13609912991523743,-0.48698580265045166,-0.017955901101231575
286,1.9385537221020381,-1.4103683109030913,-1.354720499430758,0.1490594446659088,0.987159013748169,0.05743043124675751,-0.10886789113283157,-0.14462260901927948,-0.1613597571849823,0.03877623379230499,0.304756760597229,-0.09028256684541702
287,1.8570260246532657,-1.4398226927908662,-1.4351527359311886,0.12528687715530396,0.9914352297782898,0.03687334805727005,1.1132097244262695,-0.10075203329324722,0.011642450466752052,0.39100950956344604,0.5999497771263123,0.23236799240112305
288,1.8876194114871994,-1.439318129706994,-1.4711716724618769,0.12457413971424103,0.9913691878318787,0.04084378853440285,-0.7208942174911499,-0.2428763061761856,-0.4984508752822876,-0.22017046809196472,0.07659333944320679,0.3604319095611572
289,2.373193716875305,-1.4282621625753307,-0.9436770656315311,0.09872351586818695,0.9898591637611389,0.10213834792375565,-0.8783945441246033,-1.071244239807129,0.2092035710811615,-0.10137856006622314,-0.37520480155944824,-0.3995932340621948
290,2.4564484672842952,-1.384177650559137,-0.8131626479836477,0.11740551888942719,0.9826372265815735,0.14366713166236877,-0.11211686581373215,-0.7131050825119019,0.1040957123041153,-0.014393419027328491,-0.35708779096603394,-0.009221896529197693
291,2.368559244310022,-1.3577367692680637,-0.8437053654361738,0.14765815436840057,0.9773885607719421,0.15135557949543,0.11644914746284485,-0.5746152400970459,0.013724027201533318,-0.22888070344924927,0.4805580973625183,-0.3008458614349365
292,2.2468362955997363,-1.3978012488631255,-0.8969008378092598,0.13427375257015228,0.9850736260414124,0.10770536214113235,0.5188422203063965,-0.1085624098777771,-0.2247338742017746,-0.016262277960777283,0.6080354452133179,0.49736666679382324
293,1.8799019028607409,-1.3958543894806514,-1.2736943017621913,0.16580237448215485,0.9847366213798523,0.05294759199023247,0.30586308240890503,0.2118512988090515,0.028781211003661156,0.5523220300674438,0.1599166989326477,-0.010009288787841797
294,1.8798141824960364,-1.3901330043588709,-1.2549500002798253,0.17117173969745636,0.9837247133255005,0.054645705968141556,-0.1657465696334839,-0.3175540268421173,-0.07853973656892776,-0.11312727630138397,-0.39325523376464844,0.02483726292848587
295,1.9105664981226573,-1.392125528460146,-1.2224666334294232,0.16756127774715424,0.9840807914733887,0.059229277074337006,0.061911214143037796,0.6230706572532654,0.20760193467140198,-0.13483119010925293,-0.45104557275772095,-0.09128808975219727
296,2.1079731565407864,-1.3779375002160505,-1.0278234969413778,0.16467037796974182,0.9814603328704834,0.0980774313211441,-0.6376136541366577,-0.8103445768356323,-0.34258389472961426,-0.07543699443340302,0.2543794512748718,-0.0953003317117691
297,2.089580258796522,-1.4374735593363914,-1.0478537564153576,0.1154373362660408,0.9911257028579712,0.06590874493122101,1.1112679243087769,-0.12012852728366852,0.03817152976989746,0.4291945993900299,0.6312496662139893,0.14539502561092377
298,2.020300471848279,-1.4469729186783364,-1.213352774268949,0.11123832315206528,0.9923436641693115,0.05366622284054756,-0.535742998123169,0.23377403616905212,-0.20576447248458862,-0.13127312064170837,0.1008111834526062,0.44341933727264404
299,2.386274052691869,-1.4159223550004154,-0.7724443333103846,0.10574561357498169,0.9880309700965881,0.11230650544166565,-1.1376038789749146,-1.369520902633667,0.1660481095314026,0.02331322431564331,-0.40406185388565063,-0.41241633892059326
300,2.466590200185514,-1.374201297572347,-0.6799987575607397,0.12206213176250458,0.9807373881340027,0.15249589085578918,-0.05760809779167175,-0.6732369065284729,0.12250496447086334,-0.16698402166366577,-0.3354737162590027,-0.10925258696079254
301,2.375520279855253,-1.348486643696745,-0.7168816783857346,0.1528632789850235,0.9753907918930054,0.15888889133930206,0.09368830174207687,-0.3764992952346802,0.10090678930282593,-0.2373969703912735,0.46737349033355713,-0.26776039600372314
302,2.217376301126461,-1.3834209159853865,-0.8111391459306779,0.14868025481700897,0.9824965000152588,0.11222710460424423,0.681145191192627,-0.28756630420684814,-0.27099600434303284,-0.12307599186897278,0.7041184902191162,0.5048383474349976
303,1.8421044714150943,-1.4005950463507235,-1.2018274470293149,0.16318535804748535,0.9855507016181946,0.045392777770757675,0.5925217270851135,0.10028793662786484,0.1821490079164505,0.46874213218688965,0.13380354642868042,0.07913422584533691
304,1.885147484298947,-1.3940131695585813,-1.1633952462393529,0.16724619269371033,0.9844145178794861,0.05437706410884857,-0.19935524463653564,-0.2518392503261566,-0.034498199820518494,-0.06730112433433533,-0.2843717932701111,0.005971431732177734
305,1.9414996029565201,-1.400921354269334,-1.1016445606502667,0.15757572650909424,0.9856058955192566,0.06124534457921982,-0.07352224737405777,0.43705496191978455,0.1376950591802597,-0.13609135150909424,-0.4676310420036316,-0.05379903316497803
306,2.0771270682151726,-1.383214962780527,-1.0049670721155577,0.16308529675006866,0.9824581146240234,0.09043915569782257,-0.14843754470348358,0.07292003929615021,-0.1305963397026062,-0.07005245983600616,0.2073459029197693,-0.2426455020904541
307,2.113363825598168,-1.42516422301836,-0.9982962275211407,0.12427721917629242,0.989414393901825,0.0749298483133316,0.2561693787574768,0.26829349994659424,-0.3372344374656677,0.1917628049850464,0.5025900602340698,-0.00023806095123291016
308,1.8019726866385792,-1.4475793128219112,-1.3458583452669683,0.11963578313589096,0.9924184083938599,0.028160417452454567,-0.00876931007951498,0.30789145827293396,-0.03846178203821182,0.08355023711919785,0.008664965629577637,0.3497844934463501
309,2.159095146596447,-1.4425912237615093,-0.9474403539038291,0.10636049509048462,0.9917929768562317,0.07095251232385635,-0.7683325409889221,-0.5213047862052917,0.1737252026796341,-0.09638124704360962,-0.3235037922859192,0.12371909618377686
310,2.454085698136025,-1.3659183163566904,-0.6559002402833832,0.1291106939315796,0.9790858030319214,0.1572308987379074,0.05345117673277855,-0.6506985425949097,-0.0452362559735775,0.004617348313331604,-0.3609979748725891,-0.4599500894546509
311,2.3612040365590943,-1.3520180939273814,-0.6836999039150639,0.1526983082294464,0.9761633276939392,0.15423591434955597,-0.2891154885292053,0.00484068226069212,0.36758434772491455,-0.04689384996891022,0.05063122510910034,-0.0880279392004013
312,2.2269236217318458,-1.3545582337180468,-0.7754460031142375,0.17000675201416016,0.9767115116119385,0.13089126348495483,0.5139577388763428,-0.689893901348114,-0.13238991796970367,-0.059990882873535156,0.523395299911499,-0.011247038841247559
313,1.9226249353881568,-1.3954663594536323,-1.0782037534017375,0.16374856233596802,0.984669029712677,0.060112450271844864,0.935634434223175,0.5465869903564453,0.3015432059764862,0.09218709170818329,-0.024738609790802002,0.2419811487197876
314,1.6168988610782216,-1.397306025379582,-1.4337848267302769,0.17243756353855133,0.984988272190094,0.007955445908010006,-0.27265462279319763,0.42957407236099243,-0.055872730910778046,0.2830067276954651,-0.15246880054473877,0.023721814155578613
315,1.7830052811164898,-1.4017247869255585,-1.2929585881289565,0.16449302434921265,0.9857414364814758,0.035440489649772644,0.14765676856040955,0.12999491393566132,-0.24482795596122742,-0.14378684759140015,-0.42647629976272583,-0.05172169208526611
316,1.7286247756409954,-1.4030561782279474,-1.4054813744164059,0.1648794561624527,0.9859645962715149,0.026240916922688484,-0.2666454017162323,0.36020204424858093,0.09309292584657669,-0.0341574102640152,-0.2943294644355774,-0.11523020267486572
317,1.9224983948405372,-1.3993512475214236,-1.2344920672446946,0.16016355156898499,0.9853392839431763,0.05877338722348213,-0.19459573924541473,-0.04968245327472687,-0.30592137575149536,0.012413352727890015,0.6162689924240112,-0.398189902305603
318,1.6387741645979934,-1.4324020851830899,-1.5512699992879782,0.13763542473316193,0.9904388189315796,0.009370597079396248,0.5782776474952698,0.878200113773346,0.10174494236707687,0.12660102546215057,0.019906818866729736,0.4197828769683838
319,1.721080492195051,-1.4587429849430134,-1.4906147799927743,0.11055888235569,0.9937285780906677,0.016741476953029633,-0.469460666179657,-0.09167876094579697,-0.48192480206489563,-0.167107954621315,0.009063780307769775,0.3840916156768799
320,2.4317481593573254,-1.4158952516564656,-0.8339062959820547,0.10054805129766464,0.9880267977714539,0.11701725423336029,-1.5240943431854248,1.1702466011047363,0.4051448404788971,0.11750004440546036,-0.27885937690734863,-0.4451117515563965
321,2.4575059988443257,-1.3801097764886536,-0.8590327623299249,0.11977823823690414,0.9818743467330933,0.14688734710216522,-0.11761143803596497,0.4203473925590515,0.3725813031196594,-0.12749919295310974,-0.17257875204086304,0.015435680747032166
322,2.3679936875143106,-1.3709955595959178,-1.0027782983215754,0.13867691159248352,0.9801061153411865,0.14198869466781616,0.6666443943977356,0.32037320733070374,0.030782876536250114,-0.05110672116279602,0.4816552996635437,-0.1920374631881714
323,1.979409687030034,-1.4173836863345812,-1.4463044524672106,0.14023053646087646,0.9882553219795227,0.06071752309799194,1.017167568206787,1.118395447731018,0.21333354711532593,-0.03590621054172516,0.11213213205337524,0.3092164993286133
324,1.5439644550341067,-1.4215812430127948,-1.949540332734931,0.14860790967941284,0.9888880848884583,-0.003988385666161776,-0.3174780309200287,0.4900118410587311,-0.23102456331253052,0.26406604051589966,-0.13605916500091553,0.2882291078567505
325,1.9475365905727016,-1.4159721351854186,-1.6312541309213668,0.14339187741279602,0.9880386590957642,0.05673125386238098,-0.40206611156463623,0.937741756439209,0.0719638466835022,0.06515000760555267,-0.37838900089263916,-0.1364583969116211
326,2.132761428953752,-1.400524582611962,-1.4990161096453565,0.14339034259319305,0.9855387806892395,0.09029152244329453,-0.4610026776790619,-0.1554965376853943,-0.03516203910112381,0.05775099992752075,-0.128620445728302,-0.25832128524780273
327,2.2320777518870165,-1.4048191525695355,-1.4259919287289717,0.13039030134677887,0.9862573742866516,0.10146454721689224,0.0585174560546875,0.25649651885032654,-0.16206739842891693,0.13660800457000732,0.23755872249603271,-0.30858728289604187
328,1.9616595906014254,-1.4306663657798244,-1.722796864782923,0.12913770973682404,0.9901978373527527,0.05321304872632027,0.3065004050731659,0.6014026403427124,0.17033182084560394,0.12435653805732727,0.29450058937072754,0.4880009889602661
329,2.1452298771583247,-1.4458344824070568,-1.569793496591842,0.10463271290063858,0.9922024011611938,0.0677226260304451,-0.26638686656951904,-0.7403717041015625,-0.8006000518798828,-0.28885209560394287,0.12338286638259888,0.15648996829986572
330,2.535757987219206,-1.4165142963145063,-1.0730146681932313,0.08750742673873901,0.9881221055984497,0.12632131576538086,-0.9899572134017944,-0.6208246350288391,0.27106723189353943,0.02342396229505539,-0.406960666179657,-0.22815848886966705
331,2.5703609047292524,-1.3736344744474818,-0.9819265852958835,0.10590995103120804,0.9806264638900757,0.16478711366653442,-0.15139557421207428,-0.7055025100708008,0.11277081072330475,-0.13276541233062744,-0.07982391119003296,-0.1394575834274292
332,2.4989538166464107,-1.3427865508772816,-0.9913182231691267,0.1354674994945526,0.974118173122406,0.1809481829404831,0.06596185266971588,-0.7572909593582153,0.0927506685256958,-0.0632934421300888,0.3359708786010742,-0.2172793298959732
333,2.3138579507849313,-1.3845633859599629,-1.0935551181371754,0.13635103404521942,0.9827086925506592,0.12526835501194,0.8143791556358337,-0.35361042618751526,-0.19665171205997467,-0.16073457896709442,0.4160339832305908,0.5250459909439087
334,1.8113275137508724,-1.4022935544453936,-1.6052140364959924,0.16287823021411896,0.9858369827270508,0.03995073586702347,0.769915759563446,0.041516706347465515,0.23087692260742188,0.23735979199409485,0.08973973989486694,0.09458601474761963
335,1.8654493404726311,-1.4017664779117722,-1.5570860051101694,0.16097623109817505,0.9857484102249146,0.04885423183441162,-0.4671802520751953,0.3610108494758606,0.038964856415987015,-0.02241116762161255,-0.4132844805717468,0.04520094394683838
336,2.061930052475481,-1.3990530295101988,-1.4101267701480888,0.15070047974586487,0.9852883219718933,0.08060144633054733,-0.06950721144676208,0.7714142203330994,0.24024918675422668,-0.019932642579078674,-0.33064043521881104,-0.15378260612487793
337,2.1988490678409702,-1.3768016694345526,-1.290750791819852,0.15599247813224792,0.9812420010566711,0.11327183991670609,-0.39091259241104126,0.4033614993095398,-0.08025302737951279,-0.042238205671310425,0.41331976652145386,-0.012411236763000488
338,2.253009877875166,-1.3954575999650247,-1.295862385986606,0.13539817929267883,0.9846674799919128,0.10998786985874176,1.2232801914215088,0.5262345671653748,0.052535008639097214,0.25005409121513367,0.5223820805549622,0.016065001487731934
339,2.263071478071154,-1.408027997117278,-1.4024962370352925,0.12474590539932251,0.986782431602478,0.10343534499406815,-0.8480749130249023,0.9527695178985596,-0.24456381797790527,-0.1904502511024475,-0.0519832968711853,0.5412789583206177
340,2.589855108574371,-1.4034719290665607,-1.082767761911041,0.08729766309261322,0.9860339164733887,0.14183247089385986,-0.3663005530834198,-0.3892500102519989,0.17734113335609436,-0.06880400329828262,-0.4068559408187866,-0.11369524896144867
341,2.4845556547329064,-1.3397486395360456,-1.1440548147299152,0.13986577093601227,0.9734269976615906,0.18132169544696808,-0.49135613441467285,-0.0438012070953846,0.10714668780565262,0.3362542390823364,-0.20119494199752808,-0.29130709171295166
342,2.4470347126691148,-1.3214315990977845,-1.1390315123581491,0.1579558104276657,0.9690694212913513,0.18961648643016815,-0.39251708984375,-0.24096429347991943,0.24812531471252441,-0.0820891261100769,0.3923197388648987,-0.10195483267307281
343,2.2431874535764806,-1.3427895363548834,-1.2548876148609416,0.17683567106723785,0.9741188883781433,0.14078834652900696,0.9699426889419556,-1.4805291891098022,0.03231600672006607,-0.08107151091098785,0.2897665500640869,0.4120069742202759
344,1.8040666171756092,-1.3779307422148503,-1.6720041586175363,0.18648073077201843,0.9814590215682983,0.04430700093507767,1.0490614175796509,-0.5248788595199585,0.031229399144649506,0.14536742866039276,0.25911104679107666,0.13287806510925293
345,1.8671294243770131,-1.3953285260304333,-1.5781077805317931,0.1669594645500183,0.9846450090408325,0.05097656324505806,-0.578188955783844,-0.4038759171962738,-0.23875318467617035,-0.055875495076179504,-0.4312545657157898,0.09677433967590332
346,2.053051859470486,-1.396053908717584,-1.3958367079562248,0.1540268212556839,0.9847713708877563,0.08063012361526489,-0.29010939598083496,0.7544223070144653,0.21819055080413818,0.029032886028289795,-0.42176783084869385,-0.14863848686218262
347,2.1494545227550037,-1.3722993128773735,-1.3220883707156765,0.16509215533733368,0.9803640842437744,0.10784684121608734,0.20966623723506927,-0.7042273879051208,-0.135976180434227,0.05251342058181763,0.3953683376312256,-0.24639666080474854
348,2.049668377240863,-1.411583530640582,-1.3800243289119263,0.140707328915596,0.9873523712158203,0.07305215299129486,0.7874622344970703,-0.5556269288063049,-0.35875222086906433,0.2085205465555191,0.5505046248435974,0.25519490242004395
349,1.7086932894191738,-1.425793906217548,-1.7018997971392253,0.14312390983104706,0.9895055294036865,0.01986241154372692,-0.1498512476682663,-0.7965710163116455,-0.19869068264961243,-0.04232434928417206,0.07055306434631348,0.36339259147644043
350,2.1939482233493206,-1.4287371596631628,-1.168830893684296,0.11497081816196442,0.9899265766143799,0.08262700587511063,-0.856402575969696,0.3853030502796173,0.01565534621477127,-0.17907299101352692,-0.3161442279815674,0.10554444789886475
351,2.4840122182188438,-1.3621083818365476,-0.8591448062320249,0.12662729620933533,0.9783036112785339,0.16397503018379211,-0.33172595500946045,-0.784662127494812,-0.040274444967508316,0.08496634662151337,-0.44375765323638916,-0.3181650638580322
352,2.3989674294872003,-1.3394151531246279,-0.867430960080947,0.15507341921329498,0.9733505845069885,0.16894091665744781,-0.09077295660972595,-0.7312230467796326,0.25580543279647827,0.010652303695678711,0.4594956040382385,-0.09205184876918793
353,2.2084597610298444,-1.3691994868338648,-0.9560869419609486,0.1608852744102478,0.9797480702400208,0.11920284479856491,0.8025068044662476,-1.015639066696167,-0.2147696167230606,0.012713953852653503,0.5144076347351074,0.488844633102417
354,1.7658448684081829,-1.366597624663516,-1.3579730211090366,0.19893798232078552,0.9792237877845764,0.03930223360657692,0.5737522840499878,-0.5828086733818054,-0.013594824820756912,0.46909183263778687,0.22658687829971313,-0.05178391560912132
355,1.633588000948926,-1.3858746189241689,-1.3762389821204204,0.18350644409656525,0.9829506278038025,0.011537845246493816,-0.0683596283197403,-1.1135921478271484,-0.3047540485858917,-0.03841066360473633,-0.2649179697036743,0.06371855735778809
356,1.5362090262902803,-1.401756440241892,-1.4432343528945106,0.168135866522789,0.9857467412948608,-0.0058176857419312,0.12076140195131302,0.2913241982460022,0.0059327129274606705,-0.1676628291606903,-0.46201926469802856,-0.027415931224822998
357,1.8393164289057553,-1.386101357256578,-1.1260966413663571,0.1770658642053604,0.9829922914505005,0.04872242361307144,-0.8616942763328552,-0.3759475350379944,0.03042960911989212,-0.1027555763721466,0.361108660697937,-0.06231808662414551
358,1.873799167107244,-1.4314912725710354,-1.0851033381218707,0.13253073394298553,0.9903127551078796,0.04143301770091057,0.7840479612350464,0.3132878541946411,-0.26272740960121155,0.27262067794799805,0.26928526163101196,0.1881050020456314
359,1.7523632507933253,-1.4449556310863874,-1.2840741615203763,0.12344574183225632,0.992092490196228,0.022663256153464317,0.12894141674041748,1.0049928426742554,-0.027478555217385292,0.06522917747497559,0.2433200478553772,0.21906650066375732
360,2.030407271498672,-1.4315668468746663,-0.979916476300948,0.12437839806079865,0.9903232455253601,0.06156286597251892,-0.9273319244384766,-0.9088875651359558,0.17727121710777283,0.07204798609018326,-0.3590671420097351,-0.3493589162826538
361,2.3020027051824528,-1.3877837787537077,-0.6912608920438548,0.135469451546669,0.9832999110221863,0.12152861803770065,-0.34855571389198303,-0.07689528912305832,0.13906285166740417,0.0538768470287323,-0.5051658153533936,-0.12638093531131744
362,2.2988493567730206,-1.351816247259235,-0.6626293664759076,0.16215936839580536,0.9761195182800293,0.14455167949199677,-0.3989582061767578,-0.6717066764831543,0.14436396956443787,-0.04135555028915405,0.4029698371887207,-0.10196435451507568
363,2.1802126982146564,-1.35524525171319,-0.6896488097756828,0.1753830462694168,0.9768586754798889,0.12242621928453445,0.7023053169250488,-0.8976693153381348,0.03465675935149193,0.2581802010536194,0.5057311654090881,0.25118517875671387
364,1.833959262912244,-1.3642145619868573,-1.020413357055642,0.19805438816547394,0.9787377715110779,0.05335806682705879,0.6680210828781128,-0.02003251016139984,0.2226763516664505,0.34285444021224976,0.07300490140914917,0.02873421460390091
365,1.6810088000359646,-1.3532422837625473,-1.1602559148971714,0.2145327925682068,0.9764283299446106,0.023740392178297043,-0.23944133520126343,-0.3058447539806366,0.11895256489515305,-0.0686434954404831,-0.30523985624313354,-0.007459279149770737
366,1.7755149109960833,-1.3909688296762064,-0.9972694276247842,0.1751241236925125,0.9838745594024658,0.03636053949594498,-0.17604108154773712,-0.5832692384719849,-0.3550279140472412,-0.1885366141796112,-0.46976035833358765,-0.02769351750612259
367,1.873754575135499,-1.3609213796537805,-0.9238822650369872,0.1988496631383896,0.9780569672584534,0.06215653568506241,-0.2254967838525772,0.0933176726102829,0.047295838594436646,-0.0990876853466034,0.27388089895248413,-0.3514631986618042
368,1.8642616083402626,-1.3982849048956305,-0.926195132501873,0.16431857645511627,0.985156774520874,0.049655523151159286,0.2711862325668335,0.2063087373971939,-0.3651691675186157,0.021884441375732422,0.3598597049713135,-0.13933145999908447
369,1.7242696086425893,-1.408628772600223,-1.0775289183883745,0.15956011414527893,0.9868796467781067,0.024682309478521347,0.22221426665782928,1.3028931617736816,0.14558511972427368,0.11540326476097107,-0.04590064287185669,0.3377138376235962
370,1.8019243864747772,-1.4116817166452633,-1.045555551440886,0.15423111617565155,0.9873679280281067,0.03629576042294502,-0.3727863132953644,0.027982495725154877,0.16950561106204987,-0.07288652658462524,-0.2030203938484192,0.03694641590118408
371,2.1579026911981876,-1.3768226685638363,-0.663508057163026,0.16048066318035126,0.9812459945678711,0.10677948594093323,-1.002386212348938,-0.18332885205745697,-0.10821904987096786,-0.08002109825611115,-0.4456627368927002,-0.14297333359718323
372,2.1957947725353306,-1.3517779539398942,-0.5645882626222178,0.176199272274971,0.9761111736297607,0.12712462246418,-0.3596211373806,-0.4262974262237549,0.28388097882270813,-0.0009825974702835083,0.05471146106719971,0.031093820929527283
373,2.1690065694351395,-1.3345736076131187,-0.5395856117709334,0.1933910846710205,0.9722288846969604,0.13179846107959747,0.21972985565662384,-1.188786506652832,-0.21106860041618347,-0.1018231064081192,0.5599365830421448,-0.13689495623111725
374,1.8140080861032162,-1.3755593163566908,-0.8613683495518005,0.18829011917114258,0.9810017347335815,0.046719204634428024,0.8410667777061462,0.5534816980361938,0.26193967461586,0.17225982248783112,-0.03320193290710449,0.15407121181488037
375,1.6534369628214822,-1.3735254511931652,-1.0412550618051781,0.19532553851604462,0.9806051254272461,0.01617867313325405,-0.12028443813323975,-0.013150518760085106,0.2844387888908386,0.08568033576011658,-0.33903396129608154,0.04655027389526367
376,1.7408304697131516,-1.3933374674113563,-0.9574806241563995,0.17398254573345184,0.9842954277992249,0.02987140603363514,-0.012874510139226913,-0.39006197452545166,-0.6105689406394958,-0.18672366440296173,-0.4174621105194092,-0.05880213528871536
377,1.7510441726181216,-1.3806823131859565,-1.0061682660225724,0.18590877950191498,0.9819827079772949,0.03387733921408653,0.011893723160028458,1.7120819091796875,0.6591155529022217,-0.06899595260620117,-0.07814371585845947,-0.11543560028076172
378,1.6652421977632983,-1.3983336939703266,-1.1537722254488365,0.17084480822086334,0.9851651191711426,0.01618373394012451,0.7681021690368652,0.1537800431251526,-0.495041161775589,-0.06276679039001465,0.3818087577819824,-0.3825472593307495
379,1.5383492892673984,-1.4251571517022164,-1.2355747236598846,0.14504873752593994,0.989413321018219,-0.004708054009824991,-0.44561561942100525,0.03114698827266693,0.1631222814321518,0.27073800563812256,0.02030646800994873,0.631706953048706
380,1.7553811742758205,-1.3832812302174493,-1.0925546933310568,0.18325172364711761,0.9824705123901367,0.034214962273836136,-0.5544997453689575,1.2173985242843628,0.5933486819267273,-0.09262976050376892,-0.12413311004638672,0.18471813201904297
381,1.9476582061608647,-1.3408614783980444,-1.0015000026720002,0.21191969513893127,0.9736812710762024,0.08387326449155807,-0.49900710582733154,-0.07664740085601807,-0.14500463008880615,-0.14826004207134247,-0.49157989025115967,-0.35416746139526367
382,2.074412285481869,-1.309168323352361,-0.7969705138657803,0.22654052078723907,0.9659701585769653,0.12482539564371109,-0.1759195178747177,-1.6615774631500244,0.2552516758441925,0.016776174306869507,-0.04584980010986328,-0.2163628190755844
383,2.002378864158769,-1.2949314513938266,-0.7811514812259474,0.2474035769701004,0.9621899724006653,0.11393870413303375,-0.1941022127866745,-0.14378879964351654,-0.015308113768696785,-0.1435370147228241,0.6572710871696472,-0.16000497341156006
384,1.7599891715456863,-1.3253027294882986,-0.9658910926871714,0.2386981099843979,0.9700174927711487,0.0457066185772419,0.7561071515083313,-0.29575568437576294,-0.08735140413045883,0.14828002452850342,0.08854562044143677,0.2176753282546997
385,1.566685588442376,-1.3529229695588243,-1.1387093994132578,0.21615184843540192,0.9763593673706055,-0.000888548674993217,-0.10845682770013809,0.4493424594402313,0.1533253788948059,0.15214954316616058,-0.23849010467529297,0.10803574323654175
386,1.6551230012549156,-1.369264987560994,-1.0902250130759388,0.19945940375328064,0.9797611832618713,0.01685973070561886,-0.065818190574646,-0.21819362044334412,-0.7459909915924072,-0.23492082953453064,-0.4187411665916443,-0.08260989189147949
387,1.7934305884899762,-1.3804132967820424,-0.9777758796527332,0.18456444144248962,0.9819318056106567,0.04178299754858017,-0.1736830174922943,0.9800163507461548,0.36717960238456726,-0.08379539847373962,-0.151594340801239,-0.12308180332183838
388,1.8640620840526876,-1.3979193303085766,-0.959153423218814,0.1646735519170761,0.9850939512252808,0.0497269406914711,0.02052123285830021,0.6801904439926147,-0.7417734265327454,-0.2189185470342636,0.5253126621246338,-0.3012681007385254
389,1.5570986497293546,-1.453621251767419,-1.2845937286393185,0.11689585447311401,0.99314284324646,-0.0016013018321245909,0.5660044550895691,0.5191943049430847,-0.28167954087257385,0.434953510761261,0.15166300535202026,0.6207419037818909
390,1.648649905511113,-1.4577386036557929,-1.3259598955652447,0.1124756783246994,0.9936158061027527,0.008774369023740292,-0.43572911620140076,0.35483241081237793,0.14903707802295685,-0.0954010933637619,-0.0041748881340026855,0.2502894401550293
391,2.103243615910609,-1.4124162266793712,-0.8693471851446337,0.13588522374629974,0.9874840378761292,0.0800648182630539,-1.475157380104065,0.2665269076824188,0.09357540309429169,0.11940957605838776,-0.4088402986526489,-0.23832905292510986
392,2.3170661032002746,-1.3589837246115029,-0.6104776765235547,0.15435796976089478,0.9776514768600464,0.1427275538444519,-0.20126041769981384,-0.9106059074401855,0.1794871687889099,-0.05018623173236847,-0.30347245931625366,-0.07647396624088287
393,2.309617107085582,-1.3333996769799756,-0.5466645072984778,0.17385531961917877,0.9719535112380981,0.15836992859840393,-0.0027244621887803078,-1.4583457708358765,-0.2404760867357254,-0.3433346748352051,0.6777353286743164,-0.47881972789764404
394,2.1000367428281446,-1.3852427796290465,-0.6301339429620636,0.15925008058547974,0.9828342795372009,0.09314490854740143,0.7126684188842773,-0.5446897149085999,-0.22121667861938477,0.19609658420085907,-0.03186088800430298,0.46468591690063477
395,1.9786189041860345,-1.3951335247529424,-0.807018408109775,0.16042816638946533,0.984610915184021,0.06931217014789581,-0.04651634767651558,1.269700050354004,0.29289454221725464,0.06259430944919586,0.0009542703628540039,0.006463050842285156
396,1.926125724232242,-1.4013458925672555,-0.8713799254420739,0.15810610353946686,0.9856775999069214,0.058669984340667725,0.23250633478164673,-0.888221263885498,-0.2621699869632721,-0.13961245119571686,-0.4501093626022339,0.0061492919921875
397,2.0103453912953233,-1.4009515002663202,-0.7743889289988035,0.15296147763729095,0.9856110215187073,0.0719270408153534,-0.3368833661079407,1.049215316772461,0.15843631327152252,-0.059333547949790955,-0.3756257891654968,-0.09818745404481888
398,2.0088963873725367,-1.4000884474102635,-0.8436390730024972,0.1538361757993698,0.9854647517204285,0.07206633687019348,0.14569486677646637,0.4421810507774353,-0.26635679602622986,-0.1021394282579422,0.5606625080108643,0.02021884173154831
399,2.0710676588796137,-1.441841855406744,-0.8097338432978493,0.11283852159976959,0.9916968941688538,0.06168372556567192,0.42682090401649475,-0.6295762062072754,-0.3724401295185089,0.3685762882232666,0.47276538610458374,0.26369476318359375
400,1.8436035623187739,-1.4564039552573271,-1.0814249002815546,0.10992205888032913,0.9934643507003784,0.030754296109080315,-0.007659796625375748,0.904107928276062,0.2621796727180481,0.18609844148159027,0.19702637195587158,0.38652777671813965
401,2.0392838610313446,-1.3807897493632817,-0.9703529750480776,0.1685156226158142,0.9820029735565186,0.08527979999780655,-0.5918398499488831,0.6537522077560425,0.4620814621448517,-0.1836676001548767,-0.33171921968460083,-0.10491788387298584
402,2.2084643416021827,-1.3401279586066284,-0.7619929259246683,0.18369920551776886,0.9735137820243835,0.1361074000597,-0.318170428276062,-0.676909327507019,0.27316609025001526,0.015275388956069946,-0.4953950047492981,-0.3269338607788086
403,2.039083627864508,-1.2938522925305773,-0.823194718532142,0.2439822405576706,0.9618954658508301,0.12340942770242691,0.018746457993984222,-0.5188151001930237,0.4025586247444153,-0.1052645891904831,0.4987521171569824,0.2966040372848511
404,1.9820965887752893,-1.29414973465835,-0.8326778572716836,0.2503528892993927,0.9619767665863037,0.1091984212398529,0.3390071988105774,-1.0724235773086548,-0.23092253506183624,-0.1563282310962677,0.7628462314605713,0.2040187120437622
405,1.715866820072606,-1.333428376856148,-1.0750649582155798,0.23267491161823273,0.9719602465629578,0.03399306535720825,0.6376746296882629,0.22779938578605652,-0.46703413128852844,0.3499819338321686,0.03969740867614746,0.17128336429595947
406,1.7651232023258427,-1.3426247233550408,-1.0639895889418203,0.22193947434425354,0.9740815758705139,0.04368002340197563,-0.1674850732088089,0.6571539640426636,0.2356472760438919,0.03031882643699646,-0.4342561960220337,-0.02076137065887451
407,1.7385845280821948,-1.3656979185986309,-1.1378341993751795,0.20080365240573883,0.9790409207344055,0.034012265503406525,0.42382174730300903,-0.1217389851808548,-0.8506938219070435,-0.22187604010105133,-0.3673160672187805,-0.07873570919036865
408,1.677395528897066,-1.3922512947652808,-1.2278244665912403,0.1765899658203125,0.9841031432151794,0.01889597624540329,-0.11783325672149658,1.2364470958709717,0.5553752183914185,-0.1164550632238388,0.004818975925445557,-0.017049670219421387
409,1.6479399732590745,-1.4052540790558286,-1.3487986561120042,0.16429710388183594,0.9863291382789612,0.012699680402874947,0.40660834312438965,0.4582367241382599,-0.6644388437271118,-0.029104232788085938,0.32498061656951904,-0.25003480911254883
410,1.6070753381617804,-1.4120430641830564,-1.3406958469699835,0.15798300504684448,0.9874251484870911,0.005733983125537634,-0.0972847044467926,0.7956239581108093,0.010089664719998837,0.387350857257843,0.11557161808013916,0.5163607597351074
411,1.7218283780168067,-1.4017079573774827,-1.296409697901165,0.16636799275875092,0.9857385754585266,0.025319712236523628,-0.3304169774055481,0.44659969210624695,0.24551278352737427,-0.09300374984741211,-0.2953242063522339,0.10077881813049316
412,2.0793810223127394,-1.362931544434907,-0.9733975702717517,0.18025146424770355,0.9784737825393677,0.10049055516719818,-1.5668784379959106,0.42147162556648254,0.05338524654507637,0.04055847227573395,-0.5273019671440125,-0.3991812467575073
413,2.1346520617966434,-1.3445850105878974,-0.843793460771504,0.1895681619644165,0.97452312707901,0.1198703721165657,0.021350324153900146,-0.633758008480072,0.09861530363559723,-0.049126237630844116,0.08597809076309204,0.2196223884820938
414,2.1576688627646865,-1.3405930957556644,-0.7823948113888567,0.189996600151062,0.9736200571060181,0.12635450065135956,0.1704796850681305,-0.8175514340400696,-0.19465680420398712,0.007909908890724182,0.5014472007751465,-0.06917987763881683
415,1.8951940863643209,-1.3934154981421618,-0.9946965836828141,0.16724838316440582,0.9843092560768127,0.05624183267354965,0.788659393787384,0.1067098081111908,-0.1419280469417572,0.267962783575058,-0.13531029224395752,0.23762714862823486
416,1.6078418931927712,-1.413072531834419,-1.3439345074095683,0.15696322917938232,0.9875873923301697,0.0058174533769488335,0.18034298717975616,0.4212786853313446,0.004538215696811676,0.044574856758117676,-0.09612315893173218,-0.033207058906555176
417,1.566115093208241,-1.4395928569994334,-1.348610879784891,0.13082556426525116,0.991405189037323,-0.0006124295177869499,-0.14336392283439636,-0.6963162422180176,-0.30536407232284546,-0.11532266438007355,-0.4419972896575928,0.09550684690475464
418,1.9401243252568336,-1.4249550427239732,-1.0075316528343712,0.1355256885290146,0.9893839955329895,0.052460677921772,-0.6796510219573975,1.5721001625061035,0.3405565619468689,-0.03289507329463959,-0.2658122181892395,-0.1187601089477539
419,2.1721144833529666,-1.4100146497413646,-0.8382767722233376,0.13200880587100983,0.9871024489402771,0.09056776762008667,0.03200698271393776,0.5608965754508972,-0.31429407000541687,-0.10815933346748352,0.3885841965675354,-0.1479102373123169
420,2.1471528642854114,-1.4566357580136404,-0.884930438575931,0.09551113843917847,0.9934907555580139,0.06207970157265663,0.5980972051620483,-0.2920074760913849,-0.31610530614852905,0.29860812425613403,0.3812345862388611,0.18792033195495605
421,2.0242039140376713,-1.4833099383662454,-1.089220286571769,0.07854624092578888,0.9961755275726318,0.03827281296253204,-0.002120637334883213,1.0885382890701294,-0.22249673306941986,-0.04392406344413757,0.015344798564910889,0.3720207214355469
422,2.3799148088035618,-1.4634180625223345,-0.7945998052709734,0.07396366447210312,0.9942404627799988,0.0775584876537323,-0.7464180588722229,0.024556312710046768,0.2782895267009735,-0.10127688199281693,-0.294228196144104,-0.03495597094297409
423,2.6870124402278894,-1.3678521586565195,-0.479765979405823,0.08849923312664032,0.9794774055480957,0.18108497560024261,-0.3132488429546356,-0.16970308125019073,0.05506192892789841,0.06311208754777908,-0.414185106754303,-0.2663358449935913
424,2.610183125069682,-1.3391571837494622,-0.4968896356852035,0.11633613705635071,0.9732913970947266,0.19791385531425476,-0.23756273090839386,-0.5068206191062927,0.2897695004940033,-0.004504472017288208,0.24861717224121094,-0.07990241050720215
425,2.49242838429324,-1.3491912740501049,-0.5442364342483959,0.13287121057510376,0.9755459427833557,0.1750870645046234,0.5882306098937988,-1.1440510749816895,-0.12537123262882233,-0.07423168420791626,0.5264834761619568,0.0623396635055542
426,2.110872635425115,-1.4051167273139333,-0.8901469232131105,0.14144916832447052,0.9863064885139465,0.0848034918308258,1.013528823852539,0.40432390570640564,0.6326724886894226,0.16345195472240448,-0.08352029323577881,0.12895691394805908
427,1.7540122733116825,-1.4143725308424715,-1.2936191861577135,0.1531790941953659,0.9877907037734985,0.028383154422044754,0.09687897562980652,-0.11631154268980026,-0.08891929686069489,0.0862312912940979,-0.3072029948234558,-0.04687678813934326
428,1.9172489114603988,-1.433357791355584,-1.067692059506002,0.1288662552833557,0.9905701875686646,0.046522464603185654,-0.3897821009159088,-0.896894097328186,-0.49277016520500183,-0.12314419448375702,-0.40998852252960205,0.04156649112701416
429,2.1349028112823505,-1.424255951416009,-0.8559673554493653,0.12339338660240173,0.9892821311950684,0.07806913554668427,-0.380156934261322,1.5049148797988892,0.5518054962158203,-0.01725325733423233,-0.049996912479400635,-0.05121374875307083
430,2.3959485184073968,-1.4106223582996664,-0.6428856177368948,0.10820486396551132,0.9871995449066162,0.1171691045165062,0.4189298450946808,0.6863546967506409,-0.3736703395843506,0.06115242838859558,0.436536967754364,-0.10351253300905228
431,2.11398418147518,-1.4799742711110355,-0.9145615603258265,0.07764235883951187,0.9958785176277161,0.04687822237610817,0.25703001022338867,0.8663500547409058,-0.04815394803881645,0.34708601236343384,0.06045687198638916,0.5288053750991821
432,2.2769325080283136,-1.4613358913335075,-0.8573408107124872,0.08312032371759415,0.9940151572227478,0.07088771462440491,-0.5710307955741882,0.747805655002594,0.10031656175851822,-0.17761799693107605,-0.18478041887283325,0.23965907096862793
433,2.588921041685089,-1.385130130768071,-0.5361378934969478,0.09690887480974197,0.9828134775161743,0.15711884200572968,-1.9583184719085693,-0.5305966734886169,0.19995835423469543,0.05888335406780243,-0.4343820810317993,-0.49862587451934814
434,2.5831423783874996,-1.3429206936169615,-0.4923829839417305,0.11970309168100357,0.9741485118865967,0.19158847630023956,-0.17167504131793976,-0.5065556168556213,0.22001594305038452,-0.09365632385015488,-0.10279524326324463,0.047120124101638794
435,2.5014147335837236,-1.3229926324561647,-0.5186420615018491,0.14651203155517578,0.9694534540176392,0.1967078596353531,0.47067931294441223,-1.0248432159423828,-0.28918054699897766,-0.24215415120124817,0.7083723545074463,-0.31403282284736633
436,2.339249119483539,-1.3909883746742882,-0.5937670528802593,0.1285845786333084,0.9838780760765076,0.12429895997047424,0.7770741581916809,-0.2745448350906372,-0.09365108609199524,0.21066409349441528,0.08161276578903198,0.41081154346466064
437,1.8826299362921155,-1.4218142603065966,-1.0596993088119588,0.14127275347709656,0.988922655582428,0.045539338141679764,0.2967571020126343,0.016032416373491287,-0.24554488062858582,0.35723185539245605,-0.08180296421051025,-0.044150713831186295
438,1.9304037929464073,-1.4186222842928844,-0.9525273741374559,0.14189191162586212,0.9884438514709473,0.05334494262933731,-0.30797481536865234,-0.9278050661087036,-0.21402429044246674,-0.08464092016220093,-0.5111030340194702,-0.0038759633898735046
439,2.2016199945438797,-1.4401678845489556,-0.6001216575662001,0.10518771409988403,0.9914802312850952,0.07682668417692184,-0.2452688366174698,0.25852447748184204,-0.09798116981983185,-0.09119540452957153,-0.35567706823349,0.05093514174222946
440,2.2095194102389915,-1.4182687590284346,-0.7268414704132786,0.12198443710803986,0.9883902072906494,0.09058088064193726,-0.331800639629364,0.08159385621547699,-0.4950357973575592,-0.31183427572250366,0.7092875242233276,-0.640141487121582
441,2.0690514101481154,-1.4493528106183289,-0.8595655727095982,0.10641579329967499,0.9926347732543945,0.05789433792233467,0.7393516302108765,-1.433894157409668,-0.4175228774547577,0.3643941283226013,0.5269727110862732,0.08765935897827148
442,1.9536817490058864,-1.456900226942399,-1.0541067597934375,0.1054198369383812,0.9935208559036255,0.04245913773775101,-0.2110060453414917,1.6194554567337036,0.2164110541343689,0.05325629562139511,0.09276747703552246,0.4887450933456421
443,2.2910619820010085,-1.4196711458262188,-0.7899647098249758,0.11315769702196121,0.9886022806167603,0.09930017590522766,-0.5341856479644775,0.05595959350466728,0.04506085067987442,-0.1539749801158905,-0.3137062191963196,-0.12275303900241852
444,2.5668421548375306,-1.3254086726614651,-0.4640849030345285,0.13206394016742706,0.9700432419776917,0.20389951765537262,0.0006808284670114517,-0.49206921458244324,0.033886417746543884,0.05156032741069794,-0.4134027361869812,-0.2842828333377838
445,2.428947311222458,-1.3361118529767344,-0.5220156185555569,0.15204109251499176,0.9725877642631531,0.1759452223777771,-0.11876232177019119,-0.6428928375244141,0.2939795255661011,0.02184806764125824,0.2601850628852844,0.09074795246124268
446,2.382240041796123,-1.3324288250693705,-0.49060187003018774,0.16255471110343933,0.9717247486114502,0.1712508201599121,0.46043717861175537,-1.2895233631134033,-0.2746637463569641,-0.039523109793663025,0.5875861048698425,0.1059250682592392
447,2.1408669861377754,-1.3813444079303538,-0.6759151203425678,0.15854057669639587,0.9821075797080994,0.10163533687591553,0.7517910003662109,0.09430467337369919,0.18842272460460663,0.20638862252235413,-0.051779210567474365,0.07809793949127197
448,1.890812363008589,-1.4070581617287916,-0.9316156472484184,0.15473143756389618,0.9866248369216919,0.05127911642193794,0.060805220156908035,-0.4645541310310364,0.05403127521276474,0.12908202409744263,-0.31931227445602417,-0.04070485010743141
449,1.9379592632951013,-1.416317385952294,-0.805052667863138,0.1436106264591217,0.9880918264389038,0.05523306131362915,-0.3106718063354492,-1.1113165616989136,-0.3547588884830475,-0.1090494692325592,-0.4658139944076538,0.007327914237976074
450,2.0900108138617397,-1.3965409326989915,-0.654200118376747,0.15052542090415955,0.9848558902740479,0.08602818101644516,-0.1144733875989914,1.9489009380340576,0.8835265636444092,-0.02068839967250824,-0.10228759050369263,-0.00970364362001419
451,2.0579193048210427,-1.4136615198980345,-0.8275809572247015,0.1382863074541092,0.9876797199249268,0.07325001806020737,0.3098095953464508,0.3259637951850891,-0.3292492628097534,-0.1501576453447342,0.34990566968917847,-0.41608452796936035
452,1.8309894468494532,-1.437721295574081,-1.0003311096410543,0.1282169222831726,0.9911586046218872,0.03413497656583786,0.05618392303586006,1.0498876571655273,0.021578628569841385,0.3656490445137024,-0.10924637317657471,0.760435938835144
453,2.0755087434953188,-1.4060211343260691,-0.9061189062476688,0.14357861876487732,0.9864552617073059,0.07931816577911377,-0.4263039529323578,1.0170493125915527,0.2841438949108124,-0.16935071349143982,-0.11490374803543091,0.15133368968963623
454,2.269624122787672,-1.3600382301175595,-0.7695518704566187,0.16016413271427155,0.9778726100921631,0.13458377122879028,-0.6865078210830688,-0.14804179966449738,-0.16284102201461792,-0.06354549527168274,-0.3736550807952881,-0.29107797145843506
455,2.418010059840749,-1.3048187896349788,-0.5696252925491486,0.17402780055999756,0.9648360013961792,0.19699184596538544,0.22519683837890625,-0.9503231644630432,0.17590942978858948,0.07104361057281494,-0.1826857328414917,-0.2329111099243164
456,2.2376448134397373,-1.2869639520963714,-0.6774963710203921,0.22004520893096924,0.9599893093109131,0.17320579290390015,-0.3852868378162384,-0.5603662729263306,0.22355487942695618,-0.18131844699382782,0.5259419083595276,-0.09132722020149231
457,2.0141315292281563,-1.3044590183430333,-0.7474712370402116,0.23775465786457062,0.9647414088249207,0.1129004955291748,0.5268508791923523,-1.6187149286270142,-0.24042333662509918,0.09918990731239319,0.4852554202079773,0.3579552173614502
458,1.7567571569350071,-1.3324719164128074,-0.8591588869239524,0.23200497031211853,0.971734881401062,0.043648138642311096,-0.035627610981464386,-1.484910249710083,-0.2694728374481201,0.35689276456832886,-0.15029311180114746,0.0988231897354126
459,1.7056890825043067,-1.323987810155375,-0.7495203762150684,0.2420911341905594,0.9696970582008362,0.032855864614248276,0.06415696442127228,-1.6188647747039795,0.155813068151474,0.02205374836921692,-0.3277445435523987,-0.035434603691101074
460,1.4235761776469065,-1.3440221941753643,-0.8702589350602181,0.2224033772945404,0.9743967652320862,-0.03298087790608406,0.1365344524383545,-1.4201706647872925,-0.25478395819664,-0.1850803941488266,-0.4257670044898987,0.08190059661865234
461,1.5270201888684392,-1.3151812026043856,-0.694304539624339,0.2525979280471802,0.9675079584121704,-0.011064831167459488,-0.5043148994445801,0.0467112734913826,0.36727839708328247,-0.16475310921669006,0.33760666847229004,0.09038001298904419
462,1.5508800357024086,-1.324933910599164,-0.6995307915689918,0.2433442324399948,0.9699277877807617,-0.0048471554182469845,-0.24232777953147888,-0.789381206035614,0.4592212438583374,0.056002676486968994,0.41114509105682373,-0.046361327171325684
463,1.6414748937168375,-1.3092816740023367,-0.5784952239721503,0.257898211479187,0.9659994840621948,0.018258290365338326,-0.11297909915447235,0.8298488855361938,0.17368608713150024,0.2285367250442505,0.09048843383789062,0.4081944227218628
464,1.7984104409581383,-1.2804897381901756,-0.4538177238060767,0.2788631021976471,0.958156168460846,0.06459252536296844,-0.6445911526679993,0.07251614332199097,0.18526288866996765,-0.024071872234344482,-0.24459415674209595,-0.09892488270998001
465,1.919548838262722,-1.2570289918085902,-0.33133175135312076,0.29006427526474,0.9511775374412537,0.10547184944152832,0.0242015291005373,-0.6117593050003052,0.00900642853230238,-0.1652168333530426,-0.2925317883491516,-0.19284366071224213
466,1.8774593863854765,-1.2366284861428034,-0.35498112628285705,0.31268155574798584,0.9446835517883301,0.09901126474142075,-0.18835006654262543,0.8370899558067322,0.23186540603637695,-0.24247586727142334,0.3727145195007324,0.31061089038848877
467,1.8139423043581637,-1.2559965747404078,-0.4089569717094052,0.30051854252815247,0.9508584141731262,0.07454472035169601,0.5127518773078918,-0.44923514127731323,-0.3633424639701843,0.025302380323410034,0.4677969813346863,0.3010045289993286
468,1.7770900389345128,-1.2954731133243016,-0.46129741428052007,0.26609426736831665,0.9623373746871948,0.05568576976656914,-0.4991019070148468,1.0485426187515259,-0.18052807450294495,0.6334419250488281,0.16308999061584473,-0.18108248710632324
469,1.8632525933749389,-1.3009473984110085,-0.4242172236227858,0.2552659511566162,0.9638111591339111,0.07685795426368713,-0.1853896528482437,-0.41753339767456055,-0.031835392117500305,-0.1265275478363037,-0.3956502676010132,-0.13328492641448975
470,1.7647578265821533,-1.311621104797258,-0.4436717282387535,0.2514783442020416,0.9666016697883606,0.04939814656972885,0.11572982370853424,-0.28338170051574707,0.11672157794237137,-0.010969281196594238,-0.45527952909469604,-0.0017448589205741882
471,1.721972740732878,-1.2896310856515787,-0.5785171004060736,0.27431073784828186,0.9607327580451965,0.04178814962506294,0.737549364566803,1.197583794593811,-0.01596112549304962,-0.17222946882247925,0.40924710035324097,-0.07879066467285156
472,1.6500925937039255,-1.3421815495569953,-0.7543176268631596,0.22591668367385864,0.9739812612533569,0.01795199140906334,-0.3090198338031769,0.22191210091114044,-0.263788640499115,-0.015665829181671143,0.48433172702789307,0.23548126220703125
473,1.6903629207571131,-1.356514273775848,-0.8144608645157423,0.21112824976444244,0.977129340171814,0.025364873930811882,0.33101168274879456,2.9570817947387695,0.1771104484796524,0.24581146240234375,0.11361479759216309,0.43467235565185547
474,1.796099488798038,-1.3487043454545624,-0.8961357851595317,0.21470382809638977,0.9754387736320496,0.04920892044901848,-0.23422813415527344,0.9354342818260193,0.023006487637758255,0.00798293948173523,-0.35072869062423706,-0.037078142166137695
475,2.091300462656994,-1.3315439029516627,-0.6554386317320123,0.20559367537498474,0.971515417098999,0.11785275489091873,-0.6614221930503845,0.4137735068798065,-0.03311263024806976,0.015323102474212646,-0.439242959022522,-0.12090454995632172
476,2.178311421412776,-1.2851946229270317,-0.6209922384660762,0.2313237488269806,0.9594923257827759,0.16082240641117096,-0.08988934755325317,0.4508981704711914,0.33306488394737244,-0.022354647517204285,0.4705308675765991,-0.1334482580423355
477,2.0287522519178887,-1.3076610327794096,-0.7149811453958678,0.23330751061439514,0.9655792117118835,0.11499855667352676,0.9669857621192932,-0.9501335024833679,-0.2943582832813263,0.06567320227622986,0.619046151638031,0.35054707527160645
478,1.7005382505216355,-1.3532359598916597,-1.0678911548312797,0.214034304022789,0.9764269590377808,0.027926091104745865,0.9878279566764832,1.017034649848938,-0.05768606439232826,0.2853095531463623,-0.03366267681121826,0.12199151515960693
479,1.5667991230755416,-1.3435753863818034,-1.303970015911567,0.22526884078979492,0.9742962121963501,-0.0009004502790048718,0.11209950596094131,0.7725434303283691,0.16993899643421173,-0.07443572580814362,-0.2672497034072876,0.037582576274871826
480,1.6250176108133032,-1.367291160420174,-1.2423814350979456,0.2018066942691803,0.9793642163276672,0.010952954180538654,-0.31948161125183105,-0.38162243366241455,-0.2927496135234833,-0.2031952440738678,-0.34765028953552246,0.04306316375732422
481,1.7326670710223337,-1.345982031348075,-1.1959092587555729,0.2200111299753189,0.9748355150222778,0.03592770919203758,0.5396533608436584,1.284445881843567,0.059280313551425934,-0.02036513388156891,0.2491329312324524,-0.2387169599533081
482,1.7012657487110387,-1.3909205417390207,-1.3037777113715279,0.17738720774650574,0.9838659167289734,0.02327582612633705,-0.22192731499671936,0.8398466110229492,-0.4888642430305481,-0.05443188548088074,0.3817194104194641,-0.04666757583618164
483,1.7501950383587517,-1.3989103549614836,-1.275492288109947,0.1682957410812378,0.9852639436721802,0.030520163476467133,0.33458462357521057,1.9195636510849,0.1315220147371292,0.2393733114004135,-0.019367337226867676,0.4419529438018799
484,1.786635575045315,-1.398109681691372,-1.34068141479822,0.16784340143203735,0.9851266741752625,0.03680044785141945,-0.09260392189025879,-0.04896550625562668,0.16288337111473083,-0.08401159942150116,-0.1346474289894104,0.019824866205453873
485,1.980288829283009,-1.3736078635095357,-1.0998115144077765,0.1797163337469101,0.9806212782859802,0.07800191640853882,-0.9298380613327026,-0.34650278091430664,0.010969355702400208,-0.0167829692363739,-0.4181211590766907,-0.09303175657987595
486,2.179670339890813,-1.3231839291412941,-0.8695829346594207,0.20104506611824036,0.9695003628730774,0.14017748832702637,-0.3742922842502594,0.015255918726325035,0.43088412284851074,-0.017497122287750244,-0.07080358266830444,-0.14895130693912506
487,2.175615805953088,-1.2830817156893828,-0.8532511387804881,0.23342359066009521,0.9588949084281921,0.16135066747665405,0.06371983885765076,-0.900780975818634,-0.06436226516962051,-0.2107643038034439,0.5094125866889954,-0.33688783645629883
488,1.874052687021921,-1.3380653342601299,-1.0965788038919937,0.22011202573776245,0.9730401635169983,0.0688747763633728,1.0863298177719116,0.24298599362373352,-0.18410460650920868,0.13236600160598755,0.03158324956893921,0.275455117225647
489,1.6672192771113172,-1.3878076797894436,-1.2999575179098013,0.18112386763095856,0.9833042621612549,0.017518823966383934,-0.3513938784599304,-0.6888817548751831,-0.13080048561096191,0.16700540482997894,-0.2972080707550049,0.05279374122619629
490,1.8409973618396724,-1.400481161741161,-1.048364490010319,0.16334401071071625,0.9855313897132874,0.04524213820695877,-0.19593901932239532,-1.1270822286605835,-0.34390968084335327,-0.11125047504901886,-0.4597133994102478,-0.0201413594186306
491,1.9319347414218697,-1.385686096356344,-0.9686635082772356,0.1721828579902649,0.982915997505188,0.06503400206565857,-0.13722294569015503,1.852675199508667,0.510133683681488,-0.012652218341827393,-0.2491512894630432,-0.03231918811798096
492,1.9086774843084735,-1.404001250526174,-1.1485467659363875,0.15663555264472961,0.9861218929290771,0.055034637451171875,0.3016238808631897,0.5709170699119568,-0.6582820415496826,-0.2527811825275421,0.3716813921928406,-0.5343589782714844
493,1.5526119011603141,-1.4523263948291674,-1.4947526447498847,0.1181749701499939,0.9929906129837036,-0.0021491809748113155,0.4305294454097748,-0.7739390134811401,-0.03885430097579956,0.2795758843421936,0.09801292419433594,0.34158092737197876
494,1.87019868316287,-1.4404460579916705,-1.2414603744111106,0.12419743835926056,0.9915164113044739,0.03833745792508125,-0.3110230267047882,0.9528252482414246,0.13305123150348663,-0.08492134511470795,0.02874702215194702,0.40448784828186035
495,2.1178045334938975,-1.3990467588799036,-1.0621114500472508,0.14596788585186005,0.9852872490882874,0.08889391273260117,-0.45744526386260986,0.21115922927856445,0.2616703510284424,-0.06059497594833374,-0.3442503809928894,-0.10210800915956497
