,attitude.roll,attitude.pitch,attitude.yaw,gravity.x,gravity.y,gravity.z,rotationRate.x,rotationRate.y,rotationRate.z,userAcceleration.x,userAcceleration.y,userAcceleration.z
0,2.1461644307689296,-1.3237534001173537,-1.0394401529019806,0.2051653116941452,0.969639778137207,0.13306371867656708,0.7872095108032227,-0.3023025095462799,-0.15337421000003815,-0.02233448624610901,0.5093488693237305,0.43665361404418945
1,0.2859050126584796,0.2455447957621834,-3.0828746593612073,0.27356648445129395,-0.24308481812477112,-0.9306294322013855,-1.0843305587768555,0.521594226360321,-0.336524099111557,-0.08368611335754395,0.05746164917945862,-0.001087486743927002
2,0.2915446272771853,0.1655015675292658,-3.083695047134431,0.2835044860839844,-0.16474705934524536,-0.9447135329246521,0.0427539236843586,0.5368468761444092,-0.557108461856842,-0.15714648365974426,-0.09796348214149475,0.0546836256980896
3,0.31148082411322253,0.18055715940786524,-3.099103526846804,0.3014865219593048,-0.17957770824432373,-0.9364067912101746,-0.07122525572776794,0.3259633481502533,0.023418765515089035,-0.05693390965461731,-0.009066715836524963,0.08550041913986206
4,0.3206040641247603,0.2030574610094166,3.139658752191881,0.3086652159690857,-0.20166490972042084,-0.9295467138290405,0.090995192527771,0.3158228397369385,-0.7145093679428101,0.2464953064918518,-0.11045362055301666,-0.21797525882720947
5,0.19052958671770687,0.1517085554739235,3.112312292323178,0.1872037798166275,-0.15112727880477905,-0.9706262350082397,-2.0171890258789062,-3.4170069694519043,-0.8748659491539001,0.5489412546157837,0.21872371435165405,-0.09422361850738525
6,0.055828837878244865,0.016878972507003376,2.9878644822685874,0.05579189211130142,-0.016878170892596245,-0.998299777507782,0.11969130486249924,0.8383822441101074,-1.1516369581222534,0.13369175791740417,0.1975727528333664,0.442208468914032
7,0.5436592805186783,0.0975719473489148,2.666344501765799,0.5148108005523682,-0.0974172055721283,-0.8517509698867798,1.7327547073364258,6.209914684295654,-4.894059658050537,-0.17283082008361816,0.4536794126033783,0.5437828302383423
8,0.9692338599497006,-0.4173454803874185,2.227322120369986,0.7536880373954773,0.4053352177143097,-0.5173563957214355,1.6952329874038696,5.188902378082275,-8.029616355895996,0.30386805534362793,0.3733207583427429,-0.4639973044395447
9,0.7541227448879106,-0.7771091162746544,1.6288528065612364,0.4881165325641632,0.7012212872505188,-0.5196449756622314,0.5315080285072327,-1.2899750471115112,-1.0825614929199219,1.4426696300506592,-0.7052344083786011,0.10893940925598145
10,0.7531675011985708,-0.6157353653607013,1.8517051660378345,0.5583442449569702,0.5775589942932129,-0.5955478549003601,-0.908683717250824,1.008223533630371,6.361032962799072,0.3325706124305725,-0.3706955909729004,0.4060184359550476
11,1.1700486903848168,-0.07997622070817816,2.156162038093916,0.9178264141082764,0.07989098876714706,-0.38885989785194397,1.8277889490127563,5.996669769287109,4.98183012008667,-0.41559869050979614,0.5685312151908875,0.16814157366752625
12,1.4007239089863834,0.47192391265426703,2.199469944260995,0.8778449892997742,-0.4546007513999939,-0.15075352787971497,-0.06972316652536392,3.162886142730713,6.60575532913208,-0.19653993844985962,1.0338090658187866,0.8908658027648926
13,1.6010111477882782,0.925855237313323,2.2257836422946675,0.6008768081665039,-0.7991352081298828,0.01816091127693653,-1.4450215101242065,1.1554803848266602,4.7329792976379395,-0.40306198596954346,-0.05705064535140991,-0.027865532785654068
14,1.3811718631615404,1.329427742111423,2.543720042984502,0.23474696278572083,-0.971011757850647,-0.0450550876557827,-1.1721546649932861,-0.6336943507194519,3.807203769683838,0.014718979597091675,-0.21734267473220825,-0.279346764087677
15,-2.3001264361552685,1.5405616690077855,-0.019446788417222964,-0.022540640085935593,-0.9995429515838623,0.020144838839769363,2.5181803703308105,0.8026324510574341,0.28888776898384094,0.3643680512905121,-0.1090538501739502,0.29945051670074463
16,3.0753640029986617,1.4548055066521501,0.8863165703846674,0.007659107446670532,-0.9932805895805359,0.1154773011803627,0.1489362269639969,-1.420047402381897,-0.09830787777900696,0.09182819724082947,0.17661499977111816,-0.489363431930542
17,2.4141950447518967,1.5589393938139189,1.3966989555994103,0.007889850065112114,-0.9999297261238098,0.008862591348588467,-1.3016762733459473,-1.3807532787322998,1.0125256776809692,0.47993364930152893,-0.21817946434020996,-0.40389740467071533
18,-1.585683450805928,1.4490735305645108,-0.9122613973032317,-0.12140912562608719,-0.9926009178161621,0.0018075662665069103,-0.9029605388641357,0.16360345482826233,0.7468092441558838,-0.22336320579051971,0.3647933006286621,0.5705496072769165
19,-1.2724124660593028,1.462435164341279,-1.1333530505675988,-0.1033703163266182,-0.9941346645355225,-0.03179323300719261,0.8773701786994934,0.9229685664176941,-0.9062975645065308,0.030967354774475098,0.5236451625823975,-0.09564816951751709
20,-2.0668652972050743,1.5646816474669873,-0.3449367407725783,-0.00538489269092679,-0.9999812841415405,0.002914353273808956,-0.6013084650039673,-0.27112051844596863,-0.2333168089389801,-0.124482661485672,-0.6335941553115845,0.15304577350616455
21,-1.6528304095317083,1.5035842505310075,-0.7151460203066848,-0.06693477928638458,-0.9977421164512634,0.005503283813595772,0.9224826693534851,-0.24365320801734924,0.6509929895401001,0.2936956584453583,-0.4071497917175293,-0.9615885019302368
22,-1.3968238229642556,1.4868403419090002,-1.0056718064717631,-0.0825914740562439,-0.9964777827262878,-0.014515385031700134,-0.8484877943992615,-0.8646426200866699,0.1355985552072525,0.2064165472984314,-0.04311877489089966,-0.29758787155151367
23,-0.827230560476302,1.4369628125640939,-1.5496180539245359,-0.09821490198373795,-0.9910576343536377,-0.09032329171895981,-1.8198925256729126,-1.1469992399215698,-0.22895246744155884,-0.019979670643806458,0.465667188167572,0.03305704891681671
24,-0.5364225728082523,1.3316340145953836,-1.8568894818374666,-0.12106556445360184,-0.9715367555618286,-0.20361624658107758,-0.7795578837394714,1.144945740699768,-0.04858195781707764,-0.07885509729385376,0.2690373659133911,-0.09594428539276123
25,-0.6945703106251071,1.3360085598014613,-1.6639738115630618,-0.14890015125274658,-0.9725637435913086,-0.1787412166595459,1.0902611017227173,1.6670736074447632,1.1030892133712769,-0.5064800977706909,-0.29635709524154663,0.2174375206232071
26,-1.0686682557738538,1.3928300999857195,-1.224668247680735,-0.1551763415336609,-0.9842057824134827,-0.08520250022411346,1.1228501796722412,-0.23946082592010498,-0.48249295353889465,0.06727045774459839,-0.13603347539901733,-0.37437695264816284
27,-1.4957484110483188,1.4521999911608166,-0.8827870952072545,-0.11798550188541412,-0.9929757118225098,-0.008871227502822876,0.22863739728927612,0.4151470959186554,-0.10248984396457672,0.24846342206001282,-0.07394933700561523,0.08295261859893799
28,-1.349277320014766,1.436422797460618,-1.0114395415419213,-0.1306963562965393,-0.9909854531288147,-0.029434770345687866,-0.42501771450042725,0.011473179794847965,0.4382307529449463,0.029515311121940613,0.4517092704772949,-0.060195330530405045
29,-1.2115839031940607,1.3960900806647802,-1.2081500085497137,-0.16272461414337158,-0.9847776293754578,-0.061103738844394684,-0.592985987663269,-1.925647258758545,-0.14964303374290466,0.12057983875274658,0.26276224851608276,1.0832138061523438
30,-1.125961752336429,1.3822989377041806,-1.3662458803765003,-0.16914735734462738,-0.9822869300842285,-0.08063256740570068,-0.3275142312049866,-0.2476702183485031,0.8074353933334351,-0.2618676424026489,-0.23681402206420898,0.016240477561950684
31,-1.2597525849628275,1.3473918360286947,-1.2889829572092408,-0.21092011034488678,-0.9751488566398621,-0.06780632585287094,-0.08902384340763092,-0.9868693351745605,-0.26876312494277954,0.09943938255310059,-0.15094983577728271,-0.28580087423324585
32,-1.1186097599795057,1.3551379506364924,-1.4996816884883946,-0.1924833208322525,-0.9768357276916504,-0.09349968284368515,-0.9602402448654175,0.13478651642799377,-0.37202757596969604,0.061746031045913696,-0.07751607894897461,-0.04076235741376877
33,-0.8009746456102596,1.331719668538956,-1.8631268510948724,-0.17003481090068817,-0.9715570211410522,-0.16481855511665344,0.48350009322166443,-0.8887926340103149,0.05493880808353424,-0.014413416385650635,0.485351026058197,0.034584760665893555
34,-1.0299737453665938,1.3445052909352448,-1.5309209615753665,-0.19234444200992584,-0.9745052456855774,-0.11551213264465332,1.2492930889129639,2.8938968181610107,-0.35283881425857544,0.09336069226264954,0.21274077892303467,-0.10097955912351608
35,-1.2676074267822468,1.3779838547321728,-1.1351386134179677,-0.1828804463148117,-0.9814692139625549,-0.05721117556095123,-0.49928587675094604,-0.38459324836730957,-0.3437562882900238,-0.025798752903938293,-0.47280019521713257,-0.10029006004333496
36,-1.1490823309757525,1.3748490837921108,-1.2236789970414736,-0.17763786017894745,-0.9808636903762817,-0.07969366014003754,0.7335711717605591,-0.15341171622276306,0.389072984457016,0.09652213752269745,-0.2402055263519287,0.008114643394947052
37,-1.666401243411301,1.3450046303186016,-0.6814471680789603,-0.22285588085651398,-0.9746171832084656,0.021371271461248398,0.8788210153579712,0.6228834986686707,0.2943277060985565,0.09399540722370148,0.5232469439506531,-0.04912698268890381
38,-1.7826449563210194,1.3391263487460436,-0.5383189758054637,-0.22447071969509125,-0.9732843041419983,0.04827822372317314,-0.571239709854126,-0.503953754901886,-0.320436954498291,0.08547839522361755,0.41563647985458374,-0.14639222621917725
39,-1.5966321926555715,1.3400946422203095,-0.846616476203496,-0.22858382761478424,-0.9735062122344971,0.005906975362449884,-0.34940674901008606,-1.1519676446914673,0.3302454948425293,-0.08797496557235718,-0.15039503574371338,0.004102825187146664
40,-1.4753033665249933,1.2981552028864922,-0.9637633041092186,-0.26804909110069275,-0.9630630612373352,-0.025674890726804733,-0.3529546856880188,-0.6471583843231201,-0.4044036567211151,0.19987282156944275,0.06670081615447998,-0.36478227376937866
41,-1.4877479705580405,1.2920781611239092,-1.0044998471226014,-0.27417516708374023,-0.9614089131355286,-0.022822290658950806,-0.43106842041015625,-0.034752897918224335,-0.2952348589897156,0.08049538731575012,-0.0022141337394714355,0.005412044003605843
42,-1.2474393953487672,1.2939521543974861,-1.242945527817678,-0.259155809879303,-0.9619227647781372,-0.08684807270765305,-0.18708202242851257,0.5601738691329956,0.11239272356033325,0.10136470198631287,0.30085110664367676,0.04139215499162674
43,-1.1378408329340512,1.292351538211878,-1.3008971039122454,-0.24949924647808075,-0.9614840745925903,-0.11531930416822433,0.020330388098955154,0.423068106174469,-0.32513633370399475,-0.19187648594379425,0.24587738513946533,-0.008215844631195068
44,-1.1125105224782212,1.3077299632166375,-1.2777570937502813,-0.23320943117141724,-0.9655971527099609,-0.11504584550857544,0.21133653819561005,0.46093976497650146,0.18072664737701416,-0.34776896238327026,0.022695541381835938,0.05192023515701294
45,-1.2200437894331164,1.2958766470728,-1.169342990956779,-0.2549407184123993,-0.9624469876289368,-0.09327809512615204,0.14566251635551453,-0.2507462203502655,0.16484025120735168,-0.1552155315876007,-0.3108835816383362,-0.15127456188201904
46,-1.2397657908715356,1.327584774706354,-1.2112502925993582,-0.22774623334407806,-0.9705695509910583,-0.07827107608318329,-0.0829748883843422,-0.626883864402771,-0.4005679190158844,0.36167263984680176,-0.3133049011230469,0.24593466520309448
47,-1.251200384480043,1.342163347671726,-1.2993953002403047,-0.21516990661621094,-0.9739771485328674,-0.07120855152606964,-0.02051212266087532,-0.9722416996955872,0.016509894281625748,0.030904769897460938,0.32328128814697266,-0.06856191158294678
48,-1.2856340163281081,1.3530441039454777,-1.3309733565358495,-0.20731134712696075,-0.9763855338096619,-0.06077370420098305,-0.3816576302051544,-0.5287318229675293,-0.17184503376483917,0.16081781685352325,0.30396121740341187,0.10346776247024536
49,-1.0837709225023473,1.3426201918028742,-1.5847139634670406,-0.19990025460720062,-0.9740805625915527,-0.1058618351817131,-0.4669790267944336,-0.16814647614955902,0.3533220589160919,-0.027882948517799377,-0.058863043785095215,0.1711084246635437
50,-1.1713585512254197,1.2909398535025645,-1.55400194890782,-0.2544737756252289,-0.9610950946807861,-0.10742118209600449,0.09317177534103394,-0.8300652503967285,-0.0388452485203743,0.014987081289291382,-0.38146471977233887,-0.12149113416671753
51,-1.120831356635477,1.2741310381407807,-1.7109759373363211,-0.26323461532592773,-0.9563166499137878,-0.1271454393863678,-0.470881849527359,-0.45526376366615295,0.06390480697154999,-0.040766239166259766,-0.014676392078399658,-0.2760985493659973
52,-1.0347525195787195,1.2606236533553956,-1.8310403058004154,-0.2624110281467438,-0.9522808790206909,-0.1558891087770462,-0.3614856004714966,-0.028433453291654587,0.05517878383398056,0.029394090175628662,0.2448224425315857,0.0770011693239212
53,-0.98160838598504,1.2478669897985712,-1.864221612223687,-0.26383888721466064,-0.9483098983764648,-0.17634467780590057,-0.06624460220336914,-0.06542712450027466,-0.11197708547115326,-0.023743540048599243,0.20751094818115234,-0.04712027311325073
54,-0.920816176393587,1.250162031856376,-1.9686764689786147,-0.250904381275177,-0.9490357041358948,-0.1907307654619217,0.3693855404853821,-0.29227712750434875,-0.08486377447843552,-0.2180134356021881,0.03538525104522705,0.09473772346973419
55,-1.0798201772194347,1.315632022228958,-1.889488757789204,-0.2225886434316635,-0.9676218628883362,-0.11900538206100464,0.6795650720596313,-1.5957677364349365,-0.788644015789032,0.02382764220237732,-0.21807760000228882,-0.37891942262649536
56,-1.2583066887250405,1.3819339727187832,-1.9097898137749365,-0.1786494106054306,-0.9822184443473816,-0.05771712213754654,0.01641298457980156,-2.0755462646484375,-0.1807478368282318,-0.003326907753944397,-0.41023755073547363,-0.13251423835754395
57,-1.1808983310620906,1.331707952216528,-2.131478096398305,-0.21904303133487701,-0.9715542793273926,-0.09001259505748749,-0.635489821434021,-1.3206669092178345,0.2828092575073242,-0.1921202838420868,0.22730696201324463,-0.15556234121322632
58,-1.0972417837732333,1.3220742035100894,-2.3613559374826654,-0.21907585859298706,-0.9692277908325195,-0.1122644916176796,-0.571265459060669,-1.6245689392089844,-0.40881460905075073,-0.0052130818367004395,0.45334339141845703,0.06323796510696411
59,-0.9693839726902306,1.3118934899431525,-2.6841016541068847,-0.21109838783740997,-0.9666714668273926,-0.14485830068588257,-0.7751806378364563,-3.1342146396636963,-0.3667423725128174,-0.15553978085517883,0.012661457061767578,-0.44864755868911743
60,-0.847281771203781,1.2741908927624486,3.1028176899519915,-0.21905551850795746,-0.9563341736793518,-0.19349288940429688,-1.9657028913497925,-3.5959174633026123,-0.25079110264778137,-0.48117029666900635,-0.3924359083175659,-0.2523841857910156
61,-0.7428014740599561,1.2313500450191524,2.834468672860311,-0.22520235180854797,-0.9429391622543335,-0.24525438249111176,-0.13354459404945374,-0.17481231689453125,-0.4830278754234314,0.015973836183547974,0.391623854637146,0.12454211711883545
62,-0.549511816085253,1.2767644004885554,2.6368181851040853,-0.1513613760471344,-0.9570831656455994,-0.2471473515033722,-0.5061439871788025,-1.0586589574813843,-0.7607670426368713,0.0964907705783844,0.05246579647064209,-0.17106550931930542
63,-0.42021793626363685,1.2459794784292426,2.3366652985457477,-0.130194291472435,-0.9477092027664185,-0.2913706302642822,0.35465094447135925,-0.2652987241744995,-0.3887273967266083,-0.4888700544834137,-0.17829787731170654,0.4138529300689697
64,-0.4206340810314007,1.355332131042645,2.3066418498752284,-0.08730323612689972,-0.9768772721290588,-0.19516374170780182,1.054506540298462,0.10965250432491302,-0.6126076579093933,-0.00414266437292099,-0.4054774045944214,-0.3328819274902344
65,-0.2538774908243877,1.4593224299023928,2.1664990543419185,-0.027939556166529655,-0.9937931895256042,-0.10767669975757599,-0.018612105399370193,-0.14791491627693176,-0.4110887348651886,0.3489539623260498,0.0372198224067688,0.182749941945076
66,-0.24429059976771916,1.4416650196395693,2.1345122005203474,-0.03114612028002739,-0.9916741251945496,-0.12494980543851852,0.1520770639181137,-0.7014505863189697,0.5743530988693237,-0.025051984935998917,0.6054741144180298,0.04113326966762543
67,-0.5296683822933745,1.4383354025612658,2.3197952174942325,-0.06672997772693634,-0.9912398457527161,-0.11397644132375717,-0.1629563570022583,-1.3721054792404175,-0.3094833791255951,-0.16773656010627747,0.06374967098236084,0.10825437307357788
68,-0.9929807428579371,1.3663070025906647,2.7163050228535073,-0.17010089755058289,-0.9791648387908936,-0.1109144315123558,0.04805167764425278,0.4696992337703705,0.693990170955658,-0.3544047176837921,-0.6397316455841064,-0.12484908103942871
69,-0.9962254652233791,1.3504516536670976,2.7056720306388997,-0.18347036838531494,-0.9758221507072449,-0.11878537386655807,-0.3833150863647461,-0.8493296504020691,-0.17246228456497192,-0.03927744925022125,-0.005546927452087402,-0.33124208450317383
70,-0.8000309858941215,1.3263659445329723,2.3992350278995542,-0.17360803484916687,-0.970275342464447,-0.1686002016067505,-0.32544878125190735,-0.3578346073627472,-0.08502697199583054,0.08199429512023926,0.5465540289878845,0.192052960395813
71,-0.7122531217011854,1.3293676091608915,2.395496747736364,-0.15625497698783875,-0.9709973931312561,-0.18096502125263214,-0.14013057947158813,0.4908948540687561,-0.8241557478904724,0.16534920036792755,0.16582167148590088,0.20927013456821442
72,-0.6367401140865464,1.344007778735665,2.3317260485358347,-0.1336904913187027,-0.9743934869766235,-0.18078763782978058,0.10561896860599518,0.3847111165523529,0.6467493176460266,-0.4526132047176361,-0.34277570247650146,0.17799526453018188
73,-0.8172915211042981,1.378752358510209,2.5671462538650704,-0.13919739425182343,-0.9816161394119263,-0.1305900514125824,0.8701140880584717,0.0821785256266594,-1.0854709148406982,0.06603153049945831,-0.042431652545928955,-0.15618358552455902
74,-0.845189142006247,1.4370752217933804,2.582642947598424,-0.09973876178264618,-0.9910726547241211,-0.08847203105688095,0.3130195140838623,0.3960948884487152,0.08490318059921265,0.41593137383461,0.1726827621459961,0.09333956241607666
75,-1.0515343354173694,1.4457876813333181,2.802413443876975,-0.10824789851903915,-0.9921965599060059,-0.061872582882642746,0.3433198928833008,0.2243652492761612,0.5103147625923157,0.06643880158662796,0.5642181038856506,0.05756962671875954
76,-1.1438786039812927,1.4015517695858153,2.9002070737992645,-0.1533200740814209,-0.9857122898101807,-0.06974463909864426,-0.7659680843353271,-0.7735314965248108,-0.15325824916362762,-0.09521511197090149,0.25118470191955566,0.07354408502578735
77,-0.9357175938461711,1.3582373727038457,2.6347248772565814,-0.16982965171337128,-0.9774942994117737,-0.12515126168727875,-0.18521513044834137,0.23314175009727478,0.8103777170181274,-0.21859805285930634,-0.3482655882835388,0.42169058322906494
78,-1.2430885472615703,1.3278890796159701,2.944562502922772,-0.2277258187532425,-0.9706428050994873,-0.0774189755320549,0.7284767031669617,0.1691010296344757,-0.21872158348560333,0.1209295392036438,-0.3246300220489502,-0.1156046986579895
79,-1.1879819335768054,1.3180439438304696,2.8232235288808734,-0.2319694459438324,-0.9682278037071228,-0.09340940415859222,-0.5253773927688599,-0.45314696431159973,0.060956306755542755,-0.08672565221786499,0.10133010149002075,-0.3474169969558716
80,-1.0216175069562852,1.3046400128694013,2.652517033730255,-0.22434855997562408,-0.9647890329360962,-0.1372959166765213,-0.42492860555648804,0.8619312047958374,-0.16798615455627441,0.02737283706665039,0.49571847915649414,0.1669131964445114
81,-0.7364831611567253,1.279827707757922,2.475404277325101,-0.19269360601902008,-0.9579664468765259,-0.21253100037574768,-0.414320170879364,0.42766544222831726,-0.4223965108394623,0.10434521734714508,0.25693196058273315,0.1715458780527115
82,-0.6876730123516072,1.3243811138969939,2.4449896624937635,-0.15483185648918152,-0.9697930812835693,-0.18849028646945953,-0.18192003667354584,0.6306807994842529,0.15355585515499115,-0.4540853500366211,-0.45893311500549316,0.33479154109954834
83,-0.9323505213487373,1.3602193430508507,2.7644356786831525,-0.16785097122192383,-0.9779104590415955,-0.12456738948822021,0.6948989033699036,0.10666565597057343,0.016293955966830254,-0.1433214694261551,-0.17768335342407227,-0.3134666681289673
84,-1.3123310732530624,1.437472092116539,3.107375977043218,-0.1285148561000824,-0.9911254644393921,-0.033976610749959946,0.6658021211624146,-0.12659214437007904,-0.18678122758865356,0.3689323365688324,-0.09731447696685791,0.09621727466583252
85,-1.3474191341827135,1.4271573004251985,-3.1303965309589024,-0.13958945870399475,-0.9897016286849976,-0.03171028196811676,0.011502948589622974,0.16613492369651794,0.44248005747795105,0.09469807147979736,0.5220960378646851,-0.037488341331481934
86,-1.3565204481134594,1.3612357655459255,-3.0744410769468122,-0.2032730132341385,-0.9781224131584167,-0.04423559829592705,-0.5231432914733887,-0.017206493765115738,0.06069072335958481,-0.06287077069282532,0.43736618757247925,-0.010833382606506348
87,-1.1329520746219501,1.3419489693901665,2.901719217599533,-0.20545491576194763,-0.9739285111427307,-0.096183642745018,-0.07597481459379196,0.5410211682319641,0.6731388568878174,-0.33945170044898987,-0.38138753175735474,0.4691389799118042
88,-1.2075151286155348,1.2944712303279513,3.000644474058705,-0.25501641631126404,-0.9620645046234131,-0.0969453975558281,0.24708355963230133,0.09185224026441574,-0.017164284363389015,0.10537350177764893,-0.5562612414360046,-0.3248380422592163
89,-1.196963677962737,1.3079770107745896,2.8495181653836275,-0.24186082184314728,-0.965661346912384,-0.09487691521644592,-0.8351656198501587,-1.6012929677963257,-0.3594149947166443,-0.050695955753326416,-0.014746367931365967,-0.20144879817962646
90,-0.9940127354005831,1.3101398358203293,2.5945614351874933,-0.21602179110050201,-0.9662209749221802,-0.14053969085216522,-0.22372440993785858,0.6571896076202393,-0.19550617039203644,0.0830109715461731,0.5082437992095947,0.1834321767091751
91,-0.7250915977729243,1.2924466231018776,2.4045046958413208,-0.1822279840707779,-0.961510181427002,-0.20564784109592438,0.13311360776424408,0.6837435960769653,-0.15320925414562225,0.11103050410747528,0.28073936700820923,0.029942885041236877
92,-0.694345474973951,1.3245778359436766,2.4270007573515744,-0.15596403181552887,-0.9698410630226135,-0.18730638921260834,0.34379780292510986,0.41488218307495117,0.45375242829322815,-0.3438376188278198,-0.48006439208984375,0.11851976811885834
93,-0.8999805775640124,1.3424645916372486,2.7094934433786273,-0.17730548977851868,-0.9740453958511353,-0.14070658385753632,0.7413280606269836,0.6067065000534058,-0.13018016517162323,-0.12587137520313263,-0.37478578090667725,-0.32531213760375977
94,-0.9537297930304636,1.424480757966614,2.7579682747361565,-0.11890700459480286,-0.9893149733543396,-0.08436329662799835,-0.016677118837833405,-0.22172494232654572,-0.17657530307769775,0.48929882049560547,-0.1900520920753479,0.13560235500335693
95,-0.8845423282663408,1.4370854412683003,2.678289448015194,-0.10313381999731064,-0.9910740256309509,-0.08447255939245224,0.08569483458995819,-0.255965918302536,0.1372322142124176,0.07167018949985504,0.4897923469543457,-0.00039684027433395386
96,-1.1667576394035692,1.3837411402343187,2.9431896529628294,-0.17099259793758392,-0.9825561046600342,-0.073109932243824,-0.3223942518234253,-0.4784988760948181,0.26186683773994446,-0.08538556098937988,0.5717895030975342,0.1407521367073059
97,-0.9328912705254806,1.3628907091445588,2.6669926386688587,-0.16581951081752777,-0.9784653782844543,-0.12292078137397766,-0.11361771821975708,0.9608172178268433,0.24344268441200256,-0.18813860416412354,-0.36887049674987793,0.4770009517669678
98,-1.0555594271235778,1.31243209813062,2.8143021501809558,-0.22232957184314728,-0.9668092131614685,-0.12589509785175323,0.3536248505115509,-0.11152878403663635,0.1615460216999054,-0.05641798675060272,-0.5599547028541565,-0.2783712148666382
99,-1.1578321284138362,1.3162673680179267,2.801131152332321,-0.2306227833032608,-0.9677820205688477,-0.10104965418577194,-0.5216548442840576,-1.7490665912628174,0.22791197896003723,-0.0477127879858017,-0.28832143545150757,-0.21212172508239746
100,-1.0312350241305444,1.2897831366740362,2.6022865365180805,-0.23793014883995056,-0.9607749581336975,-0.1424805372953415,-0.2330050766468048,0.29346394538879395,-0.18786056339740753,0.06860341131687164,0.4075065851211548,0.1961914449930191
101,-0.7856964553260526,1.255699399838608,2.4866607652368367,-0.21920393407344818,-0.9507663249969482,-0.21907320618629456,-0.0007841009646654129,1.0452195405960083,0.22626817226409912,0.33530810475349426,0.5537326335906982,0.04397857189178467
102,-0.7417457939573605,1.2671187949977407,2.54891923193106,-0.20201842486858368,-0.9542432427406311,-0.22047290205955505,0.5900142788887024,0.821513831615448,0.09658804535865784,-0.20055417716503143,-0.23299729824066162,0.28146231174468994
103,-0.9643610969965819,1.2898606034554705,2.8774163989623425,-0.22781607508659363,-0.9607964158058167,-0.15801914036273956,0.8524575233459473,0.3409520387649536,0.2593905031681061,0.06134270131587982,-0.3878210783004761,-0.35948270559310913
104,-1.1453942326724422,1.325796597020037,3.07135004053287,-0.2209377884864807,-0.9701374173164368,-0.10009977966547012,0.23695048689842224,-0.05252048745751381,0.07548478990793228,0.3078518509864807,-0.22125357389450073,-0.02792143076658249
105,-1.331091669252152,1.3310316664688295,-2.977113787797836,-0.230684295296669,-0.971393883228302,-0.05638009309768677,0.6605069041252136,0.7443140149116516,0.46238425374031067,0.1356983184814453,0.5176891088485718,-0.021012485027313232
106,-1.3678222522848158,1.2973200754614416,-2.882010562237672,-0.2645357847213745,-0.9628378748893738,-0.05444363132119179,-0.7476832270622253,0.1844692975282669,-0.13481570780277252,0.004892230033874512,0.6632468104362488,0.0698091983795166
107,-1.0433200455855178,1.2483585762401257,3.0280160644535057,-0.2738094925880432,-0.9484657645225525,-0.1595027595758438,-0.19748619198799133,-0.07399355620145798,0.5238609910011292,-0.5882205367088318,-0.4565024971961975,0.3364894390106201
108,-1.2253230132140327,1.2420893463087683,-3.0843347511449055,-0.30374571681022644,-0.9464605450630188,-0.10932023823261261,0.5877201557159424,-0.4179317355155945,0.20219026505947113,-0.07354310154914856,-0.8362389802932739,-0.4456419348716736
109,-1.204959569377552,1.252155839356922,2.976330550886128,-0.292544424533844,-0.9496622085571289,-0.1120683029294014,-1.0985729694366455,-2.016918897628784,-0.23790301382541656,-0.17304697632789612,-0.2870015501976013,-0.3853377103805542
110,-1.041176732760177,1.2431592411507286,2.7393654527820486,-0.27771884202957153,-0.9468053579330444,-0.16257831454277039,-0.06752228736877441,1.3481438159942627,-0.0862065851688385,0.11385473608970642,0.5154241919517517,0.3966786861419678
111,-0.8443388450711677,1.228877555410741,2.7126262995795964,-0.25064411759376526,-0.9421130418777466,-0.22271184623241425,0.14540661871433258,1.500264048576355,0.023680178448557854,0.42052024602890015,0.5647631883621216,0.16765809059143066
112,-0.7959291917721918,1.2630912870683637,2.7395387184579927,-0.2164064198732376,-0.9530311822891235,-0.21189577877521515,0.4558309316635132,0.4542468190193176,-0.04190203174948692,-0.20557540655136108,-0.39262616634368896,0.10775458812713623
113,-1.0478330668297593,1.2858177688867638,3.112006735040949,-0.2435607761144638,-0.9596676826477051,-0.1404135823249817,1.0569478273391724,0.6328684091567993,0.37924081087112427,-0.210235595703125,-0.7375520467758179,-0.4658792018890381
114,-1.214367795098641,1.3373749709602745,-3.020908942892425,-0.21676909923553467,-0.9728807210922241,-0.08070982247591019,0.14480137825012207,-0.49986669421195984,-0.12362192571163177,0.34327977895736694,-0.41814088821411133,0.09752500802278519
115,-1.393203174578226,1.3478204265890543,-2.855423906589837,-0.21765489876270294,-0.9752436876296997,-0.039065584540367126,0.3669462502002716,-0.19800804555416107,0.11225345730781555,0.10043689608573914,0.4530574083328247,3.361701965332031e-05
116,-1.4057292215058594,1.3166559181488662,-2.837183828635543,-0.24799618124961853,-0.9678797721862793,-0.04131190478801727,-0.4527817964553833,0.2919331192970276,0.21292535960674286,0.04519161581993103,0.6435236930847168,0.04102200269699097
117,-1.0981215801780912,1.2966492101382032,3.123827467480771,-0.24104192852973938,-0.9626564383506775,-0.12325327098369598,-0.3816494941711426,-0.11161656677722931,0.26416122913360596,-0.28001517057418823,-0.191106379032135,0.2277301549911499
118,-1.2600253823193444,1.2711893977764834,-3.035130477958174,-0.2810065746307373,-0.955452561378479,-0.0902530625462532,0.7258113622665405,-0.41804471611976624,0.2752506732940674,-0.010359972715377808,-0.6016305088996887,-0.4482753872871399
119,-1.2948115660610093,1.2758199200456684,3.1315833571891782,-0.27971601486206055,-0.9568089842796326,-0.07921895384788513,-0.8974665403366089,-1.48203706741333,-0.23191846907138824,-0.09459733963012695,-0.4004451036453247,-0.421650767326355
120,-1.094458513471034,1.269995037704845,2.8568345710296295,-0.2633029818534851,-0.9550994038581848,-0.13585509359836578,-0.5748807191848755,0.38366079330444336,-0.10850763320922852,0.007275760173797607,0.1904052495956421,0.23296202719211578
121,-0.8804573781213059,1.2505906867872734,2.759292798047965,-0.2426908314228058,-0.949170708656311,-0.20043984055519104,-0.11212678998708725,1.1091493368148804,-0.06138933449983597,0.2912748157978058,0.5562111139297485,0.19570958614349365
122,-0.7620986876931524,1.2651564616999575,2.723180187557505,-0.20775610208511353,-0.9536545872688293,-0.21767009794712067,0.6866578459739685,0.7466647028923035,0.09057771414518356,-0.14136499166488647,0.06583726406097412,-0.029064536094665527
123,-0.9759093152200793,1.2871829398271324,3.054264031156007,-0.23175550997257233,-0.9600505828857422,-0.1568189412355423,0.9393948316574097,0.19990040361881256,0.4407067596912384,-0.05452987551689148,-0.4268970489501953,-0.5828660726547241
124,-1.218172882539639,1.33807065740298,-2.9510186808151797,-0.21644000709056854,-0.9730414152145386,-0.0796508640050888,-0.12477780878543854,0.3363535702228546,-0.11185017228126526,0.37793901562690735,-0.7708550691604614,0.13018798828125
125,-1.2133711613107212,1.3498118672330113,-2.9864774734911648,-0.20533816516399384,-0.9756821393966675,-0.07668682932853699,0.18700763583183289,-0.4808347523212433,0.027408389374613762,0.007218033075332642,0.16808009147644043,-0.023944862186908722
126,-1.26551015871126,1.329295501502166,-2.9502996160456822,-0.22810176014900208,-0.9709801077842712,-0.07188348472118378,-0.4911116361618042,0.27755221724510193,-0.060071978718042374,-0.034044235944747925,0.6728538870811462,0.24934321641921997
127,-1.0112688213324017,1.3245256551413045,3.0933556457989657,-0.20661219954490662,-0.9698283076286316,-0.12939946353435516,-0.9666767120361328,-0.8130186796188354,0.1468580961227417,-0.14992468059062958,0.29189568758010864,-0.12290464341640472
128,-1.1039416451735273,1.2793807044242413,3.079296784250799,-0.2565630376338959,-0.9578381180763245,-0.1293116956949234,0.07527408003807068,-1.197223424911499,0.17435112595558167,-0.18076908588409424,-0.6506060361862183,-0.1356571763753891
129,-1.2414619311097177,1.3095815621480393,3.050103264205462,-0.24437572062015533,-0.9660769701004028,-0.08352306485176086,-0.7694658637046814,-2.13232684135437,0.024630283936858177,0.15018320083618164,-0.5507078170776367,-0.636890172958374
130,-1.0880882250308517,1.302092681530742,2.7886650909133883,-0.2351483255624771,-0.9641158580780029,-0.12323131412267685,-0.3324706554412842,0.22958065569400787,-0.1552724689245224,0.010813623666763306,0.14055323600769043,0.06024301052093506
131,-0.8653586580864966,1.2827727546100294,2.6627305757762216,-0.216261088848114,-0.9588071703910828,-0.18417370319366455,-1.0442626476287842,1.6641045808792114,-0.05938376486301422,0.348127543926239,0.522146463394165,0.5599671602249146
132,-0.6151875224943613,1.2569904747111507,2.5505827413812234,-0.17814339697360992,-0.9511656761169434,-0.2520890235900879,-0.06749686598777771,0.9828565716743469,-0.2054942101240158,0.12667548656463623,0.31273794174194336,-0.01129293441772461
133,-0.723743506643701,1.2927169997627814,2.805026900985897,-0.18177813291549683,-0.9615844488143921,-0.205698162317276,0.8503632545471191,1.8280290365219116,0.30446678400039673,-0.4700773358345032,-0.2970976233482361,-0.0683649480342865
134,-0.9440223562152659,1.3523887451869767,3.1357216305020725,-0.17549052834510803,-0.9762437343597412,-0.12708765268325806,0.3753580152988434,0.21103796362876892,-0.5871808528900146,0.24697795510292053,-0.4666426181793213,0.011044561862945557
135,-0.9368868683256326,1.3673941381192458,3.1036282706926017,-0.16275669634342194,-0.9793850183486938,-0.11964564770460129,0.5046594738960266,-0.2967672646045685,-0.020282331854104996,0.026190534234046936,0.3158719539642334,0.0392012745141983
136,-1.2344450090816965,1.363413219392186,-2.9092140468235566,-0.19436246156692505,-0.9785730838775635,-0.06795629113912582,0.03461341932415962,-0.3553685247898102,0.45410147309303284,0.02122098207473755,0.6753809452056885,0.08318454027175903
137,-0.9854119028721144,1.3306724735865822,3.121950012972008,-0.19822537899017334,-0.9713085293769836,-0.1314019113779068,-0.9060410857200623,-0.03198083117604256,0.12071521580219269,-0.17364656925201416,0.11774712800979614,0.040123820304870605
138,-1.1844663484097215,1.2739907894236047,-2.937246906230695,-0.27091163396835327,-0.9562756419181824,-0.11019906401634216,0.7200183868408203,0.7201657891273499,0.5912742018699646,-0.061012834310531616,-0.6482318043708801,-0.23240649700164795
139,-1.3723689154379692,1.2715163199599913,-2.633520383933892,-0.2890473008155823,-0.9555490016937256,-0.05811971053481102,0.7114653587341309,0.7269150614738464,0.17281778156757355,0.3652954399585724,-0.2844565510749817,-0.3585367202758789
140,-1.2979605894336825,1.298136340723452,-2.6365622261844885,-0.2593330144882202,-0.9630579948425293,-0.07256487011909485,-0.5405774712562561,1.137559175491333,-0.25811928510665894,0.2037300169467926,0.3119044899940491,0.15216994285583496
141,-0.9691566520806804,1.275403736500211,-2.7654919046294766,-0.2399982511997223,-0.9566879272460938,-0.1647699922323227,0.41594398021698,2.711320638656616,0.16992953419685364,0.022484198212623596,0.46161651611328125,-0.016473889350891113
142,-0.9747080488130178,1.3198759545850938,-2.537747547321153,-0.2054741233587265,-0.9686843156814575,-0.139395609498024,0.8979306817054749,1.3963258266448975,0.2557585835456848,-0.049347639083862305,0.05535423755645752,-0.3025904893875122
143,-1.073037197665667,1.2487768275037054,-2.305060755969157,-0.2780795991420746,-0.9485982060432434,-0.15110744535923004,0.5288025140762329,0.8384044170379639,0.118857242166996,-0.8389095664024353,-0.08028680086135864,-0.3728640675544739
144,-1.219916703285087,1.3405181000592796,-2.007178601563457,-0.21434104442596436,-0.9736029505729675,-0.07845431566238403,0.947564423084259,0.5885711908340454,-0.9401000738143921,0.42067041993141174,-0.8444816470146179,0.7911160588264465
145,-1.0889667964880585,1.355671568530943,-2.0982161642409536,-0.18916554749011993,-0.9769497513771057,-0.09892193973064423,-0.2822001278400421,-1.1700657606124878,-0.4527002274990082,-0.06986765563488007,0.4407254457473755,-0.16102677583694458
146,-1.138608002316324,1.381820147899318,-2.1582505269115395,-0.17058084905147552,-0.982197105884552,-0.07868421822786331,-0.29778507351875305,-0.41092050075531006,-0.43093228340148926,-0.010632544755935669,0.6328012347221375,0.2818092107772827
147,-0.971152660435503,1.3490273375218251,-2.378275498361488,-0.18158140778541565,-0.9755098819732666,-0.12413156032562256,-0.9316428303718567,-0.9523282647132874,0.5207090377807617,-0.16766175627708435,0.04754668474197388,-0.042357079684734344
148,-0.8930627541273123,1.2625823415292192,-2.623706748635532,-0.23631413280963898,-0.9528768658638,-0.1902139037847519,0.06597842276096344,-0.34870707988739014,0.025542467832565308,-0.14553704857826233,-0.509250819683075,-0.19281220436096191
149,-0.9271742536939261,1.282337881587789,-2.6489342511632072,-0.22755904495716095,-0.9586835503578186,-0.17071229219436646,-0.388069212436676,-1.1620749235153198,-0.7932740449905396,0.18990035355091095,0.012425065040588379,-0.01980893313884735
150,-0.7618970604311252,1.290858144319324,-2.8792483224116436,-0.19072607159614563,-0.9610725045204163,-0.1999080926179886,-0.5208329558372498,0.22495226562023163,-0.3645666241645813,0.252524197101593,0.46018749475479126,0.35054290294647217
151,-0.7007404444760524,1.2748380773395318,-2.934710320042112,-0.18805554509162903,-0.9565231204032898,-0.22293218970298767,-0.07639457285404205,-0.32668712735176086,0.30248549580574036,-0.12296433746814728,0.4466506838798523,-0.06957876682281494
152,-0.8861662266208546,1.275235598756568,-2.7853382942226608,-0.22563806176185608,-0.9566389918327332,-0.18419919908046722,0.6628628373146057,-0.35596945881843567,0.023079363629221916,-0.3778165280818939,-0.23650676012039185,-0.2680255174636841
153,-0.8804432510048075,1.351671631505451,-2.808095742406798,-0.16760095953941345,-0.9760881066322327,-0.13842663168907166,-0.15068389475345612,0.6151200532913208,-0.22938500344753265,0.6801437139511108,-1.047807216644287,-0.04937851428985596
154,-1.064245017388994,1.3700844034695197,-2.6480675115616195,-0.1743314564228058,-0.9799249172210693,-0.09672601521015167,0.209807351231575,-0.7495867609977722,-0.2512080669403076,0.027175694704055786,0.3895622491836548,0.13444577157497406
155,-1.1650732668906494,1.3783519076352542,-2.675517066611564,-0.1757318675518036,-0.9815396666526794,-0.07548663765192032,0.07170643657445908,-1.6761184930801392,0.2002197504043579,0.10915777087211609,0.7686490416526794,0.02057027816772461
156,-1.0880671234402954,1.30967768665178,-2.9482438058752267,-0.2286621332168579,-0.9661017656326294,-0.11983831971883774,-1.504663348197937,-1.7680714130401611,0.6533637642860413,-0.37413638830184937,-0.18619632720947266,0.0019489377737045288
157,-1.288324781495105,1.283757184140732,-2.8461179882005627,-0.2718941569328308,-0.9590863585472107,-0.07891242206096649,0.3526020348072052,-0.11295711994171143,0.16986709833145142,-0.1137869656085968,-1.1604663133621216,-0.2633575201034546
158,-1.2848311274138917,1.2851784519779677,-3.0098008528595015,-0.27030831575393677,-0.9594877362251282,-0.07947711646556854,-0.7563436627388,-1.5206079483032227,-0.0835508331656456,-0.08854791522026062,-0.40330517292022705,-0.41071152687072754
159,-1.051062961329185,1.2822910949890294,2.9733913011356905,-0.2469494789838791,-0.9586702585220337,-0.14130643010139465,-0.8392521739006042,0.29296383261680603,-0.28434091806411743,0.1381695568561554,0.32066965103149414,0.28101587295532227
160,-0.7381148845446264,1.241670201876875,2.8075377197238787,-0.21749018132686615,-0.9463251829147339,-0.23909513652324677,0.53303462266922,1.3052990436553955,-0.055423587560653687,0.25723934173583984,0.6051692962646484,0.24797575175762177
161,-0.769683174766553,1.271506684422824,2.9177542481633214,-0.205182284116745,-0.9555462002754211,-0.21173468232154846,1.048815369606018,0.685560941696167,0.7888072729110718,-0.4034450054168701,-0.4242297410964966,0.013034731149673462
162,-1.0399337612448836,1.3083006696064174,-2.984461690559451,-0.2237776815891266,-0.9657453894615173,-0.1313745677471161,1.0403732061386108,0.8918209075927734,-0.4303824305534363,0.07648460566997528,-0.2737107276916504,-0.1903722733259201
163,-1.1000482957936115,1.3424794902715016,-2.886473458572895,-0.20171968638896942,-0.9740487337112427,-0.10265661776065826,0.42924878001213074,-0.3756861090660095,0.059153001755476,0.042875707149505615,0.11288845539093018,-0.13679957389831543
164,-1.3398501043947753,1.3183621212948324,-2.690335104483003,-0.24313044548034668,-0.9683073163032532,-0.05717010423541069,0.01313308160752058,-0.6460527777671814,0.4893818199634552,0.00625300407409668,0.606796145439148,0.058924853801727295
165,-1.1050103931666166,1.2924606499924698,-2.952300225230958,-0.24548593163490295,-0.9615140557289124,-0.12339983135461807,-1.1098233461380005,-0.510246992111206,-0.2525092661380768,-0.12537896633148193,0.36082130670547485,-0.12643229961395264
166,-1.1487417918167293,1.2672071202640027,-2.9666134522075995,-0.27271419763565063,-0.9542696475982666,-0.12245933711528778,-0.05487754940986633,-0.4521934390068054,0.4501289129257202,-0.17935791611671448,-0.2649685740470886,0.4107436537742615
167,-1.2703315034716542,1.276303185198865,-2.8911214270849226,-0.2772511839866638,-0.9569494128227234,-0.085905060172081,-0.5143979787826538,-1.8424724340438843,-0.3955647349357605,0.2513570189476013,-0.5208643674850464,-0.6311969757080078
168,-1.1607762219274043,1.271478438923421,3.08133651269141,-0.2704278528690338,-0.9555378556251526,-0.11754284799098969,-0.8727694749832153,-0.7162027955055237,-0.15965129435062408,-0.11949527263641357,-0.0073223114013671875,0.013798341155052185
169,-0.9497753729548793,1.2331166665913973,2.913755543077914,-0.2694399952888489,-0.9435259103775024,-0.19277124106884003,-0.2502976953983307,1.6205459833145142,0.2300494909286499,0.11717259883880615,0.4021899700164795,0.25708702206611633
170,-0.7836809231331449,1.2164727759781182,2.887233157635422,-0.24491311609745026,-0.9378814101219177,-0.24575571715831757,-0.23376257717609406,0.503548264503479,-0.11500175297260284,0.20003707706928253,0.4422150254249573,0.21134714782238007
171,-0.9137665833491633,1.239203756837024,3.0497539849396693,-0.25777286291122437,-0.9455251097679138,-0.19883477687835693,1.1192222833633423,0.4946579337120056,0.5677459239959717,-0.6797423362731934,-0.5085458755493164,0.06207028031349182
172,-1.1364015899455489,1.2728562472961822,-3.0484650801670443,-0.2662881910800934,-0.95594322681427,-0.12354464828968048,0.1743263155221939,-1.2089107036590576,-0.35717257857322693,0.06304112076759338,-0.5813645124435425,0.03505897521972656
173,-1.2078823167038863,1.2799054442318352,-3.041029902105729,-0.26812517642974854,-0.9579887390136719,-0.1018160805106163,-0.21675965189933777,-1.2238118648529053,0.13182656466960907,0.05128255486488342,0.09472274780273438,-0.1630917191505432
174,-1.2562660514129784,1.24720011302371,3.118072905000357,-0.3023785948753357,-0.9480980634689331,-0.09837280213832855,-0.7568625807762146,-1.5189183950424194,0.14241455495357513,-0.022145330905914307,0.5069512128829956,0.24151551723480225
175,-1.1327634731077196,1.2232713404666369,2.913263511289457,-0.30841779708862305,-0.9402185082435608,-0.14445661008358002,-0.39997515082359314,-0.652563750743866,-0.10599803179502487,0.08751624822616577,0.447847843170166,0.11085675656795502
176,-1.1663338281848556,1.2126520589170138,2.8393006460145678,-0.3222534656524658,-0.9365489482879639,-0.13794490694999695,0.18208901584148407,-1.0718109607696533,0.09148430824279785,0.1317780315876007,-0.5815021991729736,0.26636290550231934
177,-1.3508029920791746,1.1964896572280161,2.901845243199203,-0.356815367937088,-0.9307613372802734,-0.07978834956884384,-1.0150163173675537,-1.2882004976272583,0.4958660900592804,-0.04957196116447449,-0.33098793029785156,-0.42768847942352295
178,-1.1723608498275826,1.1638536085204803,2.6718938970682786,-0.36479973793029785,-0.9183351993560791,-0.1535625457763672,-0.8482935428619385,-0.2486024796962738,-0.08408255875110626,-0.18306702375411987,-0.06457489728927612,-0.05761907994747162
179,-1.02685719421365,1.1652980367275443,2.5931784435823637,-0.3375444710254669,-0.9189059734344482,-0.20414583384990692,0.6337952613830566,2.686248540878296,-0.12194699794054031,0.3264666199684143,0.430014431476593,0.5428757071495056
180,-0.8390236164708201,1.1805704551264349,2.5988551929566484,-0.2830123007297516,-0.9248231649398804,-0.25417760014533997,0.14852169156074524,1.1488087177276611,-0.16657476127147675,0.3229750990867615,0.43655717372894287,-0.05574369430541992
181,-0.9818246840937049,1.1919415395810373,2.856397204209114,-0.3075404167175293,-0.929088830947876,-0.20545770227909088,0.8088160157203674,1.7785228490829468,0.13191217184066772,-0.6024327278137207,-0.474536657333374,0.3523693084716797
182,-1.1722520183239247,1.2372609822630862,-3.125506386479223,-0.3017275929450989,-0.9448908567428589,-0.1270509660243988,1.0089819431304932,0.6351041197776794,-0.34505146741867065,0.10404998064041138,-0.2107793688774109,-0.10077798366546631
183,-1.237416768699302,1.268133817677021,-3.0860593692349765,-0.2816518545150757,-0.9545462727546692,-0.09753753989934921,-0.17026187479496002,-0.8742626905441284,0.25816428661346436,0.14088958501815796,0.09755170345306396,-0.04751252382993698
184,-1.3456445458220254,1.2182118857401882,-3.117077234077375,-0.3366089165210724,-0.9384833574295044,-0.07709526270627975,-0.6397519111633301,-1.3166804313659668,-0.05938124656677246,0.05110165476799011,0.7758092880249023,0.22846245765686035
185,-1.2648566707170033,1.21122891428341,3.066311944843571,-0.33552980422973633,-0.9360491037368774,-0.10597921162843704,0.018532607704401016,0.7893952131271362,-0.19890989363193512,0.009235858917236328,0.164168119430542,0.17360617220401764
186,-1.2964151371848347,1.2079125831340976,3.097725275959671,-0.3416934013366699,-0.9348770380020142,-0.09618008136749268,0.17028918862342834,-0.5489494800567627,0.3602137267589569,-0.04983186721801758,-0.28904569149017334,0.21478664875030518
187,-1.278070252156916,1.2068694673980982,3.044220981855379,-0.34080466628074646,-0.9345062971115112,-0.10271309316158295,-1.409611701965332,-0.7839698791503906,-0.5578738451004028,0.11910971999168396,-0.02347087860107422,-0.36312252283096313
188,-1.0903934443554748,1.1965519109137746,2.8182679670914617,-0.3241899609565735,-0.9307841062545776,-0.1689428687095642,-0.4295905828475952,0.30056729912757874,-0.19813472032546997,-0.17877021431922913,0.2674083113670349,0.021893993020057678
189,-0.8846749030837586,1.184883716284365,2.720475399043779,-0.291227787733078,-0.9264553189277649,-0.23846788704395294,0.0831642672419548,2.4846034049987793,0.07075917720794678,0.2510208785533905,0.5229061245918274,0.5463139414787292
190,-0.8004447575607349,1.2088082524915782,2.835103295558288,-0.25415000319480896,-0.9351946115493774,-0.24661462008953094,0.5744718909263611,1.2839659452438354,-0.3210100829601288,-0.09623759984970093,0.03369009494781494,4.786252975463867e-05
191,-0.7744321184716959,1.2504380768671384,2.906890640125912,-0.22021722793579102,-0.9491226673126221,-0.2251008003950119,1.4052979946136475,0.7046576738357544,0.44325777888298035,-0.354428768157959,-0.48898762464523315,-0.1703001707792282
192,-1.0677150967773026,1.328827343721279,-3.048754579411156,-0.2099267691373825,-0.9708680510520935,-0.11552481353282928,1.1835771799087524,-0.48527637124061584,-0.6092666387557983,0.10383237898349762,-0.2764921188354492,-0.18608039617538452
193,-1.2653226013335424,1.3625135206971217,-2.8572018942198034,-0.19720716774463654,-0.9783874154090881,-0.06218809261918068,-0.1943369209766388,-0.2074108123779297,-0.03212181478738785,0.14085647463798523,0.3705383539199829,0.0029993057250976562
194,-1.287848966589874,1.328232751104672,-2.865352474402083,-0.23064105212688446,-0.970725417137146,-0.06705845147371292,-0.20526811480522156,-0.3191748261451721,0.5245767831802368,0.03363485634326935,0.5869516730308533,-0.006336323916912079
195,-1.1327929358044744,1.3181693706568518,-3.0843629204194785,-0.22635333240032196,-0.9682591557502747,-0.10601115226745605,-0.5573489665985107,-0.408969521522522,-0.04588765278458595,-0.14333660900592804,-0.08403271436691284,0.20932841300964355
196,-1.262143485335747,1.2821108476154823,-2.9673380342545363,-0.27123868465423584,-0.9586189389228821,-0.08648248761892319,0.09767231345176697,0.07707344740629196,0.3054678738117218,-0.07246550917625427,-0.35139381885528564,-0.14810609817504883
197,-1.3608791514503369,1.2906505676720523,-2.9181512061959243,-0.2704266607761383,-0.9610151648521423,-0.0576159805059433,-0.44778022170066833,-1.4360766410827637,-0.1254434883594513,0.07279479503631592,-0.1989123821258545,-0.3820202350616455
198,-1.227738446050707,1.285407662649498,-3.060533944754675,-0.2651260197162628,-0.9595522880554199,-0.09469801187515259,-0.34288814663887024,1.0679608583450317,-0.11317803710699081,0.11546778678894043,0.4012179374694824,0.1344166398048401
199,-0.9348733448344042,1.2686222356035475,3.0427614726036656,-0.2394237518310547,-0.9546917676925659,-0.17674881219863892,0.6891551613807678,1.59344482421875,-0.005959880538284779,0.2823162078857422,0.5252788066864014,0.2593904733657837
200,-0.8654536756440461,1.3081861018471679,3.058976462252244,-0.19765855371952057,-0.9657156467437744,-0.1682989001274109,0.12140312045812607,-0.01624014787375927,-0.4061797261238098,-0.2652015686035156,-0.24191069602966309,0.10721796751022339
201,-1.098081389309457,1.3259694703404947,-2.901130285995273,-0.2158074975013733,-0.9701793193817139,-0.11036095768213272,1.0723457336425781,0.2688574194908142,0.2519613206386566,-0.1534857451915741,-0.5305989980697632,-0.4428921937942505
202,-1.427702534011616,1.3610166486562136,-2.57362053685584,-0.20611640810966492,-0.9780768156051636,-0.02969694510102272,0.04266257584095001,0.28831547498703003,0.3075811266899109,0.4148413836956024,-0.4477807283401489,0.13411283493041992
203,-1.3946804137479734,1.3613670914847016,-2.6415971503721893,-0.20468567311763763,-0.9781497120857239,-0.036425791680812836,-0.29150694608688354,-0.9035841226577759,0.10372842848300934,0.10210086405277252,0.5282138586044312,-0.04958796128630638
204,-1.3356753193653133,1.3221752953569623,-2.7644654891383125,-0.23929715156555176,-0.9692526459693909,-0.05732402950525284,-0.6696146130561829,-0.2660127580165863,0.11448642611503601,-0.009924635291099548,0.6890403032302856,0.10763227939605713
205,-1.1235074816698323,1.3089015339772674,-3.0494617252719847,-0.2334405779838562,-0.9659011363983154,-0.11198509484529495,0.11926038563251495,-0.5710855722427368,0.4445852041244507,-0.2858770489692688,-0.8254349231719971,0.31111228466033936
206,-1.2885096447525615,1.2814257299870695,-2.9111800352641874,-0.27405521273612976,-0.9584236741065979,-0.07948470115661621,0.24431470036506653,0.06680788099765778,0.15125781297683716,-0.02645137906074524,-0.5766715407371521,-0.2420790195465088
207,-1.3259093982177073,1.2931587898596082,-2.9381442383483036,-0.2659068703651428,-0.9617056250572205,-0.06645079702138901,-0.6779735088348389,-0.9904667735099792,0.2073989063501358,0.008918344974517822,-0.290705144405365,-0.366776704788208
208,-1.10654550724068,1.274981191597243,3.0503021828400985,-0.2606642544269562,-0.9565648436546326,-0.13052871823310852,-0.7254807949066162,0.3653000593185425,-0.15184378623962402,0.11004477739334106,0.40708065032958984,0.40715527534484863
209,-0.8598720862580311,1.2646285495193645,2.9808214651337472,-0.22839410603046417,-0.9534956216812134,-0.19667860865592957,0.6292558908462524,1.6022387742996216,-0.05657186359167099,0.2977604866027832,0.48410463333129883,0.06906935572624207
210,-0.867135657031602,1.2925006958820389,3.0665790223085465,-0.20946599543094635,-0.9615250825881958,-0.17774561047554016,1.011407494544983,1.6296987533569336,0.6187018156051636,-0.7616185545921326,-0.4796980619430542,0.59673672914505
211,-1.1875395494306025,1.3246519757962518,-2.804250861661366,-0.22598892450332642,-0.9698591232299805,-0.09111737459897995,0.9780615568161011,0.16970263421535492,-0.24174053966999054,0.11789566278457642,-0.29720020294189453,-0.29108476638793945
212,-1.3047100363838007,1.3457663921198215,-2.7023630828741596,-0.21528270840644836,-0.9747874140739441,-0.0586751289665699,0.13214844465255737,-0.5951369404792786,-0.2739578187465668,0.24259594082832336,0.19304919242858887,-0.027369201183319092
213,-1.4086848662450757,1.3415432291876108,-2.6706138217204267,-0.2242705076932907,-0.9738364219665527,-0.03667869046330452,0.08548499643802643,-0.44849297404289246,0.5568885803222656,0.07908312976360321,0.6118063926696777,0.044536951929330826
214,-1.272584137237491,1.3243382148110714,-2.812691896722933,-0.23320244252681732,-0.9697825908660889,-0.07168140262365341,-0.9907034039497375,0.4011876583099365,-0.2258937805891037,-0.05878975987434387,0.26137810945510864,0.12566697597503662
215,-1.1307777424916803,1.2856759956795376,-2.944285341165188,-0.25447994470596313,-0.9596278071403503,-0.11980997771024704,0.016240539029240608,-0.254179984331131,0.591164231300354,-0.42064517736434937,-0.2892429828643799,0.43533122539520264
216,-1.3320855492559014,1.28097209948321,-2.7958462785519367,-0.27767956256866455,-0.9582940936088562,-0.06757351756095886,-0.10682721436023712,-0.5323379039764404,-0.5314918756484985,0.2898103594779968,-0.2549625635147095,-0.34145355224609375
217,-1.2668500060898353,1.2891386650948078,-3.0004540251661345,-0.2652079463005066,-0.9605960249900818,-0.08318658173084259,-0.8374989628791809,-0.33685407042503357,0.14935439825057983,-0.11829119920730591,0.09325593709945679,-0.0742383599281311
218,-0.9894349333176051,1.2632103616231944,3.107057161392566,-0.25302040576934814,-0.9530672430992126,-0.16626374423503876,-0.31647834181785583,2.5392673015594482,0.21040871739387512,0.30944743752479553,0.40378129482269287,0.58734530210495
219,-0.8424831459057885,1.2488009080781313,3.1021546586315396,-0.23617354035377502,-0.9486058354377747,-0.21063947677612305,-0.03200221806764603,0.8728463649749756,-0.11765306442975998,-0.055803343653678894,0.21049243211746216,-0.004677280783653259
220,-0.860982661033514,1.2629885873839135,-3.073340035033798,-0.2297980934381485,-0.9530000686645508,-0.19744360446929932,1.153099775314331,1.3085705041885376,0.39409539103507996,-0.24757316708564758,-0.5949126482009888,0.23111972212791443
221,-1.1618468955813313,1.2994776052236303,-2.7272139801869337,-0.24590207636356354,-0.9634183049201965,-0.10656972229480743,0.9387590289115906,-0.23053735494613647,-0.24094225466251373,0.13715270161628723,-0.13039261102676392,-0.17574839293956757
222,-1.34420659560191,1.3136710643254024,-2.557218906743885,-0.2478013038635254,-0.9671249985694885,-0.05713033676147461,0.11680906265974045,-0.1044793426990509,0.07844073325395584,0.124235600233078,0.23259735107421875,-0.016996867954730988
223,-1.4631313638644217,1.2745158396192802,-2.4444043836321594,-0.29027462005615234,-0.9564290642738342,-0.03137372434139252,0.1532057225704193,-0.4007173478603363,0.4778640568256378,0.10011956095695496,0.6364827156066895,-0.012693647295236588
224,-1.2833616993895678,1.2679099755767191,-2.7020700718577015,-0.28603920340538025,-0.9544795155525208,-0.08455921709537506,-1.3809292316436768,-0.7683641910552979,-0.15156513452529907,-0.12516990303993225,0.1567654013633728,0.11297107487916946
225,-1.2951346534202275,1.244639661039245,-2.724703722131789,-0.30830809473991394,-0.947280764579773,-0.08720897883176804,0.14610792696475983,-0.3862494230270386,0.3143155872821808,-0.18421512842178345,-0.23135387897491455,0.22293591499328613
226,-1.4383847608646938,1.2428996497526312,-2.6270892757681747,-0.3192337155342102,-0.9467217922210693,-0.04251902177929878,-0.10807345807552338,-1.3261165618896484,-0.48656949400901794,0.2058303952217102,-0.18699103593826294,-0.4168773293495178
227,-1.3416318580525783,1.2583301494135026,-2.879458462563096,-0.29936981201171875,-0.9515783190727234,-0.06983166188001633,-0.9506353735923767,-1.0345209836959839,-0.4436796009540558,-0.14028170704841614,0.2201482653617859,-0.18003100156784058
228,-1.0468053322057815,1.2346743013515533,3.1151169071292677,-0.2855750322341919,-0.944040834903717,-0.1650262027978897,-0.3553381562232971,2.1624083518981934,0.09244678914546967,0.17543712258338928,0.5528055429458618,0.422762393951416
229,-0.8860099448831645,1.23705217173405,3.1048928529481414,-0.2537306249141693,-0.9448224306106567,-0.2071986049413681,-0.33221235871315,0.5066031813621521,-0.5106976628303528,0.08145895600318909,0.06670969724655151,-0.06619308888912201
230,-0.8767981506694714,1.258754934566326,-3.129503121331585,-0.23599077761173248,-0.9517088532447815,-0.19636321067810059,0.7506791949272156,0.9754843711853027,0.3344660997390747,-0.4183671176433563,-0.40981757640838623,0.06617525219917297
231,-1.119805646567407,1.3052305459420976,-2.8575918020547633,-0.23621393740177155,-0.9649441838264465,-0.11439309269189835,0.5472135543823242,-0.5170851945877075,-0.56721031665802,0.12242913246154785,-0.23116177320480347,-0.19275110960006714
232,-1.1908296654349353,1.3270495866428298,-2.784685394210285,-0.2241271585226059,-0.9704405665397644,-0.08951057493686676,0.17020706832408905,0.1749049425125122,-0.19251976907253265,0.24703063070774078,0.3928343653678894,-0.014508597552776337
233,-1.3578897036544526,1.3276339158467634,-2.628798858758454,-0.23533709347248077,-0.9705814123153687,-0.05087587982416153,0.04056815803050995,-0.2644801139831543,0.4105839729309082,0.15518265962600708,0.6571657657623291,0.025851421058177948
234,-1.0725364540795668,1.2844536113818086,-2.9621695083528703,-0.2481047809123993,-0.9592832922935486,-0.1349802017211914,-1.5025423765182495,-0.23259983956813812,0.2707507312297821,-0.2135956883430481,-0.039373934268951416,0.0968484878540039
235,-1.1062929223207436,1.2322798086929103,-2.927133208472463,-0.2969014644622803,-0.9432483315467834,-0.14876848459243774,0.46737197041511536,-0.5927689671516418,0.3726334571838379,-0.10449621081352234,-0.31012386083602905,0.17101585865020752
236,-1.2789903145461345,1.2319820511460562,-2.817537600803637,-0.31831875443458557,-0.9431494474411011,-0.09561680257320404,-1.010648488998413,-2.407015085220337,-0.3800380825996399,0.17683923244476318,-0.2557642459869385,-0.8152108192443848
237,-1.1379079060735222,1.223928218333303,3.1130337247531354,-0.3085959553718567,-0.9404420256614685,-0.1426088660955429,-0.9551527500152588,-1.3131921291351318,-0.10314138233661652,-0.07655110955238342,0.3757143020629883,0.2255251556634903
238,-0.9615553177703346,1.2099654189879965,3.0382152877672834,-0.28953173756599426,-0.9356037974357605,-0.20203228294849396,0.3544046878814697,1.8158533573150635,0.36632513999938965,0.3078269958496094,0.6380879282951355,0.07475870847702026
239,-0.8385647528883715,1.2281221882214308,3.0453353892977586,-0.24988310039043427,-0.9418594837188721,-0.22463099658489227,-0.08111544698476791,0.2551843225955963,-0.416480153799057,-0.012430742383003235,-0.40375202894210815,0.14844383299350739
240,-0.9676936380492449,1.2776185157941802,-2.98803992657511,-0.23801124095916748,-0.9573303461074829,-0.16391867399215698,1.2789684534072876,1.0991034507751465,0.2197229117155075,-0.2740432024002075,-0.5969451665878296,-0.558218777179718
241,-1.2875376779461474,1.3441316053439107,-2.678505775349247,-0.2157735377550125,-0.9744213223457336,-0.06280860304832458,0.6551148891448975,-1.3995740413665771,-0.3532894551753998,0.2422017753124237,-0.3067218065261841,-0.0688900351524353
242,-1.5635023551581078,1.3465570957581923,-2.4503625487246197,-0.22235876321792603,-0.9749635457992554,-0.0016219072276726365,0.3970790207386017,0.18669994175434113,0.1903875470161438,0.12473304569721222,0.36960166692733765,-0.022883713245391846
243,-1.5492428873765478,1.3077642193972097,-2.40604702628726,-0.25994911789894104,-0.9656060338020325,-0.0056036654859781265,-0.5977837443351746,0.28637585043907166,0.2734419107437134,0.054199665784835815,0.5838006138801575,-0.12481319904327393
244,-1.1997392053688913,1.2956023995078636,-2.7746662905055386,-0.25324076414108276,-0.9623725414276123,-0.09853087365627289,-0.6002090573310852,0.4871795177459717,0.13657845556735992,-0.31678181886672974,-0.06082087755203247,0.3226977586746216
245,-1.247663619041975,1.2631336020041952,-2.7250146872708583,-0.2871587872505188,-0.9530439972877502,-0.09616079926490784,-0.02690081298351288,-0.46179887652397156,0.3736523985862732,-0.22877132892608643,-0.3370712995529175,0.10490406304597855
246,-1.326429727396572,1.2576391936080893,-2.721786526902901,-0.2989117205142975,-0.9513657093048096,-0.07453356683254242,-0.7197123765945435,-2.18717098236084,-0.3287842273712158,0.0586467981338501,-0.32405543327331543,-0.5751093626022339
247,-1.1919736585465395,1.2752597704281319,-3.01570904117536,-0.2706037163734436,-0.9566460251808167,-0.10771332681179047,-0.5709311366081238,-0.33223268389701843,-0.3815705478191376,-0.0054735541343688965,0.3680076599121094,0.07917940616607666
248,-0.9458150163707747,1.2766183487930032,3.0877404980972805,-0.23514479398727417,-0.9570407867431641,-0.16964662075042725,-0.5873511433601379,1.5747650861740112,0.1920430064201355,0.2554084360599518,0.5603275299072266,0.26475465297698975
249,-0.789344978285341,1.2773057155513525,3.0134296481549683,-0.2053687423467636,-0.9572398662567139,-0.2037540078163147,-0.10180137306451797,0.40722885727882385,-0.3801904320716858,-0.0962364673614502,-0.16180920600891113,-0.0560268759727478
250,-0.8851092333196362,1.288712099489437,-3.105345642241276,-0.21544495224952698,-0.960477352142334,-0.1762578785419464,0.7956576347351074,0.41259580850601196,0.32909148931503296,-0.4172912836074829,-0.6272607445716858,-0.378124475479126
251,-1.133820297167874,1.3399913041776175,-2.866305976301741,-0.20726607739925385,-0.9734825491905212,-0.09681224077939987,0.603179931640625,-0.7546390295028687,-0.5284203290939331,0.26671433448791504,-0.16770702600479126,-0.05469226837158203
252,-1.230482826776006,1.3493978984298673,-2.7972927556731135,-0.20700043439865112,-0.9755913019180298,-0.07329671084880829,0.10093704611063004,0.0829409658908844,-0.18194212019443512,0.16123932600021362,0.41327446699142456,0.023904025554656982
253,-1.30915190176735,1.2897403870540178,-2.6985470744387547,-0.26793038845062256,-0.9607630968093872,-0.07174722850322723,-0.21111789345741272,0.07909923791885376,0.7982011437416077,-0.012343078851699829,0.6745082139968872,0.009659230709075928
254,-1.140348080755879,1.2863687202836336,-2.950623161503159,-0.2550105154514313,-0.959822416305542,-0.11709155887365341,-0.24647089838981628,-1.1061466932296753,-0.02083008922636509,-0.16134077310562134,-0.30496323108673096,0.24459399282932281
255,-1.26986664645887,1.2462164824291866,-2.868546620027718,-0.30457934737205505,-0.9477847814559937,-0.09452778100967407,0.08695655316114426,-0.3496067225933075,0.42003387212753296,-0.14935433864593506,-0.33230555057525635,-0.029327809810638428
256,-1.2995525714330745,1.25769523992688,-2.8852059767417995,-0.29674917459487915,-0.9513829946517944,-0.08252523839473724,-0.32999351620674133,-1.5280545949935913,-0.20890504121780396,0.27091601490974426,-0.18599188327789307,-0.41195106506347656
257,-1.197138535693194,1.258435252872195,-3.027096371515195,-0.28610143065452576,-0.9516106247901917,-0.11217384785413742,-0.7016360759735107,0.15372227132320404,-0.385850727558136,0.03777989745140076,0.4071619510650635,0.036917462944984436
258,-0.9152375586978543,1.2404593528685266,3.076864927322062,-0.2571241557598114,-0.9459331035614014,-0.19773180782794952,-0.4686373770236969,1.4169414043426514,0.11650726944208145,0.2951490581035614,0.4837137460708618,0.30712202191352844
259,-0.8180474152343187,1.2636292256690846,3.0881874104469613,-0.22066587209701538,-0.9531939625740051,-0.20670749247074127,-0.09280610829591751,0.21455636620521545,-0.3757810890674591,-0.2754736542701721,-0.3167645335197449,-0.06378507614135742
260,-0.9238450193815649,1.2875853147858265,-3.007014020808235,-0.22297246754169464,-0.9601631164550781,-0.1684345006942749,1.1855989694595337,0.5278744697570801,0.3223750591278076,-0.18268243968486786,-0.5514640808105469,-0.5950695276260376
261,-1.213707522151478,1.3411855049418493,-2.730716008478365,-0.21324118971824646,-0.9737550616264343,-0.07955662906169891,0.6598100662231445,-0.269144743680954,-0.11866212636232376,0.34625208377838135,-0.4224240779876709,0.09489167481660843
262,-1.305660211420565,1.3400265437574523,-2.6316711483546817,-0.22073426842689514,-0.9734905958175659,-0.059935688972473145,0.12001897394657135,-0.041345756500959396,0.12481438368558884,0.14128176867961884,0.4235181212425232,-0.016617652028799057
263,-1.3557270041391598,1.2777899021404537,-2.593613183072387,-0.28217756748199463,-0.9573798775672913,-0.06164108216762543,-0.5661647915840149,-0.2886458933353424,0.135115846991539,-0.05572831630706787,0.6932197213172913,0.08314073085784912
264,-1.1078061369102008,1.2801793509940844,-2.8798792221151794,-0.2563762664794922,-0.9580672383308411,-0.12797750532627106,-0.47456538677215576,-0.21545477211475372,0.04910414293408394,-0.20433232188224792,-0.4310317635536194,0.08741964399814606
265,-1.276709750338563,1.2460860004552698,-2.759620561830505,-0.3053375482559204,-0.9477431774139404,-0.09247719496488571,0.44180068373680115,0.8762052655220032,0.15364891290664673,-0.10175171494483948,-0.6056016683578491,-0.008413918316364288
266,-1.317186343271745,1.2575939948639943,-2.80475355389184,-0.29825153946876526,-0.9513517618179321,-0.07730406522750854,-0.526839017868042,-2.2851099967956543,-0.12633904814720154,0.05659809708595276,-0.17319047451019287,-0.34870606660842896
267,-1.1693697099217262,1.2497850086528908,-3.094379236131029,-0.290443480014801,-0.9489167928695679,-0.12328624725341797,-0.6505605578422546,-0.12736168503761292,-0.1502247154712677,0.04900369048118591,0.48634660243988037,0.16685009002685547
268,-0.9579369818316287,1.2317192467836224,3.1414307188364505,-0.2720828056335449,-0.9430620670318604,-0.1913241297006607,-0.041505083441734314,1.863115906715393,0.15853630006313324,0.3371310532093048,0.42684197425842285,0.2399386316537857
269,-0.8355646146539573,1.2475177488160027,3.0877446187384154,-0.23561319708824158,-0.9481989741325378,-0.21308471262454987,-0.0036213304847478867,0.1888793408870697,-0.0026153805665671825,-0.3760353922843933,-0.4743931293487549,0.20225097239017487
270,-0.9918050514011171,1.2818459850760224,-2.925623759767477,-0.23850420117378235,-0.9585434794425964,-0.15591679513454437,0.9468478560447693,0.21522721648216248,0.3647324740886688,-0.18912334740161896,-0.6088240146636963,-0.5607732534408569
271,-1.2702520965980375,1.3250360831279755,-2.6640657714240366,-0.23238888382911682,-0.9699526429176331,-0.07202490419149399,1.1087772846221924,0.2026691436767578,-0.0052743637934327126,0.28777825832366943,-0.276522696018219,0.0297580286860466
272,-1.3629592927518577,1.3361245960378643,-2.5102211966330334,-0.22751979529857635,-0.9725907444953918,-0.04797988757491112,0.015376083552837372,0.30628761649131775,-0.19987046718597412,0.20180875062942505,0.49846965074539185,-0.024133142083883286
273,-1.2472226458424576,1.3025765962427134,-2.665274855776477,-0.25126227736473083,-0.9642442464828491,-0.0842633843421936,-1.1355704069137573,-1.0452444553375244,0.2590380311012268,-0.029102712869644165,0.5801194906234741,-0.1397356390953064
274,-0.9919013072452465,1.2768467601182147,-3.0755748281898367,-0.24252769351005554,-0.9571070075035095,-0.15851375460624695,-0.4962434768676758,-1.0894105434417725,0.01402590237557888,-0.16474464535713196,-0.32661497592926025,0.32294243574142456
275,-1.0768442765210455,1.2452341412199501,-2.9778192336643126,-0.28160977363586426,-0.9474710822105408,-0.1516399085521698,0.5090794563293457,-0.2919878363609314,0.346388041973114,-0.13562658429145813,-0.5741048455238342,-0.1527881622314453
276,-1.1944345723892689,1.250312107977082,-2.9006545045479655,-0.29297706484794617,-0.9490829706192017,-0.11578457802534103,-0.7037827968597412,-1.241267204284668,-0.08840282261371613,0.04825657606124878,0.02815401554107666,-0.6618185043334961
277,-1.0873537834106566,1.2444386252134312,-3.1114236955212573,-0.2838548421859741,-0.9472163319587708,-0.1490221917629242,-0.6731564402580261,0.12288093566894531,-0.16405761241912842,-0.005268663167953491,0.346676230430603,0.1612444519996643
278,-0.9163307826314703,1.239977533856678,3.1327280842276135,-0.2577018141746521,-0.9457767009735107,-0.19772806763648987,0.4163529574871063,0.655527651309967,0.11751445382833481,0.2589224874973297,0.2447420358657837,-0.004634052515029907
279,-0.8974169227800995,1.2675783782079069,-3.114252790860855,-0.23341545462608337,-0.9543805718421936,-0.1862117201089859,0.17060989141464233,0.4397967457771301,-0.1356620490550995,-0.18418706953525543,-0.14078843593597412,0.1080562025308609
280,-1.0766537529106257,1.2764064176903018,-2.875058143045584,-0.25544631481170654,-0.9569793343544006,-0.13761432468891144,0.7082245349884033,0.5617756843566895,0.3815042972564697,-0.18415939807891846,-0.5100769400596619,-0.35890668630599976
281,-1.2660440283930494,1.3031477948124561,-2.684692963770955,-0.25227826833724976,-0.9643954634666443,-0.07935437560081482,0.5887764692306519,-0.7852136492729187,-0.3796522915363312,0.21043869853019714,-0.2575741410255432,-0.12242787331342697
282,-1.3122127571739828,1.3103801691821753,-2.7023145168398512,-0.24892203509807587,-0.9662829041481018,-0.06584123522043228,-0.00046630389988422394,0.07455630600452423,0.2822768986225128,0.10706113278865814,0.3236132860183716,-0.030121318995952606
283,-1.290649965043093,1.285634928356575,-2.731413963911018,-0.27034562826156616,-0.9596162438392639,-0.07778190076351166,-0.5500367283821106,-0.39633044600486755,-0.10607153922319412,0.031179338693618774,0.5982728600502014,-0.03787970542907715
284,-1.124122449377796,1.272798112854739,-2.9048962752041145,-0.26480093598365784,-0.9559261202812195,-0.1268288940191269,-0.15590238571166992,-0.16087576746940613,-0.00816483423113823,-0.06851199269294739,-0.05713534355163574,0.18246246874332428
285,-1.1741812947359094,1.2347096828911013,-2.923772368453065,-0.3041946589946747,-0.944052517414093,-0.12739941477775574,-0.24682845175266266,-0.5912984013557434,0.5776820778846741,-0.2400253415107727,-0.324532687664032,0.030612945556640625
286,-1.2333329106163113,1.2163764096381244,-2.931043235768842,-0.32747235894203186,-0.9378479719161987,-0.11490529030561447,-0.38623592257499695,-1.0506831407546997,-0.15472932159900665,0.24949991703033447,-0.07286381721496582,-0.29195505380630493
287,-1.143237938172935,1.225023109418386,-3.1124875413732696,-0.3084145188331604,-0.9408136606216431,-0.14053498208522797,-0.481261670589447,0.29092341661453247,-0.33406442403793335,-0.0361747145652771,0.20677441358566284,-0.033659324049949646
288,-0.9748198528545005,1.2368876867752931,3.0957256737437184,-0.2712361812591553,-0.9447685480117798,-0.18396492302417755,-0.3844256103038788,0.3749392032623291,-0.013718771748244762,0.28350427746772766,0.41313719749450684,0.25464361906051636
289,-0.8941012741294234,1.2473465847575795,3.0513005388813994,-0.24780218303203583,-0.9481446146965027,-0.1990371197462082,0.15444310009479523,0.7318722605705261,-0.13497613370418549,-0.13200432062149048,0.16050118207931519,0.06865078210830688
290,-0.8991768174578976,1.2601291372671677,3.1200495112226316,-0.23930194973945618,-0.9521298408508301,-0.19021958112716675,0.3843562602996826,0.817176103591919,0.10787304490804672,-0.3358933925628662,-0.6181674599647522,0.19914603233337402
291,-0.9795077003468456,1.2847203732539894,-3.070431692787162,-0.23428034782409668,-0.9593585729598999,-0.15730135142803192,0.3002476990222931,-0.6129669547080994,-0.3959892988204956,0.12521050870418549,-0.09934192895889282,-0.3027816414833069
292,-1.28677305994886,1.347430707034027,-2.8102355906412297,-0.2126382291316986,-0.9751574397087097,-0.06207235902547836,0.33057570457458496,0.2634340524673462,0.04031761363148689,0.3609994351863861,0.030073821544647217,0.22126734256744385
293,-1.2282475472539827,1.3239599563796398,-2.8085929563258905,-0.23014217615127563,-0.9696902632713318,-0.08207035064697266,-0.24893906712532043,0.38442498445510864,0.5840297937393188,0.15859368443489075,0.5225161910057068,-0.046011924743652344
294,-1.0752449330837377,1.2747979470663922,-3.0333532849861564,-0.2566063106060028,-0.956511378288269,-0.1387060135602951,-1.1756258010864258,-1.128069519996643,-0.3641967475414276,-0.20306473970413208,0.36215096712112427,0.17901967465877533
295,-0.952811878567261,1.244378776533277,3.1198612279844324,-0.2613464593887329,-0.9471971392631531,-0.1857835054397583,0.18514439463615417,-0.3927893340587616,0.26782479882240295,-0.2723754048347473,-0.40468573570251465,0.1809617429971695
296,-1.137185478341787,1.256426906600072,-3.0456823780266085,-0.2806004583835602,-0.9509915709495544,-0.12991763651371002,0.23178383708000183,-1.0289045572280884,-0.21344155073165894,0.22467699646949768,-0.30096155405044556,-0.26885557174682617
297,-1.0461697225042934,1.2630557902768942,2.9246561951550283,-0.2621687650680542,-0.9530203938484192,-0.151722714304924,-1.1107834577560425,-1.6272302865982056,-0.48507070541381836,-0.1801683008670807,0.07646393775939941,-0.2616531252861023
298,-0.9383145241902912,1.2416939861752356,2.796972151682836,-0.2606760561466217,-0.9463328719139099,-0.19105541706085205,0.1993720829486847,1.5539040565490723,0.19093476235866547,0.08610028028488159,0.4246959090232849,0.20968641340732574
299,-0.8045623093247212,1.2390612775775647,2.849931270544022,-0.23466408252716064,-0.9454786777496338,-0.22583787143230438,-0.2644660174846649,1.2759428024291992,0.002352960640564561,0.35520851612091064,0.28384238481521606,0.1865159422159195
300,-0.7491579279429071,1.240207923851468,2.8637607367712645,-0.2210596799850464,-0.9458515048027039,-0.2376922369003296,0.2767667770385742,0.41689735651016235,0.574576199054718,-0.4763890504837036,-0.6019847989082336,0.1608947515487671
301,-0.991066064692,1.291299726954175,-3.0715392461209152,-0.2307973951101303,-0.9611944556236267,-0.15112221240997314,1.2629708051681519,0.24556395411491394,0.21646815538406372,-0.056540876626968384,-0.1690850853919983,-0.6443947553634644
302,-1.26563597105761,1.3505972229357799,-2.8407854191549027,-0.2083323448896408,-0.9758539795875549,-0.06562457978725433,0.7894835472106934,-0.37445953488349915,-0.18080809712409973,0.17439678311347961,-0.32796376943588257,-0.05078470706939697
303,-1.3728163274440155,1.3468038314122606,-2.7544524932587664,-0.21778510510921478,-0.9750183820724487,-0.043689411133527756,-0.1855730265378952,-0.3511848449707031,0.5711341500282288,0.07406260073184967,0.369595468044281,-0.018368061631917953
304,-1.3207679752195296,1.2838438278735906,-2.8147435568561283,-0.2742300033569336,-0.9591108560562134,-0.07003069669008255,-0.576507031917572,-0.31578904390335083,-0.36257117986679077,-0.1143655776977539,0.6660810708999634,-0.04642438888549805
305,-1.1323679123233334,1.291284594141847,-3.0626170540020996,-0.2497931867837906,-0.9611902832984924,-0.11711854487657547,-0.031109683215618134,-0.5734894275665283,-0.09806539118289948,-0.10674366354942322,-0.29386043548583984,0.2088390588760376
306,-1.2252503242973793,1.2570068183373067,-2.9905587204213013,-0.2904201149940491,-0.9511706829071045,-0.10454810410737991,-0.22769710421562195,0.2848780155181885,0.3031982183456421,-0.21171608567237854,-0.49372971057891846,-0.15279138088226318
307,-1.2436411174524638,1.2543806679666774,-3.0323194660164767,-0.29465845227241516,-0.9503568410873413,-0.09999217838048935,-0.7481601238250732,-1.7392866611480713,-0.14384369552135468,0.04822900891304016,-0.1679598093032837,-0.47944509983062744
308,-1.0880075615006388,1.240864336099293,2.9914693097672207,-0.28694888949394226,-0.9460643529891968,-0.15040729939937592,-0.5389942526817322,0.12997198104858398,-0.13416899740695953,0.012687444686889648,0.31848573684692383,0.1416793018579483
309,-0.8841395682038398,1.2188336745837727,2.8846322965889635,-0.26661238074302673,-0.9386979341506958,-0.2185504138469696,-0.18208318948745728,0.8030946850776672,-0.0027013816870748997,0.27532511949539185,0.44525909423828125,0.0834643542766571
310,-0.7817266602987044,1.2318233460318735,2.8328549180792417,-0.23426121473312378,-0.9430966377258301,-0.23598773777484894,-0.3904174566268921,0.097014881670475,-0.18472304940223694,-0.21190577745437622,-0.23439347743988037,0.016398578882217407
311,-0.8266700375624533,1.2403814742246084,2.9435590734017376,-0.23868076503276825,-0.9459078311920166,-0.21974971890449524,0.7865170836448669,0.4712299406528473,0.3319961130619049,-0.30003079771995544,-0.6178433895111084,-0.3911663889884949
312,-0.989047838367978,1.288578073630509,3.0874526756727905,-0.2326768934726715,-0.9604400396347046,-0.15302468836307526,0.5828127264976501,-1.037878394126892,-0.37178558111190796,0.23679673671722412,-0.1299377679824829,-0.08676719665527344
313,-1.0913285496750589,1.3084539575184972,-3.108201349279321,-0.23010019958019257,-0.9657851457595825,-0.11963704228401184,0.1543249487876892,0.4593104422092438,0.03562243655323982,0.18290477991104126,0.32361900806427,0.013466417789459229
314,-1.1312122276010153,1.2713674937318082,-3.0443727450514397,-0.2669312655925751,-0.9555051326751709,-0.1255304515361786,-0.3883909285068512,-0.4223646819591522,0.5697042942047119,0.06501168012619019,0.5372616052627563,0.0027429312467575073
315,-0.9266399721631338,1.2364251760851008,2.9101252825237163,-0.26241135597229004,-0.9446168541908264,-0.19707731902599335,-1.0936495065689087,-0.8200397491455078,-0.36537742614746094,-0.08118605613708496,-0.20369869470596313,0.35419705510139465
316,-0.9640903550785717,1.1826969324489238,2.90928615494327,-0.31089162826538086,-0.9256299734115601,-0.21576717495918274,0.6913853287696838,-0.5136830806732178,0.526608407497406,-0.17569589614868164,-0.36610275506973267,-0.08492253720760345
317,-1.1511063908887462,1.1915228333271797,3.0381236099717817,-0.3381138741970062,-0.92893385887146,-0.15086665749549866,-0.9205620288848877,-2.1061697006225586,-0.3739743232727051,0.2754613161087036,-0.11377543210983276,-0.6942871809005737
318,-1.0565211965388714,1.178536945845118,2.801982638138138,-0.3328297436237335,-0.9240477085113525,-0.18804378807544708,-0.7116734981536865,-0.2806757688522339,0.057490717619657516,-0.12827563285827637,0.3211270570755005,0.060571879148483276
319,-0.8916278969957693,1.1536279213494443,2.746938377579742,-0.3152633011341095,-0.9142398834228516,-0.25450795888900757,0.35138171911239624,2.9097611904144287,0.15064790844917297,0.3146987557411194,0.4493657350540161,0.49208733439445496
320,-0.8060644762055871,1.1808329133113158,2.8576542714884523,-0.274307519197464,-0.9249229431152344,-0.2631976902484894,0.04088772088289261,0.9130977392196655,-0.2005658745765686,-0.02574130892753601,-0.0208931565284729,-0.0019543468952178955
321,-0.8105184798320466,1.2061254131988417,2.983316933533334,-0.2584385275840759,-0.9342411756515503,-0.24576997756958008,1.1400834321975708,1.4468741416931152,0.32442706823349,-0.24301102757453918,-0.49494272470474243,-0.025058254599571228
322,-1.0153661047406441,1.2644631532061574,-3.0118445451145908,-0.2562318742275238,-0.9534457325935364,-0.15901793539524078,0.9126533269882202,-0.19544631242752075,-0.4234035909175873,0.15015274286270142,-0.043212711811065674,-0.2486511617898941
323,-1.2311002426635496,1.3089149399376279,-2.8177711009589737,-0.2441035807132721,-0.9659045934677124,-0.08626497536897659,0.16857436299324036,0.010190168395638466,0.24059392511844635,0.1794978827238083,0.11408275365829468,0.07944429665803909
324,-1.3474300996422084,1.2543218702858088,-2.6543126238306827,-0.303486704826355,-0.9503385424613953,-0.06893902271986008,0.263508677482605,0.6707544922828674,0.7997004389762878,0.06403052806854248,0.5519010424613953,0.002838023006916046
325,-1.1891048390504229,1.2436342695467646,-2.7804622620244426,-0.2982308566570282,-0.9469581246376038,-0.1197025254368782,-0.9427105188369751,-0.07992801070213318,-0.28011995553970337,-0.004183083772659302,0.23893511295318604,0.010434329509735107
326,-1.1629795835411827,1.2056111706241244,-2.8782622179927566,-0.3278343379497528,-0.9340576529502869,-0.14163687825202942,0.07767968624830246,-0.2683391273021698,0.5414628982543945,-0.2944954037666321,-0.35585933923721313,0.3938341736793518
327,-1.2690494982873541,1.194662139466756,-2.7641420783219894,-0.3507312834262848,-0.9300916194915771,-0.10916555672883987,-0.46094775199890137,-0.9784328937530518,-0.30291053652763367,0.2791675627231598,-0.20877856016159058,-0.4793354272842407
328,-1.1793847470915544,1.2099761984291182,-2.986036257303083,-0.3263417184352875,-0.9356076121330261,-0.13468317687511444,-0.9747034311294556,-0.5694458484649658,-0.4754877984523773,-0.0035837888717651367,0.2716671824455261,0.0026030689477920532
329,-0.9603395837922529,1.2042765023458535,3.0801419701315194,-0.2936422526836395,-0.9335801601409912,-0.20543180406093597,-0.6340714693069458,1.4423402547836304,-0.07763195782899857,0.270097941160202,0.4349382519721985,0.5201748609542847
330,-0.8664752779789826,1.2268518683961303,3.11421770866998,-0.25696590542793274,-0.9414318799972534,-0.21834446489810944,0.18868379294872284,0.5735195279121399,-0.3861735463142395,-0.043189674615859985,0.0007581710815429688,0.009283795952796936
331,-0.8401988801881,1.241750424560876,-3.130994933082705,-0.24066704511642456,-0.9463511109352112,-0.2156362384557724,0.8949660062789917,1.2874730825424194,0.13402967154979706,-0.15566471219062805,-0.5368642210960388,0.11006070673465729
332,-1.0153023567421928,1.2787581847978402,-2.9231333629637835,-0.2446155548095703,-0.9576590657234192,-0.15183041989803314,0.6210427284240723,-0.8054564595222473,-0.30837059020996094,0.02049444615840912,0.0063956379890441895,-0.18299317359924316
333,-1.2591727139228752,1.3348192678854947,-2.7400315627025176,-0.22253304719924927,-0.9722864031791687,-0.07168204337358475,0.363239586353302,-0.8702062368392944,0.19436196982860565,0.29626351594924927,0.1236230731010437,0.08071529865264893
334,-1.3683502648499593,1.3099261270041656,-2.6640443034834886,-0.2526545226573944,-0.9661659002304077,-0.051859330385923386,0.14557620882987976,0.9737399816513062,0.6346662044525146,0.09529057145118713,0.42188477516174316,0.11046838015317917
335,-1.2698252525103266,1.2962734363933461,-2.7308868293669617,-0.2589024603366852,-0.9625546336174011,-0.08036346733570099,-0.6229382753372192,-0.7615085244178772,-0.5756028294563293,0.044501155614852905,0.14701801538467407,-0.029850728809833527
336,-1.3407207884934325,1.3054513351041457,-2.868742020365851,-0.2553320527076721,-0.9650020599365234,-0.05980465188622475,0.05088857561349869,-1.873762607574463,0.25139132142066956,-0.14670652151107788,-0.45961958169937134,0.38716673851013184
337,-1.527038964568126,1.3088634940942245,-2.711322278032314,-0.2587004601955414,-0.9658913016319275,-0.011327279731631279,0.4649055600166321,1.3205835819244385,-0.1711556315422058,-0.11227121949195862,-0.07871025800704956,-0.08886194229125977
338,-1.230228299722403,1.273757808005018,-2.8850246612257258,-0.2758791744709015,-0.9562074542045593,-0.0977649912238121,-0.5168759822845459,0.09109853208065033,-0.05431250482797623,-0.132430762052536,0.2920839786529541,-0.5779552459716797
339,-1.066086325665037,1.265870308296426,-3.1115776660370917,-0.2627891004085541,-0.9538691639900208,-0.14517363905906677,-0.5000191926956177,-0.9527633190155029,-0.3635065257549286,0.12059247493743896,0.3966182470321655,0.16070707142353058
340,-0.9103045596963263,1.2900668472957761,3.0145593704258307,-0.21878930926322937,-0.9608535766601562,-0.16997592151165009,-0.0603763684630394,1.2685259580612183,-0.4930507242679596,0.16361352801322937,0.11255645751953125,0.345375657081604
341,-0.846727710491884,1.303708715216982,3.029015946645921,-0.19770917296409607,-0.9645436406135559,-0.17483265697956085,0.09864260256290436,-0.025142455473542213,0.650288999080658,-0.5132893323898315,-0.552561342716217,-0.08981570601463318
342,-1.086919715680484,1.3459584956426685,-3.0450384353229096,-0.19735343754291534,-0.9748302698135376,-0.10371873527765274,0.826816737651825,-0.49451565742492676,-0.5315629839897156,-0.08388128876686096,-0.0830463171005249,-0.13639354705810547
343,-1.483741568445799,1.419649555375775,-2.599985203419653,-0.15000104904174805,-0.9885990619659424,-0.013091391883790493,0.6314080953598022,0.7554978728294373,0.16302207112312317,0.42432355880737305,0.028806090354919434,-0.01879948191344738
344,-1.3747287277387676,1.4097234149337559,-2.7413948060717788,-0.15730451047420502,-0.987055778503418,-0.031243707984685898,-0.40417182445526123,-0.4108690321445465,0.665427029132843,0.10293744504451752,0.41460710763931274,-0.019293425604701042
345,-1.3674922236061837,1.292248400381894,-2.715305474490919,-0.2692965567111969,-0.9614557027816772,-0.055516086518764496,-0.39865994453430176,0.19564665853977203,0.5222460627555847,-0.051412612199783325,0.4855952262878418,0.025471512228250504
346,-1.3294249751406622,1.2750642570767245,-2.889607807759931,-0.28299182653427124,-0.9565890431404114,-0.06966429203748703,0.6775973439216614,-1.1992343664169312,0.1922793835401535,-0.16940075159072876,-0.5247341990470886,0.5191424489021301
347,-1.4114171297286038,1.2595740728452742,-2.7660730306531622,-0.3023410737514496,-0.951960027217865,-0.04859907552599907,0.5115598440170288,0.6563374996185303,0.05793926119804382,0.04059183597564697,-0.45262670516967773,-0.4181215167045593
348,-1.341014648824958,1.2696579338884046,-2.853149395955843,-0.2888111472129822,-0.9549994468688965,-0.0675567090511322,-1.114808201789856,-0.5262464284896851,-0.3559514880180359,-0.006858348846435547,0.17323076725006104,-0.5073944926261902
349,-1.0710575132500442,1.2558257307717007,3.0142655763544286,-0.2719040811061859,-0.9508054852485657,-0.14844967424869537,-0.7001376152038574,-0.7287383079528809,0.02672339230775833,-0.04230496287345886,0.3373562693595886,0.22581170499324799
350,-0.8926045514918902,1.2422194587776103,2.8973822405289735,-0.2512861490249634,-0.9465025663375854,-0.20245496928691864,-0.06806474924087524,1.337613582611084,-0.40546914935112,0.18198075890541077,0.2990111708641052,0.35518014430999756
351,-0.8675107147285778,1.274287049441601,2.9550286206318828,-0.22285503149032593,-0.956362247467041,-0.1889633685350418,0.482344388961792,0.5754862427711487,0.515360951423645,-0.49349936842918396,-0.31001055240631104,0.0845474898815155
352,-1.1674176328961579,1.3090907355841785,-2.9631157301652067,-0.23796281218528748,-0.965950071811676,-0.1015581488609314,0.8511812686920166,0.5437610745429993,-0.11821386218070984,-0.014203935861587524,-0.1164778470993042,-0.1945691704750061
353,-1.286334576948086,1.370525048442691,-2.8182255635295532,-0.1909400373697281,-0.9800126552581787,-0.05582919716835022,-0.2641073167324066,-0.534162700176239,0.07050150632858276,0.47688978910446167,0.03547847270965576,0.06335175782442093
354,-1.2307765277581189,1.349770946789794,-2.944407013069525,-0.20667888224124908,-0.9756731390953064,-0.0731145516037941,0.07121020555496216,-0.37433016300201416,0.9151968359947205,0.052641451358795166,0.42367124557495117,0.05459040403366089
355,-1.2995321348129096,1.3020854706470761,-2.9085667556239505,-0.2557810842990875,-0.9641139507293701,-0.07113774120807648,-0.6161082983016968,-0.6315824389457703,-0.4331013858318329,-0.04770103096961975,0.32898199558258057,0.14543277025222778
356,-1.275228129353335,1.3096087058101369,-3.0683887514370953,-0.24703086912631989,-0.9660840034484863,-0.07521768659353256,0.1762261986732483,-1.215756893157959,0.6808950901031494,-0.1702665388584137,-0.4319416284561157,0.28639936447143555
357,-1.3154714627764228,1.272230870016383,-3.0173717947654644,-0.2846132516860962,-0.9557594656944275,-0.07429024577140808,0.1358286589384079,1.06617271900177,-0.07669942080974579,0.14644494652748108,-0.20673131942749023,-0.38889026641845703
358,-1.2705989318843363,1.2638188930444452,-3.1160906672365107,-0.28866487741470337,-0.953251302242279,-0.08935694396495819,-0.8186390995979309,-0.5350990295410156,-0.15994279086589813,-0.05827417969703674,0.15088307857513428,-0.18076938390731812
359,-1.0752826744940684,1.2461971092777049,2.916556180446383,-0.2805699110031128,-0.9477786421775818,-0.15164561569690704,-0.7480899691581726,0.15733136236667633,0.11785416305065155,0.08580672740936279,0.342309832572937,0.28271859884262085
360,-0.8636720105222517,1.2239359462512271,2.8023349665064026,-0.25843894481658936,-0.9404446482658386,-0.22084660828113556,0.5300460457801819,0.984417200088501,0.02133234031498432,0.14544758200645447,0.26948511600494385,-0.001931697130203247
361,-0.8598605078853796,1.2417748385843694,2.8575649379726134,-0.2448427975177765,-0.9463589787483215,-0.2108481228351593,0.8060982823371887,1.1697126626968384,0.36866673827171326,-0.4413449466228485,-0.43530917167663574,0.4340231418609619
362,-1.0692765721293298,1.2806482052498152,-3.141495352788141,-0.25086236000061035,-0.95820152759552,-0.13754217326641083,0.8407385349273682,0.08833548426628113,-0.3010362386703491,0.03531673550605774,-0.017994701862335205,-0.19558767974376678
363,-1.204319778048157,1.3454520576326525,-2.9959827666196364,-0.20860466361045837,-0.9747172594070435,-0.08006563782691956,0.2035878598690033,0.3534068763256073,0.1166231706738472,0.3280809819698334,0.04742538928985596,0.03990453481674194
364,-1.254693870780677,1.3440947866095398,-2.941541278115074,-0.21362848579883575,-0.9744130969047546,-0.06987133622169495,0.13432694971561432,-0.09585033357143402,0.44593772292137146,0.09337393939495087,0.46374720335006714,0.0076307132840156555
365,-1.1940330495171791,1.310442114932519,-3.024886830450012,-0.2393674999475479,-0.9662988781929016,-0.09470921754837036,-0.7593691945075989,-0.2890840768814087,-0.19289246201515198,-0.05053424835205078,0.3288324475288391,0.23466283082962036
366,-1.233587217192051,1.2884670336494797,-3.035337466418755,-0.26290369033813477,-0.9604091048240662,-0.0921739935874939,0.5919777154922485,-0.7599028944969177,0.5762431025505066,-0.26158666610717773,-0.5629062652587891,0.2620806097984314
367,-1.3444648078679848,1.2836213546787507,-2.859189240530625,-0.2760200500488281,-0.9590478539466858,-0.0635610893368721,0.038083940744400024,0.9777671098709106,-0.32874470949172974,0.244480162858963,-0.23949944972991943,-0.460898756980896
368,-1.1829623117467976,1.280629912887048,-3.0578016191811743,-0.2648621201515198,-0.9581962823867798,-0.10820285230875015,-0.8887796401977539,-0.4476635754108429,-0.10480482131242752,-0.05407702922821045,0.29852837324142456,-0.21214014291763306
369,-1.0007527098718174,1.2478072036232053,3.0115050456650905,-0.26721394062042236,-0.9482908844947815,-0.17129218578338623,-0.6152808666229248,0.7863031029701233,0.25562968850135803,0.11651816964149475,0.36375725269317627,0.47237861156463623
370,-0.8748098319208604,1.2476841581779248,3.037143868523047,-0.24367113411426544,-0.9482518434524536,-0.20357517898082733,0.4847181439399719,0.8597999215126038,-0.05317569896578789,-0.04946546256542206,0.0023900866508483887,-0.039588913321495056
371,-0.9216665860868812,1.256368549844714,-3.1117347338134427,-0.24636958539485931,-0.9509735107421875,-0.18695314228534698,0.9286156892776489,1.094592809677124,0.3613676130771637,-0.35105782747268677,-0.31951904296875,-0.2478765845298767
372,-1.1309191099457199,1.3241829821312794,-2.8364151908823816,-0.2208816558122635,-0.9697447419166565,-0.10395365208387375,0.7442370653152466,-0.23793938755989075,-1.1766016483306885,0.20627900958061218,-0.082455575466156,-0.08046406507492065
373,-1.129637616457113,1.3696402861655634,-2.8359808278605403,-0.18067313730716705,-0.9798362255096436,-0.08531327545642853,-0.022812411189079285,0.3010730743408203,-0.43938273191452026,0.20252373814582825,0.40628886222839355,0.058152616024017334
374,-1.1582607967964726,1.3436201427900558,-2.8007356086702897,-0.2063325196504593,-0.9743062853813171,-0.09030123054981232,-0.25088366866111755,-0.23685322701931,0.67887943983078,-0.007885605096817017,0.5903340578079224,0.05480927228927612
375,-1.0173171134562815,1.3136750124987677,-3.0267737960251124,-0.21633103489875793,-0.9671260118484497,-0.13367149233818054,-0.35564762353897095,-1.6106935739517212,-0.02614646963775158,-0.21553845703601837,-0.16033059358596802,0.16637112200260162
376,-1.2013961000498674,1.2746492685932196,-2.9299553684233124,-0.2721514403820038,-0.9564680457115173,-0.10536977648735046,0.1716022938489914,0.2654474973678589,0.4894488751888275,-0.11348399519920349,-0.4642931818962097,0.0019609779119491577
377,-1.2796740638683615,1.2848617092017678,-2.862453165755417,-0.2701859176158905,-0.9593984484672546,-0.08095726370811462,-0.7551499009132385,-1.035030484199524,0.1587696373462677,0.1296677589416504,-0.10624480247497559,-0.6130887866020203
378,-1.1043430499419327,1.2465797459569774,-3.0904193950936936,-0.2845335006713867,-0.9479005932807922,-0.14326603710651398,-0.7155334949493408,-0.3015994727611542,0.05535725876688957,-0.011898994445800781,0.45504170656204224,-0.018690764904022217
379,-0.8969037602339782,1.201435901970354,3.04385415015243,-0.28209972381591797,-0.9325584173202515,-0.2252875566482544,-1.147033929824829,1.6425912380218506,0.15293022990226746,0.34047988057136536,0.39804309606552124,0.7767554521560669
380,-0.8657954092828378,1.2380900009148585,3.112598435667428,-0.24874372780323029,-0.9451619386672974,-0.21164943277835846,0.20997126400470734,0.08896687626838684,0.02913089469075203,-0.496571809053421,-0.6982706785202026,-0.058476924896240234
381,-1.114713064235199,1.2832416963898534,-2.8754835750501093,-0.2546193599700928,-0.9589402675628662,-0.12491116672754288,1.3118594884872437,0.0910431444644928,-0.2835201323032379,0.024883002042770386,-0.18525540828704834,-0.30767548084259033
382,-1.2500473544197954,1.3469181279514038,-2.76054532822018,-0.21068985760211945,-0.975043773651123,-0.06999555975198746,-0.1003580391407013,-0.203944593667984,-0.07244133204221725,0.28026992082595825,-0.007194936275482178,0.09183091670274734
383,-1.3237790253593178,1.3302491452576402,-2.707786115233626,-0.231003075838089,-0.9712077379226685,-0.05825138837099075,0.3393339514732361,0.014485085383057594,0.6673548221588135,0.06536886096000671,0.5661020874977112,0.02214907854795456
384,-1.2717355978547777,1.3226183988787386,-2.7560314891425235,-0.2347353994846344,-0.9693616032600403,-0.07237066328525543,-0.8662981390953064,-0.021355483680963516,-0.5168522000312805,-0.02959263324737549,0.3150799870491028,0.11009037494659424
385,-1.1119528262700382,1.28792647181743,-2.940401342211828,-0.2502429485321045,-0.9602583646774292,-0.12362231314182281,0.19854971766471863,-0.3043056130409241,0.7616865634918213,-0.467820405960083,-0.4524308443069458,0.23813951015472412
386,-1.3103778113830262,1.279334218344505,-2.7613494225951722,-0.2776642143726349,-0.9578247666358948,-0.07398910075426102,-0.37263503670692444,-0.9291297197341919,-0.11754021793603897,0.2209778130054474,-0.2984313368797302,-0.5297401547431946
387,-1.1355204489651602,1.265013057271293,-3.03881702582649,-0.2729693353176117,-0.953611433506012,-0.12693679332733154,-0.8477165699005127,-0.21486981213092804,-0.09557156264781952,-0.05362975597381592,0.32208067178726196,-0.09152328968048096
388,-0.8957903219418916,1.230042068331385,3.0510203366999127,-0.2609095871448517,-0.9425028562545776,-0.20884111523628235,-0.7276074886322021,0.9538609981536865,-0.029404323548078537,0.16390949487686157,0.31802165508270264,0.29422926902770996
389,-0.7857661844726229,1.2549706651988581,2.9956297862540535,-0.21970899403095245,-0.9505402445793152,-0.2195473313331604,0.5996681451797485,0.4800243675708771,-0.4019123315811157,-0.10664595663547516,-0.012914896011352539,0.044330671429634094
390,-0.9074620177562018,1.2839491034670445,-3.107093673646812,-0.2229326218366623,-0.9591406583786011,-0.1742132604122162,0.7908979654312134,1.0366164445877075,0.24785754084587097,-0.1967756450176239,-0.3923913240432739,-0.2615624666213989
391,-1.1365814311142117,1.336476901356638,-2.8479234746216897,-0.21063481271266937,-0.9726725816726685,-0.09767817705869675,0.469774067401886,-0.3057320713996887,-0.6159660220146179,0.15002688765525818,-0.20304763317108154,-0.13198184967041016
392,-1.1014478363446274,1.3471136908772607,-2.8911611048726744,-0.19783446192741394,-0.9750871658325195,-0.10033106803894043,-0.2737666070461273,-0.4841371774673462,-0.16711004078388214,0.14841127395629883,0.3990069627761841,0.036656156182289124
393,-1.2608698558121068,1.3349028325769594,-2.790160304774757,-0.2225772738456726,-0.9723058938980103,-0.07127957791090012,0.3227914869785309,-0.6607468128204346,0.5572019219398499,0.07342255115509033,0.5103917121887207,0.11086093634366989
394,-1.1861959885718287,1.314594621582479,-2.923220887046229,-0.23489604890346527,-0.9673594832420349,-0.09507577866315842,-0.6397234797477722,0.029001684859395027,-0.11179042607545853,-0.05386124551296234,-0.013353347778320312,0.047865159809589386
395,-1.287790249690354,1.2714282645101755,-2.953163245238474,-0.28318506479263306,-0.9555230736732483,-0.08235356211662292,-0.06667838245630264,-1.6828176975250244,0.410567045211792,-0.13620278239250183,-0.5558906197547913,0.3383502960205078
396,-1.4141552291466073,1.261817409662906,-2.792430360032824,-0.300363153219223,-0.9526445865631104,-0.04743783548474312,-0.47742530703544617,2.1232028007507324,0.5565812587738037,-0.05029907822608948,-0.22370123863220215,-0.326494038105011
397,-1.2073741983918942,1.248039266165525,-2.9384387163074757,-0.2964661717414856,-0.9483645558357239,-0.11275050044059753,-0.3378736972808838,-0.4703362286090851,-0.5227052569389343,0.08760389685630798,0.3262789249420166,-0.16027504205703735
398,-1.0262474531258277,1.2659719753964271,-3.1389778217296236,-0.2567155659198761,-0.9538996815681458,-0.15547463297843933,-0.7659284472465515,0.8920493125915527,-0.16395999491214752,0.3091753125190735,0.551449179649353,0.6937589645385742
399,-0.8567431629295303,1.281476644275709,3.1370125758575975,-0.21560537815093994,-0.9584382176399231,-0.18684382736682892,0.20235979557037354,0.2063094526529312,-0.2150268405675888,-0.16574227809906006,-0.0701567530632019,-0.3293304443359375
400,-0.9373027406725402,1.283984265640177,-3.0319043327676063,-0.22800415754318237,-0.9591506123542786,-0.16746431589126587,1.0381488800048828,1.1843715906143188,0.2697766423225403,-0.19284850358963013,-0.42579811811447144,-0.30397123098373413
401,-1.332772610385177,1.3449254602204044,-2.637584236456528,-0.21764050424098969,-0.9745994210243225,-0.0528046116232872,0.9494295716285706,-0.2805802524089813,-0.5991054773330688,0.17989031970500946,-0.30811524391174316,-0.0668700784444809
402,-1.488702272575616,1.3530788999339296,-2.461887586810637,-0.21527406573295593,-0.9763930439949036,-0.017712529748678207,0.16751421988010406,-0.4206651449203491,-0.22190552949905396,0.25297850370407104,0.39604026079177856,-0.055041372776031494
403,-1.6479918780283114,1.3311760105062294,-2.40207379138678,-0.23662716150283813,-0.9714281558990479,0.018302934244275093,-0.21595565974712372,-0.925166666507721,0.49998167157173157,0.053399622440338135,0.5936357975006104,0.07755279541015625
404,-1.1824972536891805,1.2793880246397584,-2.913494526113909,-0.2659132480621338,-0.9578402042388916,-0.10877659171819687,-1.2582248449325562,0.1864594668149948,0.12584589421749115,-0.3637407124042511,-0.0624082088470459,-0.037494122982025146
405,-1.311266304850775,1.2398053117944194,-2.7830079398727614,-0.3140968382358551,-0.9457207322120667,-0.0833984762430191,0.5550835728645325,-0.5519376397132874,0.28778550028800964,-0.0671134889125824,-0.6387212872505188,0.2026458978652954
406,-1.333052833970186,1.2465057048525157,-2.8154632924351866,-0.309673935174942,-0.9478769898414612,-0.07504215836524963,-0.5267444849014282,-0.8897279500961304,0.11389535665512085,0.09855329990386963,-0.04331868886947632,-0.5237585306167603
407,-1.192630980855434,1.2551435570858958,-3.0194625924495386,-0.2885027825832367,-0.9505939483642578,-0.11461839079856873,-0.7209300994873047,-0.3528691232204437,-0.29800885915756226,0.045399755239486694,0.3938007354736328,0.025659680366516113
408,-1.003901777990955,1.2521284675185975,-3.1233889841714104,-0.2642926573753357,-0.9496536254882812,-0.16824764013290405,-0.2914578914642334,1.9099352359771729,0.028445368632674217,0.3116864860057831,0.495796263217926,0.5349164009094238
409,-0.8571605158417479,1.266179110207698,3.100689202114715,-0.22674165666103363,-0.9539618492126465,-0.19632889330387115,-0.3930712640285492,0.14511963725090027,-0.4554102122783661,-0.2959023714065552,-0.25262683629989624,0.025262609124183655
410,-0.9311883924970018,1.2909900042509324,-3.0076224503349382,-0.22157903015613556,-0.961108922958374,-0.16484031081199646,0.8142462372779846,0.5559552311897278,0.1628536880016327,-0.22760920226573944,-0.5711175799369812,-0.2944797873497009
411,-1.1777690904965812,1.3251358107725522,-2.8369882925664514,-0.22465428709983826,-0.9699769020080566,-0.09314123541116714,0.9126601219177246,-1.117883563041687,-0.35887277126312256,0.10041722655296326,-0.09096670150756836,-0.13940274715423584
412,-1.4285592070127155,1.3461199525658245,-2.5648059854909504,-0.22054046392440796,-0.9748662710189819,-0.031582310795784,-0.2206905633211136,0.3360929489135742,0.033608753234148026,0.30919405817985535,0.382596492767334,0.0019039548933506012
413,-1.454678406733739,1.336125889471299,-2.545926739949123,-0.23095619678497314,-0.9725910425186157,-0.02693933993577957,0.03291548416018486,-0.43706458806991577,0.4387543797492981,0.13906778395175934,0.567332923412323,0.010993899777531624
414,-1.2669030325540396,1.3198275069876377,-2.864365689524419,-0.23696333169937134,-0.9686722755432129,-0.07431341707706451,-1.1870702505111694,-1.2760233879089355,-0.1640712171792984,-0.19946855306625366,-0.1844649314880371,0.11357426643371582
415,-1.322192941155517,1.2760685487302323,-2.857794349071801,-0.2815493643283844,-0.9568812251091003,-0.0714726522564888,0.6960012316703796,0.1009463369846344,0.43392014503479004,-0.1193600594997406,-0.37933093309402466,0.3055882453918457
416,-1.4708104267095352,1.270026992271643,-2.6882877561586103,-0.2947756350040436,-0.9551088809967041,-0.02957201935350895,-0.0033880164846777916,0.3699319362640381,-0.32961246371269226,0.22780480980873108,-0.12733441591262817,-0.3285975456237793
417,-1.2420962182790931,1.283915773513371,-2.955071912022226,-0.26781225204467773,-0.9591312408447266,-0.09134355932474136,-0.8921892046928406,-0.9139479994773865,-0.4858438968658447,-0.04383322596549988,0.2718602418899536,-0.22077500820159912
418,-1.0092188240274673,1.2636841201305709,3.0635241688504236,-0.25587746500968933,-0.9532105326652527,-0.16098512709140778,-0.4345136880874634,1.6536656618118286,0.10155249387025833,0.13014507293701172,0.5454195141792297,0.5882769823074341
419,-0.8927355298306737,1.2700500016774177,3.090494081211022,-0.23070350289344788,-0.9551156759262085,-0.1858222335577011,0.10072650015354156,0.535544753074646,-0.2895926833152771,-0.11104758083820343,0.011115491390228271,-0.055464968085289
420,-0.9184730277554335,1.2842433627758838,-3.115664946072094,-0.22461305558681488,-0.9592238664627075,-0.17157670855522156,0.9591879844665527,0.8739068508148193,0.3038422167301178,-0.2951165437698364,-0.47252357006073,-0.024437665939331055
421,-1.193773696416602,1.3290700061566625,-2.827499984192979,-0.22256600856781006,-0.9709261655807495,-0.0881282240152359,0.6172032952308655,-0.6833166480064392,-0.49087411165237427,0.11050546169281006,-0.08653837442398071,-0.2139805555343628
422,-1.3932073157345615,1.3579935933916847,-2.6781854430104524,-0.20787818729877472,-0.9774428009986877,-0.037309933453798294,-0.025281205773353577,-0.11749543994665146,0.06513246893882751,0.2174912691116333,0.3451797366142273,0.04336762800812721
423,-1.4081345936751104,1.3355224303006281,-2.692618095385827,-0.23003201186656952,-0.9724505543708801,-0.03775094076991081,-0.048603083938360214,-0.2435610294342041,0.5502335429191589,0.10501675307750702,0.5499652624130249,0.009766343981027603
424,-1.2358075294247177,1.32245667892222,-2.9480162937397667,-0.23213210701942444,-0.9693218469619751,-0.0808071717619896,-0.9945353269577026,-0.8785951733589172,-0.2478334605693817,-0.051940783858299255,0.030662238597869873,0.1967434287071228
425,-1.351937692389557,1.3009367613344418,-2.881244648752839,-0.2602370083332062,-0.9638083577156067,-0.05788224935531616,0.8766428828239441,-0.3926449120044708,0.5698809027671814,-0.2565018832683563,-0.21421599388122559,0.40656083822250366
426,-1.3641872760053417,1.2726931253415406,-2.8159316033175257,-0.2874612510204315,-0.9558953046798706,-0.0602518729865551,-0.024537304416298866,0.7511770725250244,-0.18086908757686615,0.22036832571029663,-0.019782185554504395,-0.4363301396369934
427,-1.3065600179555643,1.2608330309684055,-2.9283189952350988,-0.29443681240081787,-0.9523447751998901,-0.07966364920139313,-0.7468460202217102,-0.22867369651794434,-0.26963305473327637,-0.18029463291168213,0.2081127166748047,-0.29683172702789307
428,-1.0955023831290345,1.2585267909306446,3.117035515837086,-0.2731662690639496,-0.9516387581825256,-0.140583336353302,-0.5605560541152954,1.1140629053115845,0.12810449302196503,0.12926065921783447,0.4090515971183777,0.5132487416267395
429,-0.9213222573044595,1.2445278817497856,3.0744208854548587,-0.25525540113449097,-0.9472449421882629,-0.19383452832698822,0.3283475935459137,1.0995513200759888,-0.10447236150503159,0.05402249097824097,0.25567084550857544,-0.014646291732788086
430,-0.8734872405284327,1.2576407158929872,3.0877809220524246,-0.2361520528793335,-0.9513661861419678,-0.19782428443431854,0.6177452802658081,0.9437244534492493,0.3491109013557434,-0.4002157151699066,-0.4914132356643677,0.19284996390342712
431,-1.0778486538277565,1.2893185253135728,-2.9350283342799184,-0.24470439553260803,-0.9606459736824036,-0.13145039975643158,0.7723627090454102,-0.0646866112947464,-0.3193519413471222,0.12025368213653564,-0.07304549217224121,-0.24269510805606842
432,-1.179168750392831,1.3226797684576361,-2.8236494184331553,-0.22698557376861572,-0.9693766832351685,-0.09373567998409271,0.07199349254369736,0.45306217670440674,0.027011234313249588,0.2718769311904907,0.24759024381637573,0.029053635895252228
433,-1.2191785764979184,1.3255584086322774,-2.770188281236641,-0.22793245315551758,-0.9700796008110046,-0.08361995965242386,0.11443576216697693,0.017867453396320343,0.4637056589126587,0.13192416727542877,0.5261862277984619,0.03921688348054886
434,-1.1153233533625744,1.2860048253481986,-2.8800211868021894,-0.25231441855430603,-0.959720253944397,-0.123589426279068,-0.9722788333892822,-0.23230163753032684,-0.3626655042171478,-0.0952197015285492,0.14789170026779175,0.1567467451095581
435,-1.094248372869044,1.263407561364722,-2.9490948953172973,-0.2688595950603485,-0.9531269073486328,-0.13879366219043732,0.13532109558582306,-0.3558117747306824,0.4911443591117859,-0.3739321827888489,-0.1896800994873047,0.3947140574455261
436,-1.2675946990916926,1.2471080644181698,-2.753434136384692,-0.3035571575164795,-0.9480687379837036,-0.09496716409921646,0.14966706931591034,-0.11923100799322128,-0.0953928530216217,0.2866656482219696,-0.1724299192428589,-0.417438268661499
437,-1.2755061118204547,1.2492090218671656,-2.884544658007201,-0.30239248275756836,-0.9487349390983582,-0.09198272973299026,-0.8099639415740967,-0.699714720249176,-0.2866222560405731,-0.10471197962760925,0.14152973890304565,-0.21043121814727783
438,-1.1020219666416338,1.2384165878495497,-3.0443131303890123,-0.2910941243171692,-0.9452685117721558,-0.1474173367023468,-0.3378257751464844,1.865414023399353,0.19268688559532166,0.1792777180671692,0.4572160243988037,0.4095481038093567
439,-0.900973707756859,1.2200407861262785,-3.07869284350054,-0.26936468482017517,-0.9391133785247803,-0.2133275419473648,0.38773298263549805,1.0913420915603638,-0.21881575882434845,0.046601682901382446,0.18722134828567505,0.07969106733798981
440,-0.8702392683412573,1.2417567170835675,-3.0604798241743842,-0.24703072011470795,-0.9463531374931335,-0.2083064466714859,0.8998208045959473,1.2165658473968506,0.37037375569343567,-0.6081175804138184,-0.36752015352249146,0.3354426622390747
441,-1.1030183756667309,1.2863704247330487,-2.7616936051036487,-0.2504615783691406,-0.9598228931427002,-0.1265265941619873,0.6389461755752563,-0.48965707421302795,-0.3436964750289917,0.13650894165039062,0.009642839431762695,-0.2938377857208252
442,-1.303053611226077,1.3350263641374476,-2.6031311417130163,-0.22526882588863373,-0.9723348021507263,-0.06179787591099739,0.1875571459531784,0.12470155209302902,0.0658336952328682,0.2556796073913574,0.09144490957260132,0.0505216158926487
443,-1.3352216597727988,1.3299548399774592,-2.5946561104923536,-0.2319318950176239,-0.9711375832557678,-0.05567093566060066,0.0194094255566597,-0.2441004514694214,0.5442759394645691,0.1141950935125351,0.4782482385635376,0.01111525297164917
444,-1.2215872859118673,1.2999398802765223,-2.7353061064125184,-0.2514079213142395,-0.963542103767395,-0.09154576808214188,-0.9414492249488831,-0.2859293222427368,-0.40590667724609375,-0.0539509654045105,0.2820998430252075,0.16912144422531128
445,-1.194365338463792,1.2848222743553008,-2.81208666223396,-0.2623406946659088,-0.9593873620033264,-0.10369808971881866,0.2620803117752075,-0.7225943803787231,0.47306498885154724,-0.3567084074020386,-0.4581083655357361,0.40434205532073975
446,-1.3026083385284652,1.2595777092320144,-2.698235836759326,-0.2952725291252136,-0.951961100101471,-0.0811433419585228,-0.14801712334156036,0.11541751027107239,-0.21772105991840363,0.19758576154708862,-0.23120540380477905,-0.509188711643219
447,-1.2460722021722503,1.2681722398978195,-2.8893724509039123,-0.2824512720108032,-0.9545577168464661,-0.09508456289768219,-1.0183448791503906,-0.9882307648658752,-0.4104101359844208,-0.13051265478134155,0.153059184551239,-0.2231680303812027
448,-1.039602517371871,1.253367919348828,3.1352198327714564,-0.26911452412605286,-0.9500412344932556,-0.1581106334924698,-0.39490002393722534,0.9495683908462524,0.06771203130483627,0.10164931416511536,0.4342637062072754,0.3636159896850586
449,-0.8473384881363286,1.2278781901914406,3.1042686641923947,-0.2520166337490082,-0.9417774677276611,-0.22258217632770538,0.567565381526947,1.432426929473877,-0.03116794303059578,0.18234500288963318,0.22203564643859863,0.07933264970779419
450,-0.7945856266330881,1.2484523787376847,3.0971633754428654,-0.22605320811271667,-0.9484955072402954,-0.22193719446659088,0.5620357394218445,0.7852222323417664,0.3900771737098694,-0.49330711364746094,-0.4480040669441223,0.2972393333911896
451,-1.0414054630469567,1.3072689581339172,-2.8678025038331834,-0.22483128309249878,-0.9654771685600281,-0.13154856860637665,0.766797661781311,-0.37257179617881775,-0.45976537466049194,0.11174838244915009,-0.11444848775863647,-0.40060168504714966
452,-1.2500067303971178,1.3612856147787207,-2.711235900549639,-0.1973716914653778,-0.9781327843666077,-0.06557989120483398,0.04757646843791008,0.1639317274093628,0.14046278595924377,0.2624046504497528,0.23309189081192017,0.12969732284545898
453,-1.2909970281789689,1.3537386693653686,-2.661563404496022,-0.20698167383670807,-0.9765353202819824,-0.05947349965572357,0.18882006406784058,0.023047439754009247,0.5871748924255371,0.10378649830818176,0.5054813623428345,-0.00015782564878463745
454,-1.2281311048935393,1.3227507028810561,-2.7467899559558964,-0.23123657703399658,-0.9693940877914429,-0.08249098062515259,-1.0773504972457886,-0.8111395239830017,-0.6876368522644043,-0.12494933605194092,0.21255815029144287,0.05398756265640259
455,-1.1337775911556507,1.2966647088590777,-2.9207578113862582,-0.24526923894882202,-0.9626606702804565,-0.11457595974206924,0.4427925944328308,-0.4229259192943573,0.6530869007110596,-0.457733690738678,-0.30149954557418823,0.5328651666641235
456,-1.3539615595562595,1.2800970766107325,-2.6989063246577287,-0.27991020679473877,-0.9580436944961548,-0.06166372820734978,0.09468618035316467,0.2081308662891388,-0.03680533543229103,0.20514219999313354,-0.26717597246170044,-0.5140045881271362
457,-1.2432987846707133,1.283864350551665,-2.9578721804873176,-0.2679695188999176,-0.9591166973114014,-0.09103760868310928,-0.9048659801483154,-1.1222726106643677,-0.29422861337661743,-0.10988390445709229,0.12513214349746704,-0.22182857990264893
458,-1.0216843394876107,1.2552056709915465,3.0779860179438203,-0.2647489905357361,-0.9506132006645203,-0.16199569404125214,-0.6159260869026184,1.5841072797775269,0.14795920252799988,0.11463302373886108,0.49599289894104004,0.45330125093460083
459,-0.8633459085112626,1.2452758960524875,3.064699241770852,-0.24305638670921326,-0.9474844336509705,-0.207838773727417,0.3110842704772949,0.752158522605896,-0.15846779942512512,0.11794960498809814,0.16504424810409546,0.030531644821166992
460,-0.8528277504229538,1.2545715615399622,3.103658924432522,-0.23421312868595123,-0.9504162073135376,-0.20458053052425385,0.7326449155807495,1.259298324584961,0.4456522464752197,-0.5785157680511475,-0.4141925573348999,0.21030259132385254
461,-1.0463781123707083,1.2825668296895874,-2.924984539091157,-0.246055468916893,-0.9587486386299133,-0.1423291563987732,0.8628809452056885,-0.06543955206871033,-0.2721225917339325,0.11353293061256409,-0.08777529001235962,-0.1902972310781479
462,-1.1700550655370892,1.3252301994305589,-2.8131099778135926,-0.22384504973888397,-0.9699998497962952,-0.09483581781387329,0.09539751708507538,0.19414928555488586,-0.004506400786340237,0.28047043085098267,0.18314987421035767,0.009340763092041016
463,-1.1822145952656615,1.336863530859914,-2.7968502587815043,-0.21452350914478302,-0.9727622866630554,-0.08782549202442169,0.023087676614522934,-0.1902645081281662,0.3622320890426636,0.12321493029594421,0.4611503481864929,0.005855262279510498
464,-1.08760126657183,1.2870000833568,-2.915833794833767,-0.24794575572013855,-0.9599993824958801,-0.1300918459892273,-0.9935742616653442,-0.34194910526275635,-0.29601922631263733,-0.06006811559200287,0.07578319311141968,0.177867129445076
465,-1.0384574230050845,1.2656687562757096,-3.0177067240361595,-0.25884440541267395,-0.9538086652755737,-0.15247569978237152,-0.00041520409286022186,-0.3351370692253113,0.6724202632904053,-0.3064785301685333,-0.4157288074493408,0.2680457830429077
466,-1.268341376979847,1.24551764741115,-2.814121845247537,-0.3050664961338043,-0.9475616812705994,-0.09518933296203613,0.43187806010246277,-0.009894021786749363,0.004864186514168978,0.14190426468849182,-0.3575834631919861,-0.15481066703796387
467,-1.2391197826385738,1.2464620188863962,-2.945907653139096,-0.3013095557689667,-0.9478631019592285,-0.10377077013254166,-0.7316556572914124,-0.7432527542114258,-0.1773890256881714,-0.1290493607521057,0.16160809993743896,-0.35474061965942383
468,-1.052162955148791,1.2274582081146428,3.1284800715026866,-0.29236453771591187,-0.9416362047195435,-0.16686664521694183,-0.3584238588809967,0.9199376106262207,0.1814396232366562,0.08121338486671448,0.4343881607055664,0.18632160127162933
469,-0.856230559529338,1.191371852440681,3.0542816589557287,-0.2797814607620239,-0.9288779497146606,-0.24271011352539062,0.4282473623752594,1.054958701133728,0.03153148293495178,0.24001705646514893,0.27693092823028564,0.13286209106445312
470,-0.8332928242370367,1.215271385748125,3.081866293646606,-0.2576330602169037,-0.9374638795852661,-0.23406529426574707,0.4051467776298523,0.49360164999961853,0.30120620131492615,-0.5199853181838989,-0.5946863293647766,0.32831883430480957
471,-1.0944036262539378,1.2734791401310412,-2.8706962924577697,-0.26033708453178406,-0.9561258554458618,-0.13434289395809174,1.0238351821899414,-0.5045918822288513,-0.23958702385425568,-0.011009961366653442,-0.042790770530700684,-0.39716649055480957
472,-1.4387907250098981,1.3385333430606108,-2.557918314994926,-0.22817781567573547,-0.973147988319397,-0.03029693476855755,0.7248978018760681,0.20277360081672668,0.0475180447101593,0.3138406574726105,-0.07967793941497803,0.047310471534729004
473,-1.4319077486564595,1.3321922422061205,-2.562117688350165,-0.23407119512557983,-0.9716688394546509,-0.03272048011422157,-0.3029783368110657,-0.49081674218177795,0.20809774100780487,0.10666027665138245,0.41188478469848633,-0.08936512470245361
474,-1.3976439058728254,1.2954354689160257,-2.6851591043779672,-0.26782822608947754,-0.9623271226882935,-0.04684419929981232,-0.8204998970031738,-1.4320205450057983,-0.16535122692584991,-0.05994582176208496,0.5260632038116455,0.10679596662521362
475,-1.2582491142538657,1.2875800268992028,-2.920102340177924,-0.26590678095817566,-0.9601616263389587,-0.08592469245195389,0.24535122513771057,-0.7467783093452454,0.33295515179634094,-0.23442888259887695,-0.5446295142173767,0.13321173191070557
476,-1.5041022406599704,1.2520206778392649,-2.694787771917078,-0.31270700693130493,-0.9496198296546936,-0.020886685699224472,0.29119062423706055,0.8065346479415894,0.20897863805294037,-0.04935348033905029,-0.5416215062141418,-0.024996517226099968
477,-1.2807728620540355,1.270435553346595,-2.882113860614564,-0.28350862860679626,-0.9552298188209534,-0.08460984379053116,-1.095726490020752,-0.24599862098693848,-0.41848912835121155,-0.061294227838516235,0.11488252878189087,-0.6441652178764343
478,-1.0394181529203363,1.2542672468477807,3.085046566799594,-0.26834869384765625,-0.9503215551376343,-0.15772725641727448,-0.5208519101142883,-0.4175949692726135,-0.04420830309391022,-0.00467681884765625,0.3441966772079468,0.2522554397583008
479,-0.9154281869352839,1.2497432713212497,3.0055802660456292,-0.2501879632472992,-0.9489036202430725,-0.19232189655303955,-0.14410430192947388,1.2153289318084717,-0.39878740906715393,0.2753649950027466,0.38651055097579956,0.44252029061317444
480,-0.7602977843180462,1.3146468550408663,2.9617724742005263,-0.1745978742837906,-0.967372715473175,-0.18359042704105377,0.3304903507232666,0.6185433864593506,0.004033372271806002,-0.28160935640335083,-0.6148567795753479,-0.16626308858394623
481,-0.8596953971997314,1.335852013807274,3.116722181074883,-0.1763710230588913,-0.9725273251533508,-0.15193389356136322,0.8485835194587708,0.12953466176986694,0.09374076873064041,-0.22336345911026,-0.48664015531539917,-0.3002908229827881
482,-1.1473998701393333,1.3842372156377822,-2.9002999233495,-0.16910098493099213,-0.9826482534408569,-0.0762057900428772,0.5640142560005188,-0.11780983209609985,0.2792765498161316,0.3101685047149658,-0.050463318824768066,-0.0629391074180603
483,-1.1052806308068932,1.35987445484939,-2.8956557284733484,-0.18708336353302002,-0.9778383374214172,-0.09397894889116287,-0.43819308280944824,0.19433872401714325,-0.019123472273349762,0.2642470598220825,0.47188740968704224,0.039856016635894775
484,-1.1501811640269561,1.3477135723573066,-2.911368054527076,-0.20195356011390686,-0.9752200841903687,-0.09033596515655518,0.057118915021419525,-1.2804961204528809,0.3367851674556732,0.040973350405693054,0.28901708126068115,0.13492214679718018
485,-1.1017794791932947,1.3358846751085707,-3.0890378317536804,-0.20762282609939575,-0.9725348949432373,-0.10520865023136139,-0.3799820840358734,-1.2238965034484863,-0.11895303428173065,-0.03599900007247925,-0.34515321254730225,0.1129448264837265
486,-1.3480363294479185,1.287859885039439,-2.9556713496357885,-0.2722785770893097,-0.9602397680282593,-0.06167633458971977,0.3918074667453766,-0.3362604081630707,0.10903558135032654,-0.1913139522075653,-0.541942298412323,0.17805510759353638
487,-1.3547169327002357,1.2982544656101371,-2.8420997018172725,-0.26292091608047485,-0.9630897641181946,-0.05771280825138092,-0.4223034977912903,0.9607723951339722,0.26235365867614746,0.08584266901016235,-0.13427656888961792,-0.6433370113372803
488,-1.197667500792438,1.2962347435060666,-2.9784507941924407,-0.2524687945842743,-0.9625441431999207,-0.09883321821689606,-0.48073291778564453,-0.2989146411418915,-0.08050157129764557,0.04009702801704407,0.3321579694747925,-0.06036172807216644
489,-0.9291637924877146,1.2536766240040744,3.0882192666216515,-0.24981431663036346,-0.9501374959945679,-0.18663237988948822,-1.4393140077590942,1.1061882972717285,-0.1016550064086914,0.24928024411201477,0.4368165135383606,0.5523855686187744
490,-0.8144795615048854,1.2959118126390639,3.0610451291120717,-0.1974339783191681,-0.9624565243721008,-0.18627212941646576,0.14923737943172455,-0.2258983850479126,-0.2663717567920685,-0.2971491515636444,-0.6756507754325867,-0.07453107833862305
491,-0.950326044034566,1.3217283476937292,-3.022169910037588,-0.20055416226387024,-0.9691426157951355,-0.14331986010074615,1.5798115730285645,0.7585493922233582,0.3900589644908905,-0.15970584750175476,-0.5653422474861145,-0.533376932144165
492,-1.3468855368625665,1.3784498798501212,-2.656800638213236,-0.18639077246189117,-0.9815583825111389,-0.04244665801525116,0.838447093963623,-0.37991729378700256,0.050487641245126724,0.33650675415992737,-0.09708541631698608,0.05091524124145508
