,attitude.roll,attitude.pitch,attitude.yaw,gravity.x,gravity.y,gravity.z,rotationRate.x,rotationRate.y,rotationRate.z,userAcceleration.x,userAcceleration.y,userAcceleration.z
0,3.0006643015006627,1.3286701759727582,1.1085596751115587,0.03367829695343971,-0.9708303809165955,0.2373904138803482,-0.16410771012306213,-0.592826247215271,-0.4498130977153778,0.20895171165466309,0.14372777938842773,-0.07787501811981201
1,0.10958825353170891,0.33632920263886085,-2.1248864484434646,0.10324135422706604,-0.33002418279647827,-0.9383097887039185,-0.03303103893995285,-0.21619339287281036,-0.14559578895568848,-0.04820290207862854,-0.02472740411758423,-0.06050002574920654
2,0.08546169718519828,0.34728101749642054,-2.1516913703584977,0.08026198297739029,-0.3403424024581909,-0.9368698000907898,-0.3862898349761963,-0.2762061357498169,-0.4965038299560547,-0.06205826252698898,-0.1369219720363617,-0.27182459831237793
3,0.09552165342230383,0.28951170611667587,-2.1984527500046815,0.09140720963478088,-0.28548428416252136,-0.9540143609046936,-0.15709632635116577,0.33025500178337097,-0.6591833233833313,-0.0021280422806739807,0.20977020263671875,-0.11983811855316162
4,0.1884309016300698,0.28593774047185444,-2.2291074598281497,0.17971225082874298,-0.2820572555065155,-0.9424156546592712,0.5954664349555969,0.856291651725769,-0.04970657452940941,-0.1891269087791443,0.10523837804794312,0.31666797399520874
5,0.3029406749871489,0.35177041559746625,-2.2089238254801327,0.2800598740577698,-0.3445603549480438,-0.896016001701355,0.4464436173439026,2.129441499710083,0.7021368145942688,-0.10871893167495728,0.019532859325408936,0.3601425886154175
6,0.4401918468686015,0.4639556699060991,-2.1514256478194125,0.3810683488845825,-0.4474891126155853,-0.8090367317199707,0.3957962095737457,1.6083698272705078,0.7171030640602112,-0.04931175708770752,-0.08304375410079956,0.1385502815246582
7,0.5749327216982588,0.5645773000423888,-2.056756394535166,0.4593920111656189,-0.5350587368011475,-0.7089930176734924,0.2469721883535385,1.7242883443832397,1.2653526067733765,0.2819562256336212,-0.20554178953170776,-0.32875722646713257
8,0.6731601831522335,0.5707293212156398,-2.0111518767466277,0.524645984172821,-0.5402459502220154,-0.6579369306564331,-0.4884967803955078,1.0787866115570068,-0.38898685574531555,0.20948487520217896,-0.010993123054504395,-0.2078925371170044
9,0.7346817522188372,0.45964288286406735,-1.937904633580825,0.600775957107544,-0.44362807273864746,-0.6650280952453613,-1.2839480638504028,1.2275545597076416,-0.10331188887357712,-0.061866044998168945,0.07120680809020996,0.19682741165161133
10,0.778009562353927,0.4183306983814734,-1.8375506329907008,0.6413401961326599,-0.4062356650829315,-0.6508880853652954,-0.8996421694755554,0.424618124961853,0.7263326644897461,-0.2443980574607849,-0.05107024312019348,0.1394134759902954
11,0.8666474378635113,0.35013944219783616,-1.791268167834985,0.7159185409545898,-0.3430287837982178,-0.6081052422523499,0.09461109340190887,0.504045307636261,-0.7171159386634827,-0.23960018157958984,-0.24345803260803223,0.024532794952392578
12,0.899626638448937,0.3225402318790748,-1.866359568496864,0.7427131533622742,-0.3169768154621124,-0.5898329019546509,-0.05518776550889015,0.07771219313144684,-1.3819820880889893,0.25890427827835083,-0.06975716352462769,-0.3220475912094116
13,0.946941473998188,0.26327088103808455,-1.9099740828286242,0.7836669087409973,-0.2602401077747345,-0.5640400648117065,0.03218081593513489,0.5552047491073608,0.06432564556598663,0.16706246137619019,0.13478237390518188,-0.22856247425079346
14,0.9816980119282599,0.25562598217465166,-1.9169419931614498,0.8044244050979614,-0.25285109877586365,-0.5375570058822632,-0.5536567568778992,0.5743755102157593,-0.20431621372699738,-0.21313118934631348,0.40415728092193604,-0.09559112787246704
15,1.0661685997065462,0.031552109464856315,-1.7729381775932362,0.8749188780784607,-0.03154687583446503,-0.4832409918308258,-3.919914960861206,1.9417831897735596,-2.358315944671631,-0.4325665235519409,0.706519365310669,0.08159911632537842
16,1.4021197223285617,-0.45034771693500425,-1.3897121791463454,0.8875187039375305,0.43527859449386597,-0.1511397659778595,-4.615410327911377,2.2279272079467773,-3.505164623260498,0.17170071601867676,-0.17883938550949097,-0.0021958351135253906
17,1.9263527546192878,-0.6146590826035362,-0.9461889932030983,0.7658708095550537,0.576680064201355,0.28439703583717346,-0.7628876566886902,2.775982618331909,0.31678178906440735,1.1800061464309692,-0.9108476042747498,-0.8453407883644104
18,1.994256377209394,-0.5476198134892034,-1.0820732054686517,0.7783552408218384,0.5206565856933594,0.35082733631134033,1.7197767496109009,1.2784943580627441,0.9762951135635376,0.33697062730789185,-0.30999380350112915,-0.14162936806678772
19,1.8224857845296165,-0.6258401933501638,-1.450406036410324,0.7849357724189758,0.5857784152030945,0.20184019207954407,2.5911295413970947,0.6438077092170715,-1.3933002948760986,-0.35045701265335083,0.8730838298797607,0.4843170642852783
20,1.7479685643358172,-0.8113400056555503,-1.379444938936768,0.6777490973472595,0.725210428237915,0.1213507205247879,1.7878872156143188,0.8576102256774902,-1.8341091871261597,-0.4005884528160095,-0.6979429721832275,-0.307614803314209
21,1.788328667873226,-1.0232509020195035,-1.4578070453440681,0.508324384689331,0.8538049459457397,0.1123548299074173,0.6090841293334961,-0.30866482853889465,-0.5421184301376343,-0.10616368055343628,0.1093146800994873,-0.08017407357692719
22,1.6447559417132207,-1.1551373930363424,-1.5411786752171432,0.40268877148628235,0.9148504734039307,0.029837127774953842,0.9403910040855408,-1.103412389755249,-2.8337535858154297,0.5309965014457703,0.31940239667892456,-0.13152170181274414
23,1.6985508264644846,-1.2304735205033126,-1.3617795022346666,0.3310714066028595,0.9426469802856445,0.04252748191356659,-0.36998531222343445,-1.989242672920227,1.4222157001495361,-0.339448481798172,-0.5976762771606445,-0.010865449905395508
24,1.963579344787613,-1.1386281456130105,-1.0987996948944692,0.38694530725479126,0.9080597758293152,0.16031605005264282,-0.25612640380859375,-1.178967833518982,1.4436267614364624,-0.1324133574962616,3.1518616676330566,0.42299705743789673
25,2.0042938714222083,-1.1732103601229047,-0.9559076522261214,0.3513788878917694,0.9219983816146851,0.16263960301876068,-1.425884485244751,-1.238116979598999,-1.205148696899414,-0.10458329319953918,-0.3144545555114746,-0.10987474024295807
26,2.015170265031333,-1.2473849893413234,-0.8812813859431059,0.28693780303001404,0.9481568336486816,0.1366211175918579,2.2206599712371826,-1.6532998085021973,-1.3201007843017578,0.4643591642379761,0.31141042709350586,-0.7078186273574829
27,1.6326329142408655,-1.2873047643214541,-1.314174469861526,0.2791752815246582,0.9600846767425537,0.017285283654928207,0.18402062356472015,0.2349550724029541,-0.3660776913166046,0.13626053929328918,0.6365340948104858,0.24890434741973877
28,1.464040885460541,-1.3173472980599927,-1.5341082953015457,0.24931691586971283,0.9680533409118652,-0.02671751193702221,0.5583675503730774,1.7488889694213867,0.10341886430978775,0.15511728823184967,0.32941675186157227,0.47923219203948975
29,1.6893081643592582,-1.360500806250855,-1.427037451338555,0.20728452503681183,0.9779692888259888,0.02468132972717285,-1.447767734527588,-1.848305344581604,0.027661290019750595,0.19704285264015198,-0.6495391130447388,-0.5679094791412354
30,1.6952109103866655,-1.3181471888594296,-1.1750673881235734,0.24803778529167175,0.9682536125183105,0.03101973421871662,0.06802680343389511,0.32141345739364624,-0.0332505963742733,0.04758599400520325,-0.6289896965026855,0.4495711326599121
31,1.8793042392297836,-1.3336382622128955,-0.9584872375082408,0.22384898364543915,0.9720095992088318,0.07133688777685165,-0.38623327016830444,-0.5606549382209778,-0.06185734644532204,0.13052113354206085,0.2835140824317932,-0.2643148899078369
32,1.794864306051205,-1.3427277226143934,-1.0494093001416962,0.22044460475444794,0.9741048812866211,0.05023816600441933,1.0639336109161377,1.3200552463531494,-0.18102772533893585,0.09883028268814087,0.7554787993431091,0.3836606740951538
33,1.7790957285210602,-1.353454124913473,-1.2305447599645774,0.21097438037395477,0.9764739871025085,0.04459264874458313,-0.33483588695526123,0.4508547782897949,0.017433686181902885,-0.22203700244426727,0.06602174043655396,0.19521450996398926
34,2.0833710493286577,-1.3658524839166277,-0.8803020299089674,0.17735759913921356,0.9790723919868469,0.09980690479278564,-0.6308255195617676,-0.8349250555038452,-0.4415739178657532,-0.000523492693901062,-0.5882948637008667,-0.20684731006622314
35,2.5884054266268,-1.3555316510327187,-0.36242303986891733,0.11222898215055466,0.9769198894500732,0.18174760043621063,-0.9710395336151123,-0.6293585300445557,-1.2771661281585693,-0.5065008401870728,-0.27403903007507324,-0.5699617862701416
36,-2.8066364933171792,-1.353008891944607,0.6417227271416855,-0.0710279792547226,0.9763779044151306,0.20406119525432587,0.7397831082344055,1.2330491542816162,-0.33420637249946594,0.3214704990386963,0.12576431035995483,-0.05640187859535217
37,-1.5626593843704097,-1.4980289708813053,1.7873809482696315,-0.07270058244466782,0.9973536133766174,-0.0005915735382586718,2.2612106800079346,1.4577209949493408,-0.45850279927253723,0.04077920317649841,0.5522679090499878,0.6242030262947083
38,-0.9337316106384559,-1.4900213178601045,2.4017111742170947,-0.06486071646213531,0.9967394471168518,-0.047996364533901215,0.17273183166980743,0.6597885489463806,-0.1059538871049881,-0.009831048548221588,-0.03128534555435181,0.3254927396774292
39,-1.101856764331547,-1.4966232997306377,2.156056656961389,-0.06610673666000366,0.9972504377365112,-0.0334918238222599,-1.7078971862792969,-0.17844846844673157,0.20736835896968842,-0.05236251652240753,-0.5683867931365967,-0.2887279987335205
40,-2.7622549406398336,-1.423632790138616,0.49096817628204253,-0.054299045354127884,0.9891909956932068,0.13620902597904205,0.14597278833389282,-0.888599693775177,0.3335064649581909,-0.0070260316133499146,-0.4926546812057495,-0.17269277572631836
41,2.7392764893753654,-1.4559372401461996,-0.38502084107492207,0.044873930513858795,0.9934109449386597,0.105455182492733,0.6342054009437561,2.151859760284424,1.3910558223724365,0.5680563449859619,0.7173433303833008,-0.6112536191940308
42,2.2459486412781198,-1.5030757306498275,-0.8566874832201605,0.0528235137462616,0.9977078437805176,0.0422944612801075,0.5122900009155273,-0.1594133973121643,-0.4977668225765228,-0.029675930738449097,0.16231107711791992,0.27493584156036377
43,1.8388949393809768,-1.5146125306045892,-1.3554531381907144,0.05414975434541702,0.9984220862388611,0.014875597320497036,0.016110721975564957,1.310533046722412,0.10266101360321045,-0.2695122957229614,-0.20449203252792358,0.006517171859741211
44,1.9293504089724163,-1.5268481144641528,-1.2729063255009823,0.04114192724227905,0.9990344047546387,0.01541806012392044,-0.05112825334072113,-1.0224030017852783,-0.12969018518924713,0.038188520818948746,-0.5371965765953064,-0.08983516693115234
45,2.6142603938119184,-1.481337635547729,-0.44675075633266254,0.04495833069086075,0.9960012435913086,0.07720302045345306,-1.14036226272583,-2.104813575744629,0.18923607468605042,0.23938921093940735,-0.053053855895996094,-0.21288418769836426
46,2.247300180186222,-1.4400375408942427,-0.6048264216640283,0.10167093575000763,0.9914632439613342,0.08163110911846161,0.8454058170318604,0.3849716782569885,1.015195369720459,0.10882405936717987,0.27854102849960327,-0.294979453086853
47,1.2922039864417845,-1.3859694008700874,-1.6193104845624469,0.17669108510017395,0.9829680919647217,-0.050539106130599976,1.538596510887146,-2.5777831077575684,-0.05714670941233635,-0.08674050867557526,0.6137117147445679,0.08029370754957199
48,0.9975808764162236,-1.4276843011902123,-1.5481397079257833,0.11982760578393936,0.9897769689559937,-0.07735045254230499,-1.1692783832550049,-0.7230125069618225,0.5886527299880981,0.38186609745025635,-0.47503697872161865,0.5180700421333313
49,1.8589033166248814,-1.421596891980804,-0.6614342490435084,0.14252027869224548,0.9888904094696045,0.04223622381687164,-1.6890249252319336,2.5184645652770996,0.09806614369153976,-0.32768571376800537,-0.596815824508667,0.06526196002960205
50,2.5738341231685906,-1.398666471658095,-0.20131915356204014,0.09210536628961563,0.9852222204208374,0.14440861344337463,0.8640308976173401,1.191533088684082,-0.5508847236633301,-0.25717493891716003,0.0790477991104126,-0.6638787984848022
51,2.416454133083746,-1.46277399816811,-0.37778090388739766,0.07150651514530182,0.9941712617874146,0.08068887144327164,0.9152930378913879,0.4561757743358612,-0.11444322764873505,0.4875602722167969,0.621246337890625,0.12922632694244385
52,1.3087094066549896,-1.4909735172996315,-1.4781046925871457,0.07701683789491653,0.9968158602714539,-0.020660337060689926,0.2691017687320709,-0.2652086913585663,0.4626414477825165,-0.18964195251464844,0.2103223204612732,0.06382745504379272
53,1.4600857784493921,-1.4802500026365986,-1.1869524581546227,0.08986956626176834,0.995903491973877,-0.009990358725190163,-0.29681044816970825,-1.7978957891464233,-0.014617862179875374,-0.036433279514312744,-0.631676197052002,-0.04666554927825928
54,1.377401758014248,-1.46510393126838,-1.13738667559945,0.1035299077630043,0.9944197535514832,-0.020275533199310303,0.14426636695861816,-0.9703819155693054,0.1909337192773819,0.06251625716686249,-0.6763349175453186,-0.0439029335975647
55,1.5666809964770807,-1.4764872940798461,-0.9144057933224106,0.09416891634464264,0.9955561757087708,-0.00038753836997784674,-0.44660770893096924,0.5804281830787659,-0.10117573291063309,0.04660865664482117,0.9309574961662292,-0.2345978021621704
56,0.911249808974646,-1.4166285669924992,-1.597829485097005,0.12135229259729385,0.9881396889686584,-0.09409396350383759,2.1090121269226074,-2.3221752643585205,-0.29963216185569763,0.028839945793151855,0.5858502388000488,0.1062246561050415
57,0.8530050671626798,-1.4499127308363362,-1.5697070474058372,0.09083415567874908,0.9927024841308594,-0.07931344956159592,-0.7007800340652466,0.9046401381492615,0.016757065430283546,0.28328078985214233,-0.1486932635307312,0.25605595111846924
58,1.2797501601970445,-1.4504694386664887,-1.1433315187058872,0.11498882621526718,0.9927694797515869,-0.03444518521428108,-1.423875093460083,1.7597935199737549,0.6074671149253845,-0.3103318512439728,-0.6460134983062744,-0.04096376895904541
59,1.9526024256112524,-1.4490317733091889,-0.6719285215523274,0.1127188578248024,0.9925958514213562,0.0452575758099556,0.6169358491897583,1.6553325653076172,-0.3120277225971222,-0.1259482055902481,-0.17734915018081665,-0.1256103515625
60,2.282362967861092,-1.4545592061380266,-0.43729343443237934,0.0878322571516037,0.9932520389556885,0.07573392987251282,0.29461443424224854,1.77489173412323,-0.07811009138822556,0.3159763216972351,0.4316593408584595,-0.48282313346862793
61,1.3699389933005564,-1.4980184057113513,-1.2723090186956367,0.07125168293714523,0.9973528385162354,-0.01450703851878643,0.3451938033103943,-1.8549907207489014,0.30196622014045715,-0.11542586982250214,0.09784674644470215,0.131725013256073
62,1.2989855055912645,-1.4654973219501786,-1.2139125755489106,0.1012464240193367,0.994461178779602,-0.028218252584338188,-0.1639406383037567,-0.5719436407089233,-0.20923247933387756,-0.2245221585035324,-0.1986083984375,0.10910511016845703
63,1.34124707213951,-1.4849803734339897,-1.1908118099355511,0.08346203714609146,0.9963200688362122,-0.01950240321457386,0.04979824274778366,0.40863725543022156,-0.07930754125118256,-0.01910044252872467,-0.5315068960189819,-0.02146744728088379
64,1.547842394630319,-1.4986926310770146,-0.9643798378187096,0.07202192395925522,0.9974016547203064,-0.0016534768510609865,-0.9687613844871521,-0.036142271012067795,0.15627776086330414,0.12145951390266418,-0.025416851043701172,-0.06421869993209839
65,2.0395893704682697,-1.4626950374662182,-0.6555119640347974,0.09625077247619629,0.9941627383232117,0.048746053129434586,1.4196181297302246,1.9509038925170898,0.24146509170532227,0.1653459221124649,0.5088279843330383,-0.7516574859619141
66,1.2807123307214903,-1.4708638253594022,-1.194109209239253,0.09559837728738785,0.9950109124183655,-0.02853652462363243,-0.8280754089355469,-2.394441843032837,0.06731213629245758,0.14993080496788025,0.02325385808944702,0.7902247309684753
67,1.4808210076353379,-1.4684386312728877,-1.0290280004010055,0.10176648944616318,0.9947659969329834,-0.00918126106262207,-0.057977207005023956,0.812981367111206,0.30045661330223083,0.09966480731964111,-0.3448025584220886,0.05282139778137207
68,2.263465869390242,-1.4108252914789994,-0.5238586896652262,0.1225801557302475,0.9872319102287292,0.10172118246555328,-0.6199749112129211,2.478527545928955,-0.07839714735746384,-0.09763205051422119,-0.4393041133880615,-0.4097656011581421
69,2.3829083812996794,-1.4343895207808421,-0.4182521252472111,0.09355245530605316,0.9907110333442688,0.09868920594453812,-0.17931696772575378,-0.6069280505180359,-0.336711585521698,0.04475320130586624,0.2289239764213562,0.0017899200320243835
70,2.3669080741881467,-1.4714367237402943,-0.5008659915740978,0.06938551366329193,0.9950678944587708,0.07088840752840042,1.0230717658996582,0.1980491429567337,-0.15973085165023804,0.15978622436523438,0.5485567450523376,0.10330592095851898
71,1.7733690021999953,-1.4725318050804908,-1.1346994732730806,0.0961005762219429,0.9951758980751038,0.019738081842660904,0.10038936883211136,0.6948130130767822,0.8129642605781555,-0.2509315013885498,0.10832440853118896,0.1168433427810669
72,1.8366105940559654,-1.4508605750054662,-1.073108580001858,0.11544769257307053,0.9928163290023804,0.03143144026398659,-0.08123046159744263,-0.40580567717552185,-0.16462302207946777,-0.13153043389320374,-0.4669525623321533,-0.10337662696838379
73,1.6726064116370032,-1.473645987535088,-1.1917097855968846,0.09649552404880524,0.9952846169471741,0.009858302772045135,0.35166579484939575,-0.6695622205734253,-0.24832114577293396,0.03233443200588226,-0.4710841774940491,-0.13778793811798096
74,1.8059796496866225,-1.4952485420040593,-0.9284089099107324,0.07339875400066376,0.9971476197242737,0.017587630078196526,-0.8176777958869934,-0.9877225756645203,-0.12594477832317352,0.19157011806964874,0.4868306517601013,-0.17135047912597656
75,1.064273589318374,-1.470953531671911,-1.7216433626250787,0.08716116100549698,0.9950198531150818,-0.04835721105337143,1.25320565700531,-1.518418788909912,0.1734175682067871,0.12749947607517242,0.8052578568458557,-0.08415007591247559
76,1.0097065497647126,-1.4657244743992086,-1.5758751950168086,0.08879803121089935,0.9944850206375122,-0.05580678582191467,-0.7051994800567627,0.5557437539100647,0.20864439010620117,0.30457353591918945,-0.023568332195281982,0.8084618449211121
77,1.3656777264315638,-1.4444931209226557,-1.2233672092016294,0.12332673370838165,0.992034375667572,-0.025657454505562782,-0.7166414856910706,-0.29296353459358215,0.4702688157558441,-0.08711764961481094,-0.450896680355072,-0.03452324867248535
78,2.2347945272850986,-1.377862883332888,-0.452593308822166,0.15100055932998657,0.9814460277557373,0.11816266924142838,0.001132188830524683,0.5549085736274719,-0.24952661991119385,-0.3653102517127991,-0.3315895199775696,-0.4123063087463379
79,2.089171332464252,-1.4382181681412143,-0.6048805659666523,0.11482366174459457,0.9912244081497192,0.06549612432718277,-0.16758625209331512,1.941907286643982,-0.22017240524291992,0.21829096972942352,0.46574580669403076,0.032160043716430664
80,1.6420369906575953,-1.4946313737535297,-1.0844720374547907,0.07589828222990036,0.997100830078125,0.005416210275143385,1.0585308074951172,-1.224918246269226,-0.3427483141422272,0.11888015270233154,0.3500213027000427,0.30485594272613525
81,1.474869205231098,-1.4582310945193662,-1.193322555379993,0.11181151121854782,0.9936712384223938,-0.010758777149021626,-0.08847992867231369,-1.0521098375320435,0.3494306206703186,-0.2828778028488159,-0.0693395733833313,-0.08650076389312744
82,1.556038796140326,-1.4732260443641458,-1.022084017267509,0.0974048599600792,0.9952437877655029,-0.0014375596074387431,-0.5734046101570129,-0.43797168135643005,-0.054460182785987854,-0.04291573166847229,-0.6607100963592529,-0.003521561622619629
83,1.5065210628287047,-1.481648926221775,-0.9674494594010161,0.08884628862142563,0.9960290193557739,-0.005718495696783066,0.11666414141654968,-0.9136755466461182,-0.1020287424325943,0.2615412771701813,-0.17715072631835938,-0.07341355085372925
84,1.5399451210459505,-1.460679745640237,-0.9638558820022702,0.10984184592962265,0.9939432740211487,-0.003389829071238637,0.7648121118545532,1.1091350317001343,0.3309438228607178,-0.09049371629953384,0.563567042350769,-0.462857723236084
85,1.138637020631232,-1.4474672621985085,-1.3098808818173002,0.11170685291290283,0.992404580116272,-0.05152334272861481,-0.27016571164131165,0.5711103081703186,0.2875474691390991,0.21112334728240967,0.03451186418533325,0.6409093141555786
86,1.0663135858014463,-1.430704909312752,-1.503948038848688,0.1222384124994278,0.9902032613754272,-0.06749240309000015,0.5134706497192383,1.7703343629837036,0.2497032731771469,0.1271054446697235,-0.267333447933197,0.15776342153549194
87,1.5204661789622038,-1.4440261240190195,-1.1216712629506158,0.12627066671848297,0.9919754266738892,-0.006360593251883984,-1.135509967803955,0.13421601057052612,-0.11004050076007843,-0.22533074021339417,-0.5399032831192017,-0.08474963903427124
88,2.207026021392065,-1.4513753891268808,-0.4220984048102029,0.09582805633544922,0.9928777813911438,0.07078816741704941,-0.05187733471393585,0.32875803112983704,-0.6054597496986389,-0.019305214285850525,0.23838454484939575,-0.2887599468231201
89,2.358039180259228,-1.5188267779741325,-0.33123173145240403,0.03666505217552185,0.9986498951911926,0.0368005707859993,0.7770845890045166,0.9960379004478455,-0.5843576192855835,0.40591612458229065,0.49561285972595215,-0.08381295204162598
90,1.669143376519876,-1.511981494617288,-1.0445887204337965,0.05849786475300789,0.9982709288597107,0.005771712865680456,0.04692717641592026,-0.06949249655008316,0.9870266318321228,-0.1637682467699051,0.2651262879371643,0.062129855155944824
91,1.6331017634889073,-1.464333060327452,-1.0430493186354393,0.10605762153863907,0.9943381547927856,0.006616530008614063,-0.060744509100914,0.029114006087183952,-0.2503361403942108,-0.25876757502555847,-0.4135274887084961,-0.03745448589324951
92,1.6935001774927354,-1.480469113382178,-0.9039500582397269,0.08952663093805313,0.9959232807159424,0.011040729470551014,-0.22777089476585388,-1.4472848176956177,-0.1632937788963318,0.08820775151252747,-0.5415164828300476,-0.030312538146972656
93,1.922893034069881,-1.4775100997742054,-0.4907028386834584,0.08743651211261749,0.9956520199775696,0.03212473541498184,-0.4406547248363495,-0.5325508117675781,0.430522620677948,0.015606097877025604,0.3886405825614929,-0.16660046577453613
94,1.3925045629763126,-1.435870569438998,-1.0027770010722918,0.13238444924354553,0.9909113049507141,-0.023856377229094505,0.8276416659355164,-1.1380741596221924,0.2632436752319336,0.08065876364707947,0.4036352038383484,0.29460835456848145
95,1.1711723540030312,-1.4242249390701867,-1.3625855231167867,0.1345391571521759,0.9892776012420654,-0.05682262033224106,1.3774410486221313,1.9667494297027588,-0.25169646739959717,0.1410803496837616,0.16855919361114502,0.17841988801956177
96,1.155926277001086,-1.4413011040169719,-1.3987608011872945,0.1181790828704834,0.9916272163391113,-0.05205003172159195,-0.9715290069580078,-1.2228646278381348,-0.3104249835014343,-0.050552114844322205,-0.5282940864562988,-0.02665477991104126
97,1.7596541571097144,-1.4710809779001717,-0.7732715356866783,0.09778054058551788,0.995032548904419,0.0186893492937088,-0.18617582321166992,0.848107635974884,-0.26204681396484375,-0.1800559163093567,-0.15535664558410645,-0.2582828998565674
98,1.9417075002966504,-1.5062851783725817,-0.613740706368554,0.060084156692028046,0.9979198575019836,0.023367436602711678,0.3369624614715576,1.3105703592300415,-0.5435743927955627,0.31029245257377625,0.35019421577453613,-0.21622323989868164
99,1.0222111360839288,-1.5149387566907555,-1.5492155228072417,0.047635674476623535,0.9984403848648071,-0.029113031923770905,-0.12208973616361618,-0.18344184756278992,0.514409601688385,-0.009305600076913834,0.3060181736946106,0.2103874683380127
100,1.6128365949909058,-1.4520598575687582,-0.9298669800203899,0.11835337430238724,0.9929590821266174,0.0049785408191382885,-0.14150948822498322,0.2839641869068146,-0.04476821422576904,-0.36995553970336914,-0.02314096689224243,0.009166359901428223
101,1.5454938541910364,-1.4754109087667304,-0.97902122925704,0.09520982205867767,0.9954542517662048,-0.002409558277577162,-0.17589619755744934,-1.281291127204895,-0.15513834357261658,-0.047251470386981964,-0.5980544090270996,-0.04449594020843506
102,1.9549220760682655,-1.4900078360352373,-0.4049653281512566,0.07482022792100906,0.9967383742332458,0.03024267964065075,-0.35984158515930176,-0.6414596438407898,0.026372594758868217,0.31015902757644653,-0.17029190063476562,-0.2170712947845459
103,1.176683817063659,-1.4701086497838582,-1.2091145126235874,0.09281180053949356,0.9949352741241455,-0.03859768807888031,0.7927126288414001,-0.32275164127349854,0.24262776970863342,0.11289193481206894,0.7967669367790222,-0.088126540184021
104,1.2078494997877784,-1.4663849764186643,-1.21964200731108,0.09743081033229828,0.9945541024208069,-0.037001390010118484,0.8325783610343933,1.2019588947296143,-0.09121666103601456,0.11986957490444183,0.12379294633865356,0.3225390911102295
105,0.8863735644514709,-1.4481077682004875,-1.6349732102049377,0.09481944143772125,0.9924831986427307,-0.07737290859222412,-1.053403377532959,-0.6598976850509644,0.084067203104496,0.10404835641384125,-0.3990536332130432,-0.005268692970275879
106,1.6444393537017588,-1.4742248830528946,-0.7850986118309987,0.09616045653820038,0.9953405857086182,0.0070943767204880714,-0.5960394144058228,0.3082510828971863,0.06334871053695679,-0.2750850021839142,-0.49669861793518066,-0.0707082748413086
107,1.6459443836112708,-1.498539858068489,-0.8577814491187022,0.07199082523584366,0.997390627861023,0.0054201772436499596,-0.0034512095153331757,-0.4387408196926117,-0.2950730323791504,0.06826797127723694,0.14555370807647705,-0.11157560348510742
108,1.2909042741373538,-1.5335192402858915,-1.2838895777272146,0.0358191579580307,0.9993053078651428,-0.010295768268406391,0.6083104014396667,1.365156650543213,0.0026286127977073193,0.4352196753025055,0.5308002829551697,0.18264377117156982
109,1.5274454068571561,-1.4660956014780884,-1.0681232417841808,0.1044115200638771,0.9945238828659058,-0.004529173020273447,-0.6591439843177795,-1.3708552122116089,1.2383171319961548,-0.346492201089859,0.31715214252471924,0.011960208415985107
110,1.6896795646834293,-1.441044292084287,-0.8554265329101023,0.12847480177879333,0.9915940165519714,0.015345863997936249,0.053497109562158585,0.6792632937431335,-0.34008121490478516,-0.23626288771629333,-0.5470444560050964,-0.011836291290819645
111,1.5605149589249208,-1.487447964088157,-0.9976314654840056,0.08324790745973587,0.9965285062789917,-0.0008559324778616428,0.1645621955394745,-1.1871635913848877,-0.6077562570571899,0.15228675305843353,-0.4491347074508667,-0.1661362648010254
112,1.8528127612376644,-1.5069381737418315,-0.5493639129985007,0.061292219907045364,0.9979617595672607,0.01775873266160488,0.08798880130052567,0.1537240594625473,0.27590715885162354,0.03436513990163803,0.6021815538406372,-0.24250543117523193
113,0.9364742682723645,-1.4622655624690157,-1.4859562765960592,0.08724769204854965,0.9941163063049316,-0.06419295817613602,0.5089950561523438,-1.2673901319503784,0.02231636829674244,0.05372825264930725,0.5070433616638184,0.2781364321708679
114,0.9801158301684766,-1.4699936082373934,-1.4925187378133709,0.08358123898506165,0.9949237108230591,-0.05604470521211624,0.6570460200309753,-0.41035932302474976,-0.2890085279941559,0.18979522585868835,0.022898554801940918,0.16224586963653564
115,1.2781303176659398,-1.470944956623356,-1.1537472104607627,0.09544555842876434,0.9950190186500549,-0.028759514912962914,-1.1588488817214966,-0.8789029717445374,0.2760728597640991,-0.03390686213970184,-0.423012912273407,-0.03250449523329735
116,2.314741673294891,-1.4228906571494828,-0.19189791868411638,0.10843220353126526,0.989081859588623,0.0997956246137619,-0.010145816951990128,2.136025905609131,-0.14418627321720123,-0.25560325384140015,-0.24565857648849487,-0.29631364345550537
117,2.1915434266310987,-1.462859792293868,-0.3263699465478055,0.08762919157743454,0.9941805005073547,0.0626581609249115,-0.5041290521621704,1.0796879529953003,-0.30740174651145935,0.20630085468292236,0.5128079056739807,0.1422520875930786
118,1.9872221242712085,-1.498940733729375,-0.6154246854535427,0.06565999984741211,0.9974194765090942,0.02904091589152813,0.18120746314525604,-0.0879708006978035,0.03141411021351814,-0.009889103472232819,0.3433551788330078,0.3207210302352905
119,2.0005721671895937,-1.4540629128816696,-0.6462501540364429,0.1058761402964592,0.9931944012641907,0.04852830246090889,-0.28763347864151,0.47462329268455505,-0.028868060559034348,-0.2843887209892273,-0.022018373012542725,-0.08723986893892288
120,1.9088732467631218,-1.4700000820185082,-0.7738132068690349,0.09493035078048706,0.9949243664741516,0.033375103026628494,0.625771164894104,-0.08474943786859512,-0.04383734241127968,0.008417442440986633,-0.5789697766304016,-0.08357656002044678
121,1.4987592564028185,-1.491830815864877,-1.1416412976894883,0.07867761701345444,0.9968838691711426,-0.005677529610693455,-0.323184609413147,-1.113654613494873,-0.2360820323228836,0.017193354666233063,-0.32986122369766235,-0.14669674634933472
122,2.2128695480572964,-1.4724284506632779,-0.2879783988318601,0.07865083962678909,0.9951657652854919,0.05881284177303314,0.04058488458395004,1.3679728507995605,0.48577582836151123,0.04914151877164841,0.616208016872406,-0.26172423362731934
123,1.2500516687574257,-1.455141926367219,-1.2410892370560658,0.10951224714517593,0.9933194518089294,-0.03638172522187233,0.6692295670509338,-1.98977530002594,0.31989169120788574,-0.08032216131687164,0.6365023851394653,0.42162036895751953
124,1.4632412570608437,-1.4573949026135842,-1.0185476287056605,0.1125040352344513,0.9935769438743591,-0.012147256173193455,0.438559353351593,1.221512794494629,0.07939894497394562,0.1186055913567543,-0.1377267837524414,0.23422366380691528
125,1.5568340810300563,-1.4517038314921746,-1.0976617297986373,0.11879969388246536,0.9929168820381165,-0.00165881821885705,-1.0255794525146484,2.25547194480896,-0.0911862924695015,-0.14606714248657227,-0.534985363483429,-0.09541761875152588
126,2.4687076379749215,-1.4155597640206652,-0.3353927598215039,0.09636171907186508,0.987975001335144,0.12091150134801865,0.672633171081543,-0.0780966505408287,-0.13479872047901154,-0.033953286707401276,-0.3106374740600586,-0.3379221260547638
127,2.3832219645403456,-1.447959373998665,-0.4348282045409683,0.08426789939403534,0.9924650192260742,0.08895070105791092,-0.019285868853330612,1.6344021558761597,-0.23642094433307648,0.31285732984542847,0.5048646926879883,-0.06313276290893555
128,1.9647168231020289,-1.4979981721407012,-0.9680135027784158,0.06716346740722656,0.9973514080047607,0.02791617624461651,0.675540030002594,0.7415947914123535,0.006488370709121227,0.016530998051166534,0.42009854316711426,0.36344122886657715
129,1.9934870587369906,-1.4746051089768664,-1.0091967926088703,0.08759048581123352,0.9953771829605103,0.03939852863550186,-0.29263317584991455,-0.37336376309394836,-0.277255117893219,-0.3499806225299835,-0.050552964210510254,-0.2274782657623291
130,1.9898568530964562,-1.486368869847604,-1.003122883161634,0.07702970504760742,0.9964381456375122,0.03431259095668793,0.5347972512245178,-0.39681264758110046,-0.027446197345852852,-0.01994658261537552,-0.5872127413749695,-0.14167344570159912
131,1.1968339676645243,-1.5070218266704936,-1.6695567388368462,0.05932806059718132,0.9979671239852905,-0.02328203059732914,-0.009152517654001713,-2.203272581100464,-0.40338754653930664,0.08273127675056458,-0.24978280067443848,-0.12117290496826172
132,1.6265725483358826,-1.5210028986953985,-1.0944308248166688,0.049696844071149826,0.9987605810165405,0.002774780383333564,1.0598751306533813,2.465759038925171,0.5196563005447388,0.23820599913597107,0.703387975692749,-0.3317389488220215
133,0.9638244621451507,-1.4665003498199345,-1.7683727695085207,0.08551191538572311,0.9945660829544067,-0.05938127264380455,-0.06731974333524704,-2.1393723487854004,0.21632838249206543,-0.07586834579706192,0.32837098836898804,0.31357741355895996
134,1.012331173224898,-1.4765005891276894,-1.6375673416654108,0.07985188812017441,0.995557427406311,-0.04989253357052803,0.3535049855709076,1.0009939670562744,0.1496865451335907,0.1289646327495575,-0.20518267154693604,0.2624779939651489
135,1.5668323784096003,-1.4715091421530924,-1.1787625487329167,0.09912265092134476,0.9950750470161438,-0.0003929191152565181,-0.9803478717803955,0.8566389083862305,0.07725133746862411,-0.09961095452308655,-0.5344275832176208,-0.054233551025390625
136,2.3979103950838696,-1.4304731179662418,-0.36350738453935144,0.09468742460012436,0.9901708364486694,0.1029362604022026,-0.20992691814899445,-0.5248432159423828,-0.585954487323761,-0.20705315470695496,-0.04638427495956421,-0.3106389045715332
137,2.6067895169821975,-1.451579142090619,-0.17538341266607024,0.060617681592702866,0.9929020404815674,0.10232778638601303,0.5604826807975769,0.9850003719329834,-0.10397688299417496,0.18701720237731934,0.45108288526535034,-0.4501519203186035
138,1.675114962195184,-1.4975389741574696,-1.0975891220174556,0.07279620319604874,0.9973178505897522,0.007621667813509703,0.36623135209083557,0.21381545066833496,0.5110576748847961,-0.11640580743551254,0.17431306838989258,0.2708970308303833
139,1.78304580674987,-1.452558795389895,-1.0045300538935986,0.11531447619199753,0.9930180907249451,0.024849722161889076,-0.20638413727283478,-0.03328866511583328,-0.0019767528865486383,-0.17479324340820312,-0.31478023529052734,-0.0915917158126831
140,1.6435534055829017,-1.4631358480793388,-1.1244123249733728,0.10716813057661057,0.9942101836204529,0.00781102804467082,0.5640538930892944,-0.5713356137275696,-0.1294838935136795,0.003702223300933838,-0.46271610260009766,-0.10719156265258789
141,1.756507776434861,-1.5239844517802992,-0.8409511944525483,0.045989442616701126,0.9989045262336731,0.00864032655954361,-1.246717095375061,-2.251908779144287,-0.542385458946228,0.13534601032733917,0.04497969150543213,-0.11597061157226562
142,1.3701760001379166,-1.5195538713429706,-1.2606044108067682,0.05019243061542511,0.9986873865127563,-0.010206928476691246,0.8611412644386292,-0.5005151629447937,0.3316078186035156,0.3231291174888611,0.6437839269638062,-0.4186108112335205
143,1.0852979037422497,-1.4866233427054467,-1.3690753834788079,0.07435780018568039,0.9964595437049866,-0.039232637733221054,0.06288886070251465,-1.0479578971862793,0.08364281058311462,0.2457868754863739,0.09370458126068115,0.6192039847373962
144,1.361873497556987,-1.4733981669448402,-1.1143174237049143,0.09512998908758163,0.9952605366706848,-0.020169135183095932,-0.9466391205787659,0.8899093270301819,0.3490144908428192,-0.011343955993652344,-0.4036163091659546,0.05143439769744873
145,2.4286920137418386,-1.3880200525497197,-0.19165007457732983,0.11887705326080322,0.9833428859710693,0.13749609887599945,-1.0985770225524902,1.2145365476608276,-0.02464752085506916,-0.2713733911514282,-0.46045464277267456,-0.42204201221466064
146,2.501767569360729,-1.4025282123836358,-0.07045781027922553,0.09999135881662369,0.9858763217926025,0.13434787094593048,0.04582217335700989,-0.2400384396314621,-0.06765015423297882,0.17878670990467072,0.6053253412246704,0.050130948424339294
147,2.315135718518936,-1.4439940994551765,-0.35093878744074974,0.0930188000202179,0.9919713735580444,0.0856776162981987,0.9189178943634033,0.13136187195777893,0.1375032216310501,0.0906207486987114,0.5257289409637451,0.4073033332824707
148,2.1700755296975585,-1.4265552493664777,-0.5269576220220492,0.1186937764286995,0.989615261554718,0.08107724785804749,-0.2328857183456421,0.1336110681295395,0.17154960334300995,-0.3949388861656189,0.030404269695281982,-0.1202007532119751
149,2.270936396719695,-1.4316640607856594,-0.48764068690670515,0.10605933517217636,0.9903367161750793,0.08935794234275818,0.5709296464920044,0.7740891575813293,-0.057347677648067474,-0.035395875573158264,-0.5165359377861023,-0.07188653200864792
150,1.955990122248438,-1.4828665015369848,-0.869422954173496,0.08138135075569153,0.9961366653442383,0.03299587592482567,0.1811954826116562,-0.37923479080200195,-0.4777688980102539,0.06495042890310287,-0.39939600229263306,-0.25392794609069824
151,2.3612576711903595,-1.496022376900112,-0.2716459794557764,0.05255506932735443,0.9972057342529297,0.05308997258543968,0.7736084461212158,-0.39484328031539917,0.14667096734046936,0.3468589782714844,0.8498553037643433,-0.3267868757247925
152,1.0332563815890383,-1.4673373075170197,-1.556727840322216,0.08871038258075714,0.9946528673171997,-0.052879419177770615,1.179470419883728,-1.553796648979187,0.10842766612768173,-0.05259283632040024,0.6581944823265076,0.3840562105178833
153,1.0488363752781202,-1.4779188779838388,-1.4941056809800617,0.08039486408233643,0.9956899881362915,-0.046240489929914474,-0.4389645755290985,0.22212336957454681,0.04864548519253731,0.19018925726413727,-0.3094106912612915,0.2318483591079712
154,2.086531462091045,-1.4754555612021483,-0.5145943975954977,0.08281420171260834,0.9954584836959839,0.04694841429591179,-1.392270565032959,1.4865782260894775,-0.015272549353539944,-0.18416306376457214,-0.5869197249412537,-0.16892719268798828
155,2.600760119288799,-1.4596387328730762,-0.03498302828298091,0.057111404836177826,0.9938283562660217,0.09509661793708801,0.6524655222892761,-0.5532199740409851,-0.3004109263420105,-0.02285543829202652,-0.14814060926437378,0.11793135106563568
156,2.8034601313843655,-1.446996340690246,0.11367088891901198,0.04096263274550438,0.9923465847969055,0.11649121344089508,0.7908543348312378,1.0563884973526,0.0893968716263771,0.3308940529823303,0.4378901720046997,-0.7370052337646484
157,2.189192145347421,-1.4938762314022846,-0.5060674620683501,0.06261379271745682,0.9970431327819824,0.044549085199832916,0.1744023561477661,0.09092099219560623,0.5549445748329163,-0.10675746202468872,0.12002235651016235,0.3019322156906128
158,1.981280921493202,-1.4545304528028693,-0.7030976490369939,0.10636749118566513,0.9932487607002258,0.04629192501306534,-0.02734018862247467,-0.8438151478767395,0.0010762170422822237,-0.18478240072727203,-0.25023722648620605,-0.18978559970855713
159,1.9596196553235987,-1.4684974997028055,-0.7087485198377832,0.09449908137321472,0.9947720170021057,0.038714390248060226,0.3699238896369934,1.067548394203186,-0.09970545023679733,0.004774600267410278,-0.5438137054443359,-0.01266765221953392
160,1.4599308966266473,-1.5060762062192135,-1.2456505953728796,0.0642780065536499,0.9979063868522644,-0.0071555497124791145,-0.25742247700691223,-2.278473138809204,-0.5591205954551697,0.1765209287405014,-0.057766616344451904,-0.44067466259002686
161,1.1441584047599977,-1.5146302582181137,-1.3935322095655274,0.0511060394346714,0.9984230995178223,-0.0232306607067585,-0.05330442637205124,1.3524750471115112,0.4617559611797333,0.5029558539390564,0.5713707208633423,-0.1976555585861206
162,0.7053588365334911,-1.4195645965421329,-1.7189776571953126,0.09767095744609833,0.9885862469673157,-0.11470584571361542,0.28955787420272827,-2.4616050720214844,-0.08058428764343262,-0.08201543241739273,0.4031372666358948,0.5867822170257568
163,0.8454645138804019,-1.421313624853365,-1.5801714990171298,0.11143903434276581,0.9888482689857483,-0.09879578649997711,-0.33407196402549744,0.9469267129898071,0.3019520938396454,-0.028660088777542114,-0.3986230492591858,0.15119445323944092
164,1.4671706711067964,-1.4356537406100738,-1.01101822005563,0.13400962948799133,0.990882158279419,-0.013936756178736687,-1.3395150899887085,0.6645420789718628,0.06119704246520996,-0.20540547370910645,-0.6669379472732544,-0.051782846450805664
165,2.38023844196701,-1.4248315346760403,-0.19185929746366115,0.10034473240375519,0.9893660545349121,0.10528995096683502,-0.006690355017781258,-0.7380385398864746,-0.2914430499076843,0.025525033473968506,0.15302908420562744,-0.31296205520629883
166,2.1207852651066164,-1.4340509954688414,-0.5120938122250702,0.11621564626693726,0.9906648993492126,0.07125064730644226,0.7878581881523132,0.11113820225000381,0.3615024983882904,0.23533158004283905,0.624660849571228,0.10681938380002975
167,1.6838899614746357,-1.4163726626217863,-1.0078982816782547,0.15282809734344482,0.9881003499031067,0.017357951030135155,-0.4163014590740204,0.6205180883407593,0.6773463487625122,-0.3382986783981323,0.1726357340812683,0.10361373424530029
168,2.0272599728808625,-1.3962109756526857,-0.6602420685954579,0.15591631829738617,0.9847986698150635,0.0765630230307579,-0.3026084899902344,-0.35627481341362,-0.3323182761669159,-0.16235551238059998,-0.4254113435745239,-0.1586400270462036
169,2.0013339243412998,-1.4237855515580624,-0.702427745816502,0.13311457633972168,0.9892133474349976,0.061135780066251755,0.5411164164543152,0.5880281925201416,-0.12218671292066574,0.009570345282554626,-0.5329450368881226,-0.10437917709350586
170,2.003726910186437,-1.4542291892496735,-0.598382306794781,0.10557295382022858,0.9932137131690979,0.048792947083711624,-0.6842488050460815,-3.0600497722625732,-0.19387653470039368,0.16256974637508392,0.6027945280075073,-0.3701735734939575
171,1.5983093793927021,-1.433485461331169,-0.9500148210024506,0.13682757318019867,0.9905876517295837,0.003765494329854846,1.1818325519561768,-1.2949928045272827,0.42965781688690186,0.04008281230926514,0.812802791595459,-0.04153096675872803
172,1.1277180566849894,-1.4289796187241914,-1.2576812463444504,0.12769290804862976,0.9899608492851257,-0.06059622764587402,-0.04532960057258606,-0.3485385477542877,-0.23597601056098938,0.09043146669864655,-0.006196260452270508,0.5758092403411865
173,1.2724311341599295,-1.4344868056708495,-1.1632344216586754,0.12988455593585968,0.9907242059707642,-0.039945464581251144,-0.48760175704956055,1.8620657920837402,0.15797320008277893,-0.00755484402179718,-0.5246444344520569,0.11463725566864014
174,2.2631610368060726,-1.400728332665289,-0.5248098500166162,0.13027828931808472,0.9855732321739197,0.10804231464862823,-0.12193567305803299,1.2587426900863647,-0.2631080448627472,-0.19941586256027222,-0.4272846579551697,-0.7786661386489868
175,2.398532305729067,-1.431205910094937,-0.37543580293336776,0.09413361549377441,0.9902730584144592,0.10246202349662781,0.002020761836320162,1.1946561336517334,-0.18587331473827362,0.4348886013031006,0.2740398049354553,-0.013488039374351501
176,1.845160882577566,-1.4759525886166842,-1.0142309041107656,0.09115933626890182,0.995505690574646,0.025657953694462776,0.8421624898910522,0.026722926646471024,0.04318726062774658,-0.002368450164794922,0.41713768243789673,0.26824164390563965
177,1.6443303504648068,-1.424353524240913,-1.2002600937890633,0.14552579820156097,0.9892963767051697,0.01072042714804411,-0.4517779052257538,0.07527732104063034,0.43814605474472046,-0.26298797130584717,0.014152109622955322,0.10080611705780029
178,1.6692204484400905,-1.4270566023533044,-1.18362400997799,0.14255167543888092,0.9896872043609619,0.014076006598770618,0.28108108043670654,-0.25608453154563904,-0.13352492451667786,-0.07910566031932831,-0.5557120442390442,-0.11209845542907715
179,1.3590093105113574,-1.4550101905496635,-1.456659021664047,0.11294648051261902,0.9933042526245117,-0.02428477630019188,-0.04773170128464699,-1.0055655241012573,-0.6908875703811646,0.05886746942996979,-0.2930479645729065,-0.15717273950576782
180,1.6218893442731341,-1.5035539025661417,-0.9522172417146929,0.06710290163755417,0.9977400898933411,0.0034314761869609356,1.2987661361694336,-0.584772527217865,0.4483809471130371,0.30275487899780273,0.5537887811660767,-0.3566267490386963
181,1.3781731669695925,-1.455258644757089,-1.180683180361423,0.11314920336008072,0.9933329224586487,-0.022068778052926064,0.5359367728233337,-2.501816749572754,0.7301450967788696,-0.05083230137825012,0.5536794066429138,0.1261795163154602
182,1.134112522007921,-1.4265435857205466,-1.3017606197713567,0.13026316463947296,0.9896135926246643,-0.060798462480306625,-0.06293871998786926,0.8594996333122253,0.3030083179473877,0.17308154702186584,-0.0863237977027893,0.42111945152282715
183,1.6102326461984242,-1.403489887266658,-0.9896685426373085,0.16639693081378937,0.9860368967056274,0.006565486546605825,-0.9124122262001038,1.9747271537780762,0.08926069736480713,-0.18290695548057556,-0.455366849899292,-0.10690724849700928
184,2.246593363296448,-1.3699913389403147,-0.4255725730205607,0.15561889111995697,0.9799063205718994,0.12476486712694168,0.30972573161125183,0.031641971319913864,-0.3264584541320801,-0.11838744580745697,-0.2861502766609192,-0.11814261227846146
185,2.3341817161952116,-1.400266429275213,-0.404541246036791,0.12261197715997696,0.9854949712753296,0.11732935160398483,0.5347841382026672,1.7660530805587769,-0.1704270988702774,0.407539427280426,0.46705031394958496,-0.27669215202331543
186,1.9066337684436572,-1.4411090525461125,-0.875703169851421,0.12209901958703995,0.99160236120224,0.04261992126703262,0.9349454641342163,-0.15678459405899048,0.04193191975355148,-0.04154787212610245,0.33362340927124023,0.32867228984832764
187,1.764073152271745,-1.4100179431275324,-1.0485042258329567,0.15710534155368805,0.9871029853820801,0.03074866160750389,-0.18681947886943817,0.03783310577273369,0.18918634951114655,-0.25460904836654663,0.08832114934921265,-0.09684967994689941
188,1.7286594869281569,-1.4274645900606442,-1.0431126896529996,0.1410660743713379,0.989745557308197,0.022455986589193344,0.18406181037425995,0.04960676282644272,-0.2341565042734146,0.0005507469177246094,-0.5428003668785095,-0.008280515670776367
189,1.55882765417727,-1.4510615846970907,-1.2482376938299256,0.11944111436605453,0.9928403496742249,-0.0014296198496595025,-0.11481089890003204,-0.7413018941879272,-0.5405837297439575,0.06848613917827606,-0.4428676962852478,-0.23592084646224976
190,1.3748291676130413,-1.4963917362980061,-1.3193120206707136,0.07291250675916672,0.9972332715988159,-0.014474218711256981,0.17529644072055817,1.4239680767059326,-0.066848024725914,0.3487488627433777,0.6122637391090393,0.02146279811859131
191,1.157181714648829,-1.424710971367214,-1.543443659765657,0.13329149782657623,0.9893484711647034,-0.05850635841488838,1.1874492168426514,-1.2617473602294922,0.6004394888877869,-0.03001999855041504,0.41340720653533936,0.12915456295013428
192,0.9115956925374606,-1.4043088174729939,-1.7013982110080599,0.13099810481071472,0.9861729145050049,-0.10150058567523956,-0.4307990074157715,0.583838164806366,0.10598934441804886,0.025221362709999084,-0.17277270555496216,0.49653536081314087
193,1.5590438980724943,-1.4307994566219453,-1.0980724291477908,0.13953080773353577,0.9902164340019226,-0.001639901427552104,-1.243849277496338,0.2824196219444275,-0.03346952423453331,-0.08296647667884827,-0.5767032504081726,-0.03630870580673218
194,2.4923540787037384,-1.3858877832187837,-0.22593452112429793,0.11115629971027374,0.9829530715942383,0.14645029604434967,-0.30985283851623535,0.46538278460502625,-0.8284872174263,-0.16909392178058624,0.07066631317138672,-0.577373743057251
195,2.418092104734855,-1.4403383518175492,-0.32147281858965526,0.08611975610256195,0.9915024042129517,0.09749991446733475,0.8991351127624512,0.677541196346283,0.20963123440742493,0.41917502880096436,0.3409712314605713,0.16656862199306488
196,1.7741499269301895,-1.4306719368725942,-1.0021439722273142,0.13678860664367676,0.9901986122131348,0.02820633538067341,-0.17346607148647308,1.0419842004776,1.3438522815704346,-0.23418545722961426,0.24850988388061523,0.28610944747924805
197,1.8956622530704799,-1.3747516600698897,-0.9499760489335473,0.18460294604301453,0.9808447360992432,0.0621739886701107,-0.012506591156125069,0.014673720113933086,-0.18222428858280182,-0.31332606077194214,-0.2797490358352661,-0.1867009401321411
198,1.848150974867938,-1.4018955514550073,-0.9447065386623799,0.1616748869419098,0.9857701659202576,0.04602761194109917,0.22395269572734833,-0.8522560000419617,-0.32644277811050415,-0.05310860276222229,-0.6112126111984253,-0.060386061668395996
199,2.1041319878000353,-1.4695019124339528,-0.6084553800024837,0.08707650005817413,0.994874119758606,0.05141054093837738,-0.9177060127258301,-1.6968588829040527,-0.702591598033905,0.3633019030094147,0.028837978839874268,-0.2670935392379761
200,1.7547852352051967,-1.4552492334959555,-0.9593065437739572,0.11334329843521118,0.9933318495750427,0.021092455834150314,0.16429312527179718,0.7906289100646973,0.46072182059288025,0.09309283643960953,0.6663970351219177,-0.17784595489501953
201,1.0584976784160036,-1.3799144640040435,-1.6547918243195012,0.16536839306354523,0.9818373322486877,-0.09299995005130768,1.1393640041351318,-0.32549721002578735,-0.10815037786960602,-0.19701510667800903,0.3732500672340393,0.5127845406532288
202,0.9727640495541998,-1.392571779300779,-1.731746954972022,0.14651377499103546,0.9841600060462952,-0.09981280565261841,-0.7755536437034607,-0.0801500529050827,-0.12922388315200806,0.03991807997226715,-0.4161669611930847,0.1613057404756546
203,1.6557755183315142,-1.4360387954463056,-1.0838000698894652,0.1338658481836319,0.9909339547157288,0.011403273791074753,-1.3984371423721313,0.9500304460525513,-0.12432865798473358,-0.1576390266418457,-0.5166754722595215,-0.14355969429016113
204,2.4095276634350387,-1.4290928794600277,-0.3836429664272184,0.09439908713102341,0.9899768829345703,0.10504623502492905,0.7801173329353333,-0.06391648203134537,-0.40107184648513794,0.08754671365022659,0.17281919717788696,-0.42155933380126953
205,2.182201207959178,-1.4797345859328885,-0.6520953209880113,0.07446321845054626,0.995856761932373,0.05219961702823639,0.9175402522087097,0.5189948081970215,-0.006861645728349686,0.03782621771097183,0.406868577003479,0.0899665430188179
206,1.2118497292304748,-1.4458841367654998,-1.6267568661235778,0.11664722859859467,0.9922086000442505,-0.043766118586063385,0.16457295417785645,0.7371482253074646,0.9487913250923157,-0.12732839584350586,0.31525593996047974,0.3133126497268677
207,1.3785063990153732,-1.4167602995345678,-1.5160051919055626,0.15060007572174072,0.9881598949432373,-0.029321158304810524,0.15885892510414124,-0.5157334804534912,-0.08048226684331894,-0.16625559329986572,-0.41873234510421753,-0.10979324579238892
208,1.032760014092944,-1.4322203400539666,-1.7416118479790133,0.11861693859100342,0.9904137253761292,-0.0707862600684166,0.24495261907577515,-1.6689460277557373,-0.4781440794467926,0.05286133289337158,-0.5152092576026917,-0.055037736892700195
209,1.1471196219657274,-1.49324628174008,-1.4059798980954454,0.07062218338251114,0.9969944953918457,-0.03184988349676132,-0.9561319947242737,-2.1276142597198486,0.09201230853796005,0.23351600766181946,0.10176032781600952,-0.16202831268310547
210,1.1486004523144402,-1.4779972208583323,-1.5522154752542972,0.08452940732240677,0.9956972599029541,-0.037971362471580505,0.35226869583129883,-0.8212906718254089,0.11988579481840134,0.27838563919067383,0.7886655330657959,-0.5862504243850708
211,0.8058056503920403,-1.4388305221241515,-1.6881688783829314,0.09492234140634537,0.9913051128387451,-0.09112505614757538,-0.19635730981826782,-0.14503559470176697,-0.03111506812274456,0.11453504860401154,0.19056427478790283,0.8268122673034668
212,1.0597632159335246,-1.4291569979479468,-1.4895781259193641,0.12313081324100494,0.9899858832359314,-0.06904140114784241,-0.7422343492507935,0.6880789399147034,0.3508385717868805,-0.033988989889621735,-0.40076780319213867,0.10657799988985062
213,1.8643983076207937,-1.4181033700438275,-0.7958518745412153,0.14559213817119598,0.9883650541305542,0.04401829466223717,-1.2536849975585938,2.2844278812408447,0.12435038387775421,-0.24742931127548218,-0.5117720365524292,-0.11602449417114258
214,2.289612772049765,-1.4177140841097657,-0.4385031344334746,0.11475837230682373,0.9883057475090027,0.1004108265042305,-0.09906428307294846,-1.0068334341049194,-0.10566599667072296,0.25255119800567627,0.5317595601081848,-0.0944293737411499
215,2.096657659583233,-1.448697784455996,-0.6850819329493901,0.1053411141037941,0.9925552010536194,0.06113692373037338,1.3511440753936768,-0.4215617775917053,0.098715640604496,0.1749933660030365,0.6370378136634827,0.23332715034484863
216,1.5043844070694985,-1.425076567741375,-1.2273133206479994,0.1448851376771927,0.989401638507843,-0.009636271744966507,-0.047604840248823166,0.0484156534075737,0.8059092164039612,-0.258578360080719,0.06908529996871948,0.2248920202255249
217,1.5482818362955977,-1.4193993281001178,-1.1735333176402563,0.15078145265579224,0.9885613322257996,-0.0033953411038964987,0.014163566753268242,-0.6833370923995972,-0.2372228503227234,-0.18451863527297974,-0.48947685956954956,-0.09212470054626465
218,1.3246307530204404,-1.4488363767599488,-1.2868041306567786,0.11799010634422302,0.9925721287727356,-0.029646366834640503,-0.016669943928718567,-1.6159003973007202,-0.5179154872894287,0.030828863382339478,-0.3658021092414856,-0.1321120262145996
219,2.0107493041232423,-1.4879387083397924,-0.35744938097183665,0.07488133758306503,0.9965692758560181,0.035248372703790665,-0.9895378947257996,-1.1518436670303345,0.10895640403032303,0.18877527117729187,0.39252978563308716,-0.12805235385894775
220,1.3887880287600491,-1.471405053853311,-1.101221847879304,0.09758836776018143,0.9950647354125977,-0.01796066015958786,1.2873440980911255,-0.8620437383651733,0.5118280053138733,0.016364239156246185,0.7824620604515076,-0.13050734996795654
221,0.9695180690917681,-1.445884857217352,-1.4864182793672276,0.10273618996143341,0.99220871925354,-0.07047856599092484,-0.04075097292661667,1.5915006399154663,-0.17686006426811218,0.3038952946662903,0.03702712059020996,0.6169111132621765
222,1.2564636751439693,-1.4602382656151152,-1.2597407577245623,0.10492770373821259,0.9938946962356567,-0.034113191068172455,-0.6628379821777344,0.6532448530197144,0.136088564991951,-0.04921784996986389,-0.46928220987319946,-0.004583120346069336
223,2.5359421869624024,-1.4174469407421015,-0.3011645787394868,0.08695963770151138,0.9882649779319763,0.12557996809482574,0.28275471925735474,1.8321882486343384,-0.3331851661205292,-0.10469035804271698,-0.6071157455444336,-0.5867310762405396
224,2.548435239120528,-1.4454601146816775,-0.23205204382009345,0.06987754255533218,0.9921556711196899,0.10365461558103561,-0.42589420080184937,0.7279565930366516,-0.15352076292037964,0.4703446328639984,0.8614667654037476,0.2723066806793213
225,2.0405070652032875,-1.498924754856712,-0.8245757167541983,0.06403279304504395,0.9974183440208435,0.03250317648053169,1.2889180183410645,-0.8696796298027039,0.06561649590730667,0.011360891163349152,0.5566588044166565,0.3192272186279297
226,1.6281231837577195,-1.4394602516245174,-1.2099081081379859,0.13074450194835663,0.9913877844810486,0.007503392640501261,-0.15669934451580048,0.3809520900249481,0.6762003302574158,-0.28798630833625793,0.040899813175201416,0.13301479816436768
227,1.5972678699134497,-1.437195001558801,-1.264653496448278,0.13315747678279877,0.9910886287689209,0.0035257074050605297,0.27711808681488037,-0.3642793297767639,-0.17283043265342712,-0.11707472801208496,-0.4947965145111084,-0.1510934829711914
228,1.0725451890943447,-1.4644722163680959,-1.6407884515824498,0.09322056919336319,0.9943529367446899,-0.05071514472365379,-0.19017885625362396,-2.767876625061035,-0.7434526681900024,0.06917870789766312,-0.351729154586792,-0.11325579136610031
229,1.2986310578272386,-1.5198292687578145,-1.2786698264039993,0.04907063767313957,0.9987014532089233,-0.013695157133042812,1.768381953239441,2.710686683654785,0.1861276924610138,0.39111489057540894,0.7336899042129517,-0.4755321145057678
230,0.9385862157006127,-1.4586535289841929,-1.6737325795009497,0.0902789831161499,0.9937185645103455,-0.06612982600927353,-0.17085693776607513,-3.8074800968170166,0.7969193458557129,-0.0975421667098999,0.6579689979553223,0.08315861225128174
231,0.6661817711771344,-1.4513886019490616,-1.732088521637514,0.07361765205860138,0.9928793907165527,-0.09365421533584595,0.14379538595676422,-0.05694271996617317,0.028841929510235786,0.22397449612617493,-0.06757116317749023,0.34695011377334595
232,0.9963102265841339,-1.4446100281868468,-1.514944680738105,0.10564866662025452,0.9920490384101868,-0.06838807463645935,-0.5037930011749268,2.142897844314575,0.22393308579921722,-0.11243883520364761,-0.5670002698898315,0.06701482087373734
233,1.848699575600704,-1.4449780710575453,-0.8922212100135822,0.12067154049873352,0.9920952916145325,0.034425847232341766,-0.9375641345977783,0.8375102877616882,-0.24742241203784943,-0.267903596162796,-0.320495069026947,-0.34065449237823486
234,2.2882811112881707,-1.4467768183762157,-0.45662414774691046,0.09320464730262756,0.9923194050788879,0.08133295178413391,0.5887073874473572,1.8081450462341309,0.004021346569061279,0.45751556754112244,0.5397392511367798,-0.10635734349489212
235,1.701549913616098,-1.4743429788500444,-1.0987391622053695,0.09548316895961761,0.9953519701957703,0.012556405737996101,0.800396203994751,-0.3297591805458069,0.05057762563228607,-0.03788122534751892,0.316919207572937,0.25297701358795166
236,1.6245648485604192,-1.4241963598528689,-1.2080998380994614,0.1458636373281479,0.9892734289169312,0.007850438356399536,-0.3945850431919098,1.1730767488479614,0.2326650470495224,-0.3264971971511841,-0.05259758234024048,0.09082818031311035
237,1.9388819533992556,-1.4291723049478842,-0.9654670433096127,0.1316966563463211,0.9899880886077881,0.0507904551923275,-0.061578139662742615,0.057131532579660416,-0.19703581929206848,-0.0745982676744461,-0.5297524333000183,-0.1663147211074829
238,1.659647909787799,-1.460739106375593,-1.1861318195787014,0.10940250009298325,0.993949830532074,0.009746246039867401,0.2054986208677292,-1.760205626487732,-0.6106649041175842,0.09321895241737366,-0.23819726705551147,-0.22446799278259277
239,1.5854800156068507,-1.488912474412334,-1.1122602335182166,0.081784188747406,0.9966493844985962,0.001200979808345437,1.4812418222427368,0.9883972406387329,0.2501852512359619,0.2811461091041565,0.5089048147201538,-0.44463658332824707
240,1.1893350020901887,-1.4463268974453047,-1.477479430912314,0.11522453278303146,0.992263674736023,-0.046217501163482666,0.3939567804336548,-2.438377857208252,0.28088486194610596,-0.14899224042892456,0.5140381455421448,0.17013412714004517
241,0.989871420004973,-1.4528544547618925,-1.5328744458797665,0.09836633503437042,0.9930528998374939,-0.0645766332745552,0.14448478817939758,0.32695552706718445,-0.05195949599146843,0.22345679998397827,-0.22678697109222412,0.3192763328552246
242,1.3597921063735394,-1.4560889085381374,-1.216374265545424,0.11191761493682861,0.9934282898902893,-0.023971915245056152,-0.9938718676567078,1.7311327457427979,0.19262708723545074,-0.08773241937160492,-0.4713488221168518,0.05503880977630615
243,2.2859198595037142,-1.4362119611516424,-0.5272659072264182,0.10130652040243149,0.9909572005271912,0.08798237144947052,-0.08312308043241501,0.7345439195632935,-0.20591579377651215,-0.08691748231649399,-0.23694413900375366,-0.3725893497467041
244,2.6275917251000047,-1.4378193727702921,-0.20671375720299864,0.06518728286027908,0.9911715984344482,0.11545270681381226,0.7442507743835449,1.0793614387512207,-0.05027533695101738,0.2871686518192291,0.331826388835907,-0.21422278881072998
245,1.9126403561918734,-1.5021368912330282,-0.9720713951718959,0.06463570147752762,0.9976438879966736,0.022998223081231117,0.2835923135280609,0.3433433473110199,0.30539432168006897,-0.01640266925096512,0.17497879266738892,0.2957882881164551
246,1.8076853814633684,-1.444739421031875,-1.1270638084574125,0.12221258133649826,0.9920653700828552,0.029504800215363503,-0.046798475086688995,0.5267966389656067,-0.07715313881635666,-0.33122748136520386,-0.08380115032196045,-0.09137916564941406
247,1.8862727729005277,-1.4650140906269424,-1.1198526282720789,0.10037539154291153,0.9944102764129639,0.032760173082351685,0.3862605690956116,0.39077281951904297,-0.14895673096179962,-7.93561339378357e-05,-0.5158487558364868,-0.0661616325378418
248,1.6494552260743958,-1.5092474522839274,-1.2948608258567837,0.061319392174482346,0.9981064796447754,0.004833288490772247,-0.6561259031295776,-2.5000760555267334,-0.38972508907318115,0.17867083847522736,-0.22875839471817017,-0.2927666902542114
249,1.1340154504685958,-1.4818939168399792,-1.6723891632416754,0.08044949173927307,0.9960507750511169,-0.03755815699696541,0.612726628780365,1.3051632642745972,0.16330306231975555,0.35595187544822693,0.3045930862426758,-0.3325895071029663
250,1.3621799098385434,-1.44842567202559,-1.3374511336686719,0.11941925436258316,0.9925220608711243,-0.025280630216002464,0.16548052430152893,-2.416213274002075,0.047779738903045654,-0.14026276767253876,0.21623343229293823,0.2038695216178894
251,0.9733083968801267,-1.4581987116005908,-1.537647505963433,0.09289402514696121,0.9936676025390625,-0.06321023404598236,-0.061666280031204224,0.44321539998054504,0.2129029929637909,0.2641463875770569,-0.1230010986328125,0.3589407801628113
252,1.674827622258161,-1.4545805924207995,-0.9405580191588218,0.11532720923423767,0.993254542350769,0.012041108682751656,-0.8553245067596436,2.0308377742767334,0.06211666762828827,-0.10861334949731827,-0.5118092894554138,0.010068892501294613
253,2.3630972912654973,-1.4162393067739503,-0.41057277454930663,0.10809917002916336,0.988079845905304,0.1096019446849823,-0.9979891777038574,-0.39330369234085083,-0.546821653842926,-0.29620954394340515,0.068270742893219,-0.5335369110107422
254,2.6844383403879237,-1.4544673750065726,-0.07615706833664734,0.05123133957386017,0.9932414293289185,0.10414788872003555,0.6831714510917664,0.25898513197898865,-0.13071955740451813,0.5154038071632385,0.44976693391799927,0.04435061663389206
255,2.2304690501416418,-1.4513412187749657,-0.6389460050772674,0.09416783601045609,0.9928737282752991,0.07303475588560104,0.11427180469036102,2.0793259143829346,1.0459630489349365,-0.17552772164344788,0.13626134395599365,0.2185760736465454
256,2.223747910670511,-1.4043257816426884,-0.7070698357024408,0.13161735236644745,0.9861757755279541,0.1006704568862915,-0.4310089945793152,-0.8374133110046387,-0.061757948249578476,-0.24428823590278625,-0.3117371201515198,-0.1825643628835678
257,2.0960469106747905,-1.4128967096971314,-0.7103630295045763,0.13604764640331268,0.9875597357749939,0.07884706556797028,0.5401178598403931,-1.0941777229309082,-0.2200459986925125,0.008636191487312317,-0.5172533392906189,-0.11130249500274658
258,1.8649514564508123,-1.4495786760555422,-0.7700938632732923,0.1157274842262268,0.9926621317863464,0.035058896988630295,0.25796476006507874,-2.9449868202209473,0.13625648617744446,0.2557019591331482,0.028745949268341064,-0.45739173889160156
259,1.3031430252267857,-1.4447634754980296,-1.3356735291275859,0.12122359871864319,0.992068350315094,-0.03324355185031891,0.27786365151405334,0.2198985517024994,0.21327804028987885,0.2031782567501068,0.8221558332443237,-0.16873705387115479
260,0.9743091376678255,-1.4159058886908984,-1.5248761439242704,0.12763096392154694,0.9880284667015076,-0.08666042983531952,-0.18437637388706207,-1.4709787368774414,-0.08499915152788162,0.10663720965385437,0.18534183502197266,0.7203121781349182
261,1.2506500058188017,-1.4224716388185688,-1.2914889494753377,0.14027239382266998,0.989020049571991,-0.046507563441991806,-0.8861318230628967,0.909795343875885,0.11043963581323624,-0.03144672513008118,-0.41396212577819824,0.014662448316812515
262,2.175807549733552,-1.3945034721975587,-0.45816700901321017,0.14425034821033478,0.9845006465911865,0.09975183755159378,-1.4216012954711914,1.271114468574524,0.049429137259721756,-0.2723783850669861,-0.40079087018966675,-0.25652074813842773
263,2.3740458448475525,-1.4308328066478366,-0.2991269251772613,0.09686979651451111,0.9902210831642151,0.10039155185222626,-0.01847880333662033,-0.5332788228988647,0.05779552832245827,0.3041464388370514,0.6257457137107849,0.0014913082122802734
264,2.021035368215205,-1.4537864863128562,-0.697881837839765,0.10510759055614471,0.9931621551513672,0.05080374702811241,0.3591004014015198,0.8347999453544617,0.3870473802089691,-0.007527671754360199,0.300340473651886,0.4308398962020874
265,1.9485132527392643,-1.3976787082937892,-0.8708298767680116,0.16011203825473785,0.9850525259971619,0.06352730840444565,0.03557624667882919,0.05711133033037186,0.015955476090312004,-0.41069188714027405,-0.08978885412216187,-0.18941235542297363
266,2.044328941830911,-1.4169063636139325,-0.7827298604554298,0.13641665875911713,0.9881823062896729,0.06990235298871994,0.10276483744382858,0.31046631932258606,-0.17375484108924866,-0.055606111884117126,-0.5557786822319031,-0.06396663188934326
267,1.9847566450137557,-1.4621476393142174,-0.8633052491975226,0.09927545487880707,0.9941035509109497,0.04361645132303238,0.11811165511608124,-0.6050626635551453,-0.8477132320404053,0.10861027985811234,-0.24897116422653198,-0.1706458330154419
268,1.5745380664677793,-1.4870015465580422,-1.0421256450522314,0.0836966261267662,0.9964912533760071,0.0003131724370177835,-0.08456924557685852,-0.7432498931884766,0.7721513509750366,0.2309396117925644,0.6060020327568054,-0.1683734655380249
269,1.1429002624405744,-1.4222030175162346,-1.4523485389399242,0.13469849526882172,0.9889802932739258,-0.061432890594005585,1.5076409578323364,-0.1298752725124359,0.3219713568687439,-0.1333099603652954,0.2537868618965149,0.4096231460571289
270,1.1904682838647502,-1.4361838401246154,-1.4009464279992034,0.12461598962545395,0.9909533858299255,-0.04982062056660652,-0.07143726944923401,0.05892675369977951,-0.13648569583892822,0.08224741369485855,-0.2447834014892578,0.2340247631072998
271,1.559962094392904,-1.4617545400408474,-1.019927244886468,0.10881948471069336,0.9940608143806458,-0.0011790216667577624,-1.0800150632858276,0.20606985688209534,0.008173149079084396,-0.03971242904663086,-0.6144832372665405,-0.05157065391540527
272,2.538935759290407,-1.4282841854124138,-0.18205780666875315,0.08050739020109177,0.989862322807312,0.11700901389122009,0.6107078790664673,0.3225596249103546,-0.5116525292396545,-0.013155102729797363,0.2616482973098755,-0.452107310295105
273,2.5381641463066114,-1.49044318954613,-0.19344167783031535,0.04554908350110054,0.9967734217643738,0.06609153002500534,0.9507914185523987,0.21484437584877014,-0.0578315407037735,0.40504294633865356,0.5518258213996887,0.06241798400878906
274,1.546900553518958,-1.4855577468530976,-1.1841253555326028,0.08511228859424591,0.9963693618774414,-0.0020342112984508276,-0.09970014542341232,0.31618204712867737,1.1490281820297241,-0.11308164149522781,0.05833345651626587,0.22469043731689453
275,1.8563390966872935,-1.4067120937028332,-0.9227548936705737,0.1567351222038269,0.9865683317184448,0.04601195454597473,-0.38336941599845886,0.32754552364349365,0.05446656793355942,-0.3291289210319519,-0.2952231168746948,-0.09865474700927734
276,2.0825385302340194,-1.4077864198665793,-0.6673629430439009,0.14149880409240723,0.9867432713508606,0.07947255671024323,-0.7090386152267456,-0.6752440929412842,-0.39275890588760376,-0.08440041542053223,-0.5154450535774231,0.05070018768310547
277,2.2787492279304313,-1.3968628878344926,-0.3015091549754418,0.1314706802368164,0.9849116802215576,0.11253567039966583,1.5013080835342407,-2.3805787563323975,0.15037652850151062,0.2922964096069336,0.29951202869415283,-0.6626149415969849
278,1.616555456609189,-1.4169816886274285,-1.0323159455337294,0.15304821729660034,0.9881938099861145,0.0070082456804811954,-0.6844491958618164,-0.3624976575374603,0.18155762553215027,0.06890611350536346,0.9020801186561584,0.11085057258605957
279,1.2879924917456858,-1.417513000411386,-1.2012769181774945,0.14661897718906403,0.9882751107215881,-0.04260637238621712,0.9270639419555664,-1.9409579038619995,-0.5677568912506104,0.03406032919883728,0.051672399044036865,0.3974800109863281
280,1.1970398870376924,-1.4381447730575363,-1.3228660653049582,0.12313245236873627,0.9912146925926208,-0.04829144477844238,-0.3656173050403595,1.452803373336792,0.16276858747005463,0.08392930030822754,-0.4479101896286011,0.017255067825317383
281,1.5910737916732973,-1.4531408391022622,-0.9877807287242105,0.11736063659191132,0.993086576461792,0.0023801024071872234,-0.6094661951065063,0.5631308555603027,-0.10742060095071793,-0.10776285827159882,-0.520430326461792,-0.0958402156829834
282,2.3403693908243137,-1.4443637213331808,-0.2761749475816289,0.09056276828050613,0.9920180439949036,0.08774086087942123,-0.4573584198951721,0.06248811259865761,-0.49387773871421814,0.026853613555431366,0.38592684268951416,-0.2698392868041992
283,2.3107248371713505,-1.4797931463120162,-0.3910137104240333,0.06711343675851822,0.9958620667457581,0.061271782964468,1.129715919494629,0.46784552931785583,0.06356550008058548,0.08904500305652618,0.5821712017059326,0.2745741605758667
284,2.031861886190921,-1.4404109884332383,-0.815660890717315,0.11644040048122406,0.991511881351471,0.0578448660671711,-0.6126787662506104,1.432620882987976,0.8269268274307251,-0.25746211409568787,0.0864148736000061,0.011155374348163605
285,2.131956099415882,-1.4076517569864642,-0.7146674347769306,0.13751190900802612,0.986721396446228,0.08643535524606705,0.051332682371139526,-0.5667166709899902,-0.11966162919998169,-0.15869112312793732,-0.49331337213516235,-0.13453102111816406
286,1.875307241747656,-1.4317926714110532,-0.9897592255370664,0.13218288123607635,0.9903545379638672,0.04154319688677788,0.4715281128883362,-0.19195812940597534,-0.3450031280517578,0.054981425404548645,-0.34098613262176514,-0.2756739854812622
287,1.557068133883785,-1.4922047753607328,-0.9839230819526027,0.07850233465433121,0.9969132542610168,-0.0010777628049254417,0.7608841061592102,-2.6158299446105957,-0.11439885199069977,0.2366984784603119,0.3683057427406311,-0.10297191143035889
288,1.0720156878520977,-1.4580004431810976,-1.4675433847569752,0.0988437831401825,0.9936453104019165,-0.0538422130048275,1.0347118377685547,-0.6084201335906982,0.44205570220947266,0.005572110414505005,0.48679298162460327,0.1922546625137329
289,1.0307884756040697,-1.4265540259755993,-1.515214046024352,0.12328816205263138,0.9896150827407837,-0.073903888463974,-0.2054310441017151,0.3477904796600342,0.17295898497104645,0.14245888590812683,-0.15862160921096802,0.3031976819038391
290,1.5873888187367546,-1.42334395337367,-1.02685921689555,0.14689861238002777,0.9891485571861267,0.0024376376532018185,-0.8820634484291077,0.8544197082519531,0.16383665800094604,-0.15168985724449158,-0.5042089819908142,-0.06820297241210938
291,2.34960727874694,-1.3854406802692611,-0.351967796439418,0.13117289543151855,0.9828707575798035,0.1294560432434082,-0.6500368118286133,0.7326016426086426,-0.6309618353843689,-0.21973490715026855,-0.08299893140792847,-0.4263615608215332
292,2.4420730186094866,-1.4266366706452354,-0.27687431857100053,0.09249594062566757,0.9896270036697388,0.10992217063903809,0.5318777561187744,1.240260124206543,-0.0935373306274414,0.43988320231437683,0.44012147188186646,0.11442779004573822
293,1.7761968610182297,-1.4602394426966254,-0.993537729500662,0.1080133467912674,0.9938948154449463,0.022503361105918884,0.515795886516571,0.8889464139938354,0.5942449569702148,-0.1702081561088562,0.23657405376434326,0.2964968681335449
294,1.8531523633060314,-1.4121678859238034,-0.9493498690739353,0.15170978009700775,0.9874448776245117,0.04401205852627754,-0.2787749469280243,-0.7486643195152283,-0.0009352590423077345,-0.21379779279232025,-0.32319915294647217,-0.1328791379928589
295,1.8095395175203115,-1.4279405589445495,-0.9452959462250858,0.1383318454027176,0.9898134469985962,0.033667903393507004,0.5553922653198242,0.18369904160499573,-0.22489918768405914,0.009174853563308716,-0.45036953687667847,-0.050391558557748795
296,1.5392820737870665,-1.4744884515051322,-1.147067685454556,0.09611111134290695,0.9953659772872925,-0.0030298728961497545,-0.5062720775604248,-2.548243761062622,-0.6960421800613403,0.11851901561021805,-0.013523995876312256,-0.25353139638900757
297,1.2481879177963497,-1.4873772615393372,-1.19452149191566,0.07902416586875916,0.9965226650238037,-0.026416733860969543,0.6259921789169312,0.15335558354854584,0.29911693930625916,0.31201282143592834,0.6078932285308838,-0.17225271463394165
298,0.9705455554814237,-1.4379335538025855,-1.449087225145204,0.10931526869535446,0.9911867380142212,-0.07482685148715973,0.06875544786453247,0.7158218622207642,0.16412995755672455,0.08479177951812744,0.2798093557357788,0.641736626625061
299,1.1063935843242145,-1.4238872614523364,-1.3947530703315068,0.13087883591651917,0.9892282485961914,-0.06556300818920135,-0.38552749156951904,0.8533822894096375,0.2715409994125366,-0.04103507101535797,-0.31025779247283936,0.17061978578567505
300,1.6252917324952865,-1.4197735856225062,-0.9597773890689375,0.15022628009319305,0.9886177182197571,0.008194755762815475,-1.0616607666015625,1.3861256837844849,0.06004546210169792,-0.18164411187171936,-0.5599830150604248,-0.0734412670135498
301,2.3090446883530715,-1.4196168344429356,-0.38169217087713797,0.11139456927776337,0.988594114780426,0.10135598480701447,0.4124305844306946,-0.04418563097715378,-0.6007495522499084,0.01926642656326294,0.037040650844573975,-0.374778151512146
302,2.4240626945466803,-1.4436656588962178,-0.32395086611414464,0.08336663991212845,0.9919297695159912,0.09552647173404694,0.6949176788330078,0.5885939598083496,-0.05774824693799019,0.15045903623104095,0.3756392002105713,-0.26706576347351074
303,1.623966279098462,-1.4682976912972798,-1.1328874039974244,0.1021752879023552,0.9947516322135925,0.005437780171632767,0.24755384027957916,0.7030163407325745,0.7021374106407166,-0.1541009247303009,0.14294379949569702,0.3630009889602661
304,1.7789844072247052,-1.4022254773814864,-1.0057710167537444,0.164151132106781,0.9858255386352539,0.034676749259233475,-0.22365625202655792,-0.5491349697113037,0.1386578530073166,-0.2596253752708435,-0.3255014419555664,-0.1298152208328247
305,1.6767291443742984,-1.4068193174898806,-1.0979871822906881,0.1623283326625824,0.9865858554840088,0.017260510474443436,0.5965949892997742,0.38206183910369873,0.019792698323726654,-0.0528465211391449,-0.5419142246246338,-0.11374187469482422
306,1.4807485963322684,-1.4653480044878033,-1.1906578901658562,0.10482768714427948,0.9944455027580261,-0.009465091861784458,-0.7957854270935059,-3.4299216270446777,-1.091606855392456,0.15184040367603302,0.1277012825012207,-0.2910109758377075
307,1.4822483533202504,-1.489589015310045,-1.034757534483858,0.08079900592565536,0.9967045187950134,-0.007173345889896154,-0.2016725242137909,0.01772487163543701,0.3591903746128082,0.42254263162612915,0.5171350836753845,-0.397962749004364
308,1.1343524919718475,-1.427142527748946,-1.268786192495507,0.12974081933498383,0.9896995425224304,-0.06051675230264664,-0.2792735993862152,-1.0051978826522827,0.15032924711704254,-0.04445946216583252,0.3049018979072571,0.6429447531700134
309,1.30005380803293,-1.414657032755635,-1.1129431891979467,0.14984150230884552,0.9878349900245667,-0.04158966243267059,-0.3221907317638397,1.1780437231063843,0.3176146149635315,-0.003784388303756714,-0.34043508768081665,0.1804293394088745
310,2.0130796201129213,-1.37767422612929,-0.6004114653707088,0.17345653474330902,0.9814097881317139,0.08214431256055832,-1.485548496246338,2.800140619277954,0.30933183431625366,-0.23720774054527283,-0.46419787406921387,-0.1957765817642212
311,2.3806970031816332,-1.358064563681977,-0.284486933847666,0.1455896645784378,0.9774578213691711,0.15290500223636627,0.028946101665496826,-0.6982724070549011,-0.46050047874450684,0.055277034640312195,0.25624579191207886,-0.17293977737426758
312,2.34802223365384,-1.3983331017291973,-0.38485904705634894,0.12233370542526245,0.9851650595664978,0.12035039067268372,1.0647913217544556,-0.0544896125793457,0.18299007415771484,0.20626431703567505,0.6208987236022949,0.22274351119995117
313,1.9048792590651424,-1.4012506590929137,-0.8786273254789378,0.15940482914447784,0.985661506652832,0.055328335613012314,0.04115491732954979,1.093371033668518,0.792047381401062,-0.30743032693862915,0.13376885652542114,0.2014312744140625
314,1.9896563664550624,-1.3731385193183947,-0.841783845946245,0.17939747869968414,0.9805291891098022,0.07986882328987122,-0.08546140789985657,0.45991024374961853,-0.2318081557750702,-0.16983021795749664,-0.432006299495697,-0.11964846402406693
315,1.8055817382130706,-1.3986670653607445,-1.1239516780034966,0.16658101975917816,0.9852222800254822,0.039845649152994156,1.1409597396850586,0.867599606513977,-0.14525748789310455,0.008818745613098145,-0.46955156326293945,-0.14119446277618408
316,1.67312360340698,-1.4619399058621478,-1.0842842996810942,0.10807455331087112,0.9940809607505798,0.011097735725343227,-0.4911813735961914,-4.0696892738342285,-0.5076990127563477,0.20111429691314697,0.5231005549430847,-0.26089930534362793
317,1.4535021924598606,-1.4545784814666234,-1.1850618175521916,0.115159772336483,0.9932543039321899,-0.013569854199886322,0.9666974544525146,-0.524546205997467,0.5964316129684448,0.1140577644109726,0.7404187917709351,-0.12897777557373047
318,1.0955132980951126,-1.4211387189279545,-1.4460261876553493,0.13257451355457306,0.9888221621513367,-0.06822682917118073,-0.534902811050415,-0.08651326596736908,-0.11960697919130325,0.07521967589855194,0.02449876070022583,0.6905718445777893
319,1.3060979879969732,-1.4173904173306322,-1.2802298198049473,0.14748308062553406,0.9882563948631287,-0.0399765707552433,-0.5217820405960083,0.780612587928772,0.1689099669456482,0.037758633494377136,-0.42824357748031616,0.02709817886352539
320,2.2442007466156704,-1.3853399126273194,-0.5238575154329791,0.144142284989357,0.9828522205352783,0.1149982139468193,-1.083458662033081,2.01961088180542,-0.15910789370536804,-0.2139817625284195,-0.3373749256134033,-0.4301837682723999
321,2.379346273246024,-1.4122495200566192,-0.38721558090670233,0.1090262308716774,0.9874577522277832,0.11419512331485748,-0.2499927431344986,-0.15765288472175598,-0.25479379296302795,0.3519417643547058,0.6879267692565918,0.09309554100036621
322,2.202791680544765,-1.4604807347646895,-0.6412491118530982,0.08882694691419601,0.9939213991165161,0.06503690034151077,1.1923551559448242,-0.2155000865459442,0.08203329890966415,0.09569758176803589,0.36392760276794434,0.2952231168746948
323,1.8968869515536562,-1.4305167787453619,-0.9895020506113746,0.1324513852596283,0.9901769757270813,0.0447901114821434,-0.385027140378952,0.6463479399681091,0.5482239723205566,-0.2902578115463257,-0.0270574688911438,0.045847054570913315
324,1.9620013584364715,-1.4236091138118214,-0.9573058449369504,0.1355765163898468,0.989187479019165,0.05592046678066254,0.2865001857280731,0.2337886244058609,-0.1919640302658081,-0.0992148220539093,-0.4717162251472473,-0.08561408519744873
325,1.5148291805756073,-1.4663481323160605,-1.4108608408855285,0.10409475862979889,0.9945502281188965,-0.0058319768868386745,0.20535781979560852,-1.4264401197433472,-0.7599040269851685,0.1253669261932373,-0.31022411584854126,-0.3411681652069092
326,1.287293149418091,-1.5003705037922856,-1.4003302390782892,0.06755820661783218,0.9975211024284363,-0.019683150574564934,0.2625431716442108,1.3591471910476685,-0.23003554344177246,0.2882004380226135,0.5362465381622314,0.1013329029083252
327,0.8688872012369249,-1.4471781548772658,-1.7807829736467042,0.09415644407272339,0.9923689961433411,-0.07961466163396835,0.6462957262992859,-2.376068115234375,0.31931746006011963,-0.11495417356491089,0.35174721479415894,0.38225746154785156
328,0.837717397394045,-1.4379815119287207,-1.7142689235877389,0.09840749204158783,0.9911930561065674,-0.08861374855041504,-0.14043664932250977,0.19289836287498474,0.30508047342300415,0.16750741004943848,-0.24802899360656738,0.26886582374572754
329,1.5652548970467595,-1.4370615218582752,-1.0615855114251345,0.13333557546138763,0.9910708069801331,-0.0007388772792182863,-1.1999469995498657,1.6026227474212646,0.309182345867157,-0.15608641505241394,-0.5637635588645935,-0.007546663284301758
330,2.2713954132324754,-1.396044305814791,-0.495813340197721,0.1329110562801361,0.9847697019577026,0.11208561807870865,-0.015900053083896637,-0.016135023906826973,-0.6448298692703247,-0.2603066861629486,0.05409437417984009,-0.5379126071929932
331,2.566755901371441,-1.4136666558043562,-0.22044813841172514,0.08507995307445526,0.9876804947853088,0.13133399188518524,0.6118402481079102,0.8311680555343628,0.08358688652515411,0.597064197063446,0.3479517698287964,-0.37704622745513916
332,1.7165832456547532,-1.4660027176294452,-1.032493034946606,0.10349301248788834,0.9945141673088074,0.015195735730230808,0.4607691168785095,-0.14402951300144196,0.5510647892951965,-0.14542417228221893,0.11864501237869263,0.31578266620635986
333,1.8238870146649457,-1.417036254979341,-0.9718248853794597,0.14827658236026764,0.9882022142410278,0.03834977000951767,-0.2236461490392685,0.31677284836769104,0.047224342823028564,-0.22510455548763275,-0.3209505081176758,-0.08795607089996338
334,1.7880818620421,-1.4315877535149024,-1.00822187794475,0.13549770414829254,0.9903261065483093,0.029913954436779022,0.5603817105293274,0.21293383836746216,-0.02135268598794937,-0.010177254676818848,-0.5218201279640198,-0.08560848236083984
335,1.6368474352573708,-1.479585255331039,-1.0382898876428488,0.09088656306266785,0.9958431720733643,0.006011903751641512,-0.18495261669158936,-3.9176244735717773,-0.3395189046859741,0.19368986785411835,0.05344277620315552,-0.614608645439148
336,1.278384183517882,-1.4969742175217506,-1.3585641606457735,0.07062559574842453,0.9972763657569885,-0.021261245012283325,0.35062137246131897,0.27202776074409485,0.18903765082359314,0.3946911692619324,0.7830581068992615,-0.30816078186035156
337,0.6682293235060229,-1.433678108048864,-1.7665241368655107,0.08469169586896896,0.9906139969825745,-0.1072894036769867,-0.34458762407302856,-0.5011881589889526,-0.04231608286499977,0.09580450505018234,0.2289751172065735,1.1093798875808716
338,0.9972770595632797,-1.441953598889388,-1.4714923844936838,0.10792829841375351,0.9917112588882446,-0.06971573829650879,-0.8339929580688477,0.2490260750055313,0.37208569049835205,0.052655190229415894,-0.46513044834136963,0.08370804786682129
339,2.2006235874056834,-1.4003906624344629,-0.44261674721208777,0.1370438188314438,0.9855160713195801,0.09988442063331604,-1.6155638694763184,3.1271345615386963,0.18107721209526062,-0.22041785717010498,-0.47073036432266235,-0.2581791877746582
340,2.44882366020692,-1.413621237529037,-0.23650583332561542,0.09996972978115082,0.9876734018325806,0.12044517695903778,-0.23327338695526123,-0.6750324964523315,-0.26540297269821167,0.263311505317688,0.6880314350128174,0.04979716241359711
341,2.182549174665305,-1.4558733847552114,-0.552120438148193,0.093874491751194,0.9934036135673523,0.06585588306188583,1.1518133878707886,-0.42514774203300476,0.09730155020952225,0.1249975711107254,0.6192825436592102,0.30433762073516846
342,1.5845943831167153,-1.4330957374299713,-1.1271644561982406,0.1372527778148651,0.990534245967865,0.001893941662274301,0.046074457466602325,-0.08251052349805832,0.4412655830383301,-0.2645263373851776,0.05872112512588501,0.08050358295440674
343,1.6870020500717107,-1.43569660924714,-0.9558335954279286,0.13378100097179413,0.9908878803253174,0.015616475604474545,-0.27372995018959045,-1.070133924484253,-0.20506338775157928,-0.10983994603157043,-0.5637944340705872,-0.08420467376708984
344,1.5782055027971849,-1.4668278516093611,-1.0037760255060708,0.10377934575080872,0.9946001172065735,0.0007689335034228861,0.2301279902458191,-0.121430903673172,-0.675386369228363,0.07699154317378998,-0.4748094081878662,-0.07051682472229004
345,2.4104418846999636,-1.5188590719055963,-0.011981877818401517,0.03466304764151573,0.9986515641212463,0.03864365071058273,-0.7032038569450378,-2.7264597415924072,-0.2619587182998657,0.23672977089881897,0.7443292737007141,-0.2084130048751831
346,2.0277918968896516,-1.4778472693163003,-0.2769477351399606,0.08328971266746521,0.9956833720207214,0.0409545861184597,1.0671814680099487,-0.9354894161224365,0.6830616593360901,0.04790534824132919,0.8015730381011963,-0.084381103515625
347,1.2847556435581309,-1.4573246093564192,-1.0233612390734894,0.10862766951322556,0.993569016456604,-0.03194804489612579,-0.16761042177677155,0.8780212998390198,-0.05262964963912964,0.22581446170806885,-0.131386399269104,0.5418967604637146
348,1.8185637543578088,-1.4422826333759502,-0.593347637501113,0.12424736469984055,0.9917534589767456,0.03143025189638138,-0.7362794876098633,1.5321325063705444,0.22013656795024872,-0.10158802568912506,-0.532860517501831,-0.04862689599394798
349,2.563347654610195,-1.3590035695803682,-0.03730462475386133,0.11489279568195343,0.9776556491851807,0.17603693902492523,-0.3940810263156891,0.1625063419342041,-0.5469301342964172,-0.22057518362998962,-0.21026068925857544,-0.6706658601760864
350,2.5731260108003795,-1.4033888061990025,-0.0014788647842338646,0.0897023156285286,0.986020028591156,0.1404215395450592,0.34041735529899597,1.9487357139587402,0.022358013316988945,0.419269859790802,0.39783018827438354,0.025517836213111877
351,1.828567510660951,-1.4341057001492323,-0.8000558721797632,0.1317625194787979,0.9906723499298096,0.034737396985292435,0.19644351303577423,0.9983465671539307,0.934087872505188,-0.2153654396533966,0.3163648843765259,0.5084145069122314
352,1.9820727508948834,-1.3865555575449748,-0.7477464511537787,0.167923241853714,0.9830756187438965,0.07323964685201645,0.08462786674499512,0.3400489091873169,-0.14903320372104645,-0.2620852291584015,-0.34863048791885376,-0.17783868312835693
353,1.7848592024734111,-1.4161481330746077,-0.8960972061712001,0.15051740407943726,0.988065779209137,0.032721519470214844,0.5323970317840576,-1.0905795097351074,-0.2308751791715622,-0.005864068865776062,-0.6361522078514099,-0.13101863861083984
354,1.7073123332615863,-1.4788375321889493,-0.8307788407003833,0.09097550064325333,0.9957747459411621,0.012497344985604286,-0.7479376196861267,-2.256497383117676,-0.8385413289070129,0.11649826169013977,0.10346841812133789,-0.21162450313568115
355,1.7867510010010215,-1.4797883762824737,-0.6732854272709505,0.08877085149288177,0.9958616495132446,0.01947416178882122,0.45672178268432617,0.0670468881726265,0.5078868269920349,0.18744376301765442,0.7878602147102356,-0.4774056673049927
356,1.0173009435517435,-1.4302175232482075,-1.2913698317844615,0.11919642984867096,0.9901350736618042,-0.07365443557500839,-0.5152578949928284,-0.1615460216999054,-0.1428903043270111,0.06010960042476654,0.29808831214904785,1.0962374210357666
357,1.350651328709295,-1.4256459865214197,-1.0076362423361733,0.14114968478679657,0.9894841909408569,-0.03158530220389366,-0.5419070720672607,0.7751227021217346,0.5152164697647095,-0.01630227267742157,-0.4610724449157715,0.08558613061904907
358,1.9609607085794032,-1.3896926487504975,-0.5761203985747283,0.1665792167186737,0.983645498752594,0.06850521266460419,-1.1492059230804443,3.6094958782196045,0.23048049211502075,-0.2538594603538513,-0.565432608127594,-0.12583255767822266
359,2.2904351384456354,-1.3941543013669788,-0.3541813946622194,0.13215267658233643,0.9844393134117126,0.1158224418759346,0.2400871217250824,-1.8906407356262207,-0.28854647278785706,0.13568483293056488,0.4785122871398926,-0.22133708000183105
360,2.2205513120252354,-1.4352033681865288,-0.4879162532325026,0.10763276368379593,0.990821361541748,0.0817812979221344,1.4471886157989502,-0.41147929430007935,0.07776491343975067,0.04303250461816788,0.4919208884239197,0.26332664489746094
361,1.4426810605743576,-1.4171704733532684,-1.2047321962010165,0.1517682522535324,0.9882227182388306,-0.01955091394484043,-0.09951922297477722,0.09522165358066559,0.9762043356895447,-0.2642560601234436,0.13366448879241943,0.2661176919937134
362,1.5190822803639983,-1.399909274777176,-1.1711619450755841,0.16982951760292053,0.9854342937469482,-0.008790409192442894,0.30555617809295654,0.2261241227388382,-0.25835633277893066,-0.13688577711582184,-0.38349026441574097,-0.06442129611968994
363,1.3093924452401628,-1.426543341609315,-1.3789632102431402,0.13886937499046326,0.9896135926246643,-0.03715107589960098,0.008865215815603733,-0.42490068078041077,-0.4376503825187683,0.08488550782203674,-0.5380602478981018,-0.11813759803771973
364,1.6674903134343633,-1.483283962167852,-0.9529974850373042,0.08699274063110352,0.9961732625961304,0.0084379892796278,0.4602477550506592,-0.7753228545188904,0.15901640057563782,0.2852606773376465,0.6750150918960571,-0.45111072063446045
365,1.3869190006541572,-1.4220101818407636,-1.263153576394448,0.1457383781671524,0.9889517426490784,-0.027104144915938377,0.034708958119153976,0.5568013787269592,0.7301536202430725,-0.0685899555683136,0.8506783246994019,0.17488551139831543
366,1.1335782943811628,-1.3841791660763834,-1.4793753363524575,0.16808265447616577,0.9826374650001526,-0.07855954766273499,0.1685117930173874,-1.3205510377883911,-0.2192898541688919,-0.07631629705429077,0.31980687379837036,0.4958874583244324
367,1.1844621234518637,-1.4246757753600119,-1.3276122104498578,0.13486984372138977,0.9893433451652527,-0.05486183241009712,-0.8350171446800232,0.008498097769916058,0.059736400842666626,-0.06892135739326477,-0.562753438949585,0.06626015901565552
368,1.9461284775933072,-1.4391961179654382,-0.8055907207971646,0.12208671867847443,0.9913531541824341,0.048103418201208115,0.7820947170257568,1.8615137338638306,0.04966568574309349,0.04072454571723938,-0.5291186571121216,-0.2564622163772583
369,2.1323859576657567,-1.445938591486026,-0.6834728079619047,0.1054069921374321,0.9922153949737549,0.06631851941347122,-0.5320757031440735,0.24574579298496246,-0.2725958228111267,0.152024045586586,0.47857940196990967,-0.08569716662168503
370,1.8574137948122356,-1.465470437251098,-1.0170546393603812,0.10084282606840134,0.9944583773612976,0.029721681028604507,1.05290687084198,-0.26997366547584534,0.20630258321762085,0.09761299192905426,0.30733001232147217,0.36929571628570557
371,1.203421272497939,-1.41437231902313,-1.6120624905386518,0.14539217948913574,0.9877907037734985,-0.055953651666641235,0.09839678555727005,-0.14331386983394623,0.9694750905036926,-0.15321990847587585,0.17813348770141602,0.19244349002838135
372,1.297796826177434,-1.4034946675806967,-1.5257350432360337,0.16035515069961548,0.9860376715660095,-0.04489785060286522,-0.08467128127813339,-0.4063485562801361,-0.5277183651924133,-0.15037591755390167,-0.4021143913269043,-0.050164397805929184
373,1.1189829454047238,-1.4641440580460774,-1.5993890699594167,0.09576919674873352,0.9943180084228516,-0.046476174145936966,-0.26567429304122925,-1.5258058309555054,-0.558929979801178,0.09588120877742767,-0.4632510542869568,-0.10475373268127441
374,1.5894506108046393,-1.5099187160398406,-0.9023290252214453,0.060830581933259964,0.9981475472450256,0.0011348825646564364,0.17890973389148712,-1.078073263168335,0.19446328282356262,0.15320447087287903,0.5798707604408264,-0.27089500427246094
375,1.223069125418822,-1.4637294577419284,-1.3194086074431643,0.1004672721028328,0.994273841381073,-0.03641486540436745,0.4213169813156128,-1.3018007278442383,0.832881510257721,-0.010913431644439697,0.792911946773529,-0.01192498579621315
376,1.028948013892511,-1.4391333384177667,-1.3491196112398673,0.11247691512107849,0.9913449287414551,-0.06770490109920502,-0.3232469856739044,-0.5321512818336487,-0.05170079320669174,0.08845080435276031,0.08198869228363037,0.8233201503753662
377,1.304769270502101,-1.4396636420054367,-1.1255462120541164,0.12615734338760376,0.9914144277572632,-0.034376055002212524,-0.5332736968994141,1.1555591821670532,0.30856412649154663,-0.01212841272354126,-0.4018148183822632,0.04832261800765991
378,2.290049072030028,-1.4054304746833868,-0.3958953636289012,0.12383906543254852,0.9863582253456116,0.10845164954662323,-0.15070293843746185,2.321747303009033,-0.10636115819215775,-0.09028495848178864,-0.370116651058197,-0.4708327054977417
379,2.454735261508638,-1.4199952049932179,-0.20758820843327408,0.09526296705007553,0.9886510372161865,0.116164930164814,-0.503011167049408,0.10173676162958145,-0.4322817027568817,0.40569835901260376,0.533352255821228,0.057815805077552795
380,2.1888474207256414,-1.4658128246172666,-0.54751066177116,0.0854051262140274,0.9944943189620972,0.06072055548429489,1.301659107208252,-0.28248071670532227,0.0797748938202858,0.0644361823797226,0.47550690174102783,0.417871356010437
381,1.5010168584764971,-1.4309941611259156,-1.2024008716369634,0.1390085071325302,0.9902435541152954,-0.009715713560581207,-0.28028926253318787,0.4287847578525543,0.9351654052734375,-0.24395844340324402,0.1331695318222046,0.21799814701080322
382,1.7192619710604817,-1.4135116049606027,-1.022290315764416,0.15491434931755066,0.9876562356948853,0.023169947788119316,0.12255731970071793,0.1381155401468277,-0.2521865665912628,-0.11653849482536316,-0.46507322788238525,-0.07904767990112305
383,1.4478112355996897,-1.4523133218377273,-1.2589977331265245,0.11731372028589249,0.9929891228675842,-0.014501024037599564,0.11381656676530838,-1.2174171209335327,-0.568199872970581,0.1031300276517868,-0.3781971335411072,-0.21009308099746704
384,1.5421768045706232,-1.4889981153744059,-0.9427263801366921,0.08167537301778793,0.9966564178466797,-0.0023381486535072327,0.8856897950172424,-0.4476467967033386,0.15522244572639465,0.23331180214881897,0.5408956408500671,-0.255535364151001
385,1.232126992103776,-1.4558973793206764,-1.2860455228911194,0.10813428461551666,0.993406355381012,-0.038089264184236526,0.30170753598213196,-2.148388624191284,0.41232261061668396,-0.08375075459480286,0.5026568174362183,0.19882535934448242
386,0.8628547313439403,-1.4343987479970066,-1.4793680159694116,0.10329996049404144,0.9907122850418091,-0.08842020481824875,-0.25175756216049194,-0.5413542985916138,0.027573559433221817,0.23904624581336975,-0.07022589445114136,0.34112101793289185
387,1.5295586387635691,-1.4342189325972716,-0.8419282617714887,0.13603849709033966,0.9906877875328064,-0.005613095127046108,-1.1717816591262817,2.446479558944702,0.4250871241092682,-0.15596647560596466,-0.6148331761360168,0.11469817161560059
388,2.2100551271845896,-1.4042307969877255,-0.48535577533666174,0.13305777311325073,0.9861599802970886,0.09891413152217865,-0.3201853036880493,0.6435454487800598,-0.3028024137020111,-0.33519095182418823,-0.2028501033782959,-0.5653905868530273
389,2.570989540844743,-1.4124218078098787,-0.10705620452079544,0.08518722653388977,0.9874849319458008,0.13272765278816223,0.6361340284347534,2.0541563034057617,-0.009885258972644806,0.5668056011199951,0.5391263961791992,-0.033499717712402344
390,2.14576394043128,-1.4528826320761214,-0.616193412789983,0.09872594475746155,0.9930562376976013,0.06397436559200287,0.7045121788978577,0.7798370718955994,0.43894216418266296,-0.19041599333286285,0.14090079069137573,0.35407066345214844
391,1.897539208398073,-1.414358531013823,-0.9563083780513426,0.1475578099489212,0.9877885580062866,0.05000581592321396,-0.38275787234306335,0.0414433553814888,-0.1230078935623169,-0.342229425907135,-0.20702683925628662,-0.24170196056365967
392,2.0483732658683182,-1.4257784704943548,-0.7809937494420467,0.1283407062292099,0.9895033240318298,0.06642080098390579,0.3735157251358032,-0.3554169237613678,-0.15822657942771912,-0.0665273666381836,-0.5764327049255371,-0.10070730000734329
393,1.4740422919936755,-1.484676328665376,-1.3313622362855417,0.08561086654663086,0.9962939620018005,-0.008309140801429749,0.09572561830282211,-1.5055766105651855,-1.0053658485412598,0.13384103775024414,-0.11575508117675781,-0.25179219245910645
394,1.7915739425669253,-1.5200363652431421,-0.7425375201452048,0.04950765147805214,0.9987120032310486,0.011111302301287651,0.1553201675415039,-0.09276960045099258,0.4263220429420471,0.37236735224723816,0.4826264977455139,-0.16232597827911377
395,0.9951628206054132,-1.43610596007669,-1.4689537685289458,0.11264361441135406,0.9909429550170898,-0.07309955358505249,0.6556267738342285,-2.239217519760132,0.2785683572292328,-0.24519670009613037,0.44977664947509766,0.5675758719444275
396,1.0487680543647475,-1.4426498187064032,-1.3375426685784617,0.11077406257390976,0.9918004870414734,-0.06372368335723877,-0.29146450757980347,0.2628478705883026,0.22091133892536163,0.13664717972278595,-0.22123175859451294,0.27011406421661377
397,1.6490936020038447,-1.4183947188670591,-0.8642110874800994,0.1513466238975525,0.9884093403816223,0.011874302290380001,-0.8123595118522644,2.4645519256591797,0.2514084279537201,-0.1668495535850525,-0.6067413091659546,-0.002642751671373844
398,2.2639449935833915,-1.386928879864471,-0.43779596665312986,0.14064191281795502,0.9831439256668091,0.11682327836751938,-0.13317112624645233,-0.2952057123184204,-0.7460857629776001,-0.2403275966644287,0.03293871879577637,-0.5535145998001099
399,2.431470184353096,-1.4251330335649892,-0.2852252302329916,0.09462667256593704,0.989409863948822,0.1100640818476677,0.6162777543067932,1.0666006803512573,0.08961096405982971,0.5120017528533936,0.31834471225738525,-0.2859063148498535
400,1.7235268408407554,-1.456999218184414,-1.0245001174792656,0.11223036050796509,0.993532121181488,0.017275536432862282,0.47951337695121765,0.4794234037399292,0.6378999948501587,-0.2274342030286789,0.11967295408248901,0.3587925434112549
401,1.75212222570868,-1.4140610468054828,-1.0262600116664227,0.1535351574420929,0.9877421259880066,0.028149083256721497,-0.10959620028734207,-0.45822644233703613,-0.08648540824651718,-0.1834423840045929,-0.31934618949890137,-0.15572786331176758
402,1.6752151249792486,-1.4349901589634564,-1.062095855494696,0.13465136289596558,0.9907925128936768,0.014111458323895931,0.4739832878112793,0.26351290941238403,-0.1595069169998169,0.015907078981399536,-0.5705044865608215,-0.05263984203338623
403,1.613698263089574,-1.4792444934774962,-1.0817610631532995,0.0913383886218071,0.9958120584487915,0.003920999821275473,-0.39926454424858093,-2.123600482940674,-0.43694278597831726,0.12115548551082611,0.11141127347946167,-0.3233485221862793
404,1.3068990413576673,-1.4748559040034317,-1.2402746080613352,0.09247612208127975,0.9954012632369995,-0.024986954405903816,-0.2601279318332672,0.34865087270736694,0.3904862105846405,0.35419440269470215,0.6107693314552307,-0.39711689949035645
405,0.819845560220296,-1.416060821729865,-1.5477548575299966,0.11266756057739258,0.9880523085594177,-0.10516096651554108,-0.0495443120598793,-2.1028573513031006,0.050202157348394394,0.14300872385501862,0.24440020322799683,0.8466465473175049
406,1.0152632009353435,-1.4227879507402847,-1.2968579973529797,0.12529246509075165,0.9890667200088501,-0.07777456939220428,-0.819333553314209,0.0070478059351444244,0.40543442964553833,0.044843047857284546,-0.4285656213760376,0.11615043878555298
407,1.9439945831496261,-1.398430224975886,-0.5577332167934479,0.15970760583877563,0.9851816892623901,0.06253305822610855,-0.45853331685066223,2.963073968887329,0.1103561520576477,-0.16365963220596313,-0.4202709197998047,-0.19107306003570557
408,2.392634592608134,-1.394699369824292,-0.15165381647915172,0.11928161978721619,0.9845349788665771,0.12830780446529388,-0.44349920749664307,-0.19004632532596588,-0.6180034279823303,0.2394525110721588,0.5598528385162354,-0.22741365432739258
409,1.9767733305903288,-1.451832765221851,-0.611223850909166,0.10903581976890564,0.9929322004318237,0.04686976224184036,1.3531808853149414,-0.08200205862522125,0.07770638912916183,0.06872905790805817,0.464297354221344,0.38275671005249023
410,1.422846545482076,-1.4160959262001054,-1.1700280565954015,0.1524006724357605,0.9880577325820923,-0.022713616490364075,-0.1278260201215744,0.6945134401321411,0.5340834259986877,-0.286174476146698,0.20209723711013794,0.18828672170639038
411,1.588260153741515,-1.4131283687187886,-1.0495727313090235,0.15699197351932526,0.9875961542129517,0.002741959411650896,0.10812488943338394,-0.09334469586610794,-0.2783222496509552,-0.08017921447753906,-0.5393081903457642,-0.10663902759552002
412,1.2720431317506031,-1.4562395291578485,-1.3318114454323244,0.10924334079027176,0.9934455156326294,-0.03364374488592148,0.15161094069480896,-0.5329968333244324,-0.6513808965682983,0.06406597793102264,-0.4459143877029419,-0.06862062215805054
413,1.343254059258639,-1.5207641603886763,-1.1265456980039636,0.048723187297582626,0.9987486600875854,-0.011281969957053661,0.9469811320304871,-1.078885555267334,0.0034622298553586006,0.33427244424819946,0.703445553779602,-0.37505531311035156
414,1.3323365694218017,-1.467886655213416,-1.122889474254158,0.09982160478830338,0.9947094917297363,-0.024265117943286896,0.11688001453876495,-1.7872815132141113,0.8550434708595276,-0.0027909576892852783,0.6465411186218262,0.06254947185516357
415,1.051481666557399,-1.426333859417167,-1.2775286257167904,0.12497980892658234,0.989583432674408,-0.07144498080015182,-0.10655062645673752,-0.44757863879203796,0.08843715488910675,0.08235657960176468,0.11226880550384521,0.5863986015319824
416,1.3997660197943818,-1.4241203958465296,-0.959447030672124,0.1440180242061615,0.9892623424530029,-0.024874458089470863,-0.7255054116249084,1.255815863609314,0.2876381278038025,-0.07558237016201019,-0.4975174069404602,0.08960223197937012
417,2.141516692680567,-1.3832824613439978,-0.4608109251422726,0.15687182545661926,0.9824707508087158,0.10070940852165222,-0.78167724609375,2.0721054077148438,0.05112588033080101,-0.25385671854019165,-0.3861573338508606,-0.4075331687927246
418,2.320108352539902,-1.4013420125593716,-0.23081831961004293,0.12347444891929626,0.9856769442558289,0.11486978828907013,0.14025665819644928,1.0053822994232178,-0.3542026877403259,0.45379602909088135,0.7740123867988586,0.2170851230621338
419,1.8995569475216085,-1.4396722344149766,-0.7542070853578983,0.12374529987573624,0.9914155602455139,0.04221455380320549,1.2075408697128296,0.21034370362758636,0.12514850497245789,-0.10517537593841553,0.47333651781082153,0.40451693534851074
420,1.7135291054052526,-1.3955033131328964,-1.0153534278973548,0.17262326180934906,0.9846754670143127,0.02480769343674183,-0.32772505283355713,0.7708203792572021,0.22863373160362244,-0.37425288558006287,0.09093177318572998,-0.01864314079284668
421,1.8846058158883445,-1.4088409941063453,-0.8879688683019981,0.1533738076686859,0.9869138598442078,0.04977486655116081,0.17192454636096954,0.315611332654953,-0.21526029706001282,-0.0697403997182846,-0.5675870776176453,-0.1148231029510498
422,1.6949924106875374,-1.448969699396378,-1.0972991847967386,0.12059040367603302,0.9925882816314697,0.015054338611662388,0.03746400028467178,-0.6782820224761963,-0.6623051166534424,0.03692608326673508,-0.37936800718307495,-0.2015320062637329
423,1.7918610088880513,-1.4972186813387454,-0.8194782942519006,0.07172086834907532,0.9972943663597107,0.016118375584483147,0.731853187084198,-1.193703532218933,-0.07567322999238968,0.3706924617290497,0.6923570036888123,-0.19923913478851318
424,1.3913386350936452,-1.439428529624074,-1.2579485007690323,0.12888610363006592,0.9913836717605591,-0.02338114008307457,1.626649260520935,-1.533341407775879,0.8875330090522766,-0.10190856456756592,0.6273601651191711,0.04291236400604248
425,1.2359890201745838,-1.447615259942019,-1.2113540931834346,0.11604682356119156,0.9924228191375732,-0.04037328064441681,-0.6846715211868286,0.2536919116973877,0.05412024259567261,0.16521844267845154,-0.18135720491409302,0.5429825186729431
426,1.7268237144644396,-1.4289615841410337,-0.757780726327416,0.13964325189590454,0.9899582862854004,0.02196671813726425,-0.7712409496307373,0.8685008883476257,0.15784315764904022,-0.07430510222911835,-0.6023086905479431,-0.04381728172302246
427,2.374266355502781,-1.40492421210529,-0.3721759673943038,0.11462356150150299,0.9862747192382812,0.1188432052731514,0.11183372139930725,0.8315070271492004,-0.3442702889442444,-0.147216334939003,-0.20835113525390625,-0.5779954195022583
428,2.6650021007088354,-1.4192140820202894,-0.059999250714820734,0.06927301734685898,0.9885333776473999,0.13417592644691467,0.4880121946334839,2.3456780910491943,-0.05021193251013756,0.4948139190673828,0.42778754234313965,-0.2395225614309311
429,1.9976003214229643,-1.4867616237673784,-0.7408821285610011,0.0764065682888031,0.9964711666107178,0.03474653139710426,0.48547330498695374,-0.5061172842979431,0.5360429286956787,-0.0506192222237587,0.15349221229553223,0.30666887760162354
430,1.7544931369341104,-1.413096382905972,-0.982904333584116,0.1544053703546524,0.9875910878181458,0.02868717908859253,0.12566837668418884,-0.15347138047218323,0.19128617644309998,-0.3063371479511261,-0.18882399797439575,-0.0636146068572998
431,1.6000378999833158,-1.4278118857905786,-1.0749868455498168,0.14243802428245544,0.9897951483726501,0.004166299477219582,0.18766650557518005,-0.8171279430389404,-0.2297169715166092,-0.07572659850120544,-0.5464509129524231,-0.017212510108947754
432,1.5001251093529955,-1.4765404820017594,-1.0993489711273752,0.09388239681720734,0.9955611824989319,-0.00664585130289197,-0.6670458316802979,-1.598103642463684,-0.674098551273346,0.08321113884449005,-0.09159988164901733,-0.19234400987625122
433,2.018464998200872,-1.483663752995755,-0.360946463034748,0.07844799011945724,0.9962063431739807,0.037669386714696884,-0.30429840087890625,1.1277552843093872,0.46503549814224243,0.28815966844558716,0.6780490875244141,-0.13486790657043457
434,0.9229226511315746,-1.4305626175386688,-1.4417394261233931,0.11145193129777908,0.9901833534240723,-0.08435291796922684,1.0951627492904663,-0.041273146867752075,0.14690770208835602,0.015409648418426514,0.19772863388061523,0.9136223196983337
435,1.2501255507170894,-1.4585458290073532,-1.148324626593849,0.10630446672439575,0.9937065243721008,-0.03530732914805412,-0.6799756288528442,-0.2581360936164856,0.06071515381336212,0.09987227618694305,-0.3743065595626831,0.18235629796981812
436,2.023982536333558,-1.4394190888273262,-0.42044477611585634,0.11777561902999878,0.9913824200630188,0.057355646044015884,-1.4569363594055176,3.1984951496124268,0.18463337421417236,-0.23549717664718628,-0.7010992765426636,0.044283147901296616
437,2.55491822141327,-1.4327648760301486,-0.07221328895774817,0.07617080956697464,0.9904887676239014,0.11458566784858704,0.19413267076015472,-1.8619952201843262,-0.6062426567077637,-0.057478807866573334,0.17657965421676636,-0.42580389976501465
438,2.7992228454660752,-1.4523306886996667,0.18137501914537169,0.039678532630205154,0.9929911494255066,0.11132975667715073,1.159747838973999,0.5222751498222351,0.059339240193367004,0.24297526478767395,0.4375203251838684,-0.1464860439300537
439,1.8258486302059223,-1.4763090757486013,-0.7816690583823928,0.09129425138235092,0.9955394268035889,0.023803208023309708,-0.018902743235230446,0.15533770620822906,1.156473159790039,-0.22288605570793152,0.10544323921203613,0.2108464241027832
440,1.7247853923058594,-1.436344005525315,-0.8681142390669033,0.13246160745620728,0.9909749031066895,0.020560411736369133,0.049399882555007935,-0.4705107510089874,-0.25542983412742615,-0.2503357529640198,-0.40837907791137695,-0.1081763505935669
441,1.4856302963924135,-1.4568112949271383,-1.0187570675035282,0.11332643777132034,0.9935107231140137,-0.009674965403974056,0.37252625823020935,-0.9438034892082214,-0.3051934540271759,0.028336167335510254,-0.5519976615905762,-0.032790184020996094
442,1.4295400723892155,-1.5135511230344638,-0.9273184340185743,0.05664416030049324,0.9983619451522827,-0.008054988458752632,-0.8876683115959167,-2.501680612564087,-0.3210203945636749,0.14188793301582336,0.24861681461334229,-0.1906754970550537
443,1.4780776634082151,-1.4945235141205584,-0.9004282142534324,0.07587157189846039,0.9970926642417908,-0.007054938934743404,0.49112069606781006,0.10452621430158615,0.5380862355232239,0.21866881847381592,0.5993276238441467,-0.4884589910507202
444,1.035148888347655,-1.4285084883419468,-1.2040462896039328,0.12194628268480301,0.9898941516876221,-0.07237859070301056,-0.0695207342505455,0.05237913131713867,-0.09568820893764496,-0.05863756686449051,0.23897236585617065,0.9483094215393066
445,1.1643375273947822,-1.4217785957047357,-1.1297280983831086,0.13637012243270874,0.9889174103736877,-0.058697450906038284,-0.508683979511261,0.9340511560440063,0.1934722661972046,-0.020174458622932434,-0.4380751848220825,0.08939814567565918
446,2.065055970140047,-1.4060330515130264,-0.45521411028591846,0.14438901841640472,0.9864572286605835,0.0778072252869606,-0.7681838870048523,2.17134165763855,-0.07244624197483063,-0.19398006796836853,-0.561484694480896,-0.3350856304168701
447,2.3656529120018166,-1.4065827230548467,-0.16083494274922422,0.11449746042490005,0.9865472316741943,0.11668413877487183,-0.1862221211194992,-0.13809293508529663,-0.2316943258047104,0.31670066714286804,0.5568031072616577,0.016372457146644592
448,2.1326035252461626,-1.4462247126416647,-0.472820356194407,0.1051519587635994,0.9922509789466858,0.06618999689817429,1.4128936529159546,0.021828174591064453,0.2046685516834259,0.1857873648405075,0.5854925513267517,0.3449122905731201
449,1.5419776257791284,-1.4206713681441245,-1.0590954009205318,0.14949986338615417,0.9887524247169495,-0.004309585317969322,-0.3065640926361084,0.4894730746746063,0.7096965312957764,-0.27717018127441406,0.1430072784423828,0.21013540029525757
450,1.7611969597856338,-1.4120971035468763,-0.8575027630936148,0.15517748892307281,0.987433671951294,0.029908183962106705,-0.08295591920614243,-0.24953894317150116,-0.24991624057292938,-0.0954698771238327,-0.511832594871521,-0.1223001480102539
451,1.6036960438660521,-1.4420447184323284,-0.9828749936981085,0.12832681834697723,0.9917229413986206,0.00422343984246254,0.3393419682979584,-0.8930196166038513,-0.40828031301498413,0.060271814465522766,-0.4533013701438904,-0.20719587802886963
452,1.44897960635923,-1.484178625549173,-0.9124414798696864,0.08586689084768295,0.9962510466575623,-0.010512071661651134,0.5502945184707642,-1.6796728372573853,-0.1355305165052414,0.22623637318611145,0.6355237364768982,-0.221329927444458
453,1.2606261183487066,-1.4513531614576647,-1.1215930033119157,0.11347406357526779,0.9928751587867737,-0.036370161920785904,0.6252132654190063,-1.841639518737793,0.727997899055481,-0.013452693819999695,0.7844992280006409,-0.03821480646729469
454,0.9643906163096184,-1.4300985762072922,-1.2100283314553166,0.11523114144802094,0.9901183843612671,-0.07992226630449295,-0.2504836618900299,0.3609353303909302,0.03902534395456314,0.13231220841407776,0.06270754337310791,0.8947110772132874
455,1.3559209591765398,-1.4217513917932323,-0.9506273170111149,0.1450788974761963,0.988913357257843,-0.03166269138455391,-0.6875348687171936,1.6259485483169556,0.2217944860458374,-0.06748795509338379,-0.5256412625312805,0.022904157638549805
456,2.3029991041768194,-1.377232554386149,-0.23927011212220722,0.14305678009986877,0.9813249707221985,0.12859264016151428,-0.8324500322341919,0.6891376376152039,-0.2887769341468811,-0.2693690359592438,-0.4165056347846985,-0.7478247880935669
457,2.371159520885109,-1.4037512939442767,-0.10908704745251506,0.11579734832048416,0.9860804080963135,0.11931608617305756,-0.18164300918579102,0.8647569417953491,-0.3123733699321747,0.46952980756759644,0.7040898203849792,0.13977813720703125
458,2.054986510769156,-1.4390836367552289,-0.5042992238557255,0.11623620241880417,0.9913384318351746,0.06113424152135849,1.2196745872497559,-0.41850724816322327,0.12654411792755127,-0.03405235707759857,0.5085853934288025,0.3278733491897583
459,1.7381299405341366,-1.381660399446188,-0.7972845280657463,0.1853843629360199,0.9821670651435852,0.03131385147571564,-0.3013741075992584,0.5644380450248718,0.568123996257782,-0.4246116578578949,0.0804092288017273,0.17794513702392578
460,1.9127390154992052,-1.3840626458611505,-0.6962163444491797,0.17490284144878387,0.9826158881187439,0.06225214898586273,0.026004189625382423,0.446788489818573,-0.1914709359407425,-0.11827746033668518,-0.5375168323516846,-0.12148677557706833
461,1.7929519208903328,-1.4115336995362997,-0.7939167104843642,0.15469305217266083,0.98734450340271,0.03494266793131828,0.15073388814926147,-1.836651086807251,-0.4570663273334503,0.03469903767108917,-0.28676772117614746,-0.3596649169921875
462,1.7522880924661883,-1.4434639684254615,-0.600458070656896,0.12490303069353104,0.9919041991233826,0.022921092808246613,1.2347934246063232,1.644921064376831,0.01578039489686489,0.29201287031173706,0.8406763672828674,-0.030718326568603516
463,1.3036917957341418,-1.4124461760765905,-1.138649660864951,0.15209685266017914,0.9874888062477112,-0.041620299220085144,0.8260517120361328,-1.2559317350387573,0.3954179883003235,-0.17786897718906403,0.34619027376174927,0.28112226724624634
464,1.0746044494095122,-1.397281081812901,-1.2726736495351882,0.1518254578113556,0.9849839806556702,-0.08219346404075623,-0.44267141819000244,-0.4657853841781616,-0.03672180697321892,0.08242747187614441,-0.1995377540588379,0.20278364419937134
465,1.6568129458695635,-1.4052622215103452,-0.7312751261108863,0.16417118906974792,0.986330509185791,0.014156381599605083,-1.0587127208709717,3.724545955657959,0.12160786986351013,-0.17212097346782684,-0.5174124240875244,0.07233047485351562
466,2.170108540898965,-1.4004938561675748,-0.47558809525702883,0.13994313776493073,0.9855335354804993,0.09559901058673859,-0.9022436141967773,-0.26202356815338135,-0.5544532537460327,-0.005711585283279419,-0.02954012155532837,-0.40790072083473206
467,2.357429765889462,-1.4215910804440142,-0.3300189729408166,0.10498329252004623,0.9888895153999329,0.10524298250675201,0.7583194375038147,0.6058340668678284,0.04786629229784012,0.14686301350593567,0.48370563983917236,-0.3699676990509033
468,1.7137369325962637,-1.4583136364547,-0.9994668907527625,0.11110018193721771,0.993680477142334,0.015989776700735092,0.6268657445907593,-0.24344855546951294,0.34055963158607483,-0.1527871936559677,0.26904523372650146,0.2247939109802246
469,1.6204679014572527,-1.4115940395842221,-1.0954841339320565,0.15833528339862823,0.987354040145874,0.007871237583458424,-0.05053841322660446,0.13121527433395386,-0.16127243638038635,-0.25391632318496704,-0.22356009483337402,-0.054227471351623535
470,1.4985711141714209,-1.4328945820760155,-1.2032360919094311,0.137105792760849,0.9905065894126892,-0.009919749572873116,0.3698127567768097,-0.3845929801464081,-0.33818575739860535,-0.008458971977233887,-0.544324517250061,-0.05758512020111084
471,1.2905942810159474,-1.484585037339986,-1.3378530984967676,0.08274566382169724,0.9962860941886902,-0.023811975494027138,-0.6653758883476257,-1.625699758529663,-0.6169040203094482,0.09930694848299026,-0.11129170656204224,-0.16735011339187622
472,1.0256283842823875,-1.4937888155938734,-1.5320372460459613,0.06578043103218079,0.9970363974571228,-0.03989427909255028,0.48641499876976013,2.981060028076172,0.23195523023605347,0.3697969615459442,0.4114871621131897,-0.4164198637008667
473,0.9847011974754238,-1.4292774270024347,-1.518626106522895,0.1175081729888916,0.9900029301643372,-0.07801543176174164,0.49918699264526367,-2.855909824371338,0.3001284599304199,-0.2158662974834442,0.26996129751205444,0.43963348865509033
474,0.8830438497682862,-1.4270333160453441,-1.5143573194979032,0.11069992184638977,0.9896838665008545,-0.09094713628292084,-0.357918381690979,-0.0648937001824379,0.09475477039813995,0.09585830569267273,-0.142348051071167,0.13264936208724976
475,1.831313818213058,-1.4352173565320294,-0.715049160199545,0.13060374557971954,0.9908232688903809,0.03481579199433327,-0.5386562347412109,2.908796787261963,-0.055589497089385986,-0.06592172384262085,-0.5791257619857788,-0.15476512908935547
476,2.224224577860148,-1.4364461698432893,-0.4397384035855141,0.10635394603013992,0.9909886121749878,0.08142755925655365,-0.8394132256507874,-0.2962007224559784,-0.5725439786911011,-0.07354754209518433,-0.05667769908905029,-0.16686153411865234
477,2.2696173554755936,-1.4460022373760344,-0.4433880969079724,0.09529434889554977,0.99222332239151,0.08007346093654633,0.16282498836517334,0.7330074906349182,0.1586957424879074,0.16981184482574463,0.4455817937850952,-0.23009788990020752
478,1.6623551699656844,-1.4474092210749145,-1.129445352913664,0.12255875021219254,0.9923974871635437,0.011252799071371555,0.1061832383275032,0.978563666343689,0.7215641140937805,-0.27314773201942444,0.0745580792427063,0.291481614112854
479,1.930942486705843,-1.4161343923389644,-0.9012506384606679,0.14416314661502838,0.9880636930465698,0.05428747832775116,-0.15397429466247559,0.2845543324947357,-0.20295941829681396,-0.2120189666748047,-0.3015097379684448,-0.11744368076324463
480,1.67366409525641,-1.435700634499117,-1.2136720973728294,0.1339729130268097,0.9908884763717651,0.01383031252771616,0.6794248819351196,0.5806935429573059,-0.1618248075246811,0.0007011592388153076,-0.5715616941452026,-0.07394993305206299
481,1.732194331013435,-1.4670068995441068,-1.082874525710297,0.10225848108530045,0.9946187138557434,0.01664913259446621,-0.9408243298530579,-2.7310123443603516,-0.1356053501367569,0.08074019104242325,0.06305962800979614,-0.34436213970184326
482,1.354020430908008,-1.4474727235037548,-1.3874672278290916,0.12013192474842072,0.9924052953720093,-0.026457438245415688,0.10803965479135513,1.1246074438095093,0.21679221093654633,0.2613835632801056,0.49523502588272095,-0.46798837184906006
483,0.9627981161608735,-1.3911385459157777,-1.5798625611110215,0.14667031168937683,0.9839048981666565,-0.10207423567771912,0.13677188754081726,-3.863032817840576,-0.21277335286140442,-0.10116858780384064,0.1398743987083435,0.43413597345352173
484,0.9440980065922061,-1.393082430704749,-1.5483258446717845,0.14318622648715973,0.9842504262924194,-0.10367684811353683,-0.337897390127182,0.6777451038360596,0.08961209654808044,0.12504802644252777,-0.34905755519866943,0.08713632822036743
485,1.7344246960590017,-1.4011527242022408,-0.9275983975464733,0.16657564043998718,0.9856449961662292,0.02750239148736,-1.0384682416915894,3.300659656524658,0.0611942894756794,-0.17774507403373718,-0.488818883895874,-0.11273801326751709
486,2.1791257029594653,-1.4082290449573778,-0.6008458487933662,0.1328161358833313,0.9868150353431702,0.092497818171978,-0.7285727858543396,-0.7179146409034729,-0.46560826897621155,0.08318726718425751,0.19213998317718506,-0.05126846581697464
487,2.2958516053204723,-1.4247814398731795,-0.526502793237293,0.10889929533004761,0.9893587231636047,0.09649042040109634,0.676400899887085,0.3293771743774414,-0.006354202516376972,0.1403682827949524,0.5391752123832703,0.08212900161743164
488,1.754714459643684,-1.4442786476179592,-1.059005395502218,0.12405179440975189,0.992007315158844,0.02307615429162979,0.44214358925819397,-0.4362293779850006,0.7936121225357056,-0.21917510032653809,0.13442695140838623,0.16102111339569092
489,1.6823358169832894,-1.3908529164111436,-1.1708572476274408,0.177861750125885,0.983853816986084,0.01992129161953926,-0.17978927493095398,1.004722237586975,-0.3386804163455963,-0.3441978096961975,-0.2977118492126465,-0.032418251037597656
490,1.6643663167529021,-1.4161431010075662,-1.2369036985248372,0.15336348116397858,0.9880650043487549,0.014392247423529625,0.4591263234615326,0.11210720986127853,-0.14712445437908173,-0.02447250485420227,-0.6586888432502747,-0.08598649501800537
491,1.7293659933588454,-1.4851785729719524,-1.094734332237039,0.08443931490182877,0.9963370561599731,0.013502877205610275,-0.8784581422805786,-2.374985694885254,-0.6687296628952026,0.17016883194446564,0.2780464291572571,-0.230238676071167
492,1.4911374508233803,-1.4732907169361218,-1.3337888079602678,0.09704181551933289,0.9952501058578491,-0.0077466340735554695,0.6555109620094299,1.4466890096664429,0.26004457473754883,0.16179300844669342,0.4454999566078186,-0.7404528260231018
493,0.9398402314911793,-1.417990418327863,-1.6840564465982857,0.12290554493665695,0.9883478879928589,-0.08979234844446182,0.19845768809318542,-2.6782381534576416,-0.14919032156467438,-0.10204678773880005,0.2128087282180786,0.9259282350540161
494,1.0049204624016097,-1.4285270799477305,-1.5905801212589543,0.11968833208084106,0.9898967742919922,-0.07602187991142273,-0.47980284690856934,-0.1304653435945511,-0.01213901024311781,0.00886698067188263,-0.46725261211395264,0.06895702332258224
495,1.8759833498199587,-1.432589127336791,-0.8218956325888033,0.131400927901268,0.9904645681381226,0.04139507934451103,-1.0873626470565796,3.1872012615203857,0.06845302879810333,-0.1394881159067154,-0.6227736473083496,-0.025220755487680435
