,attitude.roll,attitude.pitch,attitude.yaw,gravity.x,gravity.y,gravity.z,rotationRate.x,rotationRate.y,rotationRate.z,userAcceleration.x,userAcceleration.y,userAcceleration.z
0,0.12787667246271536,0.48236642954040415,0.9183987821773936,0.11297740042209625,-0.4638769030570984,-0.8786662220954895,-0.618290364742279,0.6203194260597229,-0.5332205891609192,0.005507081747055054,-0.0358332097530365,-0.027995765209197998
1,0.033496870326294594,0.9501409527609954,1.854701286063379,0.019477082416415215,-0.8134974837303162,-0.5812422633171082,-0.48123499751091003,0.68672114610672,-0.6329571008682251,0.04592207074165344,-0.1553899049758911,0.12277662754058838
2,0.07462611547151025,0.8868220673514251,1.8328044004461541,0.04711086302995682,-0.7750676274299622,-0.6301195621490479,-0.021687455475330353,2.6409130096435547,0.23157697916030884,0.10308140516281128,-0.41189831495285034,-0.18001526594161987
3,0.0025365017914128433,0.8956196163090088,1.7119476289517401,0.0015854014782235026,-0.7805964946746826,-0.6250333189964294,-0.7063531279563904,0.09301486611366272,-1.1098649501800537,-0.3451828062534332,-0.06902813911437988,-0.21850305795669556
4,0.02972891255976748,0.7648799971176304,1.6422639410213264,0.021445224061608315,-0.6924504041671753,-0.7211467027664185,-0.478860080242157,-0.8723881244659424,-0.7198540568351746,-0.19661611318588257,0.1524266004562378,-0.37487685680389404
5,-0.048549245286321624,0.7101421049124625,1.6213787593049465,-0.03679893910884857,-0.6519415378570557,-0.7573757767677307,0.9345406889915466,-1.9305943250656128,-0.7419983744621277,-0.14200356602668762,0.039362192153930664,-0.12102693319320679
6,-0.04674849143881896,0.7235071565483615,1.5227757596293114,-0.035024698823690414,-0.662017285823822,-0.7486697435379028,-0.8534025549888611,1.8542027473449707,-0.6806866526603699,-0.09922212362289429,0.1305689811706543,0.14594757556915283
7,-0.18105233473018598,0.9237162080805124,1.6132901592413935,-0.10855377465486526,-0.7978474497795105,-0.5930055975914001,1.3989518880844116,-3.516909599304199,0.5758314728736877,0.058901697397232056,-0.3432810306549072,0.42689836025238037
8,-0.22170697521885704,0.7258903953550185,1.5856832190077124,-0.16446147859096527,-0.6638016104698181,-0.7296025156974792,-0.7322834730148315,-1.8651865720748901,1.7876315116882324,0.4414695203304291,-0.1862044334411621,-0.3689388036727905
9,-0.6861094616403478,0.7772679500317252,1.9075761304355752,-0.45160195231437683,-0.701334536075592,-0.5515302419662476,4.166021823883057,-3.790356159210205,0.7769414186477661,-0.11427026987075806,0.623392641544342,0.19348275661468506
10,-1.1405655048162977,0.6883024957573055,2.336029701755982,-0.7019431591033936,-0.6352270841598511,-0.3221220076084137,2.061535358428955,-0.578091561794281,3.843201160430908,0.5300223231315613,1.0105931758880615,0.02192053198814392
11,-1.297695362870844,0.18630733483144396,2.576383684881669,-0.9462754726409912,-0.18523140251636505,-0.2650512754917145,-0.5334174633026123,-0.17747622728347778,7.197287559509277,0.2041795253753662,0.6302539706230164,-0.6717468500137329
12,-1.2899284871828005,-0.44859440221527075,2.904556593939159,-0.8657499551773071,0.43369942903518677,-0.24976380169391632,5.254432678222656,-1.6359333992004395,5.684983730316162,-2.7538790702819824,1.166352391242981,-1.7470319271087646
13,-1.0652054420204098,-0.605207708481119,-3.082737135021325,-0.7194942831993103,0.5689328908920288,-0.39830073714256287,0.9351449608802795,-0.258218914270401,-0.384968101978302,-1.4601778984069824,-0.45076876878738403,0.0753331184387207
14,-1.0945810105054385,-0.4622312789506274,-3.1134620358938077,-0.7954719662666321,0.4459463357925415,-0.4103122353553772,0.5474283695220947,-1.2974063158035278,-0.33271920680999756,0.8746956586837769,-0.07828584313392639,0.7324405908584595
15,-1.2962629295970218,-0.3746619250255695,3.115416973564833,-0.8957809805870056,0.36595791578292847,-0.2522921860218048,0.192111536860466,-1.974275827407837,-1.4963102340698242,0.2768082022666931,-0.17371243238449097,-0.10496187210083008
16,-1.4569210663235137,-0.29079599685601104,3.1211353653575786,-0.9518111348152161,0.2867148816585541,-0.10885868966579437,2.9985554218292236,-2.1744165420532227,-1.8770946264266968,-0.5025040507316589,-0.016786903142929077,-0.35499322414398193
17,-1.4912319345911103,-0.1396044140849106,3.1186659581138483,-0.9871383309364319,0.13915139436721802,-0.07870721817016602,-1.7176933288574219,0.2735899090766907,-2.249835968017578,-0.40180814266204834,0.3865596652030945,0.08296442031860352
18,-1.1385302697196915,-0.03295377059124952,2.8440817592837693,-0.9075258374214172,0.032947804778814316,-0.41870206594467163,-5.1136298179626465,4.058809280395508,-1.5103709697723389,0.5136507153511047,-0.08453777432441711,0.7704629302024841
19,-1.1575508130378789,-0.21152241119917245,2.6638843564804797,-0.8954108357429504,0.20994862914085388,-0.3926334083080292,0.0835808590054512,-2.1227779388427734,1.4314080476760864,1.1844885349273682,-0.19807729125022888,0.7636814117431641
20,-1.8429997015369137,-0.3862504596350246,3.1038119230582994,-0.8922216296195984,0.37671777606010437,0.24904736876487732,2.9066920280456543,-5.889060974121094,3.2686638832092285,0.31749922037124634,0.5155857801437378,0.8927677869796753
21,-1.6069234513316883,-0.3358968817768296,3.0216864930262695,-0.9434990286827087,0.32961606979370117,0.034100744873285294,-5.118167877197266,7.100831985473633,-4.7319159507751465,-1.725705623626709,0.48482179641723633,0.4314754009246826
22,-1.5200321262592866,-0.0037731984122835386,2.870210910893461,-0.9987046718597412,0.0037731893826276064,-0.05074204131960869,0.3844357132911682,0.009318418800830841,-2.187218189239502,0.1322954297065735,0.6126055717468262,0.7742069959640503
23,-1.9202328809256812,-0.16040364119786366,3.0069154544718972,-0.9275045394897461,0.1597166806459427,0.3379734754562378,2.3619484901428223,-2.612797975540161,5.47020149230957,0.7707357406616211,0.2546204924583435,-0.6162785291671753
24,-1.684106521990034,-0.7220776679277069,-2.935694266278365,-0.7456218600273132,0.6609452366828918,0.0848500058054924,3.604435920715332,0.712095320224762,1.9178282022476196,-0.6847065091133118,-0.010096848011016846,0.4993631839752197
25,-1.5927657511203772,-0.6877953421421787,-2.7913041138056194,-0.7724612355232239,0.6348353028297424,0.016973258927464485,-0.8481507897377014,-1.5962605476379395,-2.1301181316375732,-0.19485455751419067,0.052802085876464844,0.37948060035705566
26,-1.6874963541690386,-0.29796784138368565,-2.913573859935559,-0.9494331479072571,0.29357820749282837,0.1113046184182167,-1.7197812795639038,0.08228768408298492,-2.0359113216400146,-0.11924666166305542,1.258042335510254,-0.405936598777771
27,-1.6333206882663711,-0.20646993297055513,-2.9747488600272676,-0.9768482446670532,0.20500609278678894,0.06115652620792389,2.174694299697876,0.7728196382522583,1.2181726694107056,1.1191364526748657,0.07827332615852356,0.06481993198394775
28,-1.4576306432276704,-0.5870298352477903,-2.832127501436085,-0.8272640109062195,0.5538905262947083,-0.09401959180831909,1.4512046575546265,-0.018807362765073776,1.1647024154663086,0.05478781461715698,-0.7377589344978333,0.5243021845817566
29,-1.5652657399555288,-0.4903073808379538,-3.103886025608451,-0.8821747899055481,0.4708970785140991,-0.0048789940774440765,-1.691939353942871,0.01582503691315651,-2.994063377380371,0.29820555448532104,0.32233113050460815,-0.4392127990722656
30,-1.7599313086845831,-0.24683447921266563,-3.1012900947770183,-0.9523985981941223,0.2443356066942215,0.18231096863746643,-1.229680061340332,-2.345519781112671,-1.664022445678711,-0.7617891430854797,0.07558019459247589,-0.45150649547576904
31,-1.8821362907597807,-0.013543158208179598,-2.957345747408105,-0.9518367052078247,0.01354274433106184,0.306306391954422,-0.1251530945301056,-2.5044167041778564,-1.347775936126709,0.2092829942703247,0.002768903970718384,0.5368027687072754
32,-1.8257305602034746,-0.005923892870625942,-3.037582027635525,-0.967663049697876,0.005923858378082514,0.2521773874759674,0.4614817202091217,0.43773338198661804,-0.05166220664978027,0.9853783845901489,0.05439413711428642,0.24350431561470032
33,-1.7392889497726662,0.01586692416736106,-3.035989345904761,-0.9857146739959717,-0.01586625911295414,0.1676754206418991,1.0752580165863037,0.7228614091873169,0.33988088369369507,0.4554564356803894,-0.3015165627002716,-0.08649861812591553
34,-1.8793952752105374,0.015739148202270584,-2.958309395846134,-0.9526419639587402,-0.01573849841952324,0.3036864101886749,0.9561163187026978,-3.60378360748291,1.7930967807769775,-0.43239825963974,-0.34441468119621277,-0.18584278225898743
35,-1.8776866644207044,-0.08009844931345053,-3.009647771150111,-0.9502212405204773,0.08001282811164856,0.301127165555954,1.375530481338501,2.9405975341796875,0.1170654296875,-0.820393443107605,-0.09679748862981796,-0.5594127178192139
36,-1.7216764050317164,-0.16207664006171105,-2.8244540857020644,-0.9756825566291809,0.1613679826259613,0.1483384072780609,0.33241793513298035,5.020574569702148,1.5625054836273193,0.3341876268386841,-0.21694043278694153,0.5655745267868042
37,-1.4543105225736095,-0.16808401622304706,-2.7843726748869457,-0.979225754737854,0.16729368269443512,-0.11458463221788406,0.552339494228363,0.6531416177749634,-0.04981241747736931,0.6619498133659363,-0.18494810163974762,0.5386874079704285
38,-1.5288590655562821,-0.24804672267723196,-2.8453276469490474,-0.9685415029525757,0.24551093578338623,-0.04064180701971054,1.2612452507019043,-2.1569128036499023,0.2738645076751709,-1.0732218027114868,-0.27137458324432373,-0.39806365966796875
39,-1.6284766012071268,-0.2663426225253059,-2.8524795451348104,-0.9631356596946716,0.26320478320121765,0.0556156188249588,-0.42010971903800964,0.8310083150863647,-1.220504879951477,-0.22660738229751587,0.38060930371284485,-0.022915959358215332
40,-1.6387073677892754,-0.2718219084426815,-2.9078860445101844,-0.9610629081726074,0.268486887216568,0.06536730378866196,-0.15245939791202545,-0.1986229419708252,-0.16513748466968536,0.8020053505897522,-0.3191002905368805,0.10777413845062256
41,-1.586779110283527,-0.2626511023888907,-2.990715715205264,-0.9655817747116089,0.2596416473388672,0.01543399877846241,-1.0420843362808228,0.7750110626220703,-0.16088181734085083,0.42401671409606934,-0.3861522376537323,-0.11768317222595215
42,-1.6171996502048567,-0.19907692006374578,-2.9675650526241832,-0.9791945219039917,0.1977645605802536,0.04547052085399628,0.7482530474662781,-0.871184766292572,-0.27008455991744995,0.04007697105407715,0.12433324754238129,-0.07516419887542725
43,-1.674284438885274,-0.19815830637888776,-2.8770662653578545,-0.9751853346824646,0.19686400890350342,0.10128191858530045,1.4697482585906982,-0.4006137251853943,-0.1948733776807785,-0.7295875549316406,-0.2693127393722534,-0.526071310043335
44,-1.6237017581975686,-0.07154424158089245,-2.6749921235362883,-0.996046245098114,0.07148322463035583,0.052745476365089417,2.3315670490264893,-0.6031796932220459,-1.8763540983200073,0.7369062304496765,-0.28574714064598083,0.17869973182678223
45,-1.6590270649341745,-0.046330391887503805,-2.5567830359347097,-0.9950413107872009,0.0463138185441494,0.08802175521850586,-0.9936418533325195,0.5536070466041565,-0.14849421381950378,0.7931675314903259,-0.0594363808631897,0.25923776626586914
46,-1.6540642836027248,-0.08902555880540428,-2.6728856340035962,-0.992588996887207,0.08890800923109055,0.08284240961074829,-1.2654502391815186,0.7506338953971863,1.465430498123169,0.1551101803779602,-0.09556082636117935,-0.09634637087583542
47,-1.6732593697310756,-0.17477222679859683,-2.7176356301469906,-0.9796013832092285,0.1738838404417038,0.1007256805896759,0.8701534271240234,0.6142956018447876,-0.48627206683158875,-0.9503455758094788,0.0607200562953949,-0.3509697914123535
48,-1.9902467383876403,-0.10539892813052326,-2.623956233689096,-0.9082446694374084,0.10520388931035995,0.4049985706806183,-0.1664932817220688,-0.7511534690856934,-1.1259831190109253,0.12037235498428345,0.18297360837459564,0.5765841007232666
49,-1.8891605511530576,-0.025338730660342895,-2.655613103619951,-0.9494439959526062,0.025336019694805145,0.3129129707813263,0.43454059958457947,1.2700449228286743,-0.3524056673049927,0.9250144362449646,-0.05222199112176895,-0.3060922920703888
50,-1.708821388060346,-0.09551487720490266,-2.645953500416414,-0.9859750270843506,0.09536971151828766,0.13696010410785675,-0.9846218824386597,3.337674617767334,0.8469312787055969,0.2838723063468933,-0.028841406106948853,0.04463481903076172
51,-1.817707741198521,-0.134789278846596,-2.605393638580568,-0.9608767032623291,0.134381502866745,0.242193341255188,-0.26547497510910034,-0.9178537726402283,0.7736154794692993,-0.3629453182220459,0.3651454448699951,0.219659686088562
52,-1.71664898439465,-0.18758786458801688,-2.6870540573026003,-0.9720256328582764,0.18648962676525116,0.14278645813465118,0.2425731122493744,0.8911880254745483,0.1507345288991928,-0.7318623065948486,0.12694117426872253,-0.46853113174438477
53,-1.6473871247003988,-0.1936067695299827,-2.595701291676817,-0.9784396886825562,0.1923995167016983,0.07508635520935059,0.8486688137054443,0.4832454323768616,-0.21306449174880981,0.5108647346496582,-0.2059951275587082,0.11480926722288132
54,-1.6290241870395572,-0.17150481805680623,-2.6406735554111287,-0.9836592078208923,0.17066527903079987,0.05734119191765785,-1.7842090129852295,0.6170308589935303,-0.1392560601234436,0.49139541387557983,-0.061259761452674866,0.16224801540374756
55,-1.6193522417582034,-0.15546555088289452,-2.7792726740532108,-0.9867751598358154,0.15484005212783813,0.047951459884643555,-0.26230454444885254,-0.13494203984737396,0.03663450479507446,0.01991724967956543,0.19246524572372437,-0.14476847648620605
56,-1.57086799803552,-0.17372634944125218,-2.7152189737046446,-0.9849473834037781,0.17285379767417908,7.059240306261927e-05,0.5601119995117188,0.05265255644917488,-0.09901073575019836,-1.2340314388275146,0.07917560636997223,0.34868431091308594
57,-1.5972517122077257,-0.17948350274793684,-2.770284626892422,-0.9835917949676514,0.17852139472961426,0.026027372106909752,-1.2379052639007568,0.08541332185268402,0.26254844665527344,-0.03186535835266113,0.33212924003601074,-0.05288279056549072
58,-1.552065188174414,-0.17735907245104804,-2.88045709849382,-0.9841403961181641,0.17643068730831146,-0.01843622699379921,-0.21302899718284607,-0.3372281789779663,0.42464858293533325,0.6082401275634766,-0.21175479888916016,-0.11579537391662598
59,-1.5899136078763503,-0.16601696916040062,-2.939574029297558,-0.9860708117485046,0.16525539755821228,0.018853290006518364,-1.3140627145767212,0.052616581320762634,-0.17763769626617432,0.40669435262680054,0.0030338168144226074,-0.14527225494384766
60,-1.6364909297775452,-0.16047345443715297,-2.8474752153367446,-0.9850223064422607,0.15978559851646423,0.06480389833450317,2.9386236667633057,-4.291266441345215,-0.4346650540828705,-0.10135763883590698,-0.08123336732387543,0.4867098331451416
61,-1.7283271386875936,-0.11040775214277923,-2.8568589655731897,-0.9816043376922607,0.11018358170986176,0.15592487156391144,-0.9378200769424438,1.185697078704834,0.7220428586006165,-0.22457242012023926,0.34146130084991455,-1.00776207447052
62,-1.663142892362639,-0.1952533945626117,-2.7358507647931747,-0.9768185019493103,0.19401511549949646,0.09046313911676407,0.6951655149459839,0.386801540851593,-0.43413403630256653,-0.24205344915390015,-0.22679102420806885,-0.1328519582748413
63,-1.6102970562971668,-0.14243045206628507,-2.7077548409614134,-0.9891018867492676,0.1419493705034256,0.039090581238269806,-0.3353642225265503,0.8186412453651428,-0.8144654631614685,0.5737270712852478,-0.0787932276725769,0.024645451456308365
64,-1.5085447067800417,-0.10501935819306987,-2.8052711377467014,-0.9925642013549805,0.104826420545578,-0.06186866760253906,-1.188170313835144,1.6999397277832031,0.0632554143667221,0.32868480682373047,0.2100692093372345,-0.03764915466308594
65,-1.3736536971056978,-0.18913883442722604,-2.7676397472032686,-0.9631421566009521,0.18801315128803253,-0.1923750936985016,0.8316463828086853,1.1597048044204712,1.3871183395385742,-0.4583970904350281,0.024892717599868774,0.0960310697555542
66,-1.3227484673758665,-0.21170100370466763,-2.717679715276371,-0.9477517604827881,0.2101232260465622,-0.24003095924854279,-1.3079720735549927,-1.11939537525177,-0.011977966874837875,-0.4834463596343994,0.1324670910835266,0.08314007520675659
67,-1.4247865463147307,-0.2015226627130891,-2.8430422394280632,-0.9693378806114197,0.200161412358284,-0.14254723489284515,-0.8741714358329773,-0.25429797172546387,-0.6294325590133667,-0.005012214183807373,0.4014773964881897,-0.14753766357898712
68,-1.4860106031821745,-0.16915536607049145,-2.918951358994652,-0.9821864366531372,0.16834983229637146,-0.0834755077958107,-0.560720682144165,-0.26117563247680664,-0.10675507038831711,0.4329768419265747,-0.14688073098659515,-0.003682665526866913
69,-1.4894582367196425,-0.1534179257230711,-2.9693266333265362,-0.9849873781204224,0.1528168022632599,-0.08029413968324661,0.20120744407176971,-0.3706880211830139,-0.05136028677225113,0.4642810821533203,-0.1826019436120987,-0.23331975936889648
70,-1.6970524194287158,-0.10609151914634818,-2.8092770927797655,-0.9864627122879028,0.105892613530159,0.12521295249462128,0.2995828688144684,-3.435565948486328,-1.0023512840270996,-0.4358091354370117,-0.1884579062461853,1.7839362621307373
71,-1.6121727496125942,-0.12288578606905715,-2.838443287852143,-0.9916097521781921,0.12257673591375351,0.041052695363759995,0.9743542671203613,0.6065752506256104,1.9723243713378906,-0.7527140974998474,0.06683062016963959,-0.3234776258468628
72,-1.4823366921922108,-0.18199992467711018,-2.8283336125034855,-0.9796382784843445,0.1809968203306198,-0.08688519150018692,1.9891270399093628,2.2092130184173584,1.1024235486984253,0.03376120328903198,-0.057187020778656006,-0.23432761430740356
73,-1.3828837131391067,-0.1543757007640822,-2.736158234842327,-0.9707133769989014,0.15376324951648712,-0.18458707630634308,-1.1527173519134521,0.6270567178726196,-0.5001174211502075,0.6347911357879639,0.0022273361682891846,0.3959975838661194
74,-1.3484256013805103,-0.16300114819639588,-2.8860640980719308,-0.9624483585357666,0.16228030622005463,-0.21761921048164368,-0.7319307923316956,0.11129011958837509,0.10910427570343018,0.21649199724197388,-0.13124394416809082,0.09313805401325226
75,-1.3356201968069379,-0.2003338792306682,-2.843638343490114,-0.95302414894104,0.19899654388427734,-0.2283540666103363,0.3751523196697235,-0.3859131634235382,0.48986977338790894,-0.3574312925338745,-0.002737969160079956,0.18823865056037903
76,-1.4136182698766746,-0.23282615022831277,-2.867422247655837,-0.9610236883163452,0.23072834312915802,-0.1523081660270691,-0.7638391256332397,-0.5482466220855713,-0.4665151834487915,-0.3191733956336975,0.5043027997016907,-0.16704301536083221
77,-1.5069483829608608,-0.1874846229736243,-2.8892100791428232,-0.9804742932319641,0.18638819456100464,-0.06268647313117981,-0.3017488121986389,-1.1222317218780518,-1.203296184539795,-0.2366582751274109,-0.14479272067546844,0.4190249443054199
78,-1.4749509240822913,-0.16897469910527946,-2.9826733656795286,-0.9812334775924683,0.1681717336177826,-0.09433576464653015,0.034108418971300125,0.6208571195602417,0.8054144382476807,0.49270808696746826,-0.11899265646934509,-0.19294142723083496
79,-1.4313639998208787,-0.16212226080309844,-2.9565206564196447,-0.9773092269897461,0.16141299903392792,-0.13715849816799164,0.4609352648258209,0.0997600108385086,0.3849388360977173,0.36523348093032837,0.10454767942428589,0.16070283949375153
80,-1.535114758071265,-0.202666771495317,-2.9535767587536914,-0.9789098501205444,0.20128223299980164,-0.034943871200084686,-0.9678003787994385,0.472801148891449,0.491935133934021,-0.7948328256607056,0.059780389070510864,-0.4413287043571472
81,-1.4897879504110574,-0.2508419496918513,-2.866040885028627,-0.9655269980430603,0.24821965396404266,-0.0783873200416565,2.7446022033691406,2.1396567821502686,0.10639304667711258,-0.4937625527381897,-0.12839238345623016,-0.4992799162864685
82,-1.3587632140237014,-0.22088369522681334,-2.635834931278411,-0.9538533687591553,0.21909193694591522,-0.20533490180969238,0.3715275526046753,0.6356414556503296,-0.6347950100898743,0.32778531312942505,-0.030218645930290222,0.4509403705596924
83,-1.3463712051398955,-0.1994725152678585,-2.6279021967472227,-0.9555906653404236,0.1981523334980011,-0.2181331217288971,-0.6918572187423706,-0.370744526386261,-0.5081188082695007,0.08651113510131836,0.04072399437427521,0.274300754070282
84,-1.3807972963751691,-0.19168131152317142,-2.6853405631417693,-0.9640193581581116,0.19050967693328857,-0.18539907038211823,-0.7684786319732666,-2.396569013595581,0.2140125036239624,-0.2701420187950134,-0.037845492362976074,0.01997852325439453
85,-1.4565491151066512,-0.19244296907533895,-2.8176439530519497,-0.9751411080360413,0.1912573277950287,-0.11189441382884979,-0.9901161193847656,-0.4454922378063202,-0.18286779522895813,-0.570665717124939,0.2647668123245239,-0.2708265781402588
86,-1.5389571663995987,-0.14730632081019013,-2.8933113241930313,-0.9886687397956848,0.14677415788173676,-0.03148902207612991,-0.5125430226325989,0.5770593881607056,0.042056575417518616,0.17604660987854004,-0.09814439713954926,0.2861887216567993
87,-1.4086170165153078,-0.12127986411540975,-2.976383605941753,-0.9796286821365356,0.12098276615142822,-0.16028323769569397,-0.3642452657222748,0.5588815212249756,0.31184929609298706,0.5958549380302429,0.2856334447860718,0.16505928337574005
88,-1.4104886948710227,-0.1466210565919928,-2.9730659395087002,-0.9765863418579102,0.14609628915786743,-0.15790924429893494,0.3596950173377991,-0.8531180620193481,0.43808552622795105,0.1828697919845581,-0.28687384724617004,0.21496181190013885
89,-1.535645546704768,-0.15634399587153205,-3.0774618888207255,-0.9871930480003357,0.15570783615112305,-0.03471490368247032,0.9097188115119934,-1.7428151369094849,0.42055854201316833,0.03335088491439819,0.08835648000240326,-0.7355945110321045
90,-1.4636658641430347,-0.19971392646075425,-2.9864717941882897,-0.9745044112205505,0.1983889490365982,-0.10480034351348877,1.0302274227142334,-0.5286059379577637,0.5216349363327026,0.3226335644721985,-0.253503680229187,0.20230399072170258
91,-1.3886700388222146,-0.18619058053537127,-2.9589788109285333,-0.9664631485939026,0.18511666357517242,-0.17799070477485657,0.04045029729604721,0.882230818271637,0.5192421674728394,1.2068196535110474,0.12471304833889008,0.5397308468818665
92,-1.3312058058729266,-0.22655099784915594,-2.8875573139280464,-0.9466120600700378,0.22461800277233124,-0.23124098777770996,2.5072901248931885,1.3782601356506348,0.7750729322433472,0.42402905225753784,-0.19031624495983124,0.21212173998355865
93,-1.3597708177796857,-0.22908974561345727,-2.883265983857774,-0.9522697329521179,0.22709114849567413,-0.20399025082588196,-0.48719871044158936,-0.00283479830250144,0.3076539635658264,0.3211204409599304,0.23875968158245087,0.03441929817199707
94,-1.5174605112625588,-0.2955433519592123,-3.0199544000283884,-0.9552837014198303,0.29125967621803284,-0.05099920183420181,-0.051670584827661514,-0.4712497293949127,0.1360016018152237,-1.2836384773254395,0.3679504990577698,-0.6791643500328064
95,-1.4727056258832325,-0.2973196139198584,-2.9207406001636707,-0.9515289664268494,0.29295846819877625,-0.093636654317379,0.9899656176567078,-1.4100475311279297,0.4922804534435272,-0.07494497299194336,-0.15210458636283875,0.3091365098953247
96,-1.4419982868392145,-0.29654765777056835,-2.8833037982783423,-0.9484297037124634,0.2922202944755554,-0.12283588200807571,0.131069153547287,0.7637229561805725,0.3917641341686249,0.43083620071411133,-0.03567424416542053,-0.06301619112491608
97,-1.4079530558772209,-0.2992721262965377,-2.8572598519164587,-0.9429097175598145,0.2948247492313385,-0.15491829812526703,0.05837418884038925,-0.05513438209891319,0.10673504322767258,0.19028520584106445,-0.170023113489151,0.005885720252990723
98,-1.5762424515781521,-0.36157054942498057,-2.92721882064293,-0.9353286027908325,0.35374367237091064,0.005093966610729694,-1.8529363870620728,-4.093443870544434,1.9734801054000854,-1.436604380607605,0.07006919384002686,-0.31277215480804443
99,-1.5510741536139374,-0.3175190559947235,-3.001100361440409,-0.9498282670974731,0.3122105896472931,-0.01873510703444481,2.4595305919647217,0.7653442025184631,0.30159151554107666,0.11187654733657837,-0.1417699158191681,-0.5689724087715149
100,-1.4843311695223766,-0.28891272996461076,-2.7733713004975002,-0.9549733400344849,0.2849101722240448,-0.08277831226587296,1.3175976276397705,0.2354642152786255,0.03849276900291443,0.24397480487823486,-0.3861522674560547,0.14399659633636475
101,-1.4805969911174466,-0.22136420336424684,-2.6914519230896614,-0.9716328382492065,0.21956074237823486,-0.08787909150123596,-0.1296050250530243,0.20187316834926605,-0.6064709424972534,0.22186172008514404,-0.14741718769073486,0.18724429607391357
102,-1.5343610160700276,-0.18551676423954855,-2.717769064646114,-0.9821887016296387,0.18445445597171783,-0.035802192986011505,-0.7263829112052917,-2.34371018409729,-0.19434204697608948,-0.47673457860946655,-0.02301648259162903,-0.17695105075836182
103,-1.6091274022507676,-0.14761444500777088,-2.8112514125534176,-0.9883981347084045,0.14707894623279572,0.037904929369688034,0.6587046384811401,-0.774519145488739,-0.2833283543586731,-0.4212697148323059,0.282227098941803,-0.2992727756500244
104,-1.710544918724622,-0.1249200482278264,-2.779716937120581,-0.9825347661972046,0.12459540367126465,0.13820874691009521,-0.9859656691551208,0.731557309627533,-0.05097656697034836,0.23096299171447754,0.033958688378334045,0.04765857756137848
105,-1.591873311702513,-0.12031279251287018,-2.8301931779341065,-0.9925506114959717,0.1200227439403534,0.0209230724722147,0.6375575065612793,1.848855972290039,0.33242180943489075,0.669842541217804,-0.1497316062450409,-0.02461576648056507
106,-1.6384508723866307,-0.16110094001105002,-2.758735839713342,-0.9847931861877441,0.1604049950838089,0.06672757118940353,0.28101029992103577,-1.8081523180007935,-0.4043116271495819,-0.30481863021850586,-0.06804357469081879,0.5772848129272461
107,-1.6106942324091715,-0.16414287139547712,-2.87211357975516,-0.9857736229896545,0.16340678930282593,0.03935118392109871,-1.4035701751708984,0.25713735818862915,1.804097056388855,-0.20607507228851318,0.08612018823623657,-0.5466295480728149
108,-1.6162394587698001,-0.23355095532276093,-2.9137976450140264,-0.9718464612960815,0.23143352568149567,0.04419417306780815,0.9159119725227356,2.18856143951416,-0.21859179437160492,-0.14538681507110596,0.040935859084129333,-0.24431324005126953
109,-1.4946554361340814,-0.22230230733116726,-2.8066769812355306,-0.9725663661956787,0.22047585248947144,-0.0741955041885376,-0.03501693531870842,-0.07470136135816574,0.2005533128976822,0.380632221698761,-0.07600565254688263,0.2845684289932251
110,-1.4943626363920295,-0.2155269348759103,-2.8852249478677696,-0.9740117192268372,0.21386219561100006,-0.07459262758493423,-0.5134919881820679,0.3286904990673065,-0.19920222461223602,0.34406793117523193,-0.06754569709300995,-0.05850975960493088
111,-1.4462766635777042,-0.22321533995346535,-2.8632722293181736,-0.9676403403282166,0.22136633098125458,-0.12111687660217285,0.5735295414924622,0.3888189196586609,0.25108224153518677,0.05467647314071655,-0.13286535441875458,0.31650567054748535
112,-1.5074204532830378,-0.23478202251446226,-2.846147044805587,-0.9706125855445862,0.23263099789619446,-0.06159590929746628,-1.217852234840393,-1.8876707553863525,-0.11505569517612457,-0.8087911009788513,0.048985227942466736,-0.050281524658203125
113,-1.5969533044156141,-0.22463674120597554,-2.9471853295788866,-0.9745416045188904,0.22275224328041077,0.02549687772989273,-0.22972382605075836,-0.29699885845184326,-0.1489351987838745,-0.3980322480201721,0.5006822347640991,-0.26400697231292725
114,-1.6339119305970313,-0.20627831915591757,-2.917123878287886,-0.9768511056900024,0.20481854677200317,0.06173654645681381,0.003941596485674381,-0.9918042421340942,-0.6320971846580505,0.06931930780410767,-0.24752789735794067,0.4567570686340332
115,-1.5939407976994195,-0.1955939154622968,-2.9005827216492364,-0.9806695580482483,0.19434915482997894,0.02270113117992878,0.8985106348991394,0.8142433166503906,-0.019030733034014702,0.5239741802215576,-0.19767560064792633,-0.13972079753875732
116,-1.5180302627403393,-0.18556832954520003,-2.8265571288988447,-0.9814637899398804,0.1845051348209381,-0.05183609575033188,0.6657123565673828,-0.2915551960468292,-0.18386688828468323,0.3014709949493408,-0.041118279099464417,0.13083088397979736
117,-1.662704537641162,-0.1824217002011609,-2.885324644383094,-0.9792565703392029,0.18141162395477295,0.09025599807500839,-1.5478161573410034,0.07200705260038376,1.048182725906372,-1.0784978866577148,0.526046872138977,-0.4736788272857666
118,-1.67353221104424,-0.21904938568037804,-2.8755223202517217,-0.9709577560424805,0.21730181574821472,0.10010464489459991,1.259392261505127,1.275565505027771,0.40483319759368896,-0.815922737121582,0.14173749089241028,-0.4014657735824585
119,-1.5503622764032374,-0.23142700687739556,-2.743860618038217,-0.9731369018554688,0.2293667197227478,-0.0198878962546587,-0.09266404062509537,0.7627121210098267,0.29202499985694885,0.30944061279296875,0.013492166996002197,0.27037620544433594
120,-1.4656196044563383,-0.23207268652766017,-2.750307682899328,-0.967814028263092,0.22999513149261475,-0.10216851532459259,-0.10215522348880768,0.7386900782585144,-0.028276661410927773,0.5925241112709045,-0.27490174770355225,0.2060198187828064
121,-1.4595047207080647,-0.23458401158762296,-2.7335562307650942,-0.9665941596031189,0.23243841528892517,-0.10802015662193298,-0.0834629163146019,-0.15098242461681366,-0.034946490079164505,0.06483012437820435,-0.18373233079910278,0.21100173890590668
122,-1.5649587601286945,-0.22317997773579784,-2.794826834113428,-0.9751819372177124,0.22133184969425201,-0.005692754406481981,-1.8712669610977173,-1.2264412641525269,-0.04590323194861412,-0.6174083948135376,0.3276946544647217,-0.2150866985321045
123,-1.6056812931354576,-0.20067139650333518,-2.8642241437647735,-0.9793367981910706,0.19932730495929718,0.0341779962182045,0.2599197328090668,0.5765661001205444,-0.300742506980896,-0.25166600942611694,0.24307076632976532,-0.11105179786682129
124,-1.687116724136132,-0.15233106090691262,-2.842167534782261,-0.9817407131195068,0.1517426073551178,0.11471431702375412,-0.8188263773918152,0.1235993355512619,-0.24848224222660065,0.36633849143981934,-0.013620048761367798,0.21081674098968506
125,-1.62601623089906,-0.13938857969176877,-2.879867382875413,-0.9887916445732117,0.13893765211105347,0.05465654283761978,0.22008614242076874,0.6926581859588623,0.10059276223182678,0.5371620655059814,-0.02936430275440216,-0.030715469270944595
126,-1.593071922005654,-0.15268328263980566,-2.8361438394487375,-0.9881215691566467,0.15209074318408966,0.022014636546373367,0.5436446070671082,-1.013627290725708,-0.14096467196941376,0.1367572546005249,-0.23374049365520477,0.21620559692382812
127,-1.674204009887974,-0.10590861827899044,-2.881277676518894,-0.9890848994255066,0.10571073740720749,0.10264510661363602,-0.4450332820415497,0.3822161853313446,0.26096537709236145,-0.3562670946121216,0.6228964328765869,-0.5901634693145752
128,-1.6781690859430491,-0.1527595117014355,-2.8547799134844922,-0.9826629161834717,0.15216608345508575,0.10591858625411987,0.7659133076667786,2.3289566040039062,0.24522781372070312,-0.5279722809791565,0.22831179201602936,-0.25856760144233704
129,-1.5336165684405503,-0.1775984890259139,-2.742254858383478,-0.9835906028747559,0.17666634917259216,-0.036586519330739975,0.37404459714889526,0.31627464294433594,0.28765949606895447,0.5639891028404236,-0.15734872221946716,0.21178793907165527
130,-1.5206860538955902,-0.18292205283181523,-2.772971069887353,-0.982082188129425,0.1819036453962326,-0.049253638833761215,-1.1040544509887695,0.3401429057121277,-0.16505469381809235,0.3973653316497803,-0.1016118973493576,0.008375339210033417
131,-1.478807765633472,-0.17641414984330364,-2.816506880318793,-0.9803170561790466,0.1755005121231079,-0.09043318033218384,0.8898078799247742,0.7569643259048462,0.14377278089523315,-0.018981099128723145,-0.07525025308132172,0.14008527994155884
132,-1.4247853418271015,-0.17919043582010216,-2.7286303064439847,-0.9735179543495178,0.17823302745819092,-0.14316314458847046,0.6716213822364807,-0.5468440651893616,-0.17161205410957336,-0.4724658727645874,-0.13451659679412842,0.46582549810409546
133,-1.5886103413338255,-0.17045339398598386,-2.856605560327614,-0.9853516221046448,0.16962918639183044,0.01755492575466633,-2.0560219287872314,-0.7535574436187744,-0.3568134307861328,-0.11254876852035522,0.34002962708473206,-0.45317816734313965
134,-1.6040033115101067,-0.15572930065456586,-2.9245096611519656,-0.9873542189598083,0.15510061383247375,0.03279911354184151,0.5688245892524719,0.6432366371154785,-0.11776922643184662,0.2218359112739563,0.15608714520931244,-0.2336658239364624
135,-1.6133959928375423,-0.1573707611819726,-2.870732105337516,-0.9867466688156128,0.15672200918197632,0.042060524225234985,-0.4182513654232025,-0.822396993637085,-0.21216557919979095,0.29604244232177734,-0.04218953847885132,0.3144916296005249
136,-1.6004312203112265,-0.1621591327438583,-2.897985785032113,-0.9864476323127747,0.1614493876695633,0.029241831973195076,0.5708168148994446,0.018572932109236717,0.25791752338409424,0.14866387844085693,0.004428893327713013,-0.006201030686497688
137,-1.650305840068381,-0.17248009166826606,-2.836600990880008,-0.9820498824119568,0.17162616550922394,0.07824726402759552,0.05366865172982216,-1.2427014112472534,-0.22955209016799927,-0.4721127152442932,-0.24730975925922394,0.6798245906829834
138,-1.6370763879619008,-0.13421546982629104,-2.9284956576443846,-0.98883056640625,0.13381287455558777,0.06563588976860046,-0.2949381470680237,0.32705551385879517,0.740362823009491,-0.27772510051727295,0.11702632904052734,-0.7484514713287354
139,-1.6016057781856816,-0.16314567822834605,-2.8896889340107577,-0.9862529039382935,0.16242291033267975,0.03039552830159664,0.8375419974327087,0.701153576374054,0.022458886727690697,-0.21142464876174927,0.03798601031303406,-0.118743896484375
140,-1.536299381827046,-0.1359051543953884,-2.828594513102176,-0.9901895523071289,0.1354871690273285,-0.034172073006629944,0.009638410061597824,-0.08414547145366669,-0.09582558274269104,0.5227060914039612,-0.06412184238433838,0.19301605224609375
141,-1.5959535505650548,-0.12290976154160681,-2.8713540403566515,-0.9921420812606812,0.12260053306818008,0.02496480755507946,-1.1131192445755005,0.12807080149650574,-0.08817997574806213,0.26712071895599365,0.007968924939632416,0.02012491226196289
142,-1.553717649927956,-0.1785055139632144,-2.8508876004682366,-0.9839666485786438,0.177559033036232,-0.016806483268737793,0.8502610325813293,0.22176165878772736,0.3705899119377136,0.011203587055206299,-0.1957322508096695,0.2895573377609253
143,-1.5651318584869733,-0.1905321156209437,-2.82948466394652,-0.9818878173828125,0.189381405711174,-0.005561931990087032,-0.4830459952354431,-0.898587167263031,-0.25983282923698425,-0.24794000387191772,-0.0773666501045227,0.2196732759475708
144,-1.6373287261033387,-0.17218413461471,-2.969721003472152,-0.9830331802368164,0.17133459448814392,0.06550022959709167,-0.6769195795059204,-0.13022974133491516,-0.2421950250864029,-0.3100423812866211,0.2815310060977936,-0.45275306701660156
145,-1.6086131720625718,-0.15013533712697807,-3.0268915047240137,-0.9880441427230835,0.14957195520401,0.03738253191113472,0.7273412942886353,0.5347867608070374,-0.03338330239057541,0.4079810380935669,-0.12618020176887512,-0.34092557430267334
146,-1.6533615403730961,-0.15083706612903885,-2.996291472053084,-0.9852778315544128,0.15026575326919556,0.08153503388166428,-0.6142851114273071,0.3456690311431885,0.14948929846286774,0.48080694675445557,0.004656732082366943,-0.03302741050720215
147,-1.622503793145807,-0.1690376538642446,-2.979042391221427,-0.9844297170639038,0.16823379695415497,0.05094778165221214,0.6458601355552673,-0.37369126081466675,0.29294270277023315,0.006905913352966309,-0.17387954890727997,0.07180917263031006
148,-1.7758368044825468,-0.1335970423544753,-2.9273093368531287,-0.9703287482261658,0.13319998979568481,0.20179252326488495,-2.2423129081726074,2.1989758014678955,-0.41547712683677673,-0.14292210340499878,0.04375620186328888,0.5144398212432861
149,-1.7195860340912654,-0.16863277598080725,-2.9985138723476963,-0.9749229550361633,0.16783466935157776,0.1461385190486908,0.24442201852798462,0.0008148117922246456,0.31821906566619873,-0.5337285995483398,0.14497046172618866,-0.36435452103614807
150,-1.573753741028041,-0.1738530413230588,-2.8946603021796644,-0.9849213361740112,0.17297857999801636,0.0029128289315849543,1.5196785926818848,0.7001768350601196,-0.04239076375961304,0.34193122386932373,-0.30699652433395386,0.2579057216644287
151,-1.5412906661815322,-0.16221182778483065,-2.844057839068046,-0.9864428639411926,0.16150139272212982,-0.029114097356796265,-0.2228527069091797,0.005084054544568062,-0.03286904841661453,0.2427600622177124,0.038388729095458984,-0.013137457892298698
152,-1.479956669893827,-0.1587063805358889,-2.813611490686915,-0.9833614230155945,0.15804097056388855,-0.08957473188638687,0.8961257338523865,0.40104514360427856,0.4402097165584564,-0.04239553213119507,-0.12196917831897736,0.10330765694379807
153,-1.4168289812241917,-0.15971516311913547,-2.718878782915225,-0.9755935668945312,0.15903699398040771,-0.1514078676700592,1.1873881816864014,0.610087513923645,0.027183134108781815,-0.459403932094574,-0.1108039915561676,0.18149824440479279
154,-1.4807426514824615,-0.16745429838195938,-2.6911565737737586,-0.9820168018341064,0.16667279601097107,-0.08867405354976654,-0.6093938946723938,-0.7957561612129211,-0.04087188094854355,-0.3500601649284363,0.17542925477027893,-0.32917267084121704
155,-1.4878531766378302,-0.17824988133056557,-2.783619835963663,-0.9807721972465515,0.17730745673179626,-0.08153539896011353,-0.5148531198501587,-0.27741923928260803,0.2878952622413635,0.46470463275909424,0.17314116656780243,-0.271171510219574
156,-1.5191669868306854,-0.213630711079691,-2.7871580053249825,-0.9759653210639954,0.212009459733963,-0.050433263182640076,-0.10921843349933624,0.013479001820087433,0.05075368657708168,0.18182170391082764,-0.2744789719581604,0.27269279956817627
157,-1.4983701876156992,-0.2225463144199618,-2.797733208388542,-0.9727816581726074,0.22071385383605957,-0.07057826966047287,0.034415580332279205,0.47963112592697144,0.017796767875552177,0.2958254814147949,-0.04630589485168457,0.009207434952259064
158,-1.5485003863524023,-0.20088099634884593,-2.7836448965117904,-0.9796475172042847,0.19953268766403198,-0.021845782175660133,-0.02580350823700428,-2.015376567840576,-1.2920362949371338,-0.6675691604614258,-0.09311792254447937,0.5413617491722107
159,-1.572096839618567,-0.13681121218930653,-2.8599232860171964,-0.9906551241874695,0.13638481497764587,0.0012883604504168034,-0.5294641852378845,0.6295754909515381,0.1988629549741745,-0.011923611164093018,0.13529792428016663,-0.7090520858764648
160,-1.575341434171539,-0.16082006403678015,-2.866503511162352,-0.9870861172676086,0.16012774407863617,0.004486443009227514,-0.6903220415115356,2.0474188327789307,0.01923248916864395,-0.35603827238082886,0.11775006353855133,-0.40043675899505615
161,-1.4596841539945205,-0.17336880773118196,-2.740275683021411,-0.9789351224899292,0.17250162363052368,-0.1092214584350586,0.7993201613426208,0.9584360718727112,0.11931702494621277,0.370109498500824,-0.009171545505523682,0.3570699691772461
162,-1.4176105132731631,-0.18905374305024394,-2.7154094703267466,-0.9706810116767883,0.18792958557605743,-0.1498686671257019,-0.40677499771118164,-0.03493058681488037,-0.09998132288455963,0.3423089385032654,-0.10228201746940613,0.1576964408159256
163,-1.4137369357149983,-0.19564989108443945,-2.7416878375586378,-0.9688478708267212,0.19440406560897827,-0.15343032777309418,-0.5132651329040527,-0.012912172824144363,0.13264887034893036,0.2277437448501587,-0.10868018865585327,0.0953705906867981
164,-1.4297565985396283,-0.1995707735577721,-2.7584395885875583,-0.9704192876815796,0.19824863970279694,-0.137782484292984,-0.7464919090270996,-0.8424115180969238,-0.38609811663627625,-0.3174225091934204,-0.07056309282779694,0.3289445638656616
165,-1.5168727027959383,-0.16556778318013174,-2.876112002802065,-0.9848912954330444,0.164812371134758,-0.053160443902015686,0.242332324385643,-0.4283427298069,-0.04318254813551903,-0.39908087253570557,0.4709145426750183,-0.328202486038208
166,-1.5199269668598556,-0.14018488779146776,-2.904222254341527,-0.9889092445373535,0.1397261917591095,-0.050348617136478424,-0.20274187624454498,0.2358044534921646,0.11865576356649399,0.5835595726966858,0.11172337830066681,0.06704169511795044
167,-1.6245727239546754,-0.13808364271215082,-2.9290395537110023,-0.9890497922897339,0.13764524459838867,0.05323886498808861,-0.9272035956382751,-0.5232559442520142,-0.009640438482165337,0.3013361692428589,0.010044574737548828,-0.1404123306274414
168,-1.6377037638340364,-0.13901274672640207,-2.9107565317623227,-0.988137423992157,0.13856545090675354,0.06621257215738297,0.07257498055696487,-0.12669818103313446,-0.2165234088897705,0.12171286344528198,0.08454856276512146,0.13558495044708252
169,-1.6641433983658382,-0.14420728286342174,-2.8608051333691447,-0.9853116869926453,0.1437079906463623,0.09224404394626617,-0.1714291274547577,-0.901665985584259,0.08525602519512177,-0.321008563041687,-0.09268258512020111,0.5517226457595825
170,-1.6726686524611292,-0.12421143032029044,-2.876598115680261,-0.9871512055397034,0.12389227747917175,0.10091271996498108,-0.10465248674154282,1.385061502456665,0.4228486716747284,-0.19140714406967163,0.19117119908332825,-0.3278414011001587
171,-1.6649352800625885,-0.14472601053692039,-2.8815743993037715,-0.9851641058921814,0.14422130584716797,0.09301725775003433,0.3740459680557251,0.7590348124504089,-0.027206139639019966,-0.13231348991394043,0.33502674102783203,-0.37280237674713135
172,-1.5755794850748317,-0.15664598335843047,-2.846045207646869,-0.9877448678016663,0.15600614249706268,0.004724576137959957,0.14414076507091522,-0.02982090786099434,0.09336016327142715,0.31632763147354126,-0.10687284171581268,0.06253612041473389
173,-1.5408009155068232,-0.1747882264171881,-2.854285289569014,-0.9843204021453857,0.1738995909690857,-0.029533952474594116,-0.21787677705287933,0.014041140675544739,0.26346251368522644,0.16441988945007324,-0.1719464808702469,0.035011887550354004
174,-1.5098559759099075,-0.17665115562921088,-2.8249884162687957,-0.9826103448867798,0.17573383450508118,-0.05995485559105873,0.38669514656066895,-0.06247583031654358,0.24087190628051758,0.13609850406646729,0.020280569791793823,0.26814574003219604
175,-1.483213328762741,-0.16948169515910969,-2.788180898625911,-0.9818943738937378,0.16867148876190186,-0.08621782064437866,0.40259239077568054,0.31705260276794434,-0.04224851727485657,-0.12763327360153198,-0.11940085887908936,0.25586503744125366
176,-1.541993836749262,-0.1730512252336515,-2.806403529411566,-0.984655499458313,0.17218880355358124,-0.028368376195430756,-1.4897091388702393,-1.2796791791915894,0.016901055350899696,-0.06450831890106201,0.22304436564445496,-0.07616955041885376
177,-1.625935908767747,-0.16895873738517667,-2.94827704004929,-0.9842623472213745,0.1681559979915619,0.05432688444852829,-0.6120882630348206,0.2624123692512512,0.08143138885498047,-0.06722092628479004,0.3002278208732605,-0.5667628049850464
178,-1.581515701829443,-0.1827994428964945,-2.9362256847740262,-0.983282208442688,0.18178308010101318,0.010540574789047241,0.7464746832847595,-1.0330369472503662,0.24343791604042053,0.2191067934036255,-0.19550073146820068,0.13545548915863037
179,-1.6298708883071034,-0.18022862659549405,-2.9339787476865196,-0.9820865988731384,0.17925450205802917,0.0580839179456234,-0.9157329201698303,-0.239984929561615,0.2157805860042572,0.12008708715438843,0.14240077137947083,0.0023561716079711914
180,-1.6375011349865716,-0.19087631457647997,-2.9198647582818626,-0.9796547889709473,0.18971936404705048,0.06544478237628937,0.6095660924911499,-1.137760877609253,0.17845489084720612,-0.035100460052490234,-0.029700443148612976,0.29101574420928955
181,-1.776278895241255,-0.15525504501438064,-2.9385452728966017,-0.9671879410743713,0.1546320766210556,0.20158547163009644,-1.046309232711792,1.4683011770248413,-0.26907214522361755,-0.2917690873146057,0.027695193886756897,0.03759613633155823
182,-1.703555654372158,-0.19023609845103584,-2.915302488464344,-0.9733189344406128,0.18909074366092682,0.12998171150684357,0.33013343811035156,-0.18869054317474365,0.561805248260498,-0.26847195625305176,0.13212205469608307,-0.2290721982717514
183,-1.5704913034547892,-0.20355744261771008,-2.8834088999114678,-0.9793536067008972,0.20215459167957306,-0.0002987257030326873,1.2062638998031616,0.9199431538581848,0.13948768377304077,0.3376452326774597,-0.22324223816394806,-0.15453219413757324
184,-1.4890779066882471,-0.22511526880469182,-2.767444195203331,-0.9715155959129333,0.22321872413158417,-0.07956791669130325,0.7790703177452087,0.422120064496994,0.11215724050998688,0.1414678692817688,-0.23301483690738678,0.20162296295166016
185,-1.4802617739049402,-0.2288843309397849,-2.7727223235792433,-0.9699314832687378,0.22689108550548553,-0.08805302530527115,0.412290096282959,0.09901262819766998,-0.04509240388870239,-0.18520456552505493,-0.10576681792736053,-0.10445189476013184
186,-1.4527901462417459,-0.2303249284889615,-2.7038930667049503,-0.9668211936950684,0.22829388082027435,-0.11462343484163284,0.009095984511077404,0.646418571472168,-0.15428003668785095,-0.19188541173934937,-0.10398055613040924,0.38737428188323975
187,-1.526159051404355,-0.22904374814732373,-2.7376893317596975,-0.972913920879364,0.22704635560512543,-0.043457090854644775,-1.4166676998138428,-0.604926347732544,-0.1570807248353958,-0.059480488300323486,0.22072280943393707,-0.026672299951314926
188,-1.6329812720913321,-0.21063104428479887,-2.891184011335503,-0.9760091304779053,0.20907704532146454,0.06077142804861069,-0.847058117389679,0.6006329655647278,-0.45622751116752625,-0.1024516224861145,0.30872997641563416,-0.5222735404968262
189,-1.603084980976252,-0.2001544089519382,-2.812300248292232,-0.9795249700546265,0.19882066547870636,0.03163853660225868,-0.11125340312719345,-0.9069342613220215,-0.6458531022071838,0.4556145668029785,-0.19166433811187744,0.566963791847229
190,-1.6224916663784288,-0.17928140208039092,-2.894673608207702,-0.9826576709747314,0.17832253873348236,0.05084412172436714,0.20582696795463562,0.13708068430423737,0.15695199370384216,0.3381873369216919,-0.08849403262138367,-0.22906672954559326
191,-1.6755388882505176,-0.17516269542811252,-2.864680631158118,-0.9793016314506531,0.17426835000514984,0.10295133292675018,1.7245901823043823,-1.430288314819336,-0.15582235157489777,-0.07721692323684692,0.0027183443307876587,0.34410059452056885
192,-1.745494088400128,-0.12965834146478683,-2.869092475037192,-0.976513147354126,0.12929536402225494,0.17235158383846283,-0.7039587497711182,1.039671778678894,-0.22345773875713348,-0.09299075603485107,0.12319184839725494,-0.12610219419002533
193,-1.687019955799545,-0.16856981638681873,-2.851071444909737,-0.9791750311851501,0.16777260601520538,0.11431847512722015,-0.6206842064857483,-0.03981509059667587,-0.08574116230010986,-0.36558204889297485,0.19059531390666962,0.013397574424743652
194,-1.5590925183123319,-0.17553183829590538,-2.8332940929630106,-0.9845662117004395,0.17463183403015137,-0.011523700319230556,1.3101048469543457,0.8003643155097961,0.2036719173192978,0.23204869031906128,-0.11515310406684875,0.16067832708358765
195,-1.5188889242823749,-0.1900440405485539,-2.788748727885885,-0.9806731939315796,0.1889021396636963,-0.05094996467232704,-0.14336711168289185,0.21913202106952667,0.01480333786457777,0.25411075353622437,-0.12411335110664368,0.08577054738998413
196,-1.4959655681045079,-0.19979636403162612,-2.787405979883922,-0.9773642420768738,0.19846974313259125,-0.07327372580766678,0.8079298138618469,0.26836153864860535,0.37239915132522583,0.0020529627799987793,-0.10751211643218994,0.04800516366958618
197,-1.4668049207335516,-0.21025975918553352,-2.7183521075838906,-0.9726935625076294,0.20871394872665405,-0.10151798278093338,-0.32037389278411865,0.24231651425361633,0.10956908762454987,-0.11351871490478516,-0.18713799118995667,0.33966195583343506
198,-1.5125790274387354,-0.20103612770281676,-2.752792176539075,-0.9782001972198486,0.19968469440937042,-0.05701259896159172,-0.7889382839202881,-1.0124670267105103,-0.14902141690254211,-0.13022875785827637,0.10983982682228088,-0.028360307216644287
199,-1.6217884419376012,-0.1591707922298534,-2.940031746316734,-0.986075758934021,0.15849953889846802,0.05032571405172348,-0.7295925617218018,0.8602228164672852,-0.5547690391540527,0.005271196365356445,0.4161617159843445,-0.6387655735015869
200,-1.6043651942967647,-0.15827378550089288,-2.895590582351251,-0.9869446158409119,0.15761379897594452,0.0331430621445179,0.691124677658081,-1.3413245677947998,-0.23778671026229858,0.23464041948318481,-0.19676785171031952,0.3442525863647461
201,-1.6386109057511569,-0.14226473033969975,-2.9581586863827947,-0.987622082233429,0.14178532361984253,0.06707803159952164,-0.20992155373096466,0.2281317561864853,0.029798613861203194,0.26786506175994873,-0.010422423481941223,-0.20753514766693115
202,-1.6251976948331583,-0.1438787221256649,-2.934704117334689,-0.9882031083106995,0.14338283240795135,0.053812697529792786,0.7290154695510864,-0.5826054811477661,-0.1315944343805313,0.051695048809051514,-0.06280118227005005,0.2630208730697632
203,-1.7107692391270914,-0.09383408484633493,-2.97436891620739,-0.9858635663986206,0.09369644522666931,0.13890253007411957,-1.7989283800125122,0.5766404867172241,-0.6501131057739258,-0.2522192597389221,0.05477156490087509,0.47054874897003174
204,-1.6782019591328976,-0.10789262122101423,-2.973114538605379,-0.9884562492370605,0.10768342018127441,0.10657590627670288,0.01973695680499077,-0.435772180557251,-0.08867614716291428,-0.21176952123641968,0.19448637962341309,-0.06092167645692825
205,-1.5808095513775895,-0.11367975751126308,-2.981610932462788,-0.9934956431388855,0.11343506723642349,0.00994842778891325,0.5401647686958313,0.595182478427887,0.09353206306695938,0.1874653697013855,-0.2136548012495041,-0.012893319129943848
206,-1.5537977660607156,-0.11327510704369328,-3.058809067654773,-0.9934477210044861,0.11303301900625229,-0.016888808459043503,-1.2771097421646118,0.4554830491542816,-0.0551336444914341,0.32611989974975586,0.11760357767343521,-0.07060509920120239
207,-1.51809610007229,-0.1387006671319435,3.1238471677172357,-0.9890213012695312,0.13825637102127075,-0.052169956266880035,-0.4431706666946411,0.30948200821876526,0.4614563286304474,0.032829463481903076,-0.08865006268024445,0.05957049876451492
208,-1.4837427311993254,-0.18650355864408094,3.085072242773667,-0.9789375066757202,0.18542422354221344,-0.08543595671653748,0.2118345946073532,0.28226131200790405,0.3237639367580414,-0.35877007246017456,-0.36854493618011475,0.015596441924571991
209,-1.5021185210052301,-0.18217595766386419,3.057112015019708,-0.9811334609985352,0.18116995692253113,-0.06748823076486588,-1.4536222219467163,-0.7157512903213501,-0.07004814594984055,-0.19650942087173462,-0.09268423914909363,-0.058732450008392334
210,-1.6089187330446537,-0.13837761764873557,2.8598585531779985,-0.9897214770317078,0.13793642818927765,0.037748854607343674,-2.145033359527588,-0.14860928058624268,-0.30275315046310425,-0.08359700441360474,0.5789520144462585,-0.33595144748687744
211,-1.6359608815102753,-0.14798887015838136,2.83906167920283,-0.9869703054428101,0.1474492847919464,0.06440667062997818,-1.1801187992095947,-0.5918821692466736,0.2259235829114914,0.1616377830505371,-0.3150976300239563,0.5821692943572998
212,-1.6343993408297355,-0.14348578664738512,2.703795417622364,-0.9877223372459412,0.14299394190311432,0.06290696561336517,-0.31183815002441406,0.2593984603881836,0.07471802830696106,0.27594566345214844,-0.05078509449958801,-0.21004748344421387
213,-1.600798112727322,-0.159728244811183,2.697586154406897,-0.9868263006210327,0.15904991328716278,0.029615437611937523,0.1148560643196106,0.400665819644928,0.10385723412036896,0.10627210140228271,-0.1335677206516266,0.11700630187988281
214,-1.5806702543787925,-0.16225956993866297,2.6791471455839244,-0.9868167638778687,0.16154851019382477,0.009744074195623398,-0.5629236102104187,0.2992435395717621,-0.2732222378253937,-0.10163843631744385,-0.3979071378707886,0.1512514352798462
215,-1.5798089942951665,-0.15881729863641147,2.6864027356301374,-0.987375020980835,0.15815049409866333,0.008899123407900333,0.8442288637161255,0.6207219958305359,0.200682133436203,-0.3611358404159546,-0.05863267183303833,-0.02785050868988037
216,-1.5813378621792116,-0.17113118338975467,2.692656451600372,-0.9853380918502808,0.17029711604118347,0.0103873610496521,0.8754926919937134,0.7414789199829102,0.4060720205307007,-0.04458451271057129,0.17424634099006653,-0.2831230163574219
217,-1.5299764669784734,-0.20104477527057552,2.7606466496107993,-0.9790422916412354,0.19969317317008972,-0.03998658061027527,0.3639795184135437,0.10059864819049835,0.2503048777580261,0.19243645668029785,-0.18367144465446472,-0.045065879821777344
218,-1.5054526776810082,-0.2255073533569079,2.7932324429236797,-0.9726007580757141,0.22360089421272278,-0.06364388763904572,0.09856811910867691,0.10301633179187775,0.19299307465553284,0.2031763195991516,-0.13107159733772278,0.05398505926132202
219,-1.5061878018834065,-0.24060470313802224,2.830244519219909,-0.969167947769165,0.2382899522781372,-0.06270378082990646,0.30043062567710876,-0.1113777905702591,-0.05619485676288605,-0.12142372131347656,-0.22516734898090363,0.05440299212932587
220,-1.5069482931230442,-0.22824088450342359,2.8564092708129456,-0.9720811247825623,0.22626438736915588,-0.06214994564652443,0.23941105604171753,-0.43493375182151794,-0.24689149856567383,-0.28751659393310547,-0.16036167740821838,0.19500821828842163
221,-1.573267412373163,-0.1969174708192816,2.82558126319035,-0.9806713461875916,0.19564731419086456,0.0024233278818428516,-0.6515728235244751,-0.30604615807533264,-0.7184873819351196,-0.31707334518432617,0.47528165578842163,-0.16329669952392578
222,-1.5585532287535673,-0.15993428975521284,2.824950995909852,-0.9871637225151062,0.15925332903862,-0.012086546048521996,0.4291233718395233,-0.6944217681884766,0.26201772689819336,0.15481209754943848,0.22160601615905762,0.21631020307540894
223,-1.5921806770907843,-0.17110147611222482,2.7788198495170384,-0.9851725697517395,0.17026785016059875,0.021070487797260284,-0.4549407362937927,0.07340619713068008,0.07286578416824341,0.337360680103302,0.024876803159713745,-0.2128276824951172
224,-1.5826602598942237,-0.17966957472786238,2.7585236521751915,-0.9838336110115051,0.17870447039604187,0.011672683991491795,0.05788801610469818,0.07956917583942413,0.12314856052398682,0.20262938737869263,-0.17527124285697937,0.0385744571685791
225,-1.5815037187309349,-0.18254876983875779,2.7938877499524355,-0.9833279848098755,0.18153658509254456,0.01052928064018488,0.30539336800575256,-0.5159181356430054,-0.23037129640579224,-0.28809547424316406,-0.32355010509490967,0.3229362964630127
226,-1.5800856451491228,-0.15248140568482918,2.810942589385677,-0.9883547425270081,0.15189121663570404,0.009181405417621136,1.0471242666244507,-0.9869868755340576,0.4101196825504303,-0.14581596851348877,0.32447296380996704,-0.3648179769515991
227,-1.5936818196985953,-0.15082669285607014,2.785899089416694,-0.9883882999420166,0.150255486369133,0.022623702883720398,-0.3381558656692505,0.4795214533805847,0.25827816128730774,0.09156829118728638,0.4629647135734558,-0.2952219247817993
228,-1.5559766637940016,-0.19345777022069105,2.84248222504283,-0.981237530708313,0.19225330650806427,-0.014542674645781517,0.077339768409729,0.5164908766746521,0.16783049702644348,0.16435831785202026,-0.22730274498462677,0.12965500354766846
229,-1.539349853436786,-0.2074151287109842,2.8266303230069862,-0.978082537651062,0.20593112707138062,-0.03076738864183426,0.23132853209972382,0.2131752222776413,0.31296345591545105,0.29731184244155884,-0.012236088514328003,-0.17594343423843384
230,-1.5197621538034856,-0.23640013312388833,2.843960972287515,-0.9709214568138123,0.23420441150665283,-0.049593236297369,0.23154979944229126,0.13068312406539917,0.263925164937973,-0.004084467887878418,-0.19886507093906403,0.08941865712404251
231,-1.4963120664677512,-0.24711238036182914,2.8766415329067327,-0.9669342637062073,0.24460507929325104,-0.07215487211942673,0.7503830790519714,0.2717110812664032,0.042257122695446014,-0.15922528505325317,-0.36003780364990234,0.03037632256746292
232,-1.5374273260609386,-0.2340601031528147,2.8961132840052097,-0.9721912741661072,0.23192882537841797,-0.03245309740304947,-0.2534187436103821,-0.8459874391555786,-0.06991489976644516,-0.24257618188858032,-0.08587169647216797,-0.17665332555770874
233,-1.5716933145130598,-0.1788519299294718,2.8455423196405802,-0.9840481877326965,0.17789992690086365,0.0008826793637126684,0.6238874197006226,0.3867485225200653,-0.21027718484401703,0.16323214769363403,0.47482526302337646,-0.24218523502349854
234,-1.6035293720262407,-0.19989665455996358,2.930844298949332,-0.9795620441436768,0.19856804609298706,0.03207550570368767,0.3376087546348572,-0.8357572555541992,0.13656660914421082,0.15335971117019653,-0.12796562910079956,0.07601773738861084
235,-1.6094357442728604,-0.20686111854243236,3.001220878780071,-0.9779500365257263,0.20538894832134247,0.03780623525381088,1.4012644290924072,0.001382776303216815,0.05021742358803749,0.13679397106170654,-0.16135209798812866,0.007771730422973633
236,-1.6071470651641424,-0.21843721809131855,3.1413502401359015,-0.9755923748016357,0.21670424938201904,0.03547913208603859,1.5452215671539307,-0.46416565775871277,-0.030179768800735474,-0.03255581855773926,-0.07202041149139404,0.14123296737670898
237,-1.6432602027883332,-0.19263141005512824,-3.0714375527142943,-0.9789280295372009,0.19144229590892792,0.07106134295463562,-0.10416331887245178,0.3531917631626129,-0.633579671382904,-0.0585322380065918,-0.2393854260444641,0.4392688274383545
238,-1.6374215999450135,-0.20430146962299767,-2.942782341492029,-0.9770305156707764,0.20288321375846863,0.06519141793251038,0.9746732115745544,-0.7050856947898865,0.14597740769386292,-0.16536450386047363,0.19747689366340637,0.2339266538619995
239,-1.5579814010856892,-0.20707513435737412,-2.865857969496666,-0.9785559773445129,0.2055983990430832,-0.012540808878839016,1.462725043296814,0.1461680680513382,0.15768110752105713,0.1254677176475525,0.022856146097183228,0.03672599792480469
240,-1.5316384543038455,-0.21827501805424165,-2.801333031078239,-0.9755239486694336,0.21654589474201202,-0.03821897879242897,0.36552298069000244,0.12186411768198013,0.07481635361909866,0.21224892139434814,-0.08916555345058441,-0.10712099075317383
241,-1.504503838991011,-0.21744969530289812,-2.7849135347651988,-0.9743061661720276,0.21574008464813232,-0.0646839588880539,0.05181082338094711,0.3500036895275116,0.03089958429336548,0.16072267293930054,-0.030696704983711243,0.08041577786207199
242,-1.4711662642659655,-0.22446002762939407,-2.751803626223989,-0.9700799584388733,0.2225799709558487,-0.09697018563747406,0.29824942350387573,0.2296379804611206,0.2830675542354584,-0.053983211517333984,-0.03480526804924011,0.18672238290309906
243,-1.4628530898633854,-0.2366037849738093,-2.7145548405114464,-0.9664815068244934,0.2344023883342743,-0.10473223030567169,-0.014160830527544022,-0.549728512763977,0.14249765872955322,-0.37433868646621704,-0.13065791130065918,0.1894948035478592
244,-1.5497064627639363,-0.24298843804107442,-2.799538659806254,-0.9704075455665588,0.24060434103012085,-0.02046879753470421,-1.6347417831420898,-0.6075258255004883,-0.3452586531639099,-0.1988430619239807,0.27628716826438904,-0.2603234052658081
245,-1.5577831487112352,-0.2252287582839811,-2.84973981033191,-0.9746606349945068,0.2233293503522873,-0.012684148736298084,0.8595640659332275,0.43014347553253174,0.2425418198108673,0.3547569513320923,-0.026948705315589905,-0.0905415415763855
246,-1.588490521482764,-0.22628021000621992,-2.835794992294761,-0.9743551015853882,0.2243541181087494,0.017242228612303734,-0.6030169129371643,0.7156119346618652,0.047707296907901764,0.35432952642440796,-0.12839160859584808,-0.06375110149383545
247,-1.5638040285450705,-0.23447964736212995,-2.8295373637925594,-0.9726117253303528,0.23233690857887268,-0.00680090207606554,0.3179936408996582,-0.861344575881958,0.15725857019424438,0.05297964811325073,0.0536128431558609,0.16347813606262207
248,-1.6891209502952997,-0.21572951582445776,-2.8061270245509524,-0.9699903726577759,0.21406009793281555,0.11531240493059158,-1.0296313762664795,-0.8678864240646362,-0.9731014370918274,-0.15905320644378662,-0.11396241188049316,0.5170118808746338
249,-1.6065521270427874,-0.22466279173775813,-2.8086272046108416,-0.9742463231086731,0.22277763485908508,0.03484980762004852,0.4484647512435913,-1.4073200225830078,0.2919986844062805,-0.28104865550994873,0.1844336837530136,-0.253767728805542
250,-1.533426765072322,-0.2276146619528789,-2.8066188232133387,-0.9735274314880371,0.22565434873104095,-0.036397237330675125,1.6538519859313965,1.6259679794311523,0.2727055251598358,0.09912240505218506,-0.18297550082206726,-0.07770800590515137
251,-1.4560227167649131,-0.24041065011796448,-2.701505266189646,-0.9648501873016357,0.23810148239135742,-0.11122816801071167,-0.221811905503273,0.11357518285512924,0.07134127616882324,0.353812038898468,-0.1622958481311798,0.20006485283374786
252,-1.4539137673368432,-0.24954675637429785,-2.7018682379497374,-0.9624128341674805,0.24696478247642517,-0.11300434917211533,0.17322763800621033,-0.14825034141540527,0.32856279611587524,-0.05313587188720703,-0.06465277075767517,0.12130516767501831
253,-1.425809550999561,-0.25439643148336827,-2.6421058169684364,-0.9576607942581177,0.2516613006591797,-0.13982930779457092,0.18055352568626404,-0.15212394297122955,0.07593625038862228,-0.2981526851654053,-0.18037226796150208,0.4109017252922058
254,-1.500114906867425,-0.25572689775469953,-2.691570497510915,-0.9650639891624451,0.25294873118400574,-0.06832591444253922,-1.2195756435394287,-1.1331883668899536,-0.14081504940986633,-0.02536875009536743,0.22669604420661926,-0.2341185212135315
255,-1.5825490734699375,-0.22335787259378817,-2.7986434334485106,-0.9750918745994568,0.2215053290128708,0.011460535228252411,-0.37417030334472656,0.4486822783946991,-0.29806894063949585,0.06978785991668701,0.283407986164093,-0.388016939163208
256,-1.6368491359461004,-0.19653072275095762,-2.7663689927144657,-0.9786112904548645,0.19526802003383636,0.06473419815301895,-1.134806513786316,-0.1286861002445221,-0.24950402975082397,0.34396761655807495,-0.11703617870807648,0.29549527168273926
257,-1.6052583776636722,-0.19151032231295215,-2.807134085012308,-0.9811348915100098,0.19034181535243988,0.033825311809778214,0.4861443042755127,0.04316497966647148,0.24090932309627533,0.40197235345840454,-0.03625859320163727,-0.06910359859466553
258,-1.6748634409713952,-0.1879232614902828,-2.7245658554566363,-0.9770795106887817,0.18681912124156952,0.10205051302909851,0.1764938086271286,-1.8024089336395264,-0.739965558052063,-0.5810564756393433,-0.2202816605567932,0.8065645694732666
259,-1.6471781361200537,-0.16050403959930268,-2.7456189975718774,-0.9842686057090759,0.15981578826904297,0.07532676309347153,1.3555595874786377,0.2137995958328247,0.9231090545654297,-0.2565760612487793,0.39148426055908203,-0.871179461479187
260,-1.6521239602892674,-0.20242418326623998,-2.7129320846022353,-0.9763445258140564,0.20104460418224335,0.07957931607961655,-0.7503964900970459,2.298779249191284,0.15568001568317413,-0.6759993433952332,0.35869359970092773,-0.15773475170135498
261,-1.5007416904125097,-0.22313563338982112,-2.6401056447223135,-0.9728164672851562,0.22128860652446747,-0.0682620108127594,0.4237135946750641,-0.01479820441454649,0.35441768169403076,0.3790053725242615,-0.2456721067428589,0.2224520444869995
262,-1.4847908841288116,-0.22754102916806362,-2.658749075770595,-0.9706231355667114,0.22558261454105377,-0.08368531614542007,-0.2951544225215912,0.3155859410762787,-0.11530132591724396,0.24250423908233643,-0.10868503153324127,-0.0032745003700256348
263,-1.468465148581748,-0.23310196177237943,-2.6587275058458797,-0.9678646922111511,0.23099669814109802,-0.09938990324735641,-0.1361360102891922,-0.0032191802747547626,0.08573698997497559,-0.13006609678268433,-0.02794802188873291,0.1476382166147232
264,-1.4395701725879473,-0.2318641569381747,-2.6479169951198767,-0.9648720622062683,0.22979219257831573,-0.12734828889369965,0.02147260308265686,-0.7092751264572144,0.090815469622612,-0.2223990559577942,-0.07818084955215454,0.44053488969802856
265,-1.565962328218407,-0.24407629419768842,-2.7429945833204727,-0.9703496694564819,0.24166010320186615,-0.004690705332905054,-0.6913154721260071,-0.44117897748947144,-0.15889069437980652,-0.19317877292633057,0.19068244099617004,-0.4280943274497986
266,-1.5824476728507568,-0.20691800455510448,-2.812817454293861,-0.9786023497581482,0.20544463396072388,0.011402551084756851,0.28131332993507385,0.4801058769226074,0.12837493419647217,0.3546704649925232,0.14199800789356232,-0.21179616451263428
267,-1.6442682009367906,-0.1968566240178397,-2.8280195947681235,-0.9780405163764954,0.1955876350402832,0.071988046169281,-1.1019423007965088,0.40167102217674255,-0.10618103295564651,0.19387608766555786,-0.1477665901184082,-0.08201301097869873
268,-1.6248401768257437,-0.19686668137416452,-2.7989371310876807,-0.979252278804779,0.19559749960899353,0.052974145859479904,0.8998645544052124,-0.8378077149391174,0.1487119346857071,0.14252150058746338,-0.008021235466003418,0.15195141732692719
269,-1.7074334229062156,-0.1569777412171083,-2.7828900372181486,-0.9784985780715942,0.1563338339328766,0.1345375031232834,-0.7784981727600098,-1.3760684728622437,-0.7471891045570374,-0.13235658407211304,-0.2569807767868042,0.7243338823318481
270,-1.6556697126528255,-0.1809586241753498,-2.81754013289984,-0.9801308512687683,0.17997263371944427,0.0833873450756073,0.42633724212646484,-0.3869312107563019,0.5047988295555115,-0.3445304036140442,0.02022269368171692,-0.4927806854248047
271,-1.5969772182673336,-0.18260906431722668,-2.825688087008619,-0.9830362200737,0.18159587681293488,0.02574264630675316,0.6439310312271118,1.2219271659851074,0.23687532544136047,-0.021800756454467773,0.01092424988746643,-0.19851791858673096
272,-1.5390097628263655,-0.19763839064267785,-2.7977498047255804,-0.9800378084182739,0.1963542401790619,-0.031162530183792114,-0.32420188188552856,0.09065375477075577,0.10161043703556061,0.2780265808105469,-0.1315959244966507,0.040439900010824203
273,-1.5064935896026082,-0.19744312157884233,-2.835365985231313,-0.9785448908805847,0.19616277515888214,-0.06300998479127884,-0.1732761114835739,0.38045939803123474,0.05642028898000717,0.27009451389312744,-0.01690252125263214,0.11517977714538574
274,-1.470744925667712,-0.21786898633023977,-2.832292757741043,-0.9714775681495667,0.2161494791507721,-0.09752332419157028,-0.03672942519187927,0.1336396187543869,0.18562211096286774,-0.35622018575668335,-0.1857234537601471,0.14171278476715088
275,-1.4951761392421152,-0.21948270689966154,-2.841414950980282,-0.9732208847999573,0.2177247703075409,-0.07373575121164322,-0.7812665104866028,-1.1396340131759644,0.10250398516654968,-0.18655383586883545,-0.06251238286495209,0.04759747534990311
276,-1.6021925169069262,-0.19184700424000664,-2.9446279111747993,-0.9811699390411377,0.19067233800888062,0.03081512451171875,-1.2758740186691284,-0.06317676603794098,-0.6576984524726868,-0.07673710584640503,0.4746719002723694,-0.23880767822265625
277,-1.584711163328698,-0.1812499290640111,-2.9771845794655514,-0.9835239052772522,0.18025916814804077,0.01368645764887333,0.4977855682373047,-0.8312739729881287,0.18290960788726807,0.21841776371002197,-0.044608548283576965,0.06314146518707275
278,-1.6000105967770184,-0.17234437114783385,-3.0185847017557284,-0.9847650527954102,0.17149245738983154,0.028777379542589188,-0.20195718109607697,0.4580744206905365,-0.11911637336015701,0.32975101470947266,-0.05563247203826904,-0.2507927417755127
279,-1.5972359531605822,-0.17821576553007148,-2.982386282096829,-0.9838176965713501,0.17727388441562653,0.02601783536374569,0.7359123229980469,-0.5252710580825806,0.06193164736032486,0.0603405237197876,-0.010846272110939026,0.32775723934173584
280,-1.7150239740150293,-0.1311170214690457,-2.96316370723695,-0.9811227321624756,0.1307416558265686,0.14249444007873535,-1.6276979446411133,0.4674018621444702,-0.6754705905914307,-0.25999659299850464,-0.0596051961183548,0.5404584407806396
281,-1.6491195581503413,-0.16842670356313255,-2.948865767113243,-0.9828276038169861,0.16763152182102203,0.07713602483272552,0.2444511204957962,-0.03803914785385132,0.21079961955547333,-0.20371121168136597,0.23205721378326416,-0.16881084442138672
282,-1.5887824776544628,-0.18107600120839287,-2.945072642591105,-0.9834913015365601,0.1800880879163742,0.017691129818558693,0.8077224493026733,0.8661529421806335,0.11106463521718979,0.07048177719116211,-0.1792641282081604,-0.11961984634399414
283,-1.5273549129905137,-0.19878213760428126,-2.9103792507243433,-0.9793829321861267,0.1974755972623825,-0.04257256165146828,-0.025271788239479065,0.23312202095985413,0.10493678599596024,0.305570125579834,-0.1589929461479187,0.06651359796524048
284,-1.5065041090783682,-0.20773594016485541,-2.9293161492938897,-0.9764788150787354,0.2062450498342514,-0.06286662817001343,0.017799068242311478,0.3252921402454376,0.1904858946800232,0.16132378578186035,-0.02269706130027771,0.08628886938095093
285,-1.4809197199277477,-0.23968020524383443,-2.8848210307323874,-0.9674931764602661,0.23739197850227356,-0.08718989789485931,0.21671685576438904,-0.06492652744054794,0.22322115302085876,-0.3177546262741089,-0.33355286717414856,0.11634945869445801
286,-1.4858329496491578,-0.24127667169859635,-2.8495972628256463,-0.9675309062004089,0.23894251883029938,-0.08240307122468948,-0.10491564869880676,-0.7030336260795593,0.0786682516336441,-0.1504194736480713,-0.17375698685646057,0.1708430051803589
287,-1.6109627489862097,-0.22961878444320713,-2.918748953910026,-0.972967803478241,0.22760632634162903,0.03910166770219803,-1.5018565654754639,-0.2633103132247925,-0.4491908550262451,-0.25887417793273926,0.3100523352622986,-0.32183170318603516
288,-1.5763896067768322,-0.18226464713100748,-2.94169157781245,-0.9834203720092773,0.18125717341899872,0.005500603001564741,0.5872724056243896,-0.04674532637000084,0.26813992857933044,0.48215389251708984,0.07110793888568878,-0.05844855308532715
289,-1.627578407387719,-0.18486307213268147,-2.904677067989555,-0.9813773036003113,0.1838119477033615,0.05578461289405823,0.08006835728883743,0.29375356435775757,-0.35021528601646423,0.14052647352218628,-0.005696088075637817,-0.00913846492767334
290,-1.6026693430321077,-0.19603886007491808,-2.8425240654535804,-0.980347752571106,0.19478559494018555,0.031257227063179016,0.8823471665382385,-0.3489023447036743,0.3639853000640869,0.14030557870864868,0.04879048466682434,0.1078418493270874
291,-1.681091155947961,-0.18312691894457214,-2.761619974251259,-0.9773044586181641,0.18210509419441223,0.10823085904121399,-0.30349963903427124,-1.904021143913269,-0.8472251296043396,-0.4959927201271057,-0.26996520161628723,0.9416805505752563
292,-1.6406634638483315,-0.19574028715063185,-2.7459429801517534,-0.9785107374191284,0.19449274241924286,0.06847720593214035,1.8119256496429443,-0.33350080251693726,0.7797748446464539,-0.30624866485595703,0.06734807789325714,-0.41123533248901367
293,-1.589485768651279,-0.20128648050486572,-2.7456559050354192,-0.9796389937400818,0.19992999732494354,0.018311038613319397,0.29057303071022034,0.7608152031898499,0.43969032168388367,-0.04654496908187866,0.12816445529460907,-0.2521214485168457
294,-1.535937394583628,-0.21848741109390496,-2.696927208358434,-0.975633442401886,0.21675324440002441,-0.03402332216501236,0.04866185784339905,0.09810545295476913,0.09818326681852341,0.24513405561447144,-0.14323636889457703,0.05964284762740135
295,-1.515940073990434,-0.21247903821784803,-2.7370418464692476,-0.976040780544281,0.21088382601737976,-0.053595710545778275,-0.44021591544151306,0.2971805930137634,-0.0938323363661766,0.315243661403656,-0.01758548617362976,0.02854079008102417
296,-1.4693043167875064,-0.2277089758426085,-2.709247407358252,-0.9691730737686157,0.22574622929096222,-0.09870245307683945,0.18376277387142181,0.07297159731388092,0.10997319221496582,-0.1784403920173645,-0.07259376347064972,0.24544620513916016
297,-1.4621002694067238,-0.24763523096754847,-2.6805464265619388,-0.9637731313705444,0.24511201679706573,-0.10517286509275436,-0.3779431879520416,-0.8312169313430786,0.14675654470920563,-0.3360009789466858,-0.12092074751853943,0.28365492820739746
298,-1.5510462873028767,-0.2531752333885281,-2.745916138779618,-0.967933177947998,0.25047922134399414,-0.019119204953312874,-0.9398860931396484,-0.5806750059127808,-0.08697408437728882,-0.22873735427856445,0.21430349349975586,-0.2640076279640198
299,-1.5431098410809185,-0.2428769861437863,-2.790798459643732,-0.9702782034873962,0.24049615859985352,-0.02687045931816101,0.5300105810165405,0.17698045074939728,0.20523232221603394,0.4154837727546692,-0.03456351161003113,-0.0570375956594944
300,-1.5513974852632781,-0.24090197035028996,-2.794225922125576,-0.9709404110908508,0.2385786473751068,-0.01883748173713684,0.2205919623374939,0.32728418707847595,0.036038123071193695,0.2489250898361206,-0.1352308690547943,-0.17732954025268555
301,-1.5317150100332488,-0.23903811986505966,-2.7761407661551556,-0.9708243012428284,0.2367682009935379,-0.03796042129397392,0.18983079493045807,-0.32753533124923706,-0.16923347115516663,0.01029878854751587,-0.0034918487071990967,0.20716512203216553
302,-1.677205603404436,-0.1935997322132067,-2.7426499007107252,-0.9757676124572754,0.19239261746406555,0.10422439873218536,-0.27438780665397644,-1.098781943321228,-0.49967244267463684,-0.12277364730834961,-0.07357245683670044,0.5554131269454956
303,-1.58984184468318,-0.22989807491873218,-2.7305547254523628,-0.9735132455825806,0.22787828743457794,0.01854330487549305,0.3884961009025574,-0.2213972955942154,0.387946754693985,-0.014295101165771484,-0.002978965640068054,-0.21307754516601562
304,-1.5309883598264393,-0.2490297975847366,-2.7143792616749076,-0.9683842658996582,0.246463805437088,-0.03856978565454483,0.9682319164276123,0.6470763087272644,0.18193504214286804,0.017059743404388428,-0.24330520629882812,-0.08374464511871338
305,-1.4807176266770594,-0.2614826732576722,-2.6546629428728594,-0.9620912075042725,0.25851312279701233,-0.08689908683300018,0.07910224795341492,0.07802924513816833,0.10849574953317642,0.19785481691360474,-0.16824215650558472,0.15332061052322388
306,-1.471433511312752,-0.26275224449744444,-2.6792567281377493,-0.960915744304657,0.25973930954933167,-0.09579475969076157,-0.059775304049253464,0.34701889753341675,0.10998653620481491,0.1825648546218872,-0.006443440914154053,-0.006378114223480225
307,-1.4392354842879767,-0.27429420439294444,-2.6466084710630264,-0.9542979598045349,0.27086758613586426,-0.1262776255607605,0.14978769421577454,0.41233986616134644,0.11350121349096298,-0.1785297393798828,-0.08835723996162415,0.2143055945634842
308,-1.4425940092047418,-0.2848000603399664,-2.633536776182847,-0.9518418312072754,0.28096556663513184,-0.12270129472017288,-0.35146036744117737,-1.1069543361663818,-0.05911331623792648,-0.11200094223022461,0.042413949966430664,0.054067254066467285
309,-1.544839532591335,-0.26562316888793924,-2.717003230305665,-0.9646041393280029,0.26251062750816345,-0.025043657049536705,-0.6314209699630737,0.043242551386356354,-0.5608850717544556,0.001652359962463379,0.18991249799728394,-0.30038052797317505
310,-1.552682088291604,-0.24765594711242475,-2.7390740873445227,-0.9693307876586914,0.24513210356235504,-0.01756061054766178,-0.11091786623001099,0.18674716353416443,-0.009803280234336853,0.3137214779853821,-0.039794519543647766,-0.05278242006897926
311,-1.5526415082758418,-0.24585970423493972,-2.752299250161923,-0.9697685241699219,0.2433902621269226,-0.017607906833291054,-0.07454871386289597,0.27917951345443726,-0.021740753203630447,0.21613699197769165,-0.1886722594499588,-0.054489850997924805
312,-1.535141840347437,-0.24177415815960338,-2.72195122656867,-0.970297634601593,0.23942555487155914,-0.03461012989282608,0.6318110823631287,-0.20185966789722443,-0.06303808093070984,-0.028069615364074707,-0.025802507996559143,0.21943986415863037
313,-1.6082698096191872,-0.19151961589431388,-2.7420043517429002,-0.9810270071029663,0.1903509497642517,0.03677971661090851,-1.4546295404434204,2.029468059539795,-0.14890483021736145,-0.11130404472351074,0.4140191972255707,-0.45921921730041504
314,-1.6009840907757633,-0.21680618336430038,-2.666859645565083,-0.9761444926261902,0.21511167287826538,0.029476575553417206,-0.3574502468109131,0.9437097311019897,-0.05337708815932274,-0.3383391499519348,0.2790136933326721,-0.24064302444458008
315,-1.524702347795219,-0.23253344466009493,-2.5929390009758033,-0.9720521569252014,0.23044352233409882,-0.04483751207590103,0.6505845785140991,0.5338650345802307,-0.08167129755020142,0.2632966637611389,-0.15567547082901,0.16442060470581055
316,-1.4893520569663086,-0.24514517993264653,-2.567280908996341,-0.9668863415718079,0.24269716441631317,-0.07892192900180817,-0.16141824424266815,0.26921647787094116,0.16756272315979004,0.1682261824607849,-0.07362981140613556,0.04069865494966507
317,-1.4500457343905266,-0.2657533520090404,-2.5553221269435498,-0.9578689932823181,0.2626362442970276,-0.11622869968414307,0.5089112520217896,0.24180561304092407,0.4488277733325958,-0.1336226463317871,-0.06892594695091248,0.1658044457435608
318,-1.4104189560138822,-0.2805945280370557,-2.548018485741803,-0.9485598802566528,0.2769269645214081,-0.15344537794589996,-0.3630969822406769,-0.15630801022052765,0.07638148218393326,-0.1754634976387024,-0.17330455780029297,0.40347594022750854
319,-1.510534903575152,-0.28899392086930203,-2.6654932098613675,-0.9567911624908447,0.28498801589012146,-0.05772748962044716,-0.6845325827598572,-0.5529482960700989,0.14949931204319,-0.14805197715759277,0.34106484055519104,-0.41579848527908325
320,-1.5255306140258975,-0.278951443015967,-2.7261161038527706,-0.960360050201416,0.2753477692604065,-0.043501097708940506,0.5654739737510681,0.020146185532212257,0.08592510968446732,0.24354791641235352,0.125821053981781,-0.190202534198761
321,-1.544923955688215,-0.2669473120836651,-2.7382900189612207,-0.9642577767372131,0.263788104057312,-0.02495320327579975,-0.34876686334609985,0.30865398049354553,0.06910043954849243,0.4751983880996704,-0.0927676260471344,-0.09549963474273682
322,-1.516099989734608,-0.2718898215103822,-2.7370730451169525,-0.9618244767189026,0.268552303314209,-0.05266080051660538,-0.2423410713672638,-0.12551286816596985,-0.11930741369724274,0.15553486347198486,-0.03446725010871887,0.062426451593637466
323,-1.5882160366392424,-0.23436710571509187,-2.742164925761528,-0.9725139737129211,0.23222744464874268,0.016942625865340233,-0.6623262763023376,-0.6314623355865479,-0.854224681854248,-0.44023627042770386,-0.09238064289093018,0.8301032781600952
324,-1.558710675427722,-0.2109471936760038,-2.723051567129244,-0.9777617454528809,0.2093861848115921,-0.011817462742328644,0.9360477328300476,0.03696718439459801,1.0007251501083374,-0.11609518527984619,0.2626444697380066,-0.5800251960754395
325,-1.568681293201702,-0.22723829921174388,-2.7297882606181956,-0.9742900729179382,0.22528767585754395,-0.0020606592297554016,-0.11964385956525803,0.7579755783081055,0.04542078450322151,-0.2142932415008545,0.31932902336120605,-0.4269249439239502
326,-1.4917693895764275,-0.22990669670578243,-2.692140563387402,-0.9706486463546753,0.22788667678833008,-0.07686747610569,-0.2084757685661316,0.23827745020389557,0.05424148216843605,0.29160213470458984,-0.09409762918949127,0.1750119924545288
327,-1.4636648942336434,-0.2341391650384823,-2.7345213589292148,-0.9671377539634705,0.23200573027133942,-0.10400906950235367,-0.7481663227081299,0.3317774832248688,-0.05307172238826752,0.44991064071655273,-0.06582224369049072,0.14757293462753296
328,-1.43286338452269,-0.25099387530089895,-2.7595472150656706,-0.9594660401344299,0.2483668178319931,-0.1331876963376999,0.17068791389465332,0.1553746610879898,0.21239370107650757,-0.13771718740463257,-0.0921015739440918,0.16773360967636108
329,-1.4418126500068564,-0.26298930794351055,-2.787000677938153,-0.9575960636138916,0.25996825098991394,-0.12420380860567093,-1.2019100189208984,-0.7553036212921143,-0.1845826953649521,-0.529922366142273,0.04346805810928345,0.11323271691799164
330,-1.513539607315543,-0.25569861948691164,-2.8813602499023614,-0.9659014344215393,0.25292137265205383,-0.05536486208438873,-0.4792596995830536,-0.20762039721012115,-0.08926939964294434,-0.4627179503440857,0.23223179578781128,-0.30709242820739746
331,-1.5667254784566629,-0.21290089210344618,-2.885202547346353,-0.9774140119552612,0.2112961858510971,-0.003978926222771406,-0.4708783030509949,0.04380667582154274,-0.3743288516998291,0.36399537324905396,-0.05187235772609711,0.3428308367729187
332,-1.5438227234536417,-0.2088778928643418,-2.91475714415485,-0.9779083728790283,0.2073623090982437,-0.026384111493825912,0.5391263365745544,0.29085782170295715,0.2500372529029846,0.5129730701446533,-0.029719486832618713,-0.1787703037261963
333,-1.5215056569922247,-0.2350863528309189,-2.85742325481442,-0.9713132381439209,0.23292696475982666,-0.047915492206811905,0.6516693830490112,-0.2805827558040619,0.14934733510017395,-0.023819327354431152,-0.007661417126655579,0.07620524615049362
334,-1.6668253815753682,-0.2053963678959822,-2.7762111380923926,-0.9744696617126465,0.20395521819591522,0.09386610984802246,-0.984286904335022,-0.882911205291748,-0.939274787902832,-0.3838828206062317,-0.03691728413105011,0.87526535987854
335,-1.6037053245098385,-0.2370058456937635,-2.8161522925197864,-0.9715189337730408,0.23479323089122772,0.031983260065317154,0.6261003017425537,-0.8364120125770569,0.6053692102432251,-0.20237010717391968,0.15555709600448608,-0.12370383739471436
336,-1.5206349517086877,-0.25740314319191676,-2.7913201609625764,-0.965837836265564,0.2545700967311859,-0.04848842695355415,1.1843774318695068,0.8237358927726746,0.15811243653297424,0.17344903945922852,-0.1968156099319458,0.10226041823625565
337,-1.4574296876892325,-0.2636310387661843,-2.7517053769961555,-0.9592527151107788,0.2605878412723541,-0.10921553522348404,0.13587377965450287,0.3784869909286499,0.06582454591989517,0.20856618881225586,-0.1738263964653015,0.15879131853580475
338,-1.448235467564217,-0.2705517043336366,-2.756399203882333,-0.9563953280448914,0.26726311445236206,-0.11780709028244019,0.37723392248153687,0.09539265185594559,0.2563807964324951,-0.04606139659881592,-0.030004173517227173,0.1270081251859665
339,-1.4587538174429613,-0.28583540828006515,-2.74980927303317,-0.9534107446670532,0.28195905685424805,-0.10727179050445557,-0.17531543970108032,-0.03175913915038109,0.039133042097091675,-0.5408978462219238,-0.15084025263786316,0.21693669259548187
340,-1.5676182737202913,-0.27476645797377947,-2.8375246750427165,-0.9624837040901184,0.2713221609592438,-0.0030588346999138594,-0.7529627084732056,-0.7566199898719788,-0.10090121626853943,-0.2510324716567993,0.25852400064468384,-0.39661461114883423
341,-1.6010782623971953,-0.2537194940498071,-2.856262169244394,-0.9675418138504028,0.2510060966014862,0.029307998716831207,0.40598854422569275,-0.48211750388145447,-0.2136867195367813,-0.0004910826683044434,0.01879984140396118,-0.17953073978424072
342,-1.639537945901308,-0.1971133554904181,-2.857603406540978,-0.9783200025558472,0.19583940505981445,0.06735742837190628,-0.41408002376556396,0.1001165509223938,-0.1611431986093521,0.42833220958709717,-0.04488420486450195,-0.19478356838226318
343,-1.6156627310336724,-0.19444952306724314,-2.8258058603114926,-0.9801667332649231,0.19322645664215088,0.04400608688592911,0.33619004487991333,-5.2150338888168335e-05,0.08601178228855133,0.26497215032577515,0.10685285925865173,-0.010894544422626495
344,-1.6898769473650443,-0.19373207406811882,-2.7426456118806666,-0.9743433594703674,0.19252248108386993,0.11657696217298508,0.3706866502761841,-1.7199676036834717,-0.8444638252258301,-0.5762548446655273,-0.17849962413311005,0.9682313203811646
345,-1.6474385983478133,-0.1632920027654171,-2.8092368370642626,-0.9838008880615234,0.16256728768348694,0.07554871588945389,0.8918009400367737,-0.35502588748931885,1.022287368774414,-0.09296602010726929,0.008102253079414368,-0.7228113412857056
346,-1.6037463542248562,-0.20075255694471128,-2.783530138969433,-0.9793849587440491,0.19940683245658875,0.03228244557976723,0.8107764720916748,1.7582496404647827,0.5973972082138062,-0.04606670141220093,0.12453725934028625,-0.2707620859146118
347,-1.523675874711459,-0.22499073614771709,-2.724632769064834,-0.9737142324447632,0.2230973243713379,-0.045915842056274414,0.36703431606292725,0.3510085940361023,0.27139702439308167,0.3589985966682434,-0.1329483985900879,0.050218820571899414
348,-1.4956120196190392,-0.23459547847418988,-2.7483949167693433,-0.969860851764679,0.23244956135749817,-0.07305601984262466,-0.1812387853860855,0.41988226771354675,0.1837155967950821,0.39309388399124146,-0.14413170516490936,-0.01362919807434082
349,-1.450369451849076,-0.2735167835850318,-2.7267764017339644,-0.9558536410331726,0.27011916041374207,-0.11567018181085587,0.638595461845398,0.30776718258857727,0.2427089810371399,-0.024462521076202393,-0.3161548972129822,0.06203550100326538
350,-1.4416529668476428,-0.28294952860417166,-2.731056129318625,-0.9522398114204407,0.2791891098022461,-0.12366370856761932,-0.7380354404449463,-0.8082001209259033,0.13959962129592896,-0.01483166217803955,0.01599213480949402,0.21546059846878052
351,-1.5427123433832954,-0.28260678954358276,-2.8222850853202606,-0.9599531888961792,0.2788599729537964,-0.02696639858186245,-1.0073450803756714,-0.914057195186615,-0.1165563315153122,-0.24765801429748535,0.3412114679813385,-0.408641517162323
352,-1.6082929536268653,-0.2492215736616658,-2.837629941181703,-0.9684234857559204,0.24664965271949768,0.036329641938209534,-0.12202629446983337,-1.0390781164169312,-0.32910993695259094,0.22998970746994019,-0.05628103017807007,0.4848647117614746
353,-1.6184197955983655,-0.21977434924925962,-2.9004902465956106,-0.9748401045799255,0.21800941228866577,0.04646039754152298,-0.000295199453830719,0.20078586041927338,0.31666913628578186,0.6073780059814453,-0.11356301605701447,-0.14759564399719238
354,-1.5862535603121004,-0.24716167269463749,-2.867175457798278,-0.9694948196411133,0.2446528822183609,0.014986901544034481,0.9095730781555176,-0.024549951776862144,0.35913243889808655,0.14977753162384033,-0.1676265448331833,0.18323993682861328
355,-1.6606802766240154,-0.20230426413309435,-2.8781376518301296,-0.9756516814231873,0.20092713832855225,0.08793235570192337,-0.8318667411804199,-1.1096876859664917,-0.9588682651519775,-0.15835100412368774,-0.19279420375823975,0.5555460453033447
356,-1.6396825233596786,-0.2216343127027471,-2.866980427419099,-0.9732257127761841,0.21982425451278687,0.06714806705713272,0.24247682094573975,-0.6511052250862122,0.26703178882598877,-0.07546496391296387,0.24421074986457825,-0.23085951805114746
357,-1.5893855863287105,-0.2500408779780162,-2.8911938450422947,-0.968734860420227,0.2474435716867447,0.01801013946533203,1.7620337009429932,1.3084379434585571,0.5292812585830688,0.017486751079559326,-0.10280551016330719,-0.40347766876220703
358,-1.4992676365314341,-0.27888014805839584,-2.817064645247413,-0.9589061141014099,0.2752792239189148,-0.06870651245117188,0.013857351616024971,0.36354461312294006,0.08791322261095047,0.38070476055145264,-0.2234756052494049,0.22182846069335938
359,-1.4896748540100155,-0.27585657246004297,-2.8553414867724496,-0.9590280055999756,0.27237123250961304,-0.07796887308359146,-0.3055281639099121,0.2619493901729584,-0.0046853069216012955,0.35513097047805786,-0.021715104579925537,0.07572585344314575
360,-1.4602484462613197,-0.2851453369095875,-2.856210239569818,-0.9537631273269653,0.28129690885543823,-0.10586810857057571,0.13700255751609802,0.4503704011440277,0.3525967299938202,-0.027392268180847168,-0.24179190397262573,0.20636248588562012
361,-1.5162583139650894,-0.28608268812297855,-2.8620820341694913,-0.9579304456710815,0.2821963131427765,-0.05229547992348671,-0.4435777962207794,-1.103009819984436,-0.08451008796691895,-0.1894848346710205,-0.0046389102935791016,-0.09234262257814407
362,-1.6462824226724713,-0.2062151720872048,-2.9733597748321636,-0.9760255813598633,0.2047567367553711,0.07381661981344223,-1.9412404298782349,0.5153452754020691,-1.6499853134155273,-0.029879629611968994,0.5194101333618164,-0.3762458562850952
363,-1.6006406408817149,-0.18250166157815725,-2.9876281907569573,-0.982954740524292,0.18149025738239288,0.02934432215988636,0.30864837765693665,-1.0715811252593994,0.3403804302215576,0.29539382457733154,-0.09201271831989288,0.07617020606994629
364,-1.6048262315026292,-0.18437622776859958,-2.9871004489755455,-0.9824815988540649,0.1833333671092987,0.033446669578552246,0.5763901472091675,0.31730809807777405,-0.005003651604056358,0.3363940119743347,-0.1026906818151474,-0.16726624965667725
365,-1.5879888992705715,-0.20414731354466228,-2.898063667719727,-0.979089617729187,0.20273225009441376,0.01683472841978073,1.2102025747299194,-1.4626775979995728,0.14326967298984528,-0.16325974464416504,0.01774202287197113,0.40992307662963867
366,-1.6851155183805353,-0.13940742842669426,-2.9068277808858496,-0.983834445476532,0.13895632326602936,0.11296369135379791,-0.3764183819293976,1.5714430809020996,0.10327139496803284,-0.003119230270385742,0.47577452659606934,-1.0088988542556763
367,-1.6685257104175897,-0.19891586356360302,-2.889372198482275,-0.9756037592887878,0.19760668277740479,0.09564986824989319,-0.36844927072525024,0.33294281363487244,-0.07240502536296844,-0.3193790912628174,0.19614636898040771,-0.2275925874710083
368,-1.5676343658840066,-0.21834123128348243,-2.83679446245242,-0.9762532711029053,0.21661053597927094,-0.0030868849717080593,0.6612669229507446,0.8248729705810547,0.13492099940776825,0.4276387691497803,-0.19817793369293213,0.2435501217842102
369,-1.5476122489342907,-0.22997987759639135,-2.845658381180633,-0.9734094738960266,0.22795793414115906,-0.022571643814444542,-0.27951928973197937,0.20852766931056976,-0.04049678519368172,0.27887505292892456,-0.13199536502361298,-0.1297110915184021
370,-1.4986721769816118,-0.24056570666798766,-2.828019239386269,-0.9686782956123352,0.23825207352638245,-0.069986492395401,0.964515745639801,0.45019403100013733,0.30820274353027344,-0.13259416818618774,-0.018968045711517334,0.1916753053665161
371,-1.4562938792847422,-0.2725473985005819,-2.7646501472211473,-0.956781804561615,0.2691856622695923,-0.11003515869379044,-0.06026798114180565,-0.5435188412666321,-0.07965816557407379,-0.851811945438385,-0.13353502750396729,0.5164071917533875
372,-1.5827953472662648,-0.26008980926661257,-2.8917287263636555,-0.9662973284721375,0.25716733932495117,0.01159517839550972,-1.1263889074325562,-0.5340111255645752,-0.36840638518333435,-0.04748135805130005,0.32158327102661133,-0.4958786964416504
373,-1.629926338539874,-0.22961234497381453,-2.952999106411176,-0.972052812576294,0.22760005295276642,0.05754457414150238,0.4909297823905945,-1.4112334251403809,-0.6397470831871033,0.17970973253250122,0.0004882961511611938,0.07809090614318848
374,-1.6674418979179864,-0.18782231971507618,-2.986470693008387,-0.9778285622596741,0.18671995401382446,0.09479813277721405,-0.13596674799919128,0.5370464324951172,0.16657525300979614,0.5255581736564636,-0.05033691227436066,-0.1608840376138687
375,-1.6143972078405815,-0.21115512297877267,-2.9758942525443697,-0.9768601655960083,0.20958951115608215,0.042618975043296814,0.7726787328720093,1.189854621887207,1.007484793663025,0.11009997129440308,0.03844210505485535,-0.11345028877258301
376,-1.6581099839583606,-0.24463812414892067,-2.8530937467175614,-0.9665290117263794,0.24220523238182068,0.08460629731416702,-0.5105471611022949,-0.8386509418487549,-0.6788313984870911,-0.17125779390335083,-0.10455571115016937,0.6109198331832886
377,-1.6092423687926165,-0.2525871774118627,-2.8905432301243255,-0.9675536155700684,0.2499098777770996,0.037216946482658386,0.9069052934646606,0.39273542165756226,0.7750429511070251,-0.5269837379455566,0.10148479044437408,-0.45004355907440186
378,-1.5851378748061307,-0.2802677353322549,-2.8803622327569682,-0.9608824849128723,0.27661293745040894,0.013781487010419369,0.4392207860946655,0.6009491086006165,0.3212972581386566,-0.17353206872940063,-0.027040213346481323,-0.16969585418701172
379,-1.512135105450381,-0.28669662837899024,-2.844310435553613,-0.9575332999229431,0.28278523683547974,-0.05623459070920944,0.6258038282394409,0.3386138677597046,0.11342674493789673,0.29540878534317017,-0.21448692679405212,0.15767496824264526
380,-1.508558373916595,-0.28784454553005356,-2.885310273972217,-0.9570013880729675,0.2838861048221588,-0.05963883176445961,-1.4058157205581665,-0.1288275122642517,-0.18432901799678802,0.3513343930244446,-0.3532831072807312,0.02747327834367752
381,-1.48728376219838,-0.2772347966030445,-2.9355529982879323,-0.9584639072418213,0.2736970782279968,-0.08023038506507874,-1.1681044101715088,0.5313025712966919,-0.5898684859275818,0.10639780759811401,-0.015930354595184326,0.2642819285392761
382,-1.4567513265007355,-0.2842873844179088,-2.8830330666425263,-0.9536263346672058,0.2804735004901886,-0.10923028737306595,-1.1260197162628174,-1.5474032163619995,0.13547582924365997,0.06487828493118286,0.12386909127235413,0.4724352955818176
383,-1.5682604081756215,-0.2957244038360923,-2.9694222254362024,-0.9565882682800293,0.2914328873157501,-0.00242583523504436,-0.3858233094215393,0.15767699480056763,-0.059630535542964935,-0.02261406183242798,0.20286032557487488,-0.3935244679450989
384,-1.5955624014037475,-0.2707156655090367,-2.9264903216945624,-0.9632843136787415,0.26742109656333923,0.02386164851486683,1.2152080535888672,-1.1126527786254883,-0.8171398043632507,0.19256287813186646,-0.09167036414146423,0.19281315803527832
385,-1.6433746298760596,-0.21184032078945464,-2.9355197490964877,-0.975071907043457,0.21025943756103516,0.07089359313249588,0.960348904132843,0.307586133480072,0.3964459002017975,0.48595142364501953,0.11183834075927734,-0.29686105251312256
386,-1.5869455650853352,-0.25009203509248706,-2.8643028886467166,-0.9687633514404297,0.24749313294887543,0.015646150335669518,1.2531042098999023,0.09759083390235901,0.5937420725822449,-0.031129837036132812,-0.03628098964691162,0.08147609233856201
387,-1.7148724132684476,-0.22176140040096057,-2.8338158849087107,-0.9654043316841125,0.21994823217391968,0.140062153339386,-1.215668797492981,-1.0461838245391846,-0.6179419159889221,-0.11819863319396973,-0.2039417326450348,0.7000257968902588
388,-1.6041299379038128,-0.24112044011602932,-2.8669149978613375,-0.9705315828323364,0.23879081010818481,0.03236331045627594,0.5464276671409607,-0.8368445038795471,0.5143530964851379,-0.1374090313911438,0.14763802289962769,-0.2739863395690918
389,-1.595458551886294,-0.24841716720047438,-2.903035403865852,-0.969008207321167,0.24587002396583557,0.02390274405479431,0.5021057724952698,0.7524535059928894,0.19027657806873322,0.24555838108062744,-0.08362329006195068,-0.3158339262008667
390,-1.539580149612393,-0.25300127665671585,-2.8879088044413797,-0.9676939845085144,0.2503108084201813,-0.030217522755265236,-0.2631579041481018,0.386617511510849,0.08758501708507538,0.29034096002578735,-0.08943736553192139,0.15492761135101318
391,-1.519991454121131,-0.25547458284312097,-2.9194600098288004,-0.9662951827049255,0.2527046203613281,-0.049134787172079086,0.02531726285815239,0.43597412109375,0.11124050617218018,0.1864946484565735,-0.11072155833244324,0.05485682934522629
392,-1.484411822431235,-0.2710201696342653,-2.8901950171213953,-0.9599055647850037,0.2677145004272461,-0.08312784880399704,0.027110762894153595,0.28546053171157837,0.09362117946147919,-0.24328041076660156,-0.03217986226081848,0.36433202028274536
393,-1.529863808422186,-0.2787260097034635,-2.914086766653196,-0.9606013894081116,0.2751310467720032,-0.03934180736541748,-0.6889975666999817,-0.43786102533340454,-0.2622930705547333,-0.16456633806228638,0.19934096932411194,-0.03263389691710472
394,-1.5928945189124755,-0.22859442853769743,-3.030840575779028,-0.9737480282783508,0.2266087383031845,0.02152157388627529,-1.160844326019287,0.47245708107948303,-0.7596534490585327,0.1301506757736206,0.2729640007019043,-0.33740901947021484
395,-1.5829472096009238,-0.223783024542031,-3.037026188571285,-0.9749929904937744,0.22191989421844482,0.011847608722746372,0.06149803847074509,-0.46228018403053284,-0.034897059202194214,0.20627045631408691,-0.15250766277313232,0.2139824628829956
396,-1.5753698141088273,-0.22320386752768626,-3.0281722459977627,-0.9751831889152527,0.221355140209198,0.004460019059479237,0.4523094892501831,0.1244954988360405,0.005950139835476875,0.30484920740127563,-0.0034138262271881104,-0.01492762565612793
397,-1.608028132044864,-0.23471963220194492,-2.9402201967948036,-0.971905529499054,0.2325703203678131,0.036202527582645416,1.0213978290557861,-2.8437554836273193,-0.2912195920944214,-0.42019951343536377,-0.10410656034946442,0.6604222059249878
398,-1.644328360822777,-0.1957724477535954,-2.966214785288091,-0.9782471656799316,0.19452428817749023,0.0720624327659607,0.7480171918869019,-0.047966983169317245,0.7832012176513672,-0.2484985589981079,0.18517546355724335,-0.7785443067550659
399,-1.6679173547653072,-0.23483222813168053,-2.944791186310597,-0.9679701924324036,0.2326798290014267,0.09430696070194244,0.1073373556137085,0.8237779140472412,0.06414391100406647,-0.36535805463790894,0.2370772659778595,-0.21353912353515625
400,-1.580750801559886,-0.24482910400085486,-2.8660478210033835,-0.9701308608055115,0.24239052832126617,0.009657462127506733,0.4167078137397766,0.15740197896957397,0.15791279077529907,0.47629523277282715,-0.13060462474822998,0.20755136013031006
401,-1.5774789488433918,-0.24656917010774124,-2.902081494973856,-0.9697338342666626,0.24407833814620972,0.006480460986495018,-0.8097740411758423,0.3104873299598694,-0.1509503275156021,0.2722698450088501,-0.04215878248214722,-0.11489415168762207
402,-1.5384370567034327,-0.24902808168037655,-2.911294379373503,-0.9686449766159058,0.2464621365070343,-0.031355589628219604,0.36332497000694275,0.3010943531990051,0.12463650852441788,-0.2990245819091797,-0.005876854062080383,0.1761767864227295
403,-1.510998102927625,-0.2638380520292115,-2.882905972436089,-0.963670551776886,0.260787695646286,-0.05769457295536995,-0.47874993085861206,-0.9744347929954529,-0.06814145296812057,-0.44001591205596924,-0.11064127087593079,0.24147140979766846
404,-1.6142639292398635,-0.2364377978724252,-3.0058681009235677,-0.971260130405426,0.23424102365970612,0.042244959622621536,-1.3692429065704346,-0.3347277343273163,-0.4922950863838196,-0.2909772992134094,0.3251308798789978,-0.2809077501296997
405,-1.5967388586253213,-0.1959608881390308,-3.074331712016078,-0.9805309176445007,0.19470912218093872,0.02544316276907921,0.10812953859567642,0.13430838286876678,0.22307156026363373,0.338364839553833,0.041664764285087585,-0.1019202470779419
406,-1.5816986631688537,-0.2113212200759496,-3.0819212825163,-0.9776965379714966,0.2097519189119339,0.010659598745405674,-0.035058584064245224,0.24072861671447754,0.1122189462184906,0.2828418016433716,-0.062031567096710205,0.04445505142211914
407,-1.5773621722567908,-0.22227592756021283,-3.0613382047909985,-0.9753771424293518,0.22045013308525085,0.0064042676240205765,0.7024823427200317,-0.9146885275840759,0.07250712066888809,-0.012904047966003418,-0.13478730618953705,0.35550379753112793
408,-1.6987075293171154,-0.1628675008001325,-3.0971678680196537,-0.9787051677703857,0.16214841604232788,0.1258745938539505,-0.46214210987091064,0.993614912033081,-0.15121600031852722,-0.04561746120452881,0.07337100803852081,0.06705750524997711
409,-1.6693078939692205,-0.21858129483893335,-3.0851746999483165,-0.9714730978012085,0.21684488654136658,0.09601212292909622,-0.3373693823814392,-0.5946059823036194,0.07279496639966965,-0.436958909034729,0.15607991814613342,-0.3062477111816406
410,-1.6095571462082396,-0.2210626151819432,-3.0607570799880115,-0.974932074546814,0.21926650404930115,0.03780810162425041,1.0651038885116577,0.8585478067398071,0.19815757870674133,0.10971307754516602,-0.15504227578639984,0.06254899501800537
411,-1.5596665276295214,-0.22654691606052926,-3.0449624313588357,-0.9743874073028564,0.22461402416229248,-0.010845184326171875,-0.7292883992195129,0.12095502763986588,-0.12075798213481903,0.4189217686653137,-0.10602273046970367,0.053539276123046875
412,-1.5469942155864775,-0.226944241665173,-3.114640196600121,-0.9740824699401855,0.22500117123126984,-0.023189598694443703,-0.3042469620704651,0.04065070301294327,0.29525256156921387,0.12023121118545532,0.07298770546913147,-0.06186288595199585
413,-1.4994168997259167,-0.2641916264312323,-3.082944510271,-0.9628458619117737,0.2611290216445923,-0.06884434819221497,0.5055385231971741,0.3483138978481293,0.352430522441864,-0.2602681517601013,-0.17203295230865479,0.24433571100234985
414,-1.5478024513362205,-0.2504904098566903,3.1228378381660473,-0.9685348272323608,0.24787908792495728,-0.02227429486811161,-1.7308636903762817,-0.7165427207946777,-0.46327877044677734,-0.16073757410049438,0.10115043818950653,0.003734888508915901
415,-1.597945179876211,-0.19619211987807858,2.995348724030959,-0.9804545044898987,0.19493591785430908,0.026624757796525955,-0.2960588335990906,0.303608238697052,-0.4459189176559448,-0.006407618522644043,0.28203853964805603,-0.20838749408721924
416,-1.5919140281742226,-0.18859147985183985,2.9768724138352805,-0.9820501804351807,0.1874755322933197,0.020741725340485573,-0.4304313063621521,-0.06828142702579498,0.10398457944393158,0.30309516191482544,-0.01720273494720459,0.05539965629577637
417,-1.5769695575959641,-0.2019841216480788,2.9729981782078143,-0.9796518087387085,0.20061351358890533,0.00604769354686141,0.5239047408103943,0.18166321516036987,0.22813937067985535,0.235221266746521,-0.06137707829475403,0.06502771377563477
418,-1.5993899366805813,-0.21374181900343486,3.0295488108368045,-0.9768446087837219,0.21211804449558258,0.02793912962079048,0.14621834456920624,-0.8435608744621277,-0.019450291991233826,-0.24138659238815308,-0.19582165777683258,0.41354334354400635
419,-1.647659559863796,-0.19019975273943923,3.033199653466434,-0.9790670871734619,0.18905505537986755,0.07540281116962433,1.5510714054107666,-1.485107421875,0.4614381492137909,-0.29862749576568604,0.27865731716156006,-0.6856476068496704
420,-1.638971707377743,-0.21472645608842908,3.1008262312699304,-0.9747650623321533,0.21308016777038574,0.06655813008546829,0.9731478691101074,0.258155882358551,0.2527657151222229,-0.2654693126678467,0.15679287910461426,-0.2425682544708252
421,-1.5923651583669771,-0.2317552791701234,-3.087112542608473,-0.9730384349822998,0.22968623042106628,0.020990557968616486,0.4940871596336365,0.2050056904554367,-0.028123371303081512,0.30703794956207275,-0.1486772894859314,0.07599425315856934
422,-1.57954186070907,-0.20520189504972328,-3.102713619344409,-0.9789823889732361,0.20376482605934143,0.008561941795051098,-0.2910151779651642,0.48645588755607605,-0.26236337423324585,0.46418142318725586,0.01141461730003357,-0.16427791118621826
423,-1.5412853039503775,-0.22173848860591086,-3.05944840739163,-0.9750918745994568,0.2199258804321289,-0.028784316033124924,1.145203709602356,0.22417965531349182,0.4665430784225464,-0.09219944477081299,-0.13382050395011902,0.013800200074911118
424,-1.5155685253915012,-0.23993217658414168,-2.9853789786529914,-0.9698731303215027,0.2376367449760437,-0.05361848697066307,-0.22181537747383118,-0.4809628427028656,-0.07436847686767578,-0.6105101704597473,-0.005977809429168701,0.08097749948501587
425,-1.5702763976411769,-0.20719812303952484,-3.0757123353472573,-0.9786109924316406,0.2057187557220459,-0.0005088084144517779,-1.2153373956680298,-0.006139265839010477,-0.7018426060676575,-0.2341575026512146,0.4497988224029541,-0.11223840713500977
426,-1.5553165529434976,-0.18001476653101725,-3.1202625765694374,-0.9837231636047363,0.17904409766197205,-0.015229028649628162,-0.09673266857862473,-0.0669342577457428,0.1998758465051651,0.33276796340942383,0.013277679681777954,0.05131608247756958
427,-1.5611759751564294,-0.1977120543944315,3.1252316036445125,-0.9804732203483582,0.19642648100852966,-0.009432788006961346,-0.6240586042404175,0.24426862597465515,0.053707487881183624,0.17667073011398315,-0.13726815581321716,-0.05009174346923828
428,-1.5391677872461658,-0.21425238212114098,3.129891960138616,-0.9766468405723572,0.212616965174675,-0.030900217592716217,0.39296403527259827,-0.2488812357187271,0.1578332483768463,0.03032737970352173,-0.04016217589378357,0.21363943815231323
429,-1.6351096629673063,-0.17957287502436653,3.087058398250551,-0.9818860292434692,0.17860932648181915,0.0632355734705925,-1.0846081972122192,0.45119962096214294,-0.4224894344806671,-0.04829597473144531,0.08400969207286835,0.13534224033355713
430,-1.637647029737294,-0.20298066434858805,3.114209970134003,-0.9772822260856628,0.2015896886587143,0.06542950123548508,-0.48336416482925415,0.19357910752296448,-0.20935797691345215,-0.3989994525909424,0.21721826493740082,-0.1238706186413765
431,-1.5871919062431952,-0.21513445790767863,-3.1293342252839493,-0.9768162965774536,0.21347878873348236,0.016016904264688492,0.646513044834137,0.3435077965259552,0.1969035416841507,0.09359192848205566,-0.18895795941352844,0.14937305450439453
432,-1.5730177004225336,-0.211806929625019,-3.1404127403113664,-0.9776502251625061,0.21022678911685944,0.002171729924157262,-0.7963420748710632,0.2002902776002884,-0.1888936460018158,0.3919569253921509,-0.03143957257270813,-0.04677319526672363
433,-1.5296956180072463,-0.20951059016888668,3.104766653061763,-0.9773067235946655,0.20798121392726898,-0.04019063338637352,0.37946221232414246,0.5519260764122009,0.22720423340797424,0.2740291953086853,-0.10745632648468018,0.05511373654007912
434,-1.4600817714435659,-0.22668482267562046,-3.1177114766790552,-0.9684509634971619,0.2247484028339386,-0.10766187310218811,0.6988006830215454,0.48958349227905273,0.09912343323230743,-0.19471138715744019,-0.2280747890472412,0.2194935530424118
435,-1.5168696987371735,-0.20861008325123648,3.0959532916851606,-0.9768974781036377,0.20710031688213348,-0.05273191258311272,-1.9362608194351196,-0.292319118976593,-0.8290588855743408,-0.38787907361984253,0.4528575539588928,-0.011385556310415268
436,-1.5366380236707722,-0.12338573491977649,2.894055815217314,-0.9918187260627747,0.12307289987802505,-0.03389202803373337,-1.3840854167938232,0.4547289311885834,-0.30493828654289246,0.37093865871429443,0.33679646253585815,-0.21973955631256104
437,-1.5475662477154257,-0.13914306191161674,2.8030692712404393,-0.9900681376457214,0.13869450986385345,-0.02300349995493889,-1.3665143251419067,0.1629309058189392,-0.06718480587005615,0.08905178308486938,-0.10048648715019226,0.3325279951095581
438,-1.5347772248167693,-0.13738199922016464,2.6606385888617616,-0.9899353384971619,0.13695025444030762,-0.035672008991241455,-0.5710797309875488,0.1903567761182785,0.18867099285125732,0.3893037438392639,-0.11192585527896881,0.0063141025602817535
439,-1.5321198785934034,-0.14390510299855155,2.6166921056107895,-0.9889234900474548,0.14340893924236298,-0.03826713189482689,-1.299411416053772,-0.5795854926109314,-0.5970466732978821,-0.28056198358535767,-0.47141188383102417,0.5231609344482422
440,-1.586340119047391,-0.12854128228916034,2.5971920974610696,-0.9916301369667053,0.12818759679794312,0.015414934605360031,0.514106810092926,-0.14564156532287598,-0.03889729455113411,-0.3605884909629822,0.07429651916027069,-0.05150198936462402
441,-1.5634646292599728,-0.1542939120504115,2.7073368401797486,-0.9880938529968262,0.15368244051933289,-0.0072445347905159,1.1847317218780518,0.4154037833213806,0.2721300721168518,-0.2625471353530884,-0.1786152720451355,-0.0470767617225647
442,-1.540741802191966,-0.1460198562416524,2.706795226404764,-0.9889112114906311,0.145501509308815,-0.029730208218097687,-0.37880071997642517,0.2787957489490509,-0.19289344549179077,0.4522444009780884,-0.05022566020488739,0.013952614739537239
443,-1.5270013557367237,-0.14674122146431465,2.68271483482003,-0.9883041977882385,0.14621515572071075,-0.04331044852733612,-0.2652599811553955,-0.026558075100183487,0.10862772911787033,0.4154282808303833,-0.04507991671562195,0.03961784020066261
444,-1.5376949490542502,-0.14978296929271873,2.6548958298838703,-0.9882617592811584,0.14922353625297546,-0.032724779099226,0.04021178558468819,-0.4656386971473694,-0.09649747610092163,-0.029697775840759277,-0.30312371253967285,-0.05769884213805199
445,-1.5933431556742208,-0.11426054187511388,2.5943877394347803,-0.993226945400238,0.11401208490133286,0.02239791490137577,0.0851883739233017,0.32236602902412415,-0.18554019927978516,-0.6567517518997192,0.39909523725509644,-0.36643779277801514
446,-1.6611360780172344,-0.05804686265963052,2.5615197266319747,-0.9942448139190674,0.058014269918203354,0.09006497263908386,-1.6375612020492554,0.33308809995651245,-0.046722352504730225,0.20533490180969238,0.16166649758815765,0.00099945068359375
447,-1.6501597154868597,-0.07024311456721818,2.494115079520145,-0.9943943023681641,0.07018536329269409,0.0790846049785614,-0.4762150049209595,0.3672691881656647,0.09163723140954971,0.5047091245651245,0.035176582634449005,-0.1270735263824463
448,-1.6277677351912354,-0.10902002420240264,2.526837592967467,-0.9924504160881042,0.10880419611930847,0.05660254880785942,0.7691044211387634,0.29370221495628357,0.4181840419769287,0.10780686140060425,-0.10880418121814728,0.18758392333984375
449,-1.6103439242625566,-0.1300727043693697,2.5915423265840385,-0.9907771944999695,0.1297062337398529,0.03920329734683037,0.6313355565071106,0.16918227076530457,-0.04129903391003609,-0.24768716096878052,-0.2378605455160141,0.17187154293060303
450,-1.6457688451334038,-0.16081465651589058,2.74121664829624,-0.9843242764472961,0.16012240946292877,0.0739358514547348,1.6935160160064697,-0.4314587116241455,0.3062984049320221,-0.19762152433395386,-0.025951877236366272,-0.245597243309021
451,-1.6213768826072263,-0.18493702960884087,2.880054120878974,-0.9816907644271851,0.1838846355676651,0.04969685524702072,1.7398170232772827,0.15290921926498413,0.1954653412103653,-0.25637680292129517,-0.0929269939661026,-0.12422072887420654
452,-1.5872014734407507,-0.1982809724449463,3.0084423769751654,-0.9802749156951904,0.19698427617549896,0.016082996502518654,0.6338039636611938,-0.07576977461576462,0.08972690999507904,0.3274885416030884,-0.10886473953723907,0.005691291764378548
453,-1.557350513466067,-0.20073441151801416,3.06391895720218,-0.9798318147659302,0.19938905537128448,-0.01317542977631092,0.5467732548713684,0.0744156762957573,0.19026267528533936,0.39581698179244995,-0.014055803418159485,0.04921668767929077
454,-1.5380953860830031,-0.21641861277175278,3.126031490801963,-0.9761506915092468,0.21473316848278046,-0.03193242847919464,0.4486805498600006,0.09354597330093384,0.06889019906520844,-0.11436456441879272,-0.14982225000858307,0.10396915674209595
455,-1.5724497867027638,-0.20596987141904657,-3.1371598101716462,-0.9788618683815002,0.20451663434505463,0.0016185103449970484,-1.3005298376083374,-1.2992146015167236,-0.24505755305290222,-0.46056073904037476,0.12154844403266907,0.017821192741394043
456,-1.6124096056519717,-0.19213044966309353,3.1176973391985534,-0.9807499051094055,0.19095057249069214,0.04083579406142235,0.8779524564743042,0.4336186349391937,-0.028203992173075676,-0.08002585172653198,0.20863133668899536,-0.022037029266357422
457,-1.6207606074984817,-0.17145417811705568,3.1166615801335373,-0.984108030796051,0.17061538994312286,0.049211207777261734,-0.4995030462741852,0.34142565727233887,-0.1454201638698578,0.5105363130569458,-0.045294955372810364,-0.09369063377380371
458,-1.5990706997582016,-0.17934241632861883,3.131611387472077,-0.9835679531097412,0.17838257551193237,0.02781718038022518,0.3569868206977844,0.34712594747543335,-0.06577465683221817,0.2190873622894287,-0.06836670637130737,0.04981958866119385
459,-1.5956680562484564,-0.18479665642565365,-3.101636699428293,-0.9826695919036865,0.18374665081501007,0.024445733055472374,0.6899438500404358,-0.9931241869926453,0.07287608832120895,-0.1635248064994812,0.004745155572891235,0.3813464641571045
460,-1.6118160845049165,-0.1765559601153359,-3.104756670720259,-0.9836263656616211,0.17564012110233307,0.04037076234817505,0.987458348274231,0.042088355869054794,0.7699006795883179,-0.3057718276977539,0.12605665624141693,-0.7488057613372803
461,-1.6443709993108147,-0.20550409282017104,-3.0758826663472347,-0.9763096570968628,0.20406067371368408,0.07196155935525894,0.31775200366973877,1.3971240520477295,0.0897277444601059,-0.35907840728759766,0.16684995591640472,-0.5051891803741455
462,-1.56309117240928,-0.22712069105626317,-2.9762666704469285,-0.9742898941040039,0.22517310082912445,-0.007507202681154013,0.2913671135902405,0.09139128774404526,0.14486563205718994,0.2232370376586914,-0.13500890135765076,0.15524280071258545
463,-1.5533630985366877,-0.22806581839608794,-2.9761729126031113,-0.9739575982093811,0.2260938435792923,-0.016980944201350212,-0.3280981779098511,0.24353283643722534,-0.12374785542488098,0.3401075005531311,-0.0810132771730423,0.04034215211868286
464,-1.5361828929534538,-0.22448763287673104,-2.985044280259839,-0.9743244647979736,0.22260688245296478,-0.033738188445568085,0.1634734869003296,-0.010320041328668594,0.03824074938893318,-0.026453852653503418,-0.1024438887834549,0.13430887460708618
465,-1.5594580389563841,-0.21863705937745498,-2.9732787816136024,-0.9761313199996948,0.2168993353843689,-0.011068131774663925,-0.23878364264965057,-0.8396095633506775,-0.26044178009033203,-0.5226022005081177,0.0334668904542923,0.04506474733352661
466,-1.61767027214809,-0.204628201402543,-3.028824605423374,-0.9780611991882324,0.20320312678813934,0.045879192650318146,-0.4443243741989136,-0.09555856138467789,0.038575075566768646,-0.2679257392883301,0.537534773349762,-0.11848044395446777
467,-1.6529845646168901,-0.19338486222806273,-3.045005383617921,-0.978046715259552,0.1921817511320114,0.0805654227733612,-0.692657470703125,-0.04744085296988487,-0.05836780369281769,0.217640221118927,-0.08135718107223511,0.1666574478149414
468,-1.6300313816789938,-0.19302478399931225,-3.084440872752736,-0.9797071218490601,0.19182837009429932,0.058100976049900055,-0.06521330028772354,0.4739104211330414,0.06654679775238037,0.40330642461776733,-0.00754798948764801,-0.10915696620941162
469,-1.5801384215854835,-0.1971322130825998,-3.0533191184494215,-0.9805895090103149,0.19585789740085602,0.009161027148365974,0.3586350679397583,0.34307190775871277,0.009012479335069656,0.19219839572906494,-0.07439793646335602,0.30613136291503906
470,-1.6708973080227252,-0.14898664166232203,-3.0935151305506925,-0.9839717149734497,0.1484360694885254,0.09882684051990509,-1.5876597166061401,1.0239704847335815,-0.2648870646953583,0.07341861724853516,0.1656356006860733,0.3944441080093384
471,-1.6975116551667295,-0.19087748060312015,-3.1098363532130717,-0.9739660024642944,0.1897205114364624,0.12408125400543213,0.3569668233394623,-0.2712279260158539,0.18938034772872925,-0.327700138092041,-0.01065865159034729,-0.21067489683628082
472,-1.6074270525493535,-0.21472439267004137,-3.036418381061301,-0.9763797521591187,0.21307815611362457,0.03578150272369385,1.2299433946609497,0.7704936861991882,0.16785657405853271,0.028732657432556152,-0.18829788267612457,0.09982335567474365
473,-1.5621603407863391,-0.21818919389501754,-2.988641606058437,-0.9762545824050903,0.21646210551261902,-0.008431130088865757,0.10039437562227249,0.34874099493026733,-0.04956529289484024,0.15450775623321533,-0.10820099711418152,0.11121433973312378
474,-1.5402919371924106,-0.21343051339575644,-3.002883438564942,-0.9768553376197815,0.2118138074874878,-0.029807621613144875,-0.21117424964904785,0.07686548680067062,-0.028818659484386444,0.30093681812286377,-0.1476506143808365,0.09064441919326782
475,-1.5537177822805421,-0.19650661684449153,-3.025245919634243,-0.9806116223335266,0.19524437189102173,-0.016749046742916107,0.18364256620407104,-0.29781457781791687,-0.22120551764965057,0.01668339967727661,-0.17514854669570923,-0.030827879905700684
476,-1.6198243592682016,-0.16831012180846577,-3.0595091923784,-0.9846846461296082,0.1675165891647339,0.0483158677816391,-0.4133399724960327,-0.43298932909965515,-0.20541714131832123,-0.38314372301101685,0.3863774538040161,-0.30760836601257324
477,-1.632638570271038,-0.16458170822582635,-3.0549917644474918,-0.9846011400222778,0.16383971273899078,0.060967687517404556,-0.006318778730928898,-0.6119275689125061,-0.20007355511188507,0.006161868572235107,-0.047766104340553284,0.21440768241882324
478,-1.6333498836101983,-0.15327367343704634,-3.108579456900578,-0.9863435626029968,0.15267424285411835,0.06177990138530731,-0.2451086789369583,0.4619981050491333,0.037288278341293335,0.3051913380622864,-0.001413881778717041,-0.09811103343963623
479,-1.5931969549693723,-0.1578927915337129,-3.1031444696056614,-0.9873131513595581,0.15723755955696106,0.02212013490498066,0.5145418047904968,0.17941921949386597,0.06016126275062561,0.31580424308776855,0.009678348898887634,0.049016356468200684
480,-1.6376189488864656,-0.143708858643457,-3.0817627920022446,-0.9874829649925232,0.14321471750736237,0.0660845935344696,-0.22512754797935486,-1.2165015935897827,-0.6186206340789795,-0.37276190519332886,-0.06827878952026367,0.5612194538116455
481,-1.6419359263614126,-0.14234770000062233,-3.084633914838164,-0.9873820543289185,0.14186745882034302,0.0703606978058815,0.47008028626441956,0.294312447309494,1.0620161294937134,-0.06826692819595337,0.16349144279956818,-0.4242119789123535
482,-1.6498358062887122,-0.18405064046044145,-3.076694664863868,-0.9800411462783813,0.18301329016685486,0.077623650431633,-0.6386922597885132,0.2817150950431824,-0.04159501940011978,-0.2938845753669739,0.17588867247104645,-0.17538666725158691
483,-1.590296338563497,-0.1948825062639806,-3.0533519072731976,-0.980883777141571,0.19365127384662628,0.019129671156406403,0.31277525424957275,0.2095216065645218,0.2238529920578003,0.1570160984992981,-0.25996601581573486,0.13799011707305908
484,-1.5707278945061367,-0.19976147413403528,-3.062167311046776,-0.9801139235496521,0.19843555986881256,-6.707143620587885e-05,-0.4092373251914978,0.3470730185508728,-0.06190231442451477,0.2982749342918396,-0.08359789848327637,-0.0033051371574401855
485,-1.5430745913829642,-0.20403079716777608,-3.069081540416492,-0.9788815975189209,0.20261815190315247,-0.02714325115084648,0.12360075116157532,0.013759344816207886,0.18351688981056213,0.0807187557220459,-0.09699681401252747,0.18774205446243286
486,-1.549229674223567,-0.21283257709698536,-3.057107321875486,-0.9772093892097473,0.21122941374778748,-0.021078404039144516,0.26681578159332275,-0.5279904007911682,0.01699201390147209,-0.26351338624954224,-0.1899281144142151,0.06435233354568481
487,-1.624407768825049,-0.20044821117053083,-3.096584093188825,-0.9785693883895874,0.19910858571529388,0.05251283571124077,-0.6071807742118835,-0.5927746295928955,-0.1337711215019226,-0.2793498635292053,0.4090456962585449,-0.29465460777282715
488,-1.6783875457520514,-0.1762696331497253,-3.12139499454607,-0.9788119196891785,0.17535823583602905,0.10571981966495514,0.27098751068115234,-1.1950409412384033,-0.8038153648376465,-0.20665866136550903,-0.04843562841415405,0.35950541496276855
489,-1.6617907275068267,-0.14840538859225247,3.1149119438585657,-0.9849163889884949,0.14786124229431152,0.08987005800008774,0.10319720953702927,0.6507559418678284,0.045299071818590164,0.3987653851509094,-0.0027959495782852173,-0.16265439987182617
490,-1.6049770386668216,-0.1704183760887346,-3.1233259763634433,-0.9849382042884827,0.1695946753025055,0.03367900475859642,0.5905959606170654,0.3962973952293396,0.2323806881904602,0.20683157444000244,-0.016518518328666687,0.12223529815673828
