,attitude.roll,attitude.pitch,attitude.yaw,gravity.x,gravity.y,gravity.z,rotationRate.x,rotationRate.y,rotationRate.z,userAcceleration.x,userAcceleration.y,userAcceleration.z
0,-0.1580393595431392,0.7462197102683464,-0.9762152818033741,-0.11555959284305573,-0.6788678765296936,-0.725109875202179,-0.3938825726509094,-0.46379923820495605,-0.40779006481170654,0.11234001070261002,0.05569899082183838,0.012707531452178955
1,-0.10079434033298605,0.7097838517253103,-0.8842503949504767,-0.07632339000701904,-0.6516698598861694,-0.7546529769897461,0.05086945742368698,0.4031141996383667,-0.9867570996284485,-0.004807591438293457,0.19714105129241943,0.3139333724975586
2,-0.08495825650044109,0.6882883621093913,-0.9186520735553796,-0.06553728133440018,-0.6352161765098572,-0.769548773765564,-0.718237578868866,0.7486991286277771,-0.07152985036373138,0.016999073326587677,0.007484853267669678,0.20501941442489624
3,-0.04520023469252663,0.5991141845656079,-0.9249201337929941,-0.0373152457177639,-0.5639111399650574,-0.8249920010566711,-0.9303280115127563,-0.12212320417165756,0.15575605630874634,0.1487196534872055,-0.24332451820373535,-0.21103405952453613
4,-0.05562670099054708,0.5679606342228157,-0.8836299143408278,-0.04686911404132843,-0.537913978099823,-0.8416957855224609,-0.1644172966480255,-0.3008849620819092,0.07094502449035645,0.21653158962726593,0.0075032711029052734,-0.1983889937400818
5,-0.12883996449318955,0.5341744773566933,-0.8338184064272909,-0.11058463156223297,-0.5091307163238525,-0.8535555005073547,-0.09533227980136871,-0.636979341506958,0.3441145122051239,0.06926383078098297,0.13342881202697754,0.17537862062454224
6,-0.21522668626255465,0.5144315310615695,-0.7835736908453537,-0.18592722713947296,-0.4920400381088257,-0.8504867553710938,0.5950503945350647,-0.6541935801506042,0.44210150837898254,0.09945566952228546,0.12401330471038818,0.22045135498046875
7,-0.2643441012182125,0.5197632257856281,-0.7415748528691749,-0.22677123546600342,-0.49667465686798096,-0.8377882242202759,-0.360462486743927,0.23704880475997925,0.28742295503616333,0.062113627791404724,-0.05129897594451904,0.08867323398590088
8,-0.33107699646539057,0.5832356163667304,-0.7147953865008082,-0.27132418751716614,-0.5507275462150574,-0.7893556952476501,1.1280338764190674,-0.8542466163635254,-0.4408128261566162,-0.04907986521720886,-0.21321898698806763,-0.14234596490859985
9,-0.375873552467938,0.6067472305638528,-0.7403522645238382,-0.3015631139278412,-0.5701982975006104,-0.7641554474830627,-0.3014581501483917,0.11236537247896194,-0.6179061532020569,-0.2648125886917114,-0.13976258039474487,-0.296894907951355
10,-0.29631500500343444,0.5400069963389962,-0.8419845395677106,-0.25044798851013184,-0.5141419768333435,-0.8203254342079163,-0.44933220744132996,0.3759920299053192,-0.7296531200408936,-0.032205820083618164,0.06065082550048828,-0.13028186559677124
11,-0.2541966450664562,0.5966198933735146,-0.8968835248532806,-0.20802420377731323,-0.5618495345115662,-0.8006566166877747,0.8673350811004639,0.009394340217113495,-0.8718547821044922,0.10472221672534943,0.11261552572250366,0.31046801805496216
12,-0.2705771299895881,0.6900580369272732,-0.9376975949464414,-0.2061346173286438,-0.6365819573402405,-0.743149995803833,0.4748421311378479,0.12128022313117981,-0.021762019023299217,0.2538946270942688,0.07791191339492798,0.3040783405303955
13,-0.20255892434107314,0.6208160651536324,-0.9535866641405206,-0.16363784670829773,-0.5816991329193115,-0.7967739105224609,-1.8071409463882446,0.7797428965568542,0.06643254309892654,0.19827532768249512,-0.2171136736869812,-0.10242646932601929
14,-0.21025493441438517,0.5917118928773177,-0.9093580103808336,-0.17322595417499542,-0.5577827095985413,-0.8117088675498962,0.8601726293563843,-1.6724226474761963,-0.14742489159107208,0.047020524740219116,-0.17756885290145874,-0.27154314517974854
15,-0.3961416291358912,0.6401917990429218,-0.8158342531568819,-0.3094537854194641,-0.5973492860794067,-0.7398731112480164,2.382556676864624,-3.703585624694824,1.1623488664627075,0.2340753674507141,0.17733585834503174,-0.13469964265823364
16,-0.8796484844593496,0.7403079257699468,-0.4968144162446751,-0.5688410401344299,-0.6745152473449707,-0.4705837666988373,2.403169631958008,-2.2835755348205566,1.452950358390808,0.34916025400161743,0.3736119270324707,0.27455413341522217
17,-1.4536884460991633,0.7277830444730504,-0.02706446411287159,-0.7415369749069214,-0.6652159690856934,-0.08723899722099304,2.535787582397461,-2.802579164505005,2.297990322113037,0.6590327024459839,0.5256590843200684,0.34203028678894043
18,-1.955555868238113,0.35810602778352885,0.19519072838314538,-0.8680890798568726,-0.35050103068351746,0.35152581334114075,2.928410530090332,-3.131556987762451,4.410602569580078,0.19883859157562256,0.9551000595092773,0.00897824764251709
19,-1.9536575670113534,-0.22443700914349812,-0.05953400458073585,-0.9043349027633667,0.22255752980709076,0.36420661211013794,-2.220182180404663,1.812662959098816,8.135139465332031,-1.0605087280273438,1.599067211151123,-0.07251957058906555
20,-2.0055633235076997,-0.793518909377084,-0.5487141685227555,-0.636094331741333,0.7128256559371948,0.2954043447971344,-1.7131603956222534,2.007464647293091,3.634399890899658,-2.029951810836792,0.03586214780807495,-0.5302982330322266
21,-1.9088497539009934,-0.8550429889534207,-0.7418366594802056,-0.6190474629402161,0.7545991539955139,0.21762503683567047,-1.0869497060775757,1.4905585050582886,1.0831958055496216,0.05778336524963379,-0.6319947242736816,-0.014728903770446777
22,-2.0723694147118312,-0.9190531331601964,-1.0310677505461454,-0.531859815120697,0.7950276136398315,0.2916436195373535,-1.3701107501983643,0.2059614658355713,1.0302209854125977,-0.4311680793762207,-0.7539968490600586,-0.2206292748451233
23,-2.1659277025031813,-0.8971608297017621,-1.176191293405882,-0.5165792107582092,0.7815588712692261,0.349730908870697,-0.12545637786388397,0.3709625005722046,-0.5586103200912476,-0.8275217413902283,-0.5300940275192261,-0.1918330192565918
24,-2.0685818439804327,-0.8186615864750925,-1.0297173988899149,-0.6002876162528992,0.7302320599555969,0.32621464133262634,0.879042387008667,-0.319927453994751,-2.037031888961792,-0.9906547665596008,-0.0852736234664917,0.11860954761505127
25,-1.9956617737182476,-0.573509299311324,-0.7409329095604176,-0.7653209567070007,0.5425832271575928,0.3462473154067993,0.5952138304710388,-1.1415507793426514,-4.214404106140137,-0.9010303020477295,0.5506021976470947,-0.026331543922424316
26,-1.9189509117255117,-0.1681119629987826,-0.5210017700940939,-0.9267523884773254,0.16732123494148254,0.33635422587394714,0.2530640661716461,0.40722987055778503,-4.460488796234131,0.1876164674758911,0.43364620208740234,-0.21490934491157532
27,-1.8812993164261929,0.20667052417122247,-0.34803411461254136,-0.9319172501564026,-0.20520241558551788,0.2990356683731079,0.7639613747596741,0.15808333456516266,-3.4391744136810303,0.4317799210548401,0.7832359075546265,-0.2628113031387329
28,-1.9297175366862367,0.36432373155936426,-0.16446452157749442,-0.8748238682746887,-0.3563174903392792,0.32820916175842285,1.0166317224502563,-0.5796680450439453,-0.03052968531847,0.7767250537872314,0.9080448150634766,-0.06188225746154785
29,-1.965552795177963,0.13782602519089443,-0.1520445360577201,-0.9143366813659668,-0.13739007711410522,0.3809364438056946,1.3334195613861084,0.21866801381111145,3.6266586780548096,0.1768946647644043,0.9892882704734802,-0.0784003734588623
30,-1.8977346127588812,-0.3284774419643719,-0.3606372546683945,-0.8963966965675354,0.322602242231369,0.30397486686706543,-1.5974093675613403,1.9479533433914185,5.6668477058410645,-0.8399924635887146,0.9821157455444336,-0.04134058952331543
31,-1.8555843796008502,-0.7211015045417074,-0.7369723666979883,-0.7208262085914612,0.6602123975753784,0.2110186219215393,-1.8656717538833618,2.1449999809265137,2.8025410175323486,-0.6839436292648315,-0.3930920958518982,-0.33083072304725647
32,-1.8738901772802523,-0.8407467688117127,-0.9705946586726334,-0.6365073919296265,0.745141327381134,0.19905458390712738,-0.4811730980873108,0.7017441391944885,1.1262116432189941,-0.31533586978912354,-0.5659421682357788,-0.20018362998962402
33,-1.931129427048466,-0.9574762932977364,-1.0539632544434954,-0.538621187210083,0.8177415728569031,0.20294341444969177,0.3537822961807251,-0.3198624551296234,1.1442538499832153,-0.7936389446258545,-0.6179582476615906,-0.14743196964263916
34,-1.8857393282691184,-0.9513397028209589,-0.970753305584379,-0.5520358085632324,0.8141940832138062,0.17984575033187866,0.3920116126537323,-0.7432878017425537,-1.2254151105880737,-0.8143277168273926,-0.43194615840911865,0.027551651000976562
35,-1.8508054937998835,-0.8004642440835168,-0.7915583687111502,-0.6692519187927246,0.7176794409751892,0.19245292246341705,0.8330264687538147,-2.104849100112915,-2.542448043823242,-1.010450839996338,0.07954651117324829,-0.14299917221069336
36,-1.8985796207061276,-0.4368080552811517,-0.597350539465829,-0.8578641414642334,0.4230493903160095,0.29171666502952576,0.4479275643825531,-0.3359828591346741,-5.18526029586792,-0.5269321203231812,0.5064398050308228,-0.49612340331077576
37,-1.8396194747040677,0.03744776829023052,-0.38175226691517167,-0.963408350944519,-0.03743901476264,0.2654108703136444,0.8761419653892517,0.258025199174881,-4.536337852478027,0.254286527633667,0.7650085687637329,-0.3238978087902069
38,-1.9107216873259258,0.36876748010787397,-0.14855724497427267,-0.8793985843658447,-0.36046603322029114,0.31100186705589294,0.8067544102668762,-0.1120687797665596,-2.863126039505005,0.5620921850204468,1.0013046264648438,-0.14443698525428772
39,-1.9142605037815552,0.4127290766680266,-0.09088302379094412,-0.8625276684761047,-0.4011107385158539,0.3084738254547119,0.2733798027038574,0.20559199154376984,2.063406229019165,0.707879900932312,1.0045500993728638,-0.17698884010314941
40,-1.858806528401255,-0.00029679223733381676,-0.11436658478915818,-0.9588108062744141,0.00029679221916012466,0.28404489159584045,0.7288616299629211,0.31246209144592285,5.50684928894043,-0.1657313108444214,1.0647666454315186,0.1623203456401825
41,-1.8266939364817014,-0.5365515696465281,-0.47994733650944826,-0.8314890265464783,0.5111752152442932,0.21754546463489532,-3.222245693206787,2.4681754112243652,6.21685266494751,-1.1268696784973145,0.7468966841697693,-0.3592691421508789
42,-1.8805433228554598,-0.8448159380847756,-0.8459621292299192,-0.6322757005691528,0.7478489279747009,0.2023589313030243,0.7108328342437744,1.7548725605010986,-0.21691489219665527,-0.9294307231903076,-0.9295201897621155,-0.5088164806365967
43,-1.723364384765973,-0.8001369591141763,-0.8851005938531767,-0.6885168552398682,0.7174515128135681,0.1058683842420578,-1.20079505443573,0.29539793729782104,0.8783165812492371,-0.02837163209915161,-0.5549453496932983,0.05004596710205078
44,-1.8551473858751308,-0.8709838879972068,-0.9811492975751386,-0.6182109117507935,0.7649630308151245,0.18068517744541168,0.2358604222536087,-0.2573513984680176,-0.053527072072029114,-0.808287501335144,-0.50754714012146,-0.2185727208852768
45,-1.8054512875240205,-0.7964684618307478,-0.8722551820601236,-0.6800729036331177,0.7148911952972412,0.16257749497890472,0.6497114300727844,-0.34432128071784973,-1.38632071018219,-0.7182577848434448,-0.1343247890472412,-0.08993041515350342
46,-1.793284553235309,-0.6410367775265241,-0.6701552983640586,-0.7817211747169495,0.598026692867279,0.1768515408039093,1.4888874292373657,-1.87435781955719,-2.6255104541778564,-0.8131733536720276,0.24271738529205322,-0.19377349317073822
47,-1.799083484979949,-0.34548963786779885,-0.4439385018546804,-0.9164983034133911,0.338657408952713,0.21293677389621735,1.3139500617980957,-0.4624249339103699,-3.805736541748047,0.05282032489776611,0.163906067609787,-0.26721227169036865
48,-1.8209434652902152,-0.007749424796333736,-0.26904972568213525,-0.9688469171524048,0.007749347016215324,0.24753908812999725,0.5580769777297974,-0.7081199884414673,-3.2322638034820557,0.4088951349258423,0.488573282957077,-0.22394895553588867
49,-1.8733520506927994,0.21169917482369532,-0.1706332706713129,-0.9332674741744995,-0.21012143790721893,0.2913089394569397,0.025188708677887917,0.10330080986022949,-0.9773905873298645,0.584466814994812,0.8682330250740051,-0.21727323532104492
50,-1.857755167494315,0.10791848853038476,-0.17312244880534386,-0.9535292983055115,-0.1077091321349144,0.28139013051986694,0.9405784606933594,0.5164763927459717,2.684826135635376,0.3207321763038635,0.8506596088409424,-0.1598692536354065
51,-1.8363682784391997,-0.27693255873700634,-0.2962709909081912,-0.928176999092102,0.27340638637542725,0.25246110558509827,-1.9345855712890625,0.6816721558570862,4.891022205352783,-0.43025195598602295,0.7457586526870728,-0.01974928379058838
52,-1.8168548097444726,-0.691951324495217,-0.6056239656066551,-0.7468098998069763,0.6380409002304077,0.18755953013896942,-0.8272704482078552,2.148709297180176,4.069093704223633,-0.6216897368431091,-0.11164325475692749,-0.3330368995666504
53,-1.7735964175523762,-0.8843046004392596,-0.7644794922761342,-0.6208378672599792,0.773474395275116,0.12766093015670776,-0.525329053401947,1.0549386739730835,0.7195785641670227,-0.3601648807525635,-0.6762913465499878,-0.12555529177188873
54,-1.8200894111684696,-0.9447284178693592,-0.8990505279233525,-0.567849338054657,0.8103378415107727,0.14456821978092194,-0.1394987404346466,-0.08216863125562668,0.9834566712379456,-0.44507497549057007,-0.5260817408561707,-0.20806001126766205
55,-1.8097198039099842,-0.9818429320323535,-0.8565562399923182,-0.5397111177444458,0.831522524356842,0.13146068155765533,0.6469456553459167,-0.3393807113170624,-0.8468343615531921,-0.9331433773040771,-0.4463145136833191,-0.06012585759162903
56,-1.7577719498244784,-0.8594852747396864,-0.6899771682540669,-0.6414492130279541,0.7575066089630127,0.12135283648967743,1.1775298118591309,-1.7948319911956787,-1.8971223831176758,-0.8578640818595886,-0.09915095567703247,-0.112228162586689
57,-1.8465175428762512,-0.5714754427364228,-0.4716478909141025,-0.8093347549438477,0.540873646736145,0.22898298501968384,0.2332286238670349,-1.7492432594299316,-4.311695098876953,-0.6297522187232971,0.34352582693099976,-0.3106022775173187
58,-1.8937171894355616,-0.12546935542161192,-0.2926877082073622,-0.9408579468727112,0.12514041364192963,0.31484323740005493,0.18499904870986938,-1.2733347415924072,-4.584426403045654,0.2531290650367737,0.5073211193084717,-0.2897578477859497
59,-2.05121592594111,0.25830584647613153,-0.1234877714709214,-0.8573808073997498,-0.2554429769515991,0.44681909680366516,-0.006949735805392265,-1.0594964027404785,-3.5927724838256836,0.20666968822479248,0.9153550863265991,-0.2842214107513428
60,-2.120798795671278,0.48906486163064267,-0.0799661942460375,-0.7525840997695923,-0.46980059146881104,0.4614157974720001,-0.8971800804138184,-0.36457547545433044,-1.0780487060546875,0.030767083168029785,0.617383599281311,-0.17961657047271729
61,-2.0905517493944354,0.5734135278186565,-0.194679808020275,-0.7291170954704285,-0.542502760887146,0.4172278642654419,-1.8957226276397705,0.18026788532733917,0.47027942538261414,-0.09923678636550903,0.0719064474105835,0.2352837324142456
62,-1.6518860429914992,0.5966837745364332,-0.6631997049570777,-0.8244854211807251,-0.5619024038314819,0.06700421869754791,-4.9605207443237305,2.4647934436798096,0.6951377987861633,-0.2248157262802124,-0.05717724561691284,0.19755268096923828
63,-1.1152384531754276,0.5330712798935062,-1.2537950606660349,-0.7734164595603943,-0.5081808567047119,-0.3789186477661133,-4.013052463531494,1.4689546823501587,-1.4539190530776978,0.2726687788963318,0.11725068092346191,0.01606464385986328
64,-0.7935371083215592,0.3964686702490048,-1.603353007542857,-0.6575438380241394,-0.3861633539199829,-0.6469266414642334,-2.9220449924468994,1.9128507375717163,0.03301983326673508,0.3558775782585144,0.10608828067779541,0.0735929012298584
65,-0.6491013411754969,0.19755099651374652,-1.732801794255181,-0.5927138924598694,-0.19626854360103607,-0.7811330556869507,-0.434482604265213,0.0038453536108136177,-0.10432930290699005,0.14180141687393188,0.0008950084447860718,-0.4413553476333618
66,-0.9164249890386962,0.4695657920455055,-1.5310639119729568,-0.7075535655021667,-0.452499121427536,-0.5427820682525635,7.123597621917725,-3.716020107269287,-1.6442173719406128,-0.05561470985412598,-0.0342867374420166,-0.591418981552124
67,-2.0783117344951147,0.8614396266339026,-0.4715988017441523,-0.5692467093467712,-0.7587810158729553,0.3165588080883026,8.594894409179688,-3.3050713539123535,-3.3897340297698975,-0.44126659631729126,-0.0550616979598999,-0.171600341796875
68,-2.4921016765698503,0.7930598112787737,0.046817676485350165,-0.42435580492019653,-0.7125035524368286,0.5588029623031616,-6.603359699249268,3.0886735916137695,1.724425196647644,0.4350675046443939,-0.1265924572944641,1.0892834663391113
69,-0.749263018195257,0.48995280757635673,-1.4692540123779654,-0.6009714603424072,-0.4705842435359955,-0.6460524797439575,-11.156167030334473,6.450511455535889,3.5266497135162354,0.4995615482330322,0.8073456883430481,0.0019789934158325195
70,-0.8479713266650427,0.8213983912629268,-1.355276541952729,-0.5108576416969299,-0.7320991158485413,-0.4506165087223053,16.327129364013672,-3.8830246925354004,-6.315911769866943,0.1408625841140747,1.1710792779922485,-0.3624937832355499
71,-2.730047229784006,1.0612434886542583,0.44567578143601116,-0.1951277107000351,-0.8729627132415771,0.44705891609191895,-11.415716171264648,5.171027183532715,4.282236576080322,0.4632856249809265,-0.0017628073692321777,2.15480899810791
72,-0.4817577589777567,0.48308905292159837,-1.7403735307687787,-0.4103151857852936,-0.46451693773269653,-0.7847709655761719,2.9733972549438477,-2.1035709381103516,-0.9720762968063354,-0.01993688941001892,0.12667208909988403,-3.7191810607910156
73,-2.582910983431789,1.1449775984464332,0.2624214498540828,-0.2189534455537796,-0.9107008576393127,0.3502613306045532,10.563345909118652,-1.0171000957489014,-2.1365866661071777,0.33577480912208557,0.24702000617980957,0.8653299808502197
74,-0.5207359101105322,0.7923824132886848,-1.5859525475221667,-0.3493331968784332,-0.7120280861854553,-0.6090831756591797,-17.49928092956543,5.144174098968506,1.5182291269302368,0.7907394766807556,1.94499933719635,0.2141399383544922
75,-1.0409653843404265,1.2344942075387093,-1.2431982432217616,-0.28475362062454224,-0.943981409072876,-0.1667773425579071,19.257579803466797,-4.2714033126831055,-5.295748233795166,0.39484578371047974,1.507396936416626,-0.024812042713165283
76,-2.7418547117646908,1.0705899848404359,0.38259477504727607,-0.18665176630020142,-0.877483606338501,0.4417957067489624,-15.315186500549316,6.266735553741455,3.261855363845825,0.1128908097743988,-0.07214701175689697,2.127234935760498
77,-0.38526943383241996,0.6685785664669749,-1.8367102592454423,-0.29489853978157043,-0.619871199131012,-0.7271826267242432,12.5114164352417,-1.0184606313705444,-0.8587753772735596,-0.053642719984054565,0.532590925693512,-2.211141347885132
78,-3.128640074847857,0.6029159129573701,0.7919653053351488,-0.010668554343283176,-0.5670467019081116,0.8236165046691895,14.135290145874023,-0.130867138504982,-1.779342532157898,0.2815425992012024,0.4624782204627991,1.292090892791748
79,-1.90948683882109,1.151097148499311,-0.33246333733485434,-0.3843366503715515,-0.9132115840911865,0.13538804650306702,-14.326054573059082,3.68228816986084,4.468804359436035,0.623060405254364,1.137164831161499,-0.07983076572418213
80,-1.1069514730152006,0.9907557743653914,-1.2260445333492938,-0.4901495575904846,-0.8364404439926147,-0.2451956421136856,14.100861549377441,-2.963710069656372,-4.713688850402832,-0.08992859721183777,1.2512505054473877,-1.171231985092163
81,-3.0641103328509534,0.35240664794890153,0.7462343808308914,-0.07264789938926697,-0.34515756368637085,0.9357290863990784,0.024263758212327957,0.6498535871505737,3.5509068965911865,1.4462593793869019,0.3423956334590912,1.7238322496414185
82,-2.2104038574574894,0.9817990899166278,-0.21515598689960114,-0.44571653008461,-0.8314981460571289,0.3315836787223816,-8.646747589111328,1.9827748537063599,3.5993571281433105,-0.13275942206382751,0.3849191665649414,-0.3041025400161743
83,-2.761015367011796,0.571818798940209,0.35662161295723,-0.3123645782470703,-0.5411624312400818,0.7807508707046509,18.71522331237793,-0.06451366096735,-2.6258561611175537,0.038484543561935425,0.5490968823432922,-0.008427143096923828
84,-2.3467307690519013,0.5985194687490757,-0.04572701828999021,-0.5896931886672974,-0.5634199380874634,0.578636109828949,-12.920454025268555,2.995008707046509,2.6569900512695312,0.49691981077194214,0.9615218043327332,0.370430052280426
85,-2.427866929405789,0.7689464683575523,-0.2575894864306715,-0.4704635441303253,-0.6953784823417664,0.5432429909706116,14.083770751953125,-2.558558225631714,-5.856376647949219,-0.19660496711730957,0.8846942782402039,-1.4666438102722168
86,-2.637995162844169,0.3777958599314709,0.08705658209398869,-0.44854795932769775,-0.36887267231941223,0.8140869140625,-10.731101036071777,3.3096344470977783,2.0307767391204834,0.12048396468162537,-0.10250183939933777,1.330612063407898
87,-2.004910466405184,0.8542112173509562,-0.8260364090778083,-0.5958892703056335,-0.7540530562400818,0.2762601971626282,6.624078273773193,-0.7117457389831543,-2.9597091674804688,-0.5615813732147217,0.05553632974624634,-2.668212890625
88,-2.7523210687160895,0.05448242705480532,0.32542574241551236,-0.37895140051841736,-0.0544554777443409,0.9238128066062927,-6.599984645843506,3.47111177444458,2.4502077102661133,0.6831812262535095,-0.08439949154853821,4.1566009521484375
89,-2.2140517923145566,0.7088566791011671,-0.4645880973771044,-0.6073970794677734,-0.6509662866592407,0.4553147256374359,-6.507699012756348,-0.1365519016981125,0.35460299253463745,-0.3059176802635193,0.6824910044670105,-0.862434446811676
90,-2.7830948926204586,0.23579379435984205,0.5422626371433783,-0.3411591649055481,-0.23361489176750183,0.9105134606361389,14.203241348266602,0.5278744697570801,-2.503981351852417,1.1100800037384033,0.6692532896995544,0.42432546615600586
91,-2.247236681168219,0.7173461080513279,-0.10306796336280279,-0.5876252055168152,-0.6573871374130249,0.47174015641212463,-12.740387916564941,0.7184512615203857,3.093343496322632,0.45263075828552246,1.3071368932724,-0.20095765590667725
92,-2.6508339198172997,0.6429292294763503,0.2581249688651057,-0.37719783186912537,-0.5995423793792725,0.7058829665184021,17.81991958618164,-0.9557388424873352,-7.483794212341309,-0.5207055807113647,1.16495680809021,-0.6844901442527771
93,-2.5318175923891233,0.3867178518243637,0.2674693537242763,-0.5303916335105896,-0.37715068459510803,0.7592380046844482,-13.259182929992676,1.056089997291565,3.908489942550659,0.04966336488723755,0.5978842377662659,1.0412381887435913
94,-2.03134487726455,0.8255247484477273,-0.602632599129155,-0.6075120568275452,-0.7349037528038025,0.30140626430511475,8.958700180053711,0.4952602982521057,-2.887169599533081,-0.5765699744224548,-0.12079387903213501,-2.448455333709717
95,-2.7132541620097657,0.20900584095638802,0.4805437759467797,-0.40632084012031555,-0.20748747885227203,0.8898610472679138,-5.72491455078125,1.1483547687530518,2.1706082820892334,1.1059515476226807,0.30166468024253845,2.530808687210083
96,-1.960695764252049,0.7619289421197138,-0.5459641421081444,-0.6692048907279968,-0.6903183460235596,0.27500131726264954,-11.446404457092285,0.5735647082328796,3.1260294914245605,0.3505708575248718,0.8441421389579773,-0.5246042609214783
97,-1.0495521205740599,0.36967325499354103,-1.242047865155092,-0.8086169958114624,-0.36131078004837036,-0.4643200635910034,-5.281431674957275,6.804116725921631,5.301381587982178,0.0497058629989624,0.02515965700149536,-0.20413696765899658
98,-0.5554842028381315,0.07939263217357524,-1.1881007295204613,-0.5256936550140381,-0.07930925488471985,-0.8469688892364502,1.5729697942733765,3.6495890617370605,3.461862802505493,0.11665129661560059,0.13771991431713104,-0.8777320384979248
99,-0.3326916389285433,0.16827052462556957,-0.9084190599494568,-0.3219754993915558,-0.167477548122406,-0.9318170547485352,1.718923807144165,2.6288466453552246,2.0983705520629883,-0.3012544810771942,0.303158700466156,-0.22241878509521484
100,-0.09015083726409251,0.21286754433283017,-0.6504201843553291,-0.08799674361944199,-0.21126358211040497,-0.9734599590301514,1.5065863132476807,2.47855544090271,1.7901887893676758,-0.3102423846721649,0.15402787923812866,0.26412463188171387
101,0.06210361819672703,0.3910006172394376,-0.49813801301481964,0.057379644364118576,-0.3811137080192566,-0.9227458834648132,1.7724071741104126,1.5596646070480347,0.8254468441009521,-0.2550114691257477,0.020579040050506592,0.6454021334648132
102,0.0646265475982019,0.5055836761061627,-0.46262281015893986,0.05650189518928528,-0.48431816697120667,-0.8730655312538147,0.7622668147087097,-0.08753756433725357,0.04315987974405289,-0.15782025456428528,-0.017085641622543335,0.2611880898475647
103,-0.0517452338717999,0.523671045817968,-0.46031295466182404,-0.04479082301259041,-0.5000625848770142,-0.8648301362991333,0.34576478600502014,-0.48179060220718384,0.07858210057020187,-0.2584013044834137,-0.13494718074798584,-0.1325148344039917
104,-0.08287606530737954,0.5230616148769758,-0.4736156976974808,-0.07171286642551422,-0.4995347261428833,-0.8633204698562622,-1.197566270828247,-0.0142142865806818,-0.9211612939834595,-0.23070105910301208,-0.09131607413291931,0.14354819059371948
105,-0.16008171208726793,0.48829660134450936,-0.5286454675406956,-0.14077045023441315,-0.4691222310066223,-0.8718417286872864,0.3445601761341095,-1.4481695890426636,0.15215077996253967,-0.05010175704956055,0.12427359819412231,0.2837832570075989
106,-0.6109000993163003,0.6608095876902323,-0.374921153121453,-0.4528586268424988,-0.6137562394142151,-0.6467011570930481,3.4281046390533447,-5.146039009094238,1.6050690412521362,0.3709036409854889,0.4185352325439453,0.7011750340461731
107,-1.3565053927925514,0.4110661776364862,0.06744953509750255,-0.8957281112670898,-0.39958691596984863,-0.1949394941329956,1.7564027309417725,-5.019016265869141,7.31904935836792,0.7112951874732971,1.1367542743682861,0.5723351240158081
108,-1.7754075763016075,-0.5210476223576973,0.2534479583931225,-0.8492065668106079,0.49778902530670166,0.17622333765029907,2.8223581314086914,-2.00093150138855,10.732069969177246,-0.5061249732971191,2.1524338722229004,-0.4517664909362793
109,0.03023378891600309,-1.1988083282844246,2.3301711904398172,0.010987351648509502,0.9316065907478333,-0.3633022606372833,8.012749671936035,1.2424017190933228,6.730395793914795,-3.5782785415649414,2.4009740352630615,-0.08339881896972656
110,0.19567507460857192,-0.6650199084670161,2.1598620528473926,0.15299686789512634,0.6170747876167297,-0.7718877196311951,1.754075050354004,4.165189266204834,-6.219218730926514,-1.9912232160568237,0.6816160082817078,1.3581304550170898
111,0.08070886875961893,-0.6768842572907405,1.2776736203679535,0.06284654885530472,0.6263672709465027,-0.776990532875061,-0.6432856917381287,2.841031551361084,-7.5754313468933105,-0.2981981039047241,0.38477158546447754,2.007566213607788
112,-0.4287113344688059,-0.7483662137987616,0.6011317099527852,-0.3046249449253082,0.6804424524307251,-0.6664846539497375,-0.8088937401771545,-2.3232717514038086,-1.8051795959472656,0.5294327139854431,0.3121722936630249,-0.06050509214401245
113,-0.8083574918012443,-0.6844868654854858,0.24765903816191492,-0.560258686542511,0.6322755217552185,-0.5351054072380066,-1.371477723121643,0.8206133842468262,-2.56868314743042,-0.1418744921684265,-0.03701496124267578,-0.6458332538604736
114,-1.0360644860054757,-0.5280121294418187,-0.23373444753157616,-0.7432270050048828,0.5038172006607056,-0.4402066767215729,-1.8073807954788208,0.8407455086708069,-3.7665367126464844,-0.06771659851074219,0.43790948390960693,-0.29447346925735474
115,-1.2421769249051822,-0.23499340538214814,-0.7081948543850929,-0.9204753041267395,0.23283657431602478,-0.31386643648147583,-3.0457842350006104,-1.569248080253601,-2.6373887062072754,0.019260942935943604,0.10513029992580414,-0.005622267723083496
116,-1.531225374343782,-0.10584884484246825,-1.047621603016716,-0.9936248064041138,0.10565130412578583,-0.03933921456336975,0.634819507598877,-4.804871082305908,-2.720789909362793,0.20909416675567627,0.21548515558242798,-0.41549474000930786
117,-1.870699053321891,0.06670758906972578,-0.8291637018858251,-0.9532403349876404,-0.0666581243276596,0.294770210981369,2.99752140045166,-1.9427801370620728,-0.4995805025100708,0.7913904190063477,0.2573014497756958,-0.48605430126190186
118,-1.9798439924671278,-0.20573494466869177,-0.43132636054557233,-0.8981508016586304,0.20428666472434998,0.3893478810787201,6.333191871643066,-1.365504503250122,2.8966219425201416,0.1119418740272522,0.20326030254364014,-0.31996625661849976
119,-1.92634728813672,-0.556944144584719,0.06304583402826955,-0.7957812547683716,0.5285946130752563,0.2954989969730377,2.5232276916503906,-1.3612444400787354,-0.5255701541900635,-1.0749309062957764,0.06478911638259888,0.6685208082199097
120,-2.029458274393487,-0.4263775550014049,0.27597994776974255,-0.8163689374923706,0.4135754108428955,0.4031094014644623,1.514319658279419,-4.188879489898682,-3.473686456680298,-0.1545172929763794,0.980574369430542,0.08016693592071533
121,-2.099909629712309,-0.2826537163716948,0.2356818570812844,-0.8289998173713684,0.2789050340652466,0.48473820090293884,-1.4910569190979004,0.9583002924919128,0.8984111547470093,1.1481070518493652,-0.17175784707069397,-0.4784974157810211
122,-2.080535948276728,-0.5096420677457475,0.12660086453810604,-0.7619464993476868,0.48786482214927673,0.42594099044799805,2.422839641571045,0.0412747785449028,3.1739776134490967,0.192702054977417,-0.16776591539382935,-0.20801490545272827
123,-1.8820937991610833,-0.9335469617722947,0.42351555097118637,-0.5663899779319763,0.8037353754043579,0.18224090337753296,3.2575082778930664,-1.393289566040039,0.3335132896900177,-0.9775400161743164,-0.048700034618377686,0.5496011972427368
124,-1.6661948208902588,-1.0165175973331704,0.8200175239826748,-0.5239370465278625,0.8502802848815918,0.05013498663902283,1.4889971017837524,0.2098594605922699,-0.3866788148880005,-0.560703456401825,0.0327916145324707,0.8115135431289673
125,-2.01705574170746,-0.8042691978393707,0.3981924659249417,-0.6257082223892212,0.720323920249939,0.29937005043029785,-4.106884956359863,-0.011109213344752789,-1.0516459941864014,-0.30254489183425903,0.7706428170204163,-1.2018969058990479
126,-2.142810892506372,-0.7142518719146207,0.186437538404511,-0.6353036761283875,0.6550523042678833,0.4090176820755005,-1.7626497745513916,0.7609543204307556,-0.191721111536026,0.40350741147994995,-0.6635057926177979,-0.30998820066452026
127,-2.122907798127256,-0.7590975445760648,0.1340601343121868,-0.6176684498786926,0.6882670521736145,0.38049250841140747,0.664968729019165,1.563234806060791,1.354026198387146,0.6432573795318604,0.09058749675750732,-0.13227763772010803
128,-2.006379456595277,-1.0243900158322368,0.24751373112677846,-0.4710998833179474,0.8543974161148071,0.2192479521036148,1.4336572885513306,-0.9886257648468018,1.3148295879364014,-0.873550295829773,-0.10490113496780396,0.8967340588569641
129,-1.8409639781181248,-1.0657548789122981,0.3648402789695005,-0.46629267930984497,0.875154435634613,0.12913446128368378,-1.6971055269241333,-0.29846012592315674,-0.40570488572120667,-0.5569463968276978,0.10474967956542969,0.3786933422088623
130,-2.044976509130074,-0.9548551701597611,0.06094543053971889,-0.5139849781990051,0.816230058670044,0.26379555463790894,-1.8450031280517578,0.6298408508300781,-0.2756023705005646,-0.07387512922286987,0.6223686933517456,-0.4227004945278168
131,-1.9544755150001694,-0.9141777794433238,0.04177484886602683,-0.5660587549209595,0.792060911655426,0.22850951552391052,0.30459776520729065,0.6497015953063965,-0.650169849395752,0.579639196395874,-0.6465837955474854,-0.23314827680587769
132,-1.9264636999542584,-0.9371714238148007,0.13282821442482998,-0.5550146102905273,0.8058866262435913,0.20616817474365234,0.4778244197368622,-0.9836134910583496,-0.15188126266002655,0.4413366913795471,-0.26000356674194336,0.01874634623527527
133,-1.9333452428854188,-1.0263132623800406,0.25999340910789975,-0.48430511355400085,0.8553951382637024,0.18370452523231506,1.899660348892212,-0.4949401617050171,0.38213300704956055,-0.6153194308280945,0.16270160675048828,0.4536551237106323
134,-1.8717228440714924,-1.0722887658324862,0.47436437104667456,-0.4566299319267273,0.8782970905303955,0.1417158842086792,0.17375050485134125,-0.12783963978290558,-0.01568920537829399,-0.4087112545967102,0.5734546184539795,0.5043717622756958
135,-1.9219493876782108,-1.0293258405596797,0.2642688136237762,-0.4839455485343933,0.8569517135620117,0.1772865504026413,-0.8962108492851257,0.3103271722793579,-0.8626033067703247,0.0734383761882782,0.5168733596801758,-0.5199378728866577
136,-1.7527286732932823,-0.9933378809686835,0.5676183903005673,-0.5368865728378296,0.8378527760505676,0.0987691804766655,0.732187032699585,0.061722733080387115,-0.9320368766784668,0.34316104650497437,-0.9147113561630249,0.3086709976196289
137,-1.8079056447894533,-0.8525291346646587,0.405944972649149,-0.6396685242652893,0.752947211265564,0.15457913279533386,-1.7268732786178589,1.408767819404602,-0.21192194521427155,0.6301317811012268,-0.27363818883895874,-0.1285780817270279
138,-1.9095818091199301,-0.8835162649699061,0.1884162020247672,-0.5983752608299255,0.7729744911193848,0.2108500748872757,0.32565760612487793,-1.2531217336654663,0.34709179401397705,-0.590604841709137,0.29149389266967773,-0.21582436561584473
139,-2.0358717517094447,-0.8728711469110575,0.35366177175877245,-0.5743744373321533,0.7661771774291992,0.2882130742073059,-0.028961338102817535,-1.1723276376724243,-0.26117920875549316,-0.058422863483428955,0.26801788806915283,0.6638896465301514
140,-2.1818219906950587,-0.8413899677088574,0.12043511278813233,-0.5458438992500305,0.7455701231956482,0.38233453035354614,-1.5420143604278564,0.8422772288322449,0.5477588176727295,-0.20243191719055176,0.653111457824707,-0.21470141410827637
141,-2.1074455481909564,-0.8625272275161822,0.19484410554319925,-0.5590744614601135,0.7594889998435974,0.3325844407081604,1.0311782360076904,-0.9473477602005005,-0.26093176007270813,0.3431931138038635,-0.5557841658592224,-0.19589614868164062
142,-2.060167620315998,-0.8909666057051578,0.22182490470467986,-0.5548739433288574,0.7776798009872437,0.295515239238739,-0.7068753838539124,1.1724485158920288,0.2883310317993164,0.41319602727890015,-0.5165407657623291,-0.05990418791770935
143,-2.1328827555669134,-0.8801896813320778,0.025536659571707372,-0.538998544216156,0.7708597183227539,0.3394935727119446,-0.7129898071289062,-0.2893299460411072,0.4648919403553009,-0.19163799285888672,0.3627462387084961,-0.10131919384002686
144,-2.1474675037967725,-0.9209405780809258,0.07006432316332101,-0.5072208642959595,0.7961710691452026,0.3299071192741394,1.1971275806427002,-0.1166250929236412,-0.0006438232958316803,-0.5578426718711853,0.45649927854537964,0.2514984905719757
145,-2.0988426956287567,-0.9343908595056646,0.10738328686000133,-0.5133592486381531,0.8042371869087219,0.29944026470184326,-0.3932277262210846,0.5435490608215332,-0.07361358404159546,-0.16622132062911987,0.19721221923828125,0.17655760049819946
146,-2.0524962191795266,-0.9032743126124333,0.07173762109592134,-0.5486001372337341,0.7853580713272095,0.2867935299873352,-0.5820726156234741,1.2631436586380005,-0.08756861090660095,0.24983304738998413,-0.5047184824943542,-0.007542520761489868
147,-2.027701433578815,-0.8761596880244548,-0.06664831466849118,-0.5744457840919495,0.7682863473892212,0.2823975682258606,-1.0409198999404907,0.7156108021736145,0.3284783661365509,0.4722576141357422,-0.36266183853149414,-0.12652906775474548
148,-2.1238927965870618,-0.8889986463501607,-0.14552057165906843,-0.5362297296524048,0.7764410972595215,0.331054151058197,0.49951499700546265,-0.7216352224349976,0.15426383912563324,-0.19324713945388794,0.053346991539001465,0.028412431478500366
149,-2.0009196204359636,-0.9329316120355088,-0.04154179195373488,-0.5412414073944092,0.8033691048622131,0.24830545485019684,-0.2982851266860962,0.36303961277008057,-0.12382557988166809,-0.42280876636505127,0.17592459917068481,0.5153968930244446
150,-2.1205433168397274,-0.9011379038694182,-0.14314715819968846,-0.5292597413063049,0.7840337157249451,0.3243076801300049,-0.4022153615951538,-0.47009533643722534,-0.009662026539444923,-0.2816839814186096,0.3892146348953247,-0.1293613612651825
151,-2.1767365223091377,-0.9029084457452011,-0.06876424524253116,-0.5090677738189697,0.7851315140724182,0.3527294993400574,0.6501875519752502,-1.0578149557113647,-0.2858257293701172,0.03313100337982178,-0.27805161476135254,-0.15354135632514954
152,-2.1487483232702735,-0.9173466672487735,-0.04487331700049484,-0.5091911554336548,0.7939913868904114,0.3321175277233124,-0.25738856196403503,0.7668038606643677,0.4639383554458618,0.4076439142227173,-0.5100710988044739,-0.14441919326782227
153,-2.202054851193729,-0.9398135884765216,-0.11649077286144757,-0.476248562335968,0.807448148727417,0.34815868735313416,0.10291782021522522,-0.7084172964096069,0.21558350324630737,-0.05651199817657471,-0.028731226921081543,-0.17108049988746643
154,-2.2271888324021503,-0.9865311720408632,-0.0844610174995003,-0.4369664490222931,0.8341176509857178,0.3366129994392395,0.7258020639419556,-0.39845266938209534,0.14932233095169067,-0.4141841530799866,0.16225087642669678,0.10122266411781311
155,-2.194403838364449,-1.0093497157137403,-0.03626668692570897,-0.43219923973083496,0.8464857935905457,0.3109108507633209,-0.8139974474906921,0.9412692785263062,0.23574307560920715,-0.21088242530822754,0.07715916633605957,0.37463605403900146
156,-2.204426131114598,-0.9688284447059773,-0.15375349945867725,-0.45634427666664124,0.8242228627204895,0.33527109026908875,-0.28930601477622986,0.6539974808692932,-0.21598351001739502,-0.04000884294509888,0.006114661693572998,-0.08881103992462158
157,-2.1119182696906793,-0.9515487312776749,-0.1958444383754311,-0.497498482465744,0.8143153786659241,0.29897454380989075,-0.488710880279541,1.5745315551757812,0.23361895978450775,0.39627164602279663,-0.5274654030799866,-0.04825735092163086
158,-2.1318935792845735,-0.9502114446854897,-0.29876550031308485,-0.49234917759895325,0.8135384917259216,0.30943119525909424,-0.06063356250524521,-0.49556687474250793,0.24578619003295898,0.09600210189819336,-0.10582047700881958,-0.15859803557395935
159,-2.1300657361017814,-0.9864036969578333,-0.21051875163978154,-0.4676389694213867,0.8340473175048828,0.2927103042602539,0.9569776058197021,-0.29262614250183105,-0.09450744837522507,-0.31977570056915283,0.11071604490280151,0.21832185983657837
160,-2.0712469306739267,-1.0030177202546577,-0.19559409581738196,-0.4718130826950073,0.8430976271629333,0.2580287754535675,-0.49688926339149475,-0.002502226270735264,0.13589365780353546,-0.3589974641799927,0.44919973611831665,0.20751690864562988
161,-2.1487408332169,-0.98349766501008,-0.21773897727885613,-0.464119017124176,0.8324405550956726,0.3027144968509674,0.5020164847373962,-1.181564450263977,-0.2855598032474518,-0.12242874503135681,0.20007580518722534,-0.2138778269290924
162,-2.139303701664374,-0.9986937927249389,-0.09072988906760811,-0.456241637468338,0.8407645225524902,0.29147666692733765,0.4972613751888275,-0.40721529722213745,-0.14006778597831726,0.190494567155838,-0.5229544639587402,-0.10849320888519287
163,-2.1492043433041954,-1.0092837834283597,-0.07282031797078613,-0.445852667093277,0.846450686454773,0.29109519720077515,-0.0328633189201355,-0.4051571488380432,0.1482289731502533,0.16599124670028687,-0.2620086669921875,-0.1977114975452423
164,-2.2036656020328436,-1.0236195357481912,-0.08037540127969832,-0.41951823234558105,0.853996753692627,0.3077244162559509,0.17908740043640137,-0.3369572162628174,0.17681045830249786,-0.22214442491531372,0.1503826379776001,-0.055816978216171265
165,-2.1649981335778756,-1.0465837550349242,0.010064939413637966,-0.4147382378578186,0.8657183647155762,0.2802213430404663,0.9223476648330688,-0.6099236607551575,-0.467303991317749,-0.3471331000328064,0.28715944290161133,0.1847139596939087
166,-2.1528451091621856,-1.0193876846916037,-0.018125008942310686,-0.43762344121932983,0.8517873883247375,0.2880002558231354,-1.4778568744659424,1.4629985094070435,0.18024800717830658,-0.17030200362205505,0.29266756772994995,0.169122576713562
167,-2.107594168414267,-0.9739526886384527,-0.070881971674051,-0.48298510909080505,0.827113687992096,0.28741729259490967,0.06032802164554596,0.7787423133850098,-0.3244912326335907,0.24871677160263062,-0.4027208685874939,-0.03853112459182739
168,-2.0429507156195448,-0.9517364127111121,-0.14057306926193983,-0.5167827606201172,0.8144243359565735,0.263910174369812,-0.861742377281189,1.2094085216522217,0.27435460686683655,0.45925718545913696,-0.48195064067840576,-0.0711764395236969
169,-2.129576220173273,-0.9668931711281232,-0.23832739501406913,-0.48148977756500244,0.823125422000885,0.3010520339012146,0.35064956545829773,-1.0076416730880737,0.292350709438324,-0.07518139481544495,0.06905603408813477,-0.09986481070518494
170,-2.0591572369635234,-1.0350439597396999,-0.039296843840394745,-0.45081400871276855,0.8598847985267639,0.23951053619384766,1.6424181461334229,-0.5528510808944702,-0.23981183767318726,-0.5001291036605835,0.04364931583404541,0.3093481659889221
171,-1.99959428358631,-1.0444961179507068,0.032575765898194234,-0.4568589925765991,0.864671528339386,0.2088608294725418,-0.6880819797515869,0.11038864403963089,0.4274764657020569,-0.3584485650062561,0.43346983194351196,0.3005537688732147
172,-2.076065516044921,-1.0116013820718133,0.016665549565813505,-0.46421414613723755,0.8476824760437012,0.256786584854126,0.33657950162887573,-0.6740036010742188,-0.630295991897583,-0.04422387480735779,-0.08549082279205322,-0.12214305996894836
173,-2.014856954888678,-0.9547785228130206,0.06384201124363403,-0.5217522382736206,0.8161857724189758,0.24822396039962769,-0.41673481464385986,0.8956720232963562,-0.6242560148239136,0.3898400068283081,-0.47408390045166016,-0.15503862500190735
174,-1.985928295653461,-0.9003000044426003,0.002417045804546386,-0.5685970783233643,0.7835133671760559,0.25060704350471497,-0.5157305002212524,0.20682275295257568,0.05059542506933212,0.569421112537384,-0.09953826665878296,-0.2113921046257019
175,-2.113619374620242,-0.9229789208819897,-0.0858984906074295,-0.5167040824890137,0.7974027991294861,0.31171390414237976,0.4407752752304077,-1.987683892250061,0.5208523869514465,-0.33430904150009155,0.5519014000892639,-0.08701303601264954
176,-2.0356646833849337,-1.0068332365431116,0.15159637820963243,-0.4778147339820862,0.8451433181762695,0.23963692784309387,1.216161847114563,-0.006213713902980089,-0.06156203895807266,-0.5110921263694763,0.05263805389404297,0.4821953773498535
177,-2.0157389058025195,-0.9726185963180245,0.11189481798431442,-0.5083078742027283,0.8263631463050842,0.24237780272960663,-0.955862283706665,0.8600226640701294,-0.3206869959831238,-0.12448936700820923,-0.0002065896987915039,0.10581253468990326
178,-1.9984567385586782,-0.8769501398409384,0.023383079597476486,-0.5819048881530762,0.7687920928001404,0.2652277946472168,-1.017357587814331,0.5177450776100159,-1.3176226615905762,0.2632860541343689,-0.4314965009689331,-0.12118440866470337
179,-1.9908193615784804,-0.7291760592864578,-0.026209033477661906,-0.6809051632881165,0.6662554144859314,0.3040923774242401,-0.7346208691596985,-0.1234152615070343,-1.3674254417419434,0.3471038341522217,-0.18163621425628662,-0.1772002875804901
180,-2.0670900957284277,-0.5798082414603468,-0.005448046449387893,-0.7356385588645935,0.5478635430335999,0.3983481824398041,-0.11299165338277817,-1.1173914670944214,-0.8716320395469666,-0.16173070669174194,-0.03988325595855713,0.04932937026023865
181,-2.09886303325591,-0.5484620656302714,0.07482820349365153,-0.7370893359184265,0.5213754773139954,0.42996111512184143,0.6764993667602539,-0.26164910197257996,-0.3043104112148285,-0.3376634120941162,0.07171833515167236,0.31651395559310913
182,-2.0599613874108353,-0.5708934150676326,0.15890600579151062,-0.7427417039871216,0.5403839945793152,0.3953734040260315,0.8491268157958984,-0.5030485987663269,-0.1404205709695816,-0.3948620557785034,0.3731902837753296,0.052884042263031006
183,-2.036580357737362,-0.5820099269819891,0.3010817682150133,-0.7463683485984802,0.5497040748596191,0.3751794993877411,0.974088191986084,-0.14870502054691315,-0.35806819796562195,0.360809326171875,-0.3132539391517639,-0.09980407357215881
184,-1.984345431971611,-0.5859941258942121,0.35349869911011317,-0.7629274129867554,0.5530279278755188,0.3348162770271301,-0.1871216744184494,0.2666919529438019,0.03372997045516968,0.5706514120101929,-0.2651403546333313,-0.1359027624130249
185,-2.0019507514429677,-0.6060646638672416,0.2714520166764033,-0.7466793656349182,0.5696374177932739,0.3434866964817047,-0.5615875124931335,0.014052899554371834,0.9145858883857727,0.10989952087402344,0.2368505597114563,-0.043239593505859375
186,-2.0538985721345413,-0.6680326822581243,0.24544161060309952,-0.6952002048492432,0.6194427609443665,0.3646744191646576,0.7608473300933838,0.33631187677383423,0.38879522681236267,-0.5207726955413818,0.14514470100402832,0.1618606150150299
187,-1.9888759674071257,-0.7114503390970385,0.26096133226537166,-0.692179799079895,0.6529329419136047,0.30751553177833557,-0.774823009967804,0.7029683589935303,0.3691442906856537,-0.2989243268966675,-0.1269930601119995,0.3199106454849243
188,-1.9786988939241252,-0.6881664190397615,0.1964402500082804,-0.7090393900871277,0.6351219415664673,0.30640414357185364,-0.27387943863868713,0.34692618250846863,-0.19615373015403748,0.10866695642471313,-0.2975059747695923,-0.03617092967033386
189,-1.9653349805120406,-0.6549322386802364,0.1394566367101527,-0.7321593165397644,0.6091055274009705,0.3048494756221771,-0.8202182650566101,0.44290971755981445,-0.0827820748090744,0.4180113673210144,-0.37058013677597046,-0.11493861675262451
190,-1.9848236060289997,-0.6392381746862309,0.08070350730645645,-0.7347415685653687,0.5965842008590698,0.3228657841682434,-0.05123734474182129,0.1350669264793396,0.16130001842975616,0.11940032243728638,-0.03481656312942505,-0.1041005551815033
191,-1.9629685064008071,-0.6437233454920882,0.13747719437935235,-0.7391414642333984,0.6001777648925781,0.3057062327861786,0.9028342366218567,0.6076434254646301,-0.2501622140407562,-0.5232638716697693,0.1520041823387146,0.26027271151542664
192,-1.8399981385995414,-0.6431152522622531,0.18213818136480794,-0.7714099884033203,0.5996912717819214,0.21283124387264252,0.01716715469956398,-0.7881408929824829,0.10216860473155975,-0.15319639444351196,0.1464482545852661,0.1478407382965088
193,-1.9253514316330986,-0.6308672737962465,0.2210019109546471,-0.757289707660675,0.5898452997207642,0.2803480327129364,0.32821953296661377,-0.9663953185081482,-0.3564619719982147,-0.227497398853302,0.22369235754013062,-0.1434919536113739
194,-1.9688690429217661,-0.6178132647783606,0.27847670926885293,-0.7514106035232544,0.5792540311813354,0.31598564982414246,0.11225037276744843,-0.27499911189079285,-0.24601323902606964,0.4298621416091919,-0.38888537883758545,-0.1640080213546753
195,-1.9800450325459718,-0.5931010217161129,0.23633266191750205,-0.7607349753379822,0.5589351058006287,0.329959899187088,-0.931615948677063,0.4066990911960602,0.2644878625869751,0.5474172234535217,-0.06056791543960571,-0.1833382248878479
196,-2.0227141641874624,-0.6082072733934083,0.1325736934974316,-0.7382872104644775,0.5713971257209778,0.35838133096694946,-0.16020655632019043,-0.3140213191509247,0.6205779910087585,-0.23938912153244019,0.31428396701812744,-0.16618159413337708
197,-2.0061194278979335,-0.6722797692570647,0.19796591872595903,-0.709432065486908,0.6227713227272034,0.32994237542152405,1.3588801622390747,0.0742674320936203,-0.07932095974683762,-0.5023140907287598,0.13861173391342163,0.15397486090660095
198,-1.934546530875643,-0.6875743398867321,0.24544982678914365,-0.7222238183021545,0.6346645355224609,0.2749437093734741,-0.7370689511299133,0.550694465637207,0.005910435691475868,-0.29272985458374023,0.04345136880874634,0.30302873253822327
199,-1.9261549497124344,-0.6487302700321418,0.16596455727766435,-0.7470656037330627,0.6041750907897949,0.27724581956863403,-1.0756144523620605,0.6975393891334534,-0.06275162100791931,0.3376418352127075,-0.3701663613319397,0.0951600968837738
200,-1.9303327807236612,-0.6007644908367692,-0.015838049021873808,-0.7721592783927917,0.5652732849121094,0.29023438692092896,-2.0196218490600586,1.2028045654296875,0.27181553840637207,0.6050298810005188,-0.23937612771987915,-0.018612653017044067
201,-1.9845309774618554,-0.5991153537674077,-0.19276857117992288,-0.7561554908752441,0.5639120936393738,0.33201169967651367,-0.06879210472106934,-0.528396725654602,0.559027910232544,-0.1537412405014038,0.21916884183883667,-0.20733216404914856
202,-1.95691984686152,-0.6503508269039489,-0.055838566088297036,-0.7372760772705078,0.6054656505584717,0.29972532391548157,1.905928373336792,-0.5526134371757507,-0.44015949964523315,-0.4451121687889099,0.07431334257125854,0.20575258135795593
203,-1.8963338408724992,-0.6778683715724877,0.12150795044280358,-0.7380020022392273,0.6271340847015381,0.2491099089384079,0.5577101707458496,-0.646726131439209,-0.005782552063465118,-0.3358810544013977,-0.01969701051712036,0.3280690610408783
204,-1.9385979935774156,-0.6609961822809018,0.19711344771264086,-0.7365871071815491,0.6139035224914551,0.28383374214172363,0.33069074153900146,-0.8548139333724976,-0.4805380702018738,-0.020782768726348877,-0.22063887119293213,0.0009562373161315918
205,-1.991683610486935,-0.6128655786936915,0.18870493820938647,-0.7466135025024414,0.5752138495445251,0.33421197533607483,-0.786334753036499,0.06366339325904846,-0.2071763277053833,0.5043953657150269,-0.30293595790863037,-0.16834887862205505
206,-2.014999786301497,-0.5693814221306761,0.06030823072354817,-0.7604985237121582,0.5391111373901367,0.3619408905506134,-1.2703512907028198,0.5290639996528625,0.3319932222366333,0.4186100959777832,0.16660785675048828,-0.21313714981079102
207,-2.0763959748838205,-0.582688892780463,-0.052844205925030155,-0.7305158972740173,0.5502710938453674,0.4044104814529419,0.2720108926296234,-0.8858398795127869,0.40821534395217896,-0.4045547842979431,0.3643558621406555,-0.31995317339897156
208,-2.053173867846259,-0.646993896576478,0.0578217100524849,-0.7068547010421753,0.6027905941009521,0.37013494968414307,1.2940837144851685,0.2743988037109375,-0.003157341852784157,-0.48220163583755493,0.12335985898971558,0.23647817969322205
209,-1.9829713217528788,-0.6553445727722581,0.08234917936089393,-0.7264389395713806,0.6094324588775635,0.31761327385902405,-0.12864084541797638,0.564765453338623,-0.145777627825737,-0.07965224981307983,-0.018230795860290527,0.08576804399490356
210,-1.939027117866327,-0.6302837864670977,0.051073157938721955,-0.7537058591842651,0.5893740653991699,0.2908017337322235,-0.6591711640357971,0.8062958717346191,-0.09189854562282562,0.43449199199676514,-0.4123568534851074,0.013122797012329102
211,-1.9324554735724755,-0.6009785580272652,-0.06615273960541561,-0.7714285850524902,0.5654498338699341,0.2918300926685333,-1.007158637046814,0.3154544532299042,0.23663339018821716,0.4525045156478882,-0.13429737091064453,-0.07336992025375366
212,-1.9624502186260506,-0.6200637462314986,-0.09299106357545836,-0.7522165775299072,0.581087052822113,0.3106576204299927,0.6945316195487976,-0.012817726470530033,0.2000264972448349,-0.4091451168060303,0.13584715127944946,0.027492403984069824
213,-1.8841954410155697,-0.6499607970754855,0.028524058028106127,-0.7573301196098328,0.6051551699638367,0.2454351782798767,0.9817387461662292,-0.09490621834993362,-0.21718092262744904,-0.25193196535110474,-0.043967485427856445,0.45196783542633057
214,-1.8782439693798554,-0.6573717084715263,0.07545892235406085,-0.7544822692871094,0.6110383868217468,0.2395598441362381,0.025095880031585693,-0.7103467583656311,0.05475791543722153,-0.2753793001174927,0.08056628704071045,0.19523945450782776
215,-1.9496122094008477,-0.6361544552212882,0.07626898119905262,-0.7473580241203308,0.5941065549850464,0.29747864603996277,0.04725976288318634,-0.5527487993240356,-0.2924955487251282,0.007810235023498535,-0.08743840456008911,-0.08886048197746277
216,-1.993665355304302,-0.6103361505683473,0.06503033389336771,-0.7472741603851318,0.573142945766449,0.3362869322299957,-0.5245141386985779,-0.09820154309272766,-0.043514177203178406,0.43916863203048706,-0.2369307279586792,-0.15084680914878845
217,-2.030825691269934,-0.5967157120320055,-0.020011879334548812,-0.7411907911300659,0.5619288086891174,0.36724916100502014,-0.7637938857078552,0.13168874382972717,0.40823519229888916,0.3601941466331482,0.03360635042190552,-0.20884782075881958
218,-2.093692788682788,-0.6177457233255129,-0.12688643295322932,-0.7062579989433289,0.579198956489563,0.4070971608161926,-0.10091865062713623,-0.34214475750923157,0.6056288480758667,-0.41889452934265137,0.28656941652297974,-0.23687011003494263
219,-2.0479428607938,-0.6856967345705428,-0.029509897927843393,-0.6875318884849548,0.6332124471664429,0.3554466664791107,1.5482840538024902,0.027584824711084366,-0.22732402384281158,-0.5536485910415649,0.02183210849761963,0.13986924290657043
220,-1.9692147792338814,-0.6807278034321526,0.045558533514165236,-0.7162479162216187,0.6293587684631348,0.3014903664588928,-0.3129950761795044,0.42575934529304504,-0.35216671228408813,-0.12115442752838135,-0.024012088775634766,0.2174152135848999
221,-1.940851062396623,-0.6261843096929138,-0.013514891890547082,-0.7554206252098083,0.5860573053359985,0.29304739832878113,-0.943048357963562,0.7871840596199036,-0.28435859084129333,0.4027441143989563,-0.31017833948135376,0.007199794054031372
222,-1.9380309726802594,-0.5761651892666654,-0.13226437447490344,-0.7826460599899292,0.5448122620582581,0.3010723292827606,-0.7341824173927307,0.3400633931159973,0.13049949705600739,0.4422988295555115,-0.018780827522277832,-0.1083386242389679
223,-1.941172613273852,-0.6021598799204976,-0.1387361291822061,-0.7682319283485413,0.566423773765564,0.29830145835876465,0.5693355202674866,-0.27896997332572937,0.23553545773029327,-0.05270618200302124,0.10075145959854126,0.056953638792037964
224,-1.9314779535332767,-0.6460978107196959,-0.027699407936349348,-0.747065007686615,0.6020753383636475,0.28177890181541443,1.070088505744934,-0.28579220175743103,-0.06352130323648453,-0.4433189630508423,0.08667594194412231,0.23763027787208557
225,-1.9193328741296378,-0.6745042326159911,0.00647514148418681,-0.7340567111968994,0.6245101690292358,0.26673486828804016,-0.03800144046545029,-0.4125513434410095,0.12394903600215912,-0.4048897624015808,0.055558741092681885,0.1711312234401703
226,-1.95110683553423,-0.665664000867661,0.06867235818487069,-0.7303105592727661,0.6175814867019653,0.2919583022594452,0.30907177925109863,-0.5526395440101624,-0.3107835352420807,0.1305180788040161,-0.25877106189727783,0.015140175819396973
227,-1.9727495439985272,-0.6471779943425723,0.054886753355412224,-0.734203577041626,0.6029374599456787,0.3121080994606018,-0.5518353581428528,0.1679387241601944,-0.004927784204483032,0.519298791885376,-0.297471821308136,-0.15131095051765442
228,-2.0199113880067063,-0.6413622113905686,-0.026197875905416917,-0.7218196988105774,0.5982875227928162,0.3478911817073822,-0.5771520733833313,-0.24787387251853943,0.38537588715553284,0.16455358266830444,0.07332801818847656,-0.16875293850898743
229,-2.089703618947372,-0.6625220005708522,-0.0968570432642636,-0.6846538186073303,0.6151072382926941,0.39101389050483704,-0.08160369098186493,0.041120003908872604,0.3987892270088196,-0.4940264821052551,0.20651739835739136,-0.17551416158676147
230,-2.050274893289425,-0.6867272254696143,-0.058287032920042905,-0.68612140417099,0.6340096592903137,0.3567476272583008,0.41614922881126404,0.6235301494598389,-0.02193659357726574,-0.34093230962753296,-0.041327834129333496,0.15669533610343933
231,-1.9767765842827811,-0.6695490194517004,-0.04543886786655874,-0.7203664779663086,0.6206324100494385,0.3096570372581482,-0.13536280393600464,0.5266332626342773,-0.28979039192199707,0.0716695785522461,-0.09402108192443848,0.09740161895751953
232,-1.916328625601759,-0.6316833713606551,-0.09319240546492434,-0.7593350410461426,0.5905041098594666,0.27334064245224,-0.82684725522995,1.088515281677246,-0.15835417807102203,0.47155433893203735,-0.35390138626098633,-0.005838900804519653
233,-1.9042537305798377,-0.5987496714961578,-0.1951393727970584,-0.7805397510528564,0.5636100769042969,0.2703731060028076,-0.6711797118186951,0.010639984160661697,0.20313847064971924,0.30397719144821167,0.07057571411132812,-0.019304990768432617
234,-1.9191019334534798,-0.6350403088474653,-0.1764140579319099,-0.7567064762115479,0.593209981918335,0.27476730942726135,1.1280258893966675,0.07054004818201065,0.19012002646923065,-0.3770977854728699,-0.035486042499542236,0.03443679213523865
235,-1.8575181770984763,-0.6667820140119888,-0.024188831817378628,-0.7537360191345215,0.618460476398468,0.22223620116710663,0.810384213924408,-0.46336811780929565,-0.016384365037083626,-0.4109978675842285,0.11786770820617676,0.45670366287231445
236,-1.8929765633638298,-0.670212911125178,-0.010180770848748072,-0.743366539478302,0.6211528778076172,0.24814380705356598,-0.3166486918926239,-0.6352965235710144,-0.18991486728191376,-0.3771016001701355,0.1797199249267578,0.09647595882415771
237,-1.964345183697713,-0.6348454457439459,-0.04833061971778976,-0.7436116337776184,0.5930531024932861,0.3087546229362488,-0.5422093868255615,-0.10803975909948349,-0.12868158519268036,0.31543493270874023,-0.2835896611213684,-0.11348828673362732
238,-1.9995697547310431,-0.6042560880582254,-0.1426478210704407,-0.7484306693077087,0.5681500434875488,0.34213557839393616,-0.9683621525764465,0.14305469393730164,0.13964886963367462,0.496706485748291,-0.0795026421546936,-0.2178986370563507
239,-2.067676184887902,-0.5916379556370993,-0.24453225685813432,-0.7296565175056458,0.5577213168144226,0.3956620991230011,-0.45267418026924133,-0.3381693363189697,0.38452303409576416,0.011455774307250977,0.1688564419746399,-0.3220231533050537
240,-2.102825470591236,-0.6313072423886763,-0.2494830320729911,-0.6956772208213806,0.5902005434036255,0.4095076322555542,0.6900352835655212,-0.23448440432548523,0.22774294018745422,-0.4004531502723694,0.251123309135437,-0.1366957426071167
241,-2.0283827850222345,-0.6941900026744926,-0.0812414342473449,-0.6895027160644531,0.6397631168365479,0.33954310417175293,0.9812924861907959,0.2630945146083832,-0.07000771909952164,-0.22249990701675415,-0.07901781797409058,0.38561561703681946
242,-1.9888652807417508,-0.6751545383653502,-0.0833840239794876,-0.7133799195289612,0.6250179409980774,0.3169250190258026,-0.8290109038352966,0.677221953868866,-0.1822660118341446,0.005631566047668457,-0.12738311290740967,0.1334381103515625
243,-1.9735400233729372,-0.6228795443835732,-0.2278138810108759,-0.7472169399261475,0.5833763480186462,0.31833767890930176,-1.6636875867843628,1.42360258102417,0.10999970138072968,0.49952101707458496,-0.32034534215927124,-0.04403042793273926
244,-1.9588411020662628,-0.5840835900768324,-0.4026054629503449,-0.7721943259239197,0.551435112953186,0.3156507611274719,-0.8777943253517151,0.35979247093200684,0.3813113868236542,0.3573688268661499,0.07444989681243896,-0.1537398099899292
245,-1.9779750631109312,-0.6288138152701883,-0.36341930225593283,-0.7426057457923889,0.5881858468055725,0.3202718198299408,1.5509177446365356,-0.5002750754356384,0.023084070533514023,-0.4150175452232361,-0.003072381019592285,-0.06279492378234863
246,-1.9030119766996219,-0.6762894105210098,-0.13486408466256405,-0.737257182598114,0.6259034276008606,0.25435546040534973,1.728204607963562,-0.5397520065307617,-0.21879561245441437,-0.4013689160346985,0.05613386631011963,0.35904788970947266
247,-1.8613042822359398,-0.6919906575870951,-0.03181432067334842,-0.7377143502235413,0.6380711793899536,0.22055155038833618,0.1960543990135193,-0.729682207107544,-0.22247083485126495,-0.298525333404541,0.09860795736312866,0.275237113237381
248,-1.9267218188029294,-0.6550831925062581,-0.02841918788849417,-0.7432957887649536,0.6092252135276794,0.2763262689113617,-0.5142862200737,-0.4202757775783539,-0.3029250502586365,0.1602421998977661,-0.20408910512924194,-0.0030107498168945312
249,-1.9785425751128616,-0.6173330256817153,-0.10261703341925583,-0.7485740184783936,0.5788624882698059,0.3233497738838196,-0.842642068862915,0.10403943061828613,0.047601036727428436,0.48195719718933105,-0.15462243556976318,-0.17692649364471436
250,-2.039137862016989,-0.6027230193480296,-0.19998560462189244,-0.7350870370864868,0.5668877959251404,0.37186673283576965,-0.6670439839363098,-0.19557586312294006,0.31718990206718445,0.13701891899108887,0.10074514150619507,-0.2463938593864441
251,-2.100821153836463,-0.6167841930780558,-0.27181369576584646,-0.7038183212280273,0.5784148573875427,0.41240260004997253,0.14851205050945282,0.03690922632813454,0.38174813985824585,-0.3736352324485779,0.2667694091796875,-0.23813199996948242
252,-2.0497316821315836,-0.6651631767058999,-0.17155819029936167,-0.6982884407043457,0.6171875596046448,0.3625921308994293,0.6906420588493347,0.3879810869693756,-0.07872714102268219,-0.2776332497596741,0.06616216897964478,0.26208749413490295
253,-1.9906765177705268,-0.6632081560693044,-0.20833143014816494,-0.719572126865387,0.615648090839386,0.3212377727031708,-0.1997431516647339,0.6720313429832458,0.01471942663192749,0.008390307426452637,-0.04425215721130371,-0.009088665246963501
254,-1.939877177062131,-0.6466705040212647,-0.2468965064975401,-0.7443500757217407,0.6025325059890747,0.28791916370391846,-0.7361717820167542,0.841421902179718,-0.02303927391767502,0.4165303111076355,-0.40482449531555176,0.04229635000228882
255,-1.9499711581117065,-0.6296768094978344,-0.3482586580471572,-0.7508105635643005,0.5888835787773132,0.29916512966156006,-0.4906459450721741,0.01742914877831936,0.28820574283599854,0.14718806743621826,0.0036457180976867676,-0.06483590602874756
256,-1.9444624872507223,-0.6622315653889371,-0.3355269671206724,-0.7342033386230469,0.614878237247467,0.28787147998809814,0.8709890246391296,0.15904825925827026,0.1477355808019638,-0.31155771017074585,-0.007059693336486816,0.04811176657676697
257,-1.8857766327700964,-0.6915947573708136,-0.20991792913982432,-0.7323367595672607,0.6377663016319275,0.23861557245254517,0.9652880430221558,-0.28118276596069336,-0.10212816298007965,-0.538720428943634,0.1489463448524475,0.416932612657547
258,-1.9090461802020637,-0.6886180835764683,-0.18208637353145507,-0.7283737659454346,0.6354707479476929,0.2562192678451538,-0.08753100037574768,-0.717984139919281,-0.3004644513130188,-0.29591816663742065,0.20290809869766235,0.0632997453212738
259,-1.9709732711760508,-0.6638591091341779,-0.17532129211975192,-0.7253919243812561,0.6161609292030334,0.3068420886993408,-0.12402042746543884,-0.39261677861213684,-0.10415301471948624,0.3143354654312134,-0.294658362865448,-0.11889961361885071
260,-2.019722679896868,-0.6469121096839907,-0.2167080609848152,-0.7188827395439148,0.6027253270149231,0.34630849957466125,-0.5238900184631348,-0.2115754932165146,0.10074715316295624,0.48948222398757935,-0.13122880458831787,-0.21047478914260864
261,-2.091684709827376,-0.6484049554732587,-0.2935070107713674,-0.6913415789604187,0.6039158701896667,0.3966517448425293,-0.38141417503356934,-0.3593086302280426,0.4164441227912903,-0.0458257794380188,0.17814290523529053,-0.2740015983581543
262,-2.1144076450314078,-0.6899859428504929,-0.2992185217934865,-0.6600759625434875,0.636526346206665,0.3989163935184479,0.5399633049964905,-0.003857604693621397,0.14200662076473236,-0.4845317006111145,0.1738986372947693,-0.13472560048103333
263,-2.031913696826453,-0.7166253074403585,-0.19648365188250713,-0.6752731800079346,0.6568437814712524,0.33550354838371277,0.3085983395576477,0.5323376059532166,-0.28732091188430786,-0.3046768307685852,-0.015791475772857666,0.23615172505378723
264,-1.9777052561155686,-0.6810860614778923,-0.1676809514131741,-0.713455319404602,0.6296371221542358,0.30747151374816895,-0.02172253280878067,0.39603614807128906,-0.4474901258945465,0.18093878030776978,-0.14822232723236084,0.08188700675964355
265,-1.9282933284554469,-0.6389108986058126,-0.19940171343178018,-0.7519926428794861,0.5963215231895447,0.28090527653694153,-0.8277474641799927,0.666181743144989,-0.18012751638889313,0.5795835852622986,-0.3115772604942322,0.00805044174194336
266,-1.9620016279299077,-0.6180050463511171,-0.31508187292353673,-0.7534602880477905,0.5794103741645813,0.31077566742897034,-0.6521120071411133,0.18602454662322998,0.46501532196998596,0.21032363176345825,0.09687453508377075,-0.10128781199455261
267,-1.9461250269497532,-0.6619105282456416,-0.3084359088295631,-0.7339075207710266,0.6146250367164612,0.28916415572166443,1.0837558507919312,-0.16312237083911896,0.17493599653244019,-0.3862554430961609,0.03610128164291382,-0.012629151344299316
268,-1.8638769583252528,-0.7043237625203296,-0.12976274338318491,-0.7295546531677246,0.6475186347961426,0.22015832364559174,1.308275818824768,0.07826787978410721,-0.13643307983875275,-0.4575486183166504,-0.05543184280395508,0.33140110969543457
269,-1.8450252414857544,-0.7196471500657555,-0.060699928493198496,-0.7239381670951843,0.6591193675994873,0.20365563035011292,0.3723360598087311,-1.0738153457641602,-0.21129049360752106,-0.2751312255859375,0.08000129461288452,0.09936873614788055
270,-1.898692845108788,-0.6891950092847036,-0.025965375746407855,-0.7306403517723083,0.6359161138534546,0.2485465109348297,-0.14024774730205536,-0.5271895527839661,-0.3039988875389099,0.25180429220199585,-0.3327392339706421,-0.048519134521484375
271,-1.9628298723786923,-0.6539163930025311,-0.08135240128090437,-0.7334919571876526,0.6082995533943176,0.3032505512237549,-0.9297372698783875,-0.08914840221405029,0.0638367310166359,0.40936481952667236,-0.1371082067489624,-0.16016891598701477
272,-2.0439446356886175,-0.6401641450959342,-0.19019929944876268,-0.7138886451721191,0.5973271131515503,0.3654630780220032,-0.5920841097831726,-0.24315878748893738,0.3393074572086334,0.02924203872680664,0.18906503915786743,-0.29374685883522034
273,-2.0830726475965475,-0.6777237354217444,-0.19998416631293395,-0.6790024042129517,0.6270214319229126,0.38183772563934326,0.8831004500389099,-0.40617769956588745,0.23275388777256012,-0.36558377742767334,0.2630695700645447,-0.1297624707221985
274,-2.020717555620992,-0.7231297323060778,-0.0776152470782658,-0.6751255393028259,0.661734402179718,0.32605722546577454,-0.2167053520679474,0.7174437642097473,0.09933822602033615,-0.23385584354400635,-0.12186312675476074,0.35561397671699524
275,-2.005637348915954,-0.6942552231167066,-0.15185821309777556,-0.6970087885856628,0.639813244342804,0.3237559497356415,-0.08013355731964111,0.5359210968017578,-0.21991708874702454,-0.03970080614089966,0.01539921760559082,-0.09908553957939148
276,-1.9529726046279137,-0.6699250565385925,-0.1533997012251242,-0.7273162007331848,0.6209272146224976,0.29233628511428833,-0.4442565143108368,0.5931949615478516,-0.15736636519432068,0.4735473394393921,-0.42480605840682983,0.011634081602096558
277,-1.960818882650755,-0.6472376409250052,-0.23289860072172167,-0.7378416657447815,0.6029850244522095,0.30331289768218994,-0.49759337306022644,0.24644255638122559,0.4001837372779846,0.309664785861969,-0.04999130964279175,-0.08347955346107483
278,-1.948928582511317,-0.6852464185065037,-0.22483196042045606,-0.7195660471916199,0.6328638195991516,0.28584662079811096,1.2801047563552856,-0.6746068000793457,-0.14956168830394745,-0.4180682897567749,0.13794922828674316,-0.041568607091903687
279,-1.8806568688212186,-0.7072047750473288,-0.03823144524584825,-0.7239782810211182,0.6497114300727844,0.23179882764816284,1.1823049783706665,-0.021603897213935852,-0.08955129981040955,-0.4568384289741516,0.14498162269592285,0.42458847165107727
280,-1.8946675353469773,-0.6983342915841748,-9.173148986507173e-05,-0.726094663143158,0.6429427862167358,0.2437436580657959,-0.6894254684448242,-0.17341788113117218,-0.16639336943626404,-0.13332605361938477,0.11068874597549438,0.1259767860174179
281,-1.9612663798445598,-0.6626157494212902,-0.09889595852408978,-0.7290442585945129,0.6151811480522156,0.3000779151916504,-0.1390267014503479,-0.3144409954547882,-0.26798298954963684,0.33541327714920044,-0.24510973691940308,-0.2619156539440155
282,-1.9999673244091345,-0.6315614061600668,-0.1278492699775069,-0.7339109182357788,0.5904057025909424,0.33585089445114136,-0.6423017978668213,-0.0848073661327362,0.0275201965123415,0.4688352346420288,-0.14652752876281738,-0.15710949897766113
283,-2.06385312685096,-0.6324807888942793,-0.2154248776233068,-0.710493803024292,0.5911474823951721,0.3817632794380188,-0.233720064163208,-0.21838456392288208,0.4717186391353607,0.0005939006805419922,0.2705010771751404,-0.19295096397399902
284,-2.0771192383448946,-0.6854262124144463,-0.18884148935986542,-0.6770198345184326,0.6330029964447021,0.3754352927207947,1.0678523778915405,-0.08329152315855026,0.17515558004379272,-0.48035943508148193,0.2938770651817322,0.01207694411277771
285,-1.9826855935018521,-0.7312247244861996,-0.07443196014436625,-0.68210369348526,0.6677817702293396,0.2979969382286072,0.0354531966149807,0.32602110505104065,-0.145854189991951,-0.24389111995697021,-0.1511344313621521,0.3568340539932251
286,-1.9750024652369331,-0.6894835293148296,-0.1285267131131128,-0.7093971967697144,0.6361387968063354,0.303451806306839,-0.7574160695075989,0.5894439220428467,-0.2507604956626892,0.08607572317123413,-0.16667169332504272,0.01521274447441101
287,-1.9592547460157697,-0.6350838981027702,-0.22871296568654587,-0.7450428605079651,0.5932450294494629,0.3049117624759674,-1.1978658437728882,0.816114604473114,-0.1762416809797287,0.5013601183891296,-0.31152212619781494,-0.0628311038017273
288,-1.9731726693512683,-0.6084428624622696,-0.3427482638465738,-0.7550052404403687,0.5715904831886292,0.3213281035423279,-0.3323346674442291,0.31498491764068604,0.4246300160884857,0.28862035274505615,0.009342193603515625,-0.18569239974021912
289,-1.951655133568865,-0.6487963165210445,-0.3005309297791037,-0.7397167682647705,0.6042277216911316,0.29618915915489197,1.4413704872131348,-0.9177747964859009,-0.1508115530014038,-0.362623929977417,0.2188008427619934,-0.041291117668151855
290,-1.8691170193348867,-0.6952772193788641,-0.06872901836813088,-0.7339601516723633,0.6405983567237854,0.22569069266319275,1.988614559173584,-0.37633904814720154,-0.13420674204826355,-0.4670438766479492,0.1105155348777771,0.42625629901885986
291,-1.8898554899470548,-0.6943463621770891,0.0016286833332414625,-0.7296880483627319,0.639883279800415,0.24104921519756317,-0.9699755907058716,-0.22956977784633636,0.06208442524075508,-0.1417108178138733,0.030175864696502686,0.14873658120632172
292,-1.9737703407181093,-0.6763161459823014,-0.0930399545830503,-0.7174142003059387,0.625924289226532,0.305836021900177,-0.2701144516468048,-0.3833105266094208,-0.07186651229858398,0.3010933995246887,-0.2860042452812195,-0.2603342533111572
293,-2.0226779629314326,-0.6596670601790998,-0.11716736025663396,-0.7108820080757141,0.6128538250923157,0.34504640102386475,-0.22794409096240997,-0.45564159750938416,-0.02111879736185074,0.3739069700241089,-0.14909344911575317,-0.26115360856056213
294,-2.083567055376745,-0.6643155329229078,-0.13019854431818909,-0.6860781908035278,0.616520345211029,0.3862634301185608,0.14639610052108765,-0.6532068252563477,0.12068329751491547,-0.16932952404022217,0.22698557376861572,-0.1690698266029358
295,-2.084633443667825,-0.7039351288917551,-0.07507095304582895,-0.6638612747192383,0.6472224593162537,0.37468811869621277,1.134770393371582,-0.23660948872566223,-0.1041104644536972,-0.49739354848861694,0.30855751037597656,-0.020775824785232544
296,-2.0017526654953928,-0.7226857632735764,0.032056245765683736,-0.6814541220664978,0.6614014506340027,0.31331831216812134,-0.507853627204895,0.4122621715068817,-0.190691277384758,-0.030292093753814697,-0.07120680809020996,0.2814387083053589
297,-1.9946076414116245,-0.6667026321729342,-0.09511791582850118,-0.7163382768630981,0.6183980703353882,0.3231772780418396,-0.9073155522346497,1.0092142820358276,-0.055855538696050644,0.26264870166778564,-0.09979754686355591,-0.12072369456291199
298,-1.9496529867252623,-0.6393650374195805,-0.17603767144753757,-0.7455695867538452,0.5966860055923462,0.29680198431015015,-0.6502177119255066,0.674042284488678,-0.0030019301921129227,0.47831207513809204,-0.31703829765319824,-0.0880771279335022
299,-1.948927306161274,-0.6361008117755131,-0.221995094050381,-0.7475911378860474,0.594063401222229,0.2969784438610077,0.14620168507099152,-0.11429959535598755,0.1400308459997177,0.03615009784698486,0.042121291160583496,-0.07299458980560303
300,-1.888083307349048,-0.6661647772618512,-0.13448676826446526,-0.7469546794891357,0.6179752945899963,0.24528582394123077,1.2210971117019653,0.054783228784799576,-0.2399800717830658,-0.3949825167655945,0.07611644268035889,0.2181084007024765
301,-1.785178606696115,-0.6751416426732689,-0.03824906778731567,-0.7627484798431396,0.6250078678131104,0.1660717874765396,0.2057969570159912,0.7755579948425293,0.11765719205141068,-0.033256709575653076,-0.008034050464630127,0.6192370653152466
302,-1.845018786232088,-0.6658204799765811,-0.015212094090038774,-0.7570269703865051,0.6177045702934265,0.21295876801013947,-0.6391309499740601,-0.5163724422454834,-0.24380213022232056,-0.3662031292915344,0.14172542095184326,0.19947102665901184
303,-1.9392216357140175,-0.6155859603832495,-0.1601187700551213,-0.7616488337516785,0.5774370431900024,0.2940365672111511,-1.210767388343811,0.2510852515697479,-0.14203821122646332,0.35373562574386597,-0.17309439182281494,-0.2192990779876709
304,-1.9615929593006025,-0.57031523430162,-0.2823455222100274,-0.7782691121101379,0.5398974418640137,0.3206363320350647,-0.9984225034713745,0.3497128486633301,0.11576486378908157,0.5348916053771973,-0.013637125492095947,-0.2456393539905548
305,-2.0218240721190486,-0.5697211505607956,-0.3784320171406575,-0.757845938205719,0.5393972396850586,0.3670424222946167,-0.3421226143836975,-0.33704155683517456,0.5387403964996338,0.01068413257598877,0.37059110403060913,-0.2298354208469391
306,-2.0436894263144914,-0.6440477259859352,-0.3018122604397413,-0.7119114398956299,0.6004372239112854,0.36422163248062134,1.7663370370864868,-0.7563537955284119,0.16904932260513306,-0.5866267681121826,0.3147544860839844,0.03328502178192139
307,-1.9355992377007214,-0.7174508213527251,-0.10400475422313828,-0.7039006948471069,0.6574660539627075,0.2688170075416565,0.4215109944343567,0.28859996795654297,-0.1394386738538742,-0.13926953077316284,-0.27764421701431274,0.46244528889656067
308,-1.9456698646694979,-0.685583076616896,-0.1908099632381134,-0.7202954292297363,0.6331244707107544,0.28342223167419434,-1.1446057558059692,0.575097918510437,-0.0023100823163986206,0.013737142086029053,-0.037634968757629395,0.041193246841430664
309,-1.9593932127863183,-0.6490030113292004,-0.28946931787667685,-0.7372870445251465,0.604392409324646,0.3018568754196167,-0.7096996903419495,0.41500890254974365,-0.07455858588218689,0.41679149866104126,-0.31479591131210327,-0.11051169037818909
310,-1.9806529696024955,-0.6282544452848173,-0.36155802915716406,-0.742047131061554,0.5877333879470825,0.3223903775215149,-0.28937429189682007,-0.006769962143152952,0.11021661758422852,0.15441590547561646,-0.05279076099395752,-0.13792693614959717
311,-1.9683565348907563,-0.6436004475106252,-0.33747951880128496,-0.7375518679618835,0.6000794768333435,0.3097129762172699,0.7151452898979187,-0.019918067380785942,-0.16398824751377106,-0.45570069551467896,0.11949455738067627,0.008753299713134766
312,-1.8920850347759224,-0.6624467063837367,-0.21278046714131188,-0.7481420636177063,0.6150478720664978,0.24899683892726898,1.1609607934951782,0.09129051119089127,-0.07743214070796967,-0.23521053791046143,0.08557462692260742,0.3068350553512573
313,-1.8755085026743192,-0.6652213061231623,-0.12944576115192027,-0.7505359649658203,0.6172332763671875,0.23604874312877655,-0.3830130398273468,-0.48477500677108765,-0.19210025668144226,-0.12156486511230469,0.0023193359375,0.21507740020751953
314,-1.9440038078166595,-0.6384049523719203,-0.2260520873601618,-0.7477676272392273,0.5959153175354004,0.29279422760009766,-0.46009373664855957,-0.0235232375562191,0.006544285453855991,0.26238560676574707,-0.14439254999160767,-0.21852973103523254
315,-1.967999335238298,-0.6314291373423101,-0.22037579589983464,-0.7443425059318542,0.5902989506721497,0.3122517764568329,0.14905083179473877,-0.4731126129627228,-0.03088861145079136,0.4410741925239563,-0.1559271216392517,-0.1573140025138855
316,-2.0021758239168355,-0.655457282281495,-0.2280038675736315,-0.7201434373855591,0.6095218062400818,0.331476092338562,0.02274177223443985,-0.32904309034347534,0.38082268834114075,-0.027262508869171143,0.09233659505844116,-0.1201724112033844
317,-2.0195537261883922,-0.6997790862062205,-0.2191305635645656,-0.6892409920692444,0.6440486907958984,0.3318856954574585,0.6403228640556335,-0.11550068855285645,0.2698495090007782,-0.43285977840423584,0.2345675826072693,0.003105729818344116
318,-1.9556405551120433,-0.738563598646933,-0.1304205164827715,-0.6853517889976501,0.6732264757156372,0.2775953710079193,-0.0465821735560894,0.40301406383514404,-0.06993942707777023,-0.23049598932266235,-0.15714365243911743,0.3241197168827057
319,-1.9708836801447538,-0.6953838068748417,-0.2146826936793492,-0.7071716785430908,0.640680193901062,0.29906022548675537,-0.6893603205680847,0.37642204761505127,-0.21072764694690704,0.0667145848274231,0.007940411567687988,-0.07838761806488037
320,-1.9582808943896606,-0.654429153828446,-0.26908303475101925,-0.7345749735832214,0.6087064146995544,0.29979291558265686,-0.6629084348678589,0.4907614290714264,-0.21321171522140503,0.506151020526886,-0.3078031539916992,-0.06358686089515686
321,-1.9780073249692554,-0.621695918080214,-0.35624317390184795,-0.7464210987091064,0.5824145674705505,0.3219458758831024,-0.48390570282936096,0.14541217684745789,0.2415986955165863,0.26088643074035645,0.06278806924819946,-0.16310152411460876
322,-1.9603012048408919,-0.6487780170098782,-0.3442662932632865,-0.7371385097503662,0.6042131781578064,0.3025778532028198,1.081303596496582,-0.33331358432769775,-0.09020940214395523,-0.4351789355278015,0.1704145073890686,-0.04462793469429016
323,-1.8618960066328507,-0.6908678793883252,-0.1768009263581638,-0.7382693886756897,0.6372063159942627,0.22119347751140594,0.9370805025100708,0.3515944182872772,0.10988152772188187,-0.2187008261680603,-0.040297746658325195,0.4555642604827881
324,-1.8722850025770508,-0.7015863495427469,-0.14232055213984274,-0.7293676733970642,0.6454302072525024,0.22681009769439697,-0.15828529000282288,-0.570597231388092,-0.10499591380357742,-0.2756982445716858,0.09597909450531006,0.09147298336029053
325,-1.9291419448150209,-0.6860133923046035,-0.20744989949944523,-0.724625825881958,0.6334574818611145,0.2713834345340729,-0.20153436064720154,-0.19222141802310944,-0.07772034406661987,0.2889416813850403,-0.2635234594345093,-0.16702857613563538
326,-1.9722850205482765,-0.6707803020998553,-0.2357220734771434,-0.7210460901260376,0.621597409248352,0.30611947178840637,-0.4224853515625,-0.35113856196403503,0.06567476689815521,0.3059307932853699,-0.11416643857955933,-0.14156869053840637
327,-2.0411988115026234,-0.6728898211653754,-0.297478658245085,-0.6970850825309753,0.6232485175132751,0.35444849729537964,-0.24916256964206696,-0.28072211146354675,0.29342707991600037,-0.14996081590652466,0.22842085361480713,-0.19490265846252441
328,-2.064682969612658,-0.7061853499805922,-0.29117357131832694,-0.6699197888374329,0.6489361524581909,0.3606787621974945,0.8511849641799927,-0.38280874490737915,0.1715518683195114,-0.4211598038673401,0.2720385193824768,-0.07395091652870178
329,-1.998694475692485,-0.7427165014778813,-0.20648322712295528,-0.6702191829681396,0.6762914657592773,0.3056732416152954,-0.39730677008628845,0.7415580749511719,-0.006079668179154396,-0.12751030921936035,-0.18866634368896484,0.2447417974472046
330,-1.9810943547133002,-0.7034045715841626,-0.2685672750021957,-0.6993466019630432,0.6468179225921631,0.30420568585395813,-0.2127210795879364,0.3773339092731476,-0.32341957092285156,0.13046836853027344,-0.08280724287033081,-0.0934818685054779
331,-1.94733765483228,-0.6707151847893023,-0.2735874115563486,-0.7284954190254211,0.6215463876724243,0.2880527675151825,-0.28278377652168274,0.20804862678050995,-0.25732871890068054,0.4044445753097534,-0.2672221064567566,-0.03899887204170227
332,-1.958861996306368,-0.6503556384220501,-0.2858990853753249,-0.7366898655891418,0.6054694652557373,0.30115553736686707,0.1505989134311676,-0.19737137854099274,-0.04284942150115967,0.15249186754226685,0.00309675931930542,-0.12960103154182434
333,-1.9298576734204442,-0.6675754497221099,-0.23472317486514527,-0.7352425456047058,0.6190837621688843,0.2759597599506378,0.8218404054641724,-0.16518624126911163,-0.10407265275716782,-0.35286176204681396,0.08143198490142822,0.04148411750793457
334,-1.8609480624439698,-0.6944449351227167,-0.09492760411604032,-0.7362900376319885,0.6399590373039246,0.21984003484249115,1.3742525577545166,0.04205343499779701,-0.01620698906481266,-0.304008424282074,0.036356329917907715,0.24279117584228516
335,-1.8283781792311777,-0.6927190271477275,-0.01990129736894091,-0.7441253066062927,0.6386318802833557,0.19602786004543304,-0.7113099694252014,-0.19045302271842957,-0.1426905244588852,-0.11782842874526978,0.04676240682601929,0.23114192485809326
336,-1.90559896230136,-0.6598473708151992,-0.14967604953635533,-0.7462162971496582,0.6129962801933289,0.25960853695869446,-0.5818003416061401,0.12084408104419708,-0.10207424312829971,0.2790074944496155,-0.18257641792297363,-0.2228197157382965
337,-1.9250663268683386,-0.6440520673156928,-0.1847738523222473,-0.7500097155570984,0.6004406809806824,0.2774098813533783,-0.2138538807630539,-0.30335381627082825,0.017833517864346504,0.45600342750549316,-0.10869580507278442,-0.1414387822151184
338,-1.975018614457965,-0.6686608885120507,-0.18884067554903725,-0.7214161157608032,0.6199358105659485,0.3086068034172058,0.18902339041233063,-0.6063238382339478,0.34907612204551697,-0.0865519642829895,0.11153995990753174,-0.12270906567573547
339,-1.998734619224169,-0.7227896157029832,-0.17034345970198414,-0.6823342442512512,0.6614793539047241,0.3112317621707916,0.7950215935707092,-0.28148025274276733,0.4396149218082428,-0.41156840324401855,0.26063984632492065,-0.0324537456035614
340,-1.9310462112946918,-0.779249986207563,-0.05243655221257618,-0.6657723188400269,0.7027460336685181,0.25078853964805603,0.6099028587341309,0.4843062162399292,-0.03306693583726883,-0.3090810775756836,-0.2502009868621826,0.2376757264137268
341,-1.889429212978849,-0.7505253366666057,-0.051279541595533544,-0.6945189237594604,0.6820230484008789,0.22910292446613312,-0.1169944703578949,0.333202600479126,-0.3952222466468811,0.044875919818878174,-0.004227638244628906,0.0167771577835083
342,-1.8529406468398628,-0.711202706668133,-0.07494074681279082,-0.7276232242584229,0.6527453660964966,0.210921511054039,-0.439806193113327,0.6484207510948181,-0.27291402220726013,0.4063189625740051,-0.31802862882614136,0.04611276090145111
343,-1.8634545831636893,-0.6852601028046326,-0.15433672837983864,-0.7413336634635925,0.6328744292259216,0.22337129712104797,-0.45964422821998596,-0.03885747492313385,0.1249847263097763,0.35369932651519775,0.057585835456848145,-0.013227194547653198
344,-1.8804767103159405,-0.6977111174348298,-0.12981423762201966,-0.7298617959022522,0.642465353012085,0.23353762924671173,0.540106475353241,-0.024678776040673256,0.09794504940509796,-0.38642531633377075,0.18424052000045776,0.159818634390831
345,-1.8337392693382286,-0.7163040802645824,-0.09604296621901318,-0.7283139228820801,0.6566015481948853,0.19604407250881195,0.05313106253743172,0.2323867380619049,0.22694741189479828,-0.18837308883666992,0.08854615688323975,0.2528543472290039
346,-1.8577656704291425,-0.7189714817840963,-0.11114255200775877,-0.7217114567756653,0.6586110591888428,0.21298803389072418,-0.4593445956707001,-0.2936604619026184,-0.19027721881866455,-0.24749624729156494,0.17804354429244995,0.03757642209529877
347,-1.8900473770550517,-0.6957971530573888,-0.162881343049513,-0.7287595272064209,0.6409974694252014,0.24089759588241577,-0.28545019030570984,0.23669779300689697,-0.0686761811375618,0.3442838788032532,-0.27815884351730347,-0.1443094164133072
348,-1.8973544148139652,-0.6823708694074769,-0.1936832620759626,-0.7350655198097229,0.6306347846984863,0.2489546835422516,-0.39479079842567444,0.016920609399676323,0.06634588539600372,0.4291421175003052,-0.1904492974281311,-0.0701369196176529
349,-1.9625926342189401,-0.6919618434099766,-0.2687605016154474,-0.7116490602493286,0.6380490064620972,0.2940222918987274,-0.33443117141723633,-0.6926057934761047,0.42994529008865356,-0.06171214580535889,0.28915131092071533,-0.0841987133026123
350,-2.0152154219038922,-0.7407080451102531,-0.29250507336232734,-0.6663030385971069,0.6748105883598328,0.31728705763816833,0.3057298958301544,-0.03661347180604935,0.5471885800361633,-0.45054882764816284,0.32346516847610474,-0.033916085958480835
351,-1.9634850017909815,-0.7875321254031066,-0.24121007542285783,-0.6518884897232056,0.7086141109466553,0.27001312375068665,0.21075092256069183,0.15666040778160095,-0.1518694907426834,-0.18214154243469238,-0.09981906414031982,0.09168118238449097
352,-1.9225704409965987,-0.7664028801303983,-0.24690032013070806,-0.6762941479682922,0.693548321723938,0.24822720885276794,-0.276922345161438,0.8171647787094116,-0.11285725235939026,0.167077898979187,-0.19302958250045776,-0.012402564287185669
353,-1.8786236385328912,-0.7417034380561118,-0.29577431097827833,-0.7026605010032654,0.6755448579788208,0.2233993411064148,-0.7541202306747437,0.6999969482421875,-0.061517126858234406,0.47358042001724243,-0.3617631793022156,0.04559789597988129
354,-1.9150702717151107,-0.7225165590385026,-0.41018923279038894,-0.7061261534690857,0.6612745523452759,0.25318360328674316,-0.4207707345485687,-0.06356316804885864,0.13643552362918854,-0.022358953952789307,0.1225237250328064,-0.10851499438285828
355,-1.895777253778939,-0.7357361106000336,-0.3588184226322981,-0.7025331854820251,0.6711330413818359,0.2367020696401596,0.7278196215629578,-0.18482589721679688,-0.17813937366008759,-0.5728422403335571,0.21135908365249634,0.2245711386203766
356,-1.8399473342163555,-0.7468578497056547,-0.30806521996438335,-0.7074071168899536,0.6793363094329834,0.1951342523097992,0.07909128069877625,0.2114638388156891,0.14911381900310516,-0.08389842510223389,-0.0766751766204834,0.21259582042694092
357,-1.8781148564576118,-0.7404943106514937,-0.2933394282696092,-0.7035521864891052,0.6746528744697571,0.22328877449035645,-0.009127923287451267,-0.758211612701416,-0.2050727903842926,-0.0735931396484375,0.13658064603805542,-0.05225302278995514
358,-1.8968911645184674,-0.729784384925822,-0.27748190529747,-0.7060402035713196,0.6667089462280273,0.23875974118709564,0.1924940049648285,-0.19179943203926086,-0.11746572703123093,0.32209861278533936,-0.22930055856704712,-0.10887695848941803
359,-1.9260812730900454,-0.7266604100267586,-0.2837291538001806,-0.7007203698158264,0.6643773317337036,0.2599877715110779,-0.2638636827468872,-0.18352369964122772,0.16909681260585785,0.2758088707923889,-0.07888233661651611,-0.17298221588134766
360,-1.9753635851168208,-0.7400508725574514,-0.3030949726890135,-0.67882239818573,0.6743254661560059,0.2906631529331207,-0.004193615168333054,-0.2624486982822418,0.2788134217262268,-0.24386125802993774,0.12163394689559937,-0.10569623112678528
361,-1.9857951930917905,-0.7719663867726224,-0.29340067536709863,-0.6557182669639587,0.69754558801651,0.2889011800289154,0.6418555974960327,-0.2806951403617859,0.10419119149446487,-0.47666704654693604,0.22101831436157227,-0.013846248388290405
362,-1.9438281672077002,-0.7817970477115708,-0.27160237461088377,-0.6608437299728394,0.7045558094978333,0.2586246430873871,-0.507667064666748,0.5600590109825134,-0.17643335461616516,-0.13841164112091064,0.026813209056854248,-0.005740761756896973
363,-1.8747539919502412,-0.7536082938129341,-0.24482494181247405,-0.695796549320221,0.6842744946479797,0.21825604140758514,0.5491297841072083,0.3699711263179779,-0.4227529764175415,0.33884769678115845,-0.23691725730895996,-0.03334999084472656
364,-1.8153790462540285,-0.7317006792832839,-0.20114265629097985,-0.7218953371047974,0.6681360006332397,0.18017016351222992,-0.006364623084664345,-0.0016257897950708866,-0.2601263225078583,0.39026087522506714,-0.314147412776947,0.011449679732322693
365,-1.8224671482102466,-0.7182946121834651,-0.1639842453326352,-0.7292101979255676,0.6581016182899475,0.18749630451202393,0.545571506023407,-0.6233211159706116,-0.13069747388362885,-0.09468811750411987,0.11060571670532227,0.10820376873016357
366,-1.8067034486150135,-0.7217350073369234,-0.11645900251056363,-0.7298691868782043,0.660688042640686,0.17544817924499512,-0.036709073930978775,0.08242279291152954,-0.05659310892224312,-0.5009809136390686,0.3483908176422119,0.2746860682964325
367,-1.8023014658587324,-0.7374027848755269,-0.14057899224383708,-0.7204698920249939,0.6723676919937134,0.16983750462532043,-0.13097326457500458,-0.059862516820430756,0.20843654870986938,-0.12517213821411133,0.04731309413909912,0.13021135330200195
368,-1.852425203685499,-0.7346781269898899,-0.166487964379903,-0.7128127813339233,0.6703483462333679,0.2062300741672516,-0.02748934179544449,-0.2922397255897522,0.030277447775006294,0.034590184688568115,-0.015380144119262695,-0.1316756308078766
369,-1.8673076198194145,-0.734202392105117,-0.15652625118934402,-0.7099698185920715,0.6699952483177185,0.21690843999385834,0.03693664073944092,-0.24314701557159424,-0.006594125181436539,0.40729647874832153,-0.1634644865989685,-0.11290454864501953
370,-1.8954008694062014,-0.7473297336762534,-0.16413791357365448,-0.6952004432678223,0.6796825528144836,0.23394013941287994,0.07612758874893188,-0.33007022738456726,0.2100730687379837,0.13164764642715454,-0.03466302156448364,-0.20226289331912994
371,-1.9182702575381578,-0.7747344884617104,-0.14387662956024316,-0.6718989610671997,0.6995263695716858,0.2433406114578247,0.3281210958957672,-0.30709308385849,0.19884218275547028,-0.3011540174484253,0.09457153081893921,-0.04444229602813721
372,-1.9023196497534323,-0.801901352203549,-0.09110340633974799,-0.6574785113334656,0.7186794877052307,0.22632238268852234,0.5757993459701538,0.07228946685791016,0.02919582836329937,-0.4676588177680969,0.1331881880760193,0.14724338054656982
373,-1.8707168635967877,-0.7915993867645339,-0.11163141977621213,-0.6713392734527588,0.711478054523468,0.20761112868785858,-0.6893563866615295,0.4537922143936157,-0.2002982348203659,-0.015748679637908936,0.10740000009536743,0.06553636491298676
374,-1.8309350371142554,-0.7590089909287366,-0.09883671350839578,-0.7011079788208008,0.6882027983665466,0.18661396205425262,0.3095094561576843,0.33592239022254944,-0.35221391916275024,0.2909058928489685,-0.19751060009002686,0.034409523010253906
375,-1.7948762096927302,-0.7314361512069639,-0.1061623916231415,-0.7256097793579102,0.6679391264915466,0.16537173092365265,-0.7326875925064087,0.3691835105419159,-0.16278861463069916,0.48592472076416016,-0.29264920949935913,0.13818657398223877
376,-1.836336078237714,-0.7132180728051273,-0.21331395423151284,-0.7297540903091431,0.6542708277702332,0.1984654814004898,-0.7447431683540344,0.3189682066440582,0.1432582437992096,0.014757752418518066,0.13994908332824707,0.006490468978881836
377,-1.839811328734869,-0.7112877387403951,-0.21863905725281432,-0.7302760481834412,0.6528097987174988,0.2013356238603592,0.45613619685173035,-0.2046315222978592,-0.15709759294986725,-0.5018405914306641,0.28098219633102417,0.1922191083431244
378,-1.806352719315256,-0.720274856587994,-0.12965335813139814,-0.7308679223060608,0.6595912575721741,0.17541712522506714,0.490689218044281,-0.7018711566925049,-0.1914176195859909,-0.37151849269866943,0.016571342945098877,0.2617013454437256
379,-1.8893283362761017,-0.6923042593960389,-0.1223489599883426,-0.7310546040534973,0.6383126378059387,0.24107328057289124,-0.4056541919708252,-0.7914919257164001,-0.19952674210071564,0.059027016162872314,-0.12268763780593872,-0.1402432918548584
380,-1.976700108190472,-0.6473913763923087,-0.18839810423848546,-0.732846736907959,0.6031076908111572,0.3149554133415222,-0.6693522930145264,-0.4842424988746643,-0.7134175896644592,0.24290227890014648,-0.13623452186584473,-0.28410208225250244
381,-1.9114618953931808,-0.5075819364086065,-0.17278028139597792,-0.8237003087997437,0.48606547713279724,0.29199016094207764,-0.1051657497882843,1.2166653871536255,-0.9758003354072571,0.6359409093856812,0.27540913224220276,-0.42071330547332764
382,-1.7674571426253725,-0.5377577817167932,-0.17318794720292585,-0.8423042893409729,0.5122115015983582,0.16781732439994812,0.0030028047040104866,0.7332208156585693,2.248781442642212,0.16830837726593018,0.1840469241142273,-0.1148846298456192
383,-1.7308776510018562,-0.7729278281691604,-0.04912951626980347,-0.7067166566848755,0.6982342004776001,0.11410852521657944,2.738069772720337,-0.002947860863059759,0.9125428199768066,-1.0241641998291016,-0.17795521020889282,0.22068454325199127
384,-1.5310744154831308,-0.8615959603898756,0.025511046495376388,-0.6507132649421692,0.7588828802108765,-0.02586117759346962,-1.1051210165023804,0.9004814624786377,-0.1412995606660843,-0.17971569299697876,0.01997143030166626,0.09264886379241943
385,-1.5953152828293544,-0.8210428192402758,-0.11071752635726288,-0.6812536716461182,0.7318568825721741,0.016706977039575577,-0.7929979562759399,0.24199238419532776,-0.6213074326515198,0.23368293046951294,-0.2558741569519043,0.02076864242553711
386,-1.6269857271407189,-0.7302125579337261,-0.1506468121681363,-0.74385666847229,0.66702800989151,0.04184090346097946,-0.2175370305776596,0.2808089256286621,-0.8991490602493286,0.5327972173690796,-0.18201225996017456,0.0028215572237968445
387,-1.5913089768284845,-0.7308560139826251,-0.1870729640856325,-0.7444465160369873,0.6675072908401489,0.015272713266313076,-0.040700748562812805,0.8028081655502319,0.6861301064491272,0.23381119966506958,0.1701543927192688,-0.08454763889312744
388,-1.574490715832958,-0.7727423809924221,-0.10466170603664415,-0.715994119644165,0.6981014013290405,0.0026451728772372007,0.9497520327568054,-0.8174234628677368,-0.025001954287290573,-0.43901991844177246,0.23302042484283447,0.11649537086486816
389,-1.496138760267944,-0.8216005407153225,-0.042201016334700414,-0.6791529655456543,0.7322368025779724,-0.05079832300543785,0.7741266489028931,1.1507821083068848,0.5487843751907349,-0.4632878303527832,-0.023588180541992188,0.13739192485809326
390,-1.3806739559711363,-0.8242879172964686,0.10467020812756213,-0.6668436527252197,0.7340644001960754,-0.12833188474178314,0.681030809879303,-0.9544493556022644,-0.2410348355770111,-0.12484335899353027,0.024526238441467285,0.18098998069763184
391,-1.4815817808898832,-0.7863387253102326,0.08735547215590345,-0.7036318182945251,0.7077715396881104,-0.06294126808643341,-0.3069687783718109,-0.8320748805999756,-0.7546743750572205,0.18368864059448242,-0.32540154457092285,-0.023316621780395508
392,-1.6793151262208592,-0.6699393804196112,-0.0004508834780959974,-0.7792482376098633,0.6209384799003601,0.08489660173654556,-0.7294081449508667,-2.8135321140289307,-1.6860852241516113,0.04053986072540283,0.009966671466827393,-0.22623872756958008
393,-1.8683495012660425,-0.523235361665117,-0.09969487267934302,-0.8281428813934326,0.49968522787094116,0.2539560794830322,-1.0439834594726562,0.7499521970748901,-0.19641219079494476,0.38226592540740967,0.18815037608146667,-0.367115318775177
394,-1.7616949560775255,-0.6251858381014905,-0.13160394742891815,-0.7961244583129883,0.5852479934692383,0.15385253727436066,0.5091745257377625,0.6954385638237,2.9004247188568115,-0.17051976919174194,0.33114904165267944,0.012483462691307068
395,-1.6854017482788002,-0.7798081985691716,0.07673893650560264,-0.7063839435577393,0.7031430602073669,0.08131173998117447,1.8240280151367188,-0.26029086112976074,0.24486790597438812,-0.48696017265319824,-0.26933568716049194,0.323183536529541
396,-1.6459758571052763,-0.748590631454139,0.15096347694598555,-0.7305791974067688,0.6806068420410156,0.05502831190824509,-0.43289607763290405,0.10033833980560303,-0.5645571947097778,0.043079257011413574,-0.21039211750030518,0.21782933175563812
397,-1.6763645375168739,-0.6847749132440888,0.06057807136981117,-0.7702492475509644,0.6324986815452576,0.08161725848913193,-0.9981210231781006,0.5042724609375,-0.6917686462402344,0.3395853042602539,-0.21262264251708984,-0.040082819759845734
398,-1.7085391503557967,-0.5950324375294527,-0.10663299711002279,-0.820286750793457,0.5605356097221375,0.11370866000652313,-1.6658879518508911,0.5696033835411072,-0.4020402729511261,0.4453171491622925,0.22889310121536255,-0.1474001258611679
399,-1.7019022075463792,-0.630754579953205,-0.13714368761620463,-0.8006519675254822,0.5897542834281921,0.10557577759027481,1.1223119497299194,-0.41477563977241516,0.8427945971488953,-0.05423694849014282,0.2075631022453308,-0.0279848650097847
400,-1.680280599417153,-0.692516266907996,0.041055455894106564,-0.7650337219238281,0.6384758353233337,0.08409544080495834,1.4125887155532837,0.5863639712333679,0.47653621435165405,-0.5706138610839844,0.07883983850479126,0.26903867721557617
401,-1.5905132536938646,-0.7267189754658976,0.1391501261491388,-0.7472130060195923,0.6644211411476135,0.014734653756022453,0.2557518780231476,-0.357466459274292,-0.07360267639160156,-0.19324707984924316,-0.1639176607131958,0.13207018375396729
402,-1.654680409888044,-0.6989479420214201,0.12161040974082543,-0.7628278732299805,0.6434126496315002,0.06413962692022324,-0.428946316242218,-0.36676135659217834,-0.2674694359302521,0.1036786437034607,-0.17946916818618774,-0.043067216873168945
403,-1.698488283163299,-0.6535572225092237,0.05329941604475042,-0.7874622344970703,0.6080144047737122,0.10110269486904144,-0.9131991267204285,0.35013547539711,-0.34495311975479126,0.4017353057861328,-0.09599053859710693,-0.07801616191864014
404,-1.749943703616165,-0.6293258136516287,-0.08652613101163348,-0.7954865097999573,0.5885998606681824,0.14405371248722076,-1.2192691564559937,0.22400623559951782,0.1304498314857483,0.24984747171401978,0.19054442644119263,-0.15262913703918457
405,-1.8003719177875135,-0.6587951105574653,-0.14553577309114066,-0.7699840664863586,0.6121645569801331,0.17994199693202972,0.3536498248577118,-0.5104613900184631,0.5300320386886597,-0.23207581043243408,0.20988750457763672,-0.19381225109100342
406,-1.790007972719533,-0.7374159168985999,-0.05429815446646764,-0.7224947810173035,0.6723774075508118,0.1609659045934677,1.5195878744125366,-0.1430198848247528,0.4924727976322174,-0.5393765568733215,0.03468441963195801,0.1040945053100586
407,-1.7412386061530014,-0.7471747465723808,-0.04235324857929176,-0.722981333732605,0.6795688271522522,0.12443388253450394,-0.9469753503799438,0.6110836863517761,-0.4582742154598236,-0.2166089415550232,-0.08404898643493652,0.13908538222312927
408,-1.7517422247603498,-0.6768718795611743,-0.1301253970601006,-0.7668090462684631,0.6263576149940491,0.14028535783290863,-0.5901678204536438,0.7934918403625488,-0.5874704718589783,0.3795868158340454,-0.28286707401275635,0.020237073302268982
409,-1.737232890527103,-0.6119103220752257,-0.2508299210950781,-0.8072408437728882,0.5744321942329407,0.13560888171195984,-1.4287960529327393,0.8028342723846436,-0.2115989774465561,0.48932403326034546,-0.03402698040008545,0.08245442807674408
410,-1.7932632142063563,-0.6107255544511128,-0.4118084131256141,-0.7990429997444153,0.5734620094299316,0.18075239658355713,-0.6890993118286133,0.28694355487823486,0.5042568445205688,0.07664626836776733,0.15407699346542358,-0.09054245054721832
411,-1.77835855861609,-0.6658557802569277,-0.3440398083023114,-0.7695096135139465,0.6177323460578918,0.16205506026744843,1.6034339666366577,-1.1134166717529297,0.30362841486930847,-0.691992461681366,0.27113789319992065,0.025170311331748962
412,-1.7064538006055394,-0.7141195017080895,-0.16725486234088832,-0.7487276196479797,0.6549522876739502,0.10219818353652954,0.5139161944389343,-0.10638490319252014,-0.051849886775016785,-0.36348551511764526,-0.1323387622833252,0.31943273544311523
413,-1.7038261317769554,-0.6902659074038143,-0.21614452398206407,-0.7642641663551331,0.6367422342300415,0.10227393358945847,-1.0247290134429932,0.9935042858123779,-0.16101402044296265,0.1803101897239685,-0.05498558282852173,0.15324975550174713
414,-1.7545751078247396,-0.6488765270645301,-0.3643524841263371,-0.7833458185195923,0.6042916178703308,0.14560529589653015,-1.3543840646743774,0.24945004284381866,-0.12088590115308762,0.4111992120742798,-0.15041899681091309,0.011209249496459961
415,-1.8513171489511115,-0.6341242165395932,-0.48736212533037143,-0.7741015553474426,0.5924721956253052,0.22303281724452972,-0.4385750889778137,-0.5743402242660522,0.19170430302619934,0.26200127601623535,0.059993624687194824,-0.2598675489425659
416,-1.9108576602017233,-0.6702658665875155,-0.46994437178103055,-0.7387797832489014,0.6211943626403809,0.26138463616371155,0.8961182832717896,-0.6726598739624023,0.3231827914714813,-0.23645514249801636,0.14159244298934937,-0.32052770256996155
417,-1.8881465847034435,-0.7435167345510426,-0.30344365422736586,-0.6993362307548523,0.6768807172775269,0.22969786822795868,2.127696990966797,-1.0257412195205688,0.1456095278263092,-0.5694472789764404,0.22027498483657837,-0.034034520387649536
418,-1.7771167574181705,-0.7574724802644223,-0.09862761824481499,-0.7111653089523315,0.6870872378349304,0.14884598553180695,0.4916973114013672,0.15237975120544434,-0.7183038592338562,-0.10063278675079346,0.054016947746276855,0.315280556678772
419,-1.7459709732718465,-0.6906847445322402,-0.14796774489104436,-0.7590134143829346,0.6370651125907898,0.13433681428432465,-0.8033086061477661,1.6641920804977417,-0.49482712149620056,0.2899583578109741,-0.09186869859695435,0.045762643218040466
420,-1.633270790316407,-0.6570988223528655,-0.24786253580326148,-0.7902230620384216,0.6108223795890808,0.04943309351801872,-1.1763019561767578,0.8873603940010071,-0.215402752161026,0.5690163373947144,-0.26095354557037354,0.23027575016021729
421,-1.715119472106778,-0.6481678532582243,-0.4178918971145207,-0.7889034748077393,0.603726863861084,0.11465418338775635,-1.3549118041992188,-0.011158856563270092,0.2591054439544678,0.12813669443130493,0.02669006586074829,0.027664557099342346
422,-1.7721317013098046,-0.6700254703571956,-0.5011243250157611,-0.7679732441902161,0.6210059523582458,0.1567438393831253,0.1191084235906601,-0.10892795026302338,0.22702331840991974,-0.5833297967910767,0.047695159912109375,-0.07777966558933258
423,-1.7212044563961635,-0.7082140473584979,-0.40674700557431154,-0.750949501991272,0.6504783630371094,0.11380842328071594,1.135101318359375,-0.29285240173339844,0.15623041987419128,-0.4087488055229187,-0.1446954607963562,0.14252397418022156
424,-1.7080439476640645,-0.6910024831395004,-0.3201806690173318,-0.7633609771728516,0.6373100280761719,0.10543231666088104,-0.12695033848285675,-0.40044790506362915,-0.5149019956588745,-0.09404563903808594,0.08658218383789062,0.16609787940979004
425,-1.7246141382756874,-0.6344495378651375,-0.36333658940751146,-0.7958889603614807,0.5927342772483826,0.1233966201543808,-0.5672286152839661,0.17213928699493408,-0.45811280608177185,0.361883282661438,-0.15138912200927734,-0.06083560734987259
426,-1.742925095549412,-0.5965124409297845,-0.3994321075524168,-0.8150744438171387,0.561760663986206,0.14169998466968536,-0.30203667283058167,-0.20237915217876434,-0.12280838191509247,0.4741929769515991,-0.0013968348503112793,-0.0969763845205307
427,-1.790125489833423,-0.5996288219441772,-0.439808164633661,-0.8057681918144226,0.5643360614776611,0.17961794137954712,-0.22166433930397034,-0.3910357356071472,0.33142659068107605,0.024136602878570557,0.23319512605667114,-0.1459723562002182
428,-1.8456149285235757,-0.6519730398197539,-0.4014321187286523,-0.7650593519210815,0.6067559123039246,0.2157106250524521,1.0480005741119385,-0.9768439531326294,0.42699283361434937,-0.4490060806274414,0.2777349352836609,-0.06228356063365936
429,-1.796383591835458,-0.7067033306692259,-0.2935659596439504,-0.7412375211715698,0.6493301391601562,0.17010918259620667,-0.16165116429328918,0.6583167314529419,0.06829628348350525,-0.1480751633644104,-0.14490514993667603,0.22361336648464203
430,-1.7551447509470657,-0.6858991217202658,-0.344526193779255,-0.7607377767562866,0.6333690285682678,0.14185136556625366,-0.4860251247882843,0.7887895703315735,-0.2053603231906891,0.18374192714691162,-0.1130138635635376,0.06348609924316406
431,-1.6994130719962948,-0.657987243557386,-0.4103565391008733,-0.7846894264221191,0.6115255355834961,0.10148441046476364,-0.6406002044677734,0.9371895790100098,-0.14945636689662933,0.43460702896118164,-0.2445516586303711,0.10141170024871826
432,-1.7059882851376196,-0.6452943549601817,-0.4985087548787449,-0.7916328310966492,0.6014336347579956,0.10767920315265656,-0.5558100938796997,-0.13537393510341644,0.1715928465127945,0.16220790147781372,0.08566957712173462,0.04104815423488617
433,-1.7434418581336628,-0.6728824086938814,-0.48768537437904647,-0.7704024910926819,0.6232426762580872,0.1343439817428589,0.7336000800132751,-0.18759852647781372,0.13211974501609802,-0.46041709184646606,0.01851135492324829,0.03125964105129242
434,-1.6892627200226233,-0.6929332932253697,-0.414848765387409,-0.7639831304550171,0.6387967467308044,0.09093211591243744,0.18019816279411316,0.3462379574775696,0.2488061487674713,-0.10717165470123291,-0.15071386098861694,0.20583605766296387
435,-1.67302206743374,-0.70990613007317,-0.33651018734927446,-0.7544635534286499,0.6517626047134399,0.07739537954330444,1.0138988494873047,-1.4766148328781128,-0.29159310460090637,-0.5663066506385803,0.1902782917022705,0.10323809087276459
436,-1.7321721692304493,-0.6501216356204113,-0.3460111903632777,-0.7856676578521729,0.605283260345459,0.12789997458457947,-0.990057647228241,0.6174779534339905,-0.7796077728271484,0.2630541920661926,-0.22013622522354126,-0.06166161596775055
437,-1.7052841041545814,-0.5561872911255122,-0.46503819473341496,-0.8416054248809814,0.5279520153999329,0.11387301236391068,-1.0621486902236938,0.739769697189331,-0.5382871627807617,0.607154130935669,0.05797022581100464,-0.07711458206176758
438,-1.752364361104155,-0.5306380309601958,-0.5698506937326888,-0.8483067154884338,0.5060837268829346,0.15574058890342712,-0.48139187693595886,-0.1880885511636734,0.27889391779899597,0.29700666666030884,0.19101405143737793,-0.1337374448776245
439,-1.860983898902298,-0.5996774194072991,-0.5490929011202365,-0.7910028696060181,0.5643762350082397,0.23620696365833282,1.4022499322891235,-1.9429936408996582,0.4218270182609558,-0.6270878314971924,0.343262255191803,-0.1886911690235138
440,-1.7801686266923542,-0.6608666316788399,-0.3620444774108228,-0.7722198963165283,0.6138012409210205,0.16408616304397583,0.16862167418003082,0.4471583664417267,0.014424937777221203,-0.25429975986480713,-0.23358279466629028,0.25440144538879395
441,-1.7731656964913178,-0.6242761548033207,-0.3873751039390372,-0.7948285937309265,0.584510087966919,0.1630813032388687,-0.6017856597900391,0.09429033100605011,-0.4567587077617645,0.037977397441864014,-0.18791890144348145,0.03024756908416748
442,-1.748267656910577,-0.5634584550373261,-0.4918453124296714,-0.8321341872215271,0.5341132283210754,0.14925019443035126,-1.6003012657165527,1.1284630298614502,-0.39625084400177,0.4980735778808594,-0.2929939031600952,0.06742464005947113
443,-1.7719278904458837,-0.5140806953862,-0.6730307559839939,-0.8531920313835144,0.4917345643043518,0.17395593225955963,-1.1425975561141968,0.3328520357608795,0.130151629447937,0.3667876124382019,0.1003827452659607,-0.14475059509277344
444,-1.7868726493701825,-0.5352813573480204,-0.6342420246044538,-0.8401240706443787,0.5100830793380737,0.18440985679626465,1.8054755926132202,-1.1276445388793945,0.16530464589595795,-0.43357282876968384,0.20508110523223877,-0.20073676109313965
445,-1.7463759322849806,-0.5856132609481747,-0.40479924948437146,-0.8205606937408447,0.5527105331420898,0.1455727219581604,1.8483641147613525,-0.7068372964859009,0.014128493145108223,-0.3043783903121948,0.004860877990722656,0.24409092962741852
446,-1.7590152837961996,-0.5942121788006367,-0.29159505738995745,-0.8139562010765076,0.5598561763763428,0.15503711998462677,-0.03041696920990944,-0.4372591972351074,-0.23470550775527954,-0.3645564317703247,0.18240761756896973,0.10453009605407715
447,-1.7625498357693719,-0.5606299482178384,-0.30359213789633926,-0.8313974738121033,0.5317198038101196,0.1614065170288086,-0.2930467128753662,0.39517197012901306,-0.3900228440761566,0.4178996682167053,-0.3058897852897644,-0.05757047235965729
448,-1.7515872975472455,-0.5190728076244332,-0.34118582930798896,-0.8541280031204224,0.496075302362442,0.1561233401298523,-0.5991505980491638,0.10531329363584518,-0.1881093829870224,0.5845205783843994,-0.019100844860076904,-0.056727662682533264
449,-1.8101125516466139,-0.5307471855254159,-0.45932080599112013,-0.8378499150276184,0.5061779022216797,0.2044287621974945,-0.5498133301734924,-1.0357855558395386,0.6057727336883545,-0.10323572158813477,0.34445375204086304,-0.22365491092205048
450,-1.8456544203813672,-0.6028387000761054,-0.36430902626091327,-0.7928097248077393,0.5669831037521362,0.22356872260570526,1.8501731157302856,-0.2923073172569275,0.14054428040981293,-0.6113192439079285,0.060244739055633545,0.0042144060134887695
451,-1.7911607430437144,-0.6104990486379472,-0.26335093820710703,-0.7995482087135315,0.5732764601707458,0.17910046875476837,-0.03628949075937271,-0.02536594308912754,-0.5091753602027893,-0.4134950041770935,0.07342159748077393,0.19795942306518555
452,-1.7812023667563612,-0.5426648132878674,-0.2647374951942765,-0.8374500870704651,0.5164197683334351,0.1788516789674759,0.01878160983324051,0.24237732589244843,-0.7234073281288147,0.34103596210479736,-0.15049874782562256,0.04920613765716553
453,-1.7271189714051112,-0.47797531908486873,-0.3014031935168404,-0.8771011829376221,0.45998233556747437,0.13823865354061127,-1.0391303300857544,0.7754189372062683,-0.477844774723053,0.7291823625564575,-0.13878479599952698,0.08945299685001373
454,-1.7347421302061021,-0.47268826611228987,-0.43521584173806827,-0.8784089088439941,0.45528140664100647,0.1453157365322113,-1.3555686473846436,0.4965992867946625,0.6853784918785095,0.28641366958618164,0.20884212851524353,-0.02852499485015869
455,-1.7665336932665385,-0.5441688064917853,-0.4256672613125208,-0.8392205238342285,0.517707109451294,0.1663973331451416,1.819133996963501,-0.8910254240036011,0.19284692406654358,-0.6649907827377319,0.08684605360031128,-0.1191408783197403
456,-1.6982967195123937,-0.5967299931744958,-0.2686511865422833,-0.8204632997512817,0.561940610408783,0.10517995804548264,0.9059061408042908,-0.3265961706638336,0.24774767458438873,-0.39612001180648804,0.04838043451309204,0.3351123332977295
457,-1.7374161440001346,-0.5745292526162558,-0.283982004442565,-0.8278229236602783,0.5434396862983704,0.13922245800495148,-1.4210572242736816,0.2715716063976288,-0.2702622413635254,-0.1178101897239685,0.1616538166999817,-0.004121154546737671
458,-1.7401627583195678,-0.5316358545201655,-0.37894613662230264,-0.8496455550193787,0.5069441199302673,0.14529334008693695,-0.3614550828933716,0.7435585260391235,-0.43823814392089844,0.5130977034568787,-0.20758193731307983,-0.10067665576934814
459,-1.7273183197569497,-0.49695816132857995,-0.4719565090605899,-0.8682911396026611,0.4767538607120514,0.13702751696109772,-1.307897925376892,0.5817424058914185,0.07226312905550003,0.5508319139480591,-0.019051164388656616,0.01351572573184967
460,-1.7824202453049345,-0.5214111589289983,-0.6542608883721963,-0.8477727174758911,0.4981042742729187,0.18213610351085663,-0.7241647839546204,-0.7000629305839539,0.8506089448928833,-0.1745660901069641,0.2970312237739563,-0.31569623947143555
461,-1.8308998946042399,-0.6145517905472713,-0.5408256936533242,-0.7895500063896179,0.5765923857688904,0.21012486517429352,2.323499917984009,-0.8151191473007202,0.33557283878326416,-0.6692514419555664,0.1176062822341919,0.055088192224502563
462,-1.7777512387199754,-0.6433382464085946,-0.4090570265129801,-0.7830246090888977,0.5998697280883789,0.16440469026565552,-0.6382707953453064,0.4320373833179474,-0.22762319445610046,-0.2225601077079773,-0.0813455581665039,0.35575222969055176
463,-1.7878416033920062,-0.5905639130607397,-0.5275548210947965,-0.8111387491226196,0.5568295121192932,0.1788714975118637,-1.0503721237182617,0.7300121784210205,-0.32908347249031067,0.28559553623199463,-0.2278347611427307,-0.03347039222717285
464,-1.7357007261360857,-0.5396508380860402,-0.6534183814283248,-0.8462501168251038,0.5138365030288696,0.14082923531532288,-1.2682416439056396,1.2579443454742432,-0.19210568070411682,0.49909740686416626,-0.15137922763824463,0.03023707866668701
465,-1.7576949734362965,-0.5319739871961815,-0.7193993548930862,-0.8467993140220642,0.5072355270385742,0.16013456881046295,0.18990932404994965,-0.4884220063686371,0.1914542317390442,0.1762060523033142,0.013852119445800781,-0.15319180488586426
466,-1.7665845806658942,-0.5603437266163923,-0.6560363692704171,-0.8308888673782349,0.5314773917198181,0.16478930413722992,1.2941941022872925,-0.8470579981803894,0.012583089992403984,-0.44964396953582764,0.10696560144424438,-0.08669483661651611
467,-1.7311188794974282,-0.5875837782042969,-0.482205793175733,-0.8216092586517334,0.5543516874313354,0.13286279141902924,1.2625811100006104,0.03591299057006836,0.0804775208234787,-0.4013979434967041,0.06211864948272705,0.27822422981262207
468,-1.7304990434078331,-0.5649897719191084,-0.4719467990568121,-0.8338462710380554,0.5354071855545044,0.13431133329868317,-0.7617090940475464,0.039855170994997025,-0.1873771846294403,0.010100603103637695,0.2736138105392456,-0.0006443262100219727
469,-1.7462173397449408,-0.5427770926841107,-0.48278261052949006,-0.8431363105773926,0.5165159702301025,0.14943985641002655,0.10866984724998474,0.05889389291405678,-0.23719578981399536,0.39613020420074463,-0.19353324174880981,-0.03454114496707916
470,-1.7552288335154869,-0.528588948093087,-0.5210402121885346,-0.8488746285438538,0.5043153762817383,0.15835972130298615,-0.8053025007247925,0.053802210837602615,0.08857543021440506,0.39549028873443604,-0.06522846221923828,-0.0042154788970947266
471,-1.806087799297526,-0.5407767344617501,-0.624330315518123,-0.8336870670318604,0.5148020386695862,0.19986139237880707,-0.908824622631073,-0.013553885743021965,0.48251017928123474,0.03788024187088013,0.15154922008514404,-0.12272824347019196
472,-1.8587757007899044,-0.5956227463394452,-0.6427588725777692,-0.7937102913856506,0.5610243678092957,0.23510773479938507,0.9297664761543274,-0.609630286693573,0.5346655249595642,-0.47025150060653687,0.09890300035476685,-0.1003115177154541
473,-1.8425502993151075,-0.6375519248268899,-0.5828695863800728,-0.774066150188446,0.5952300429344177,0.2156914919614792,-0.7545878291130066,0.5687481760978699,0.047934845089912415,-0.26498109102249146,-0.18389886617660522,0.2979956865310669
474,-1.843867394724543,-0.5805863435262315,-0.6731300311419743,-0.8051597476005554,0.5485143065452576,0.22549887001514435,-0.5910466909408569,0.19157032668590546,-0.545598030090332,0.057738542556762695,0.021843910217285156,-0.07256008684635162
475,-1.8285585908662858,-0.5025048902096253,-0.7722919111411055,-0.8474256992340088,0.48162227869033813,0.2234041839838028,-1.75055992603302,1.2615455389022827,-0.3830454647541046,0.4667496085166931,-0.1689240038394928,0.04394502937793732
476,-1.7955770583483714,-0.45443427089371763,-0.9261981638602269,-0.8759057521820068,0.43895408511161804,0.2002711445093155,-0.816984236240387,0.4391532838344574,0.21596990525722504,0.49625182151794434,0.047755539417266846,-0.2299189567565918
477,-1.79048147482868,-0.5054938580257534,-0.8911738911527928,-0.8539074063301086,0.4842396080493927,0.1906680017709732,1.793350338935852,-1.1419410705566406,0.46749815344810486,-0.11700934171676636,0.1915416717529297,-0.215600848197937
478,-1.7832275047331925,-0.5874962452517103,-0.6213009853645008,-0.8136212825775146,0.5542787909507751,0.1754862368106842,2.6342966556549072,-0.4713028371334076,0.12138942629098892,-0.5768663883209229,0.11597871780395508,0.17592370510101318
479,-1.6307578741293607,-0.6226096298106018,-0.4245428306475889,-0.8108994960784912,0.5831571221351624,0.048681143671274185,0.38519665598869324,0.5664570331573486,-0.31090641021728516,-0.2583601474761963,-0.051662981510162354,0.7017003297805786
480,-1.7003138248774394,-0.5690966659791336,-0.44366943658676716,-0.8353326320648193,0.5388712882995605,0.10879923403263092,-0.2566371262073517,-0.37461861968040466,-0.48883557319641113,0.14398741722106934,-0.03830671310424805,0.03968405723571777
481,-1.7174881214778304,-0.5206998387054071,-0.4904837397007184,-0.8581545948982239,0.497487336397171,0.12679502367973328,-0.8975639343261719,0.4348514676094055,-0.3035951554775238,0.5388949513435364,-0.1274159550666809,0.08887267112731934
482,-1.764823579116717,-0.5021000689085551,-0.6507680135639756,-0.8601253628730774,0.48126745223999023,0.16901403665542603,-1.5450117588043213,0.027924954891204834,0.35496488213539124,0.3342466354370117,0.1291297972202301,-0.11348727345466614
483,-1.8566656003103739,-0.536378208554501,-0.790726300635847,-0.8246812224388123,0.5110262036323547,0.24239008128643036,-0.008631984703242779,-0.602146565914154,0.6721690893173218,-0.41593456268310547,0.288763165473938,-0.37483644485473633
484,-1.8513551336842495,-0.6189203880757685,-0.6703771552894865,-0.7826589345932007,0.580156147480011,0.22553056478500366,1.369414210319519,-0.22822760045528412,0.290976345539093,-0.5139415264129639,-0.04985213279724121,0.11321452260017395
485,-1.8014756894960653,-0.6073248732959072,-0.6592027301578397,-0.7994256019592285,0.5706727504730225,0.18775317072868347,-0.544183075428009,0.4240902364253998,-0.39510148763656616,-0.11678832769393921,0.07240885496139526,0.11327217519283295
486,-1.7795187398287178,-0.5611577779955145,-0.7124054822976799,-0.828264594078064,0.5321667790412903,0.17543238401412964,-0.5985054969787598,0.9114398956298828,-0.36774104833602905,0.4167959690093994,-0.2865612506866455,0.03240765631198883
487,-1.7229426689725982,-0.5172976600072452,-0.812382409833351,-0.8591185212135315,0.4945331811904907,0.13172975182533264,-1.0390223264694214,0.6757701635360718,-0.05349862575531006,0.5315426588058472,-0.03300049901008606,0.051787763833999634
488,-1.7701483369984916,-0.5429948475874282,-0.8802642547975097,-0.8392089605331421,0.51670241355896,0.16955000162124634,0.18069906532764435,-0.7105071544647217,0.6768158078193665,-0.06304335594177246,0.2126220464706421,-0.07737158238887787
489,-1.7652491305236886,-0.6050538970591264,-0.7686730076956656,-0.8069707751274109,0.5688064098358154,0.1589258909225464,1.4006527662277222,-0.21916036307811737,0.1807720810174942,-0.5097406506538391,0.14225316047668457,0.09966480731964111
490,-1.690035113652229,-0.6497538860037083,-0.6406961721740511,-0.790579080581665,0.6049904823303223,0.09471700340509415,0.8748349547386169,-0.007651063147932291,0.05820373445749283,-0.38350844383239746,-0.024088382720947266,0.22733497619628906
491,-1.702673480765076,-0.6322314635269571,-0.5762880898891375,-0.799705982208252,0.5909463763237,0.1060786172747612,0.10356287658214569,-0.49490299820899963,-0.2966945767402649,0.07869768142700195,-0.08910012245178223,0.024200908839702606
492,-1.7236895273715573,-0.6016646912001583,-0.5598330043100007,-0.8147777318954468,0.5660156011581421,0.12555383145809174,-0.0004080086946487427,-0.2740687429904938,-0.2741241753101349,0.4952585697174072,-0.15643912553787231,0.006602540612220764
493,-1.7768754398138173,-0.5910646579763926,-0.6057072449162373,-0.8127781748771667,0.5572453737258911,0.16990870237350464,-0.6958619356155396,-0.1509866863489151,0.24111559987068176,0.2981145977973938,-0.010065317153930664,-0.1085532009601593
