,attitude.roll,attitude.pitch,attitude.yaw,gravity.x,gravity.y,gravity.z,rotationRate.x,rotationRate.y,rotationRate.z,userAcceleration.x,userAcceleration.y,userAcceleration.z
0,-1.59739992798302,-0.28314227187700747,-2.488626987297112,-0.9598425030708313,0.2793741822242737,0.025541292503476143,0.882115364074707,0.17768149077892303,0.0747096836566925,0.08299624919891357,-0.22320660948753357,0.2117786407470703
1,0.40753241175981275,0.5312575256597689,2.5572652971417655,0.34171706438064575,-0.5066179633140564,-0.7915602922439575,-0.9416576027870178,1.5926553010940552,0.02989310957491398,0.11551254987716675,-0.2414746880531311,-0.16328895092010498
2,0.5015575598528041,0.4549952623642019,2.602380388924784,0.43187758326530457,-0.43945807218551636,-0.7876283526420593,-0.28022122383117676,1.5377827882766724,-0.2814953327178955,-0.030861347913742065,0.09496039152145386,-0.22915637493133545
3,0.7525380224542247,0.416297448893852,2.674518234965541,0.6251181364059448,-0.40437689423561096,-0.6676127314567566,-0.8724417686462402,3.5467190742492676,0.18672014772891998,-0.10526639223098755,0.11772531270980835,-0.006520569324493408
4,0.991865802472365,0.40979808888045505,2.7251662266501904,0.7677417993545532,-0.3984241485595703,-0.5018274784088135,-0.45256316661834717,2.3716132640838623,0.15650208294391632,-0.11956369876861572,0.03183174133300781,0.13825631141662598
5,1.1521251740800589,0.42370300074514883,2.7736184208782673,0.8328401446342468,-0.4111388325691223,-0.37059688568115234,-0.3841363489627838,1.414686918258667,0.5055764317512512,-0.1681215763092041,0.04756772518157959,0.06445983052253723
6,1.224237217741494,0.43671499069406383,2.819066049407615,0.8522728085517883,-0.42296504974365234,-0.30778467655181885,-0.288316547870636,0.7040725946426392,-0.07304280251264572,-0.10483640432357788,-0.10823911428451538,-0.11422762274742126
7,1.2984415321149254,0.4267413648669065,2.844042627319759,0.8767651319503784,-0.41390660405158997,-0.24487607181072235,-0.014211785048246384,0.5873106718063354,-0.09457497298717499,0.08508789539337158,-0.16157859563827515,-0.14921265840530396
8,1.3761365124589424,0.36167226483649956,2.8278069514373856,0.9176416993141174,-0.35383880138397217,-0.18091890215873718,0.004969674628227949,0.3257673680782318,-0.47275036573410034,0.20453530550003052,0.14184850454330444,0.10891273617744446
9,1.4081079188914967,0.2836368437009991,2.8602000157575103,0.9473671317100525,-0.27984902262687683,-0.15549997985363007,-0.3825415074825287,0.7350013852119446,-0.8940759897232056,-0.06510382890701294,0.05209630727767944,-0.15594716370105743
10,1.4483173426388398,0.2305420622587447,2.896636261372943,0.9662496447563171,-0.22850528359413147,-0.11894062161445618,-0.28376761078834534,0.38867291808128357,-0.44885003566741943,-0.18686127662658691,0.01241031289100647,-0.006318800151348114
11,1.4534541615042287,0.16669194882320357,2.9103196408706586,0.9793575406074524,-0.16592106223106384,-0.11545030772686005,-0.3017113208770752,0.10289335250854492,-0.5171091556549072,-0.11983007192611694,-0.09828485548496246,-0.08376847207546234
12,1.4643763230528686,0.10084261525527978,2.9036495092055854,0.9892911314964294,-0.10067178308963776,-0.10567961633205414,0.21014967560768127,-0.010751083493232727,-0.45915791392326355,0.13377094268798828,-0.08753010630607605,-0.04410063475370407
13,1.4936641413813925,0.047457240124080174,2.8970007333268835,0.9959043264389038,-0.04743942990899086,-0.0769689753651619,-0.08721128106117249,0.14428606629371643,-0.6381133794784546,0.3074098825454712,0.12998947501182556,-0.0872766375541687
14,1.509360621557174,0.0292941758716502,2.8976660950537543,0.9976851940155029,-0.029289986938238144,-0.06137072667479515,-0.08844302594661713,0.21309326589107513,-0.32617878913879395,0.06077122688293457,0.10747602581977844,-0.18701189756393433
15,1.4470361844100017,-0.00588299718732116,2.8770207298088124,0.9923344254493713,0.0058829630725085735,-0.12344233691692352,0.17984233796596527,-2.2742648124694824,-0.425661563873291,-0.2348422408103943,-0.09320901334285736,-0.007798507809638977
16,1.1148088299414534,-0.0031201522870763156,2.7753138914174826,0.8978223204612732,0.003120147157460451,-0.44034701585769653,1.1104755401611328,-3.2381935119628906,-0.38447436690330505,-0.1133679747581482,-0.07411929965019226,0.005181610584259033
17,0.7996269461036449,0.07233384914829924,2.675411906050895,0.7152209281921387,-0.07227078825235367,-0.695151686668396,1.4527705907821655,-3.0234434604644775,0.08697062730789185,-0.15786319971084595,-0.008692331612110138,0.0003885626792907715
18,0.6494761652677727,0.17137224187819483,2.640028869360483,0.5959104299545288,-0.1705346554517746,-0.7847347855567932,1.6285910606384277,-1.2482960224151611,0.3568309247493744,0.10848098993301392,0.0380120724439621,-0.2595004439353943
19,0.5558011873668215,0.2836212375629858,2.6179241433644633,0.5065446496009827,-0.2798340320587158,-0.8155400156974792,0.16771288216114044,-1.522215723991394,0.10412569344043732,0.10730117559432983,0.02737736701965332,-0.018963217735290527
20,0.4267614164055954,0.327475985048847,2.6479066012564103,0.3919277489185333,-0.32165417075157166,-0.8619346022605896,-0.11266802251338959,-1.1201369762420654,0.3924059271812439,0.019662857055664062,0.10142406821250916,0.1878928542137146
21,0.3499365080520898,0.29739672075524265,2.673700312126744,0.32778844237327576,-0.2930321991443634,-0.8981574773788452,-0.3907511234283447,0.04593077301979065,0.3629448413848877,0.013123422861099243,0.0518060028553009,0.13773572444915771
22,0.3084026977738119,0.3064109314751841,2.7164609092303253,0.28939902782440186,-0.3016386926174164,-0.9084395170211792,0.24390043318271637,-0.4585825800895691,0.4660567045211792,0.029051899909973145,-0.003292948007583618,0.1170424222946167
23,0.23872062967423077,0.3528275403455347,2.715098649838393,0.22189366817474365,-0.345552533864975,-0.9117876291275024,0.4962601661682129,-0.3581206202507019,0.11552834510803223,0.04452478885650635,-0.08318892121315002,0.02268850803375244
24,0.2149220798649863,0.40242126680397333,2.7291773510244366,0.19623421132564545,-0.3916473388671875,-0.8989463448524475,0.6785712838172913,-0.4647367596626282,0.054151251912117004,0.12510062754154205,-0.157745361328125,-0.09437030553817749
25,0.21671649686784294,0.440214320598065,2.7306196761680623,0.19452376663684845,-0.4261333644390106,-0.8834992051124573,0.5377823710441589,0.18990781903266907,0.15066330134868622,-0.09277817606925964,0.15835687518119812,-0.2669982314109802
26,0.2421476845174568,0.4315199130490105,2.708525480950223,0.2178070843219757,-0.4182518720626831,-0.8818307518959045,-0.7120975852012634,0.5767406225204468,-0.26027512550354004,-0.05772712826728821,0.10227283835411072,0.05173736810684204
27,0.29021959151309784,0.41005107669864715,2.7157637915543504,0.26243990659713745,-0.3986561596393585,-0.8787482976913452,0.00995410606265068,0.388774573802948,-0.013678843155503273,-0.09556978940963745,0.10263565182685852,0.15795361995697021
28,0.37290064227021563,0.4094187634065217,2.707921565252713,0.334208220243454,-0.39807620644569397,-0.8543068766593933,-0.2769220769405365,0.6256647109985352,0.17370957136154175,-0.06745404005050659,0.05913272500038147,0.1578652262687683
29,0.408879412618044,0.39165330797563924,2.7327677981900544,0.3674761950969696,-0.3817170560359955,-0.8480880856513977,0.16610635817050934,0.2715824544429779,0.14618302881717682,-0.04801821708679199,-0.04555955529212952,-0.13920140266418457
30,0.4254577670900436,0.4154023310673022,2.7737058204239333,0.3776361048221588,-0.40355807542800903,-0.8333857655525208,-0.36972376704216003,0.09370904415845871,0.6694180965423584,0.09460815787315369,-0.23903530836105347,-0.10353440046310425
31,0.41772515603434485,0.3653923738847,2.8298707151226754,0.37890058755874634,-0.3573157787322998,-0.8536742925643921,-0.3222130239009857,0.15245302021503448,0.5144916772842407,0.14926710724830627,0.1525428295135498,-0.03765261173248291
32,0.4438629174676295,0.33241283819450174,2.8472681267365405,0.4059232175350189,-0.3263247311115265,-0.853661835193634,-0.6379202604293823,0.2449406087398529,-0.20261631906032562,0.04834622144699097,0.11283901333808899,0.07535678148269653
33,0.4192434990275649,0.31287342409303365,2.856854694016602,0.38730761408805847,-0.30779382586479187,-0.8690545558929443,-0.3423440754413605,-0.23410531878471375,-0.3140407204627991,-0.12255236506462097,0.04358792304992676,0.27353453636169434
34,0.3937526617304699,0.3077259373613057,2.860211334952279,0.3656342625617981,-0.30289217829704285,-0.8800954222679138,-0.5454245805740356,0.24645280838012695,0.0958622545003891,-0.060000717639923096,-0.07322171330451965,0.14111226797103882
35,0.3707296707542951,0.3093624398962571,2.8226468337089865,0.3450966775417328,-0.3044514060020447,-0.8878161907196045,-0.1022476851940155,0.06781499832868576,-0.2489297091960907,0.08459082245826721,-0.22148853540420532,-0.05941891670227051
36,0.3468467094129247,0.2960711211852453,2.7959026414168524,0.3251435160636902,-0.2917645275592804,-0.8995305299758911,-0.12652739882469177,-0.19331218302249908,-0.6036337614059448,-0.0006653666496276855,-0.0913836658000946,-0.3154047727584839
37,0.3447877308218414,0.3034863619075803,2.752021245058067,0.32255059480667114,-0.29884904623031616,-0.8981371521949768,0.27051135897636414,0.08193887025117874,0.001471363939344883,-0.004694759845733643,0.18131059408187866,-0.10410583019256592
38,0.35017402568206485,0.3335215403596137,2.696981782853103,0.3241569995880127,-0.32737255096435547,-0.8875524997711182,0.6219638586044312,-0.5621313452720642,-0.5708389282226562,-0.054702043533325195,0.17986583709716797,0.23021912574768066
39,0.34104208427500715,0.3388395989192656,2.6610787378653513,0.3154517710208893,-0.3323929011821747,-0.8888223767280579,0.23579397797584534,-0.36459246277809143,-0.10830013453960419,-0.025199085474014282,0.04188081622123718,0.12093907594680786
40,0.3405787906404208,0.34567308217002773,2.666670740130985,0.314273864030838,-0.33883002400398254,-0.8868067264556885,0.11020521819591522,0.045919448137283325,0.20903195440769196,0.061580657958984375,-0.06531426310539246,0.024837732315063477
41,0.33970113623176706,0.369271836753455,2.7065305436577054,0.31074410676956177,-0.3609364628791809,-0.8792968988418579,0.11262644827365875,-0.01775546744465828,0.5929465889930725,0.007538974285125732,-0.04406231641769409,-0.10428464412689209
42,0.3420039953838634,0.3892650500434259,2.747084597255723,0.31028565764427185,-0.3795085549354553,-0.8716054558753967,-0.1939902901649475,0.06155989319086075,0.7734653949737549,0.27510255575180054,-0.027992665767669678,-0.16997474431991577
43,0.3249811832814901,0.3886333243137852,2.8067444317801433,0.29548072814941406,-0.37892401218414307,-0.876987874507904,-0.12240265309810638,-0.13228334486484528,0.4703899323940277,0.12785911560058594,0.09677374362945557,-0.007884562015533447
44,0.318622425867528,0.3632994743653347,2.84391222494459,0.2928120493888855,-0.3553602695465088,-0.8876824975013733,-0.11805423349142075,0.3113878071308136,0.2807602286338806,-0.0641438364982605,0.06649613380432129,0.1954064965248108
45,0.3259934293329308,0.3615274435469505,2.8846106775890763,0.29954832792282104,-0.3537033498287201,-0.8860952258110046,-0.374458909034729,0.24693341553211212,0.4123958349227905,0.057965099811553955,0.11475074291229248,0.11995142698287964
46,0.3445803477715962,0.35754409052498837,2.9103872665686943,0.31643885374069214,-0.34997469186782837,-0.8816938996315002,-0.036937035620212555,0.20623593032360077,0.014619937166571617,-0.05320948362350464,-0.11543363332748413,0.050852835178375244
47,0.3767027194195,0.32643457340810356,2.941963457573814,0.3484305143356323,-0.32066792249679565,-0.8807770609855652,-0.7703189849853516,0.28441378474235535,-0.12538594007492065,0.1286507546901703,-0.10709694027900696,-0.13538193702697754
48,0.40761243042909046,0.26849593165497304,2.981205647006903,0.3822152316570282,-0.2652815580368042,-0.885176420211792,-0.24162940680980682,0.4520740509033203,0.34241965413093567,0.0386679470539093,0.0593336820602417,-0.04628109931945801
49,0.44903972565290795,0.22069195930662164,3.0138397287550647,0.4235720634460449,-0.21890485286712646,-0.8790150284767151,-0.33304691314697266,0.026778284460306168,0.1067502349615097,0.14101839065551758,0.14474713802337646,0.002016127109527588
50,0.4362861370854681,0.19313784602765477,3.02424559190447,0.4147193431854248,-0.1919393390417099,-0.8894757628440857,-0.10295380651950836,-0.20127645134925842,0.04171503707766533,-0.055207014083862305,0.038329094648361206,0.0889081358909607
51,0.40638748956576015,0.2138044645715378,3.035308225998938,0.38629308342933655,-0.2121792733669281,-0.89764004945755,0.07452502846717834,-0.5475041270256042,-0.03133054077625275,-0.05165264010429382,-0.1565340906381607,-0.04466646909713745
52,0.36974332313001257,0.21446871230657674,3.0451771503111074,0.3530968427658081,-0.21282833814620972,-0.9110580086708069,-0.02033262699842453,-0.3905089497566223,0.4631434679031372,-0.026039958000183105,0.004988372325897217,-0.10363620519638062
53,0.3340641141271572,0.263710898045141,3.0872166678358894,0.31654995679855347,-0.2606649398803711,-0.9120580554008484,0.0994531661272049,-0.04027295485138893,0.3546299338340759,0.12812164425849915,-0.23326203227043152,-0.07748961448669434
54,0.2991753035120127,0.2713893372929404,-3.1371787780477423,0.28394487500190735,-0.26807019114494324,-0.9206050634384155,0.2314438372850418,-0.4752470850944519,0.6226468086242676,0.07701703906059265,0.15912243723869324,0.04926717281341553
55,0.24727591580617303,0.2676313378051412,-3.09332877009277,0.2360500544309616,-0.2644478380680084,-0.9350656270980835,0.05889542028307915,-0.40478748083114624,0.3644484281539917,0.004199579358100891,0.12875142693519592,0.117942214012146
56,0.2285561747899434,0.28000321480927726,-3.055125691846307,0.2177475541830063,-0.2763587236404419,-0.9360618591308594,-0.012957933358848095,-0.18772415816783905,0.2798144519329071,-0.013783320784568787,-0.014626353979110718,0.18818283081054688
57,0.2106725589124227,0.2826592744057685,-3.047886748977251,0.2008192539215088,-0.278910368680954,-0.9390850067138672,0.6054449081420898,-0.4042567312717438,0.2878803312778473,0.08433699607849121,0.09144088625907898,-0.05270576477050781
58,0.17591008700347124,0.34358974721931157,-3.045595471641958,0.16477550566196442,-0.33686918020248413,-0.9270211458206177,0.4055221974849701,0.17168785631656647,0.10461564362049103,-0.0029407888650894165,-0.12361055612564087,0.033298611640930176
59,0.1542021090860977,0.35860821999657905,-3.076443410076853,0.14382117986679077,-0.3509713411331177,-0.925275444984436,0.020430557429790497,-0.4625346064567566,-0.5375319719314575,-0.11768287420272827,-0.011043429374694824,-0.24150311946868896
60,0.11263666849628853,0.39086968100447006,-3.0964438722404934,0.1039213240146637,-0.3809926509857178,-0.9187191724777222,0.10631665587425232,-0.5679028630256653,-0.3818727731704712,-0.0818265974521637,0.04430747032165527,0.026171565055847168
61,0.09512296571765438,0.41332205033940045,3.1408606147596783,0.08698149770498276,-0.40165385603904724,-0.9116514921188354,0.5964982509613037,-0.48078519105911255,-0.2042679786682129,0.05733612924814224,0.07465797662734985,0.17782580852508545
62,0.0922801805294498,0.4004592363629136,3.1318431786357905,0.08485860377550125,-0.3898412883281708,-0.9169638752937317,-0.36261945962905884,0.14848075807094574,-0.18389572203159332,-0.06042928993701935,-0.023305684328079224,0.16108930110931396
63,0.08416018337106856,0.39218707988356644,3.140420479121723,0.07767857611179352,-0.3822103440761566,-0.9208046793937683,-0.25623759627342224,0.3750898540019989,0.1094607412815094,-0.11825170367956161,-0.1279977560043335,0.10699248313903809
64,0.0886767794045358,0.4076716272752459,3.1302471782306864,0.08130275458097458,-0.39647284150123596,-0.9144392609596252,0.18728107213974,-0.5479145050048828,-0.3702819347381592,-0.08974086493253708,-0.23943716287612915,0.035044729709625244
65,0.04530790393080884,0.49439427876711295,-3.1353380611834347,0.039868924766778946,-0.47449854016304016,-0.8793529868125916,1.7970935106277466,-0.13768143951892853,0.7258938550949097,0.17500534653663635,-0.38983553647994995,-0.09418827295303345
66,-0.03724485437403843,0.44858141825689596,3.1122456080414254,-0.03355221077799797,-0.4336877465248108,-0.9004383087158203,1.0204973220825195,-1.4370957612991333,-0.700554609298706,-0.05092044547200203,0.4742913842201233,-0.6071758270263672
67,-0.10541732851781403,0.5120664044336595,3.0899052159753033,-0.09172575175762177,-0.48997965455055237,-0.8668946623802185,-1.1162159442901611,-0.029638521373271942,-0.20003262162208557,0.036977216601371765,0.21948710083961487,0.2254762053489685
68,-0.1479765812975179,0.5545048449172796,3.0703916233224153,-0.12534533441066742,-0.5265223979949951,-0.840870201587677,0.2325824350118637,-2.4045255184173584,-0.1764642894268036,0.12560473382472992,0.17114520072937012,0.1788676381111145
69,-0.1915536081543006,0.5967533788230408,3.0700615741189066,-0.15747913718223572,-0.5619599223136902,-0.812035322189331,-1.3297377824783325,1.263627052307129,0.4027606248855591,0.13831409811973572,-0.010061562061309814,0.28366923332214355
70,-0.2063018688113379,0.5683550465095365,3.0757531316194564,-0.172637939453125,-0.5382464528083801,-0.8249163627624512,0.016030607745051384,0.17795994877815247,0.10403089225292206,0.2297821044921875,-0.23241394758224487,0.03989744186401367
71,-0.3507119484293059,0.6062345790384202,-3.072774045296175,-0.28234270215034485,-0.5697770714759827,-0.7717750072479248,2.0415995121002197,-2.260249137878418,1.5849570035934448,-0.19510477781295776,0.40379202365875244,0.3348853588104248
72,-0.8674626268693322,0.5236132619494198,-2.714954285927995,-0.6605036854743958,-0.5000125169754028,-0.5601092576980591,-0.9849389791488647,-3.1038663387298584,5.758131504058838,0.14286452531814575,1.0107852220535278,0.5780535936355591
73,-1.1926123402691136,-0.04326001804167398,-2.5986088355745305,-0.9284671545028687,0.04324652627110481,-0.36888793110847473,-0.11453995108604431,-3.3293631076812744,5.359560012817383,0.024963855743408203,0.8249937891960144,-0.28109070658683777
74,-1.4614300837863698,-0.6360533634030336,-2.484875600131077,-0.7996402978897095,0.594025194644928,-0.08780400454998016,0.7820255756378174,-1.6984769105911255,5.826752185821533,-0.656338095664978,0.3216089606285095,-0.6457318067550659
75,-1.2609951880040235,-1.018344856730337,-2.370291412031436,-0.499793142080307,0.8512406349182129,-0.1599879115819931,1.4282728433609009,0.46978917717933655,2.3652045726776123,-1.253517985343933,-0.25041061639785767,-0.7358860969543457
76,-0.9326963888331258,-0.938614861334336,-2.083326664449818,-0.47463279962539673,0.806740403175354,-0.3519851267337799,2.543860673904419,1.0201677083969116,-0.38441935181617737,-0.6213754415512085,0.2797921299934387,0.07157436013221741
77,-0.770693494131457,-0.7929277935139366,-1.8942099549187357,-0.48887091875076294,0.7124109268188477,-0.5034639239311218,1.9510935544967651,0.35478320717811584,-0.09467950463294983,-0.41853877902030945,0.24800777435302734,-0.039672672748565674
78,-0.803532742557523,-0.6504358804622046,-1.8953218163720436,-0.572841465473175,0.6055333614349365,-0.5524328947067261,0.8433469533920288,-0.49599841237068176,-1.056246280670166,0.47637540102005005,0.13084053993225098,-0.044567227363586426
79,-0.9168527057240845,-0.5314852721314998,-1.9631342311411815,-0.6842055320739746,0.5068143010139465,-0.5244064331054688,-0.15104049444198608,0.44104233384132385,-1.3814913034439087,0.4738478660583496,-0.15526705980300903,0.03781890869140625
80,-0.9365718282862723,-0.4813796103290045,-1.97509958434659,-0.7139884829521179,0.46300244331359863,-0.5252135396003723,-0.11612088233232498,1.885720133781433,0.8290947675704956,-0.08213889598846436,0.42405200004577637,0.6677458882331848
81,-0.8614011504766144,-0.5980680494261245,-2.100703232475843,-0.6270549297332764,0.563046932220459,-0.538312554359436,-4.667916774749756,0.9749159812927246,-1.7020858526229858,-1.0851337909698486,-0.4348272681236267,0.6349769830703735
82,-1.0451593105074204,-0.174539421376638,-2.8095967133681667,-0.8518621921539307,0.17365457117557526,-0.4941406846046448,1.462074637413025,3.350904941558838,-10.030176162719727,-0.8615167140960693,0.20416828989982605,-2.933868408203125
83,-0.525840162700067,0.5329741704505607,-3.0042360426863137,-0.43232065439224243,-0.508097231388092,-0.7449403405189514,4.320097923278809,4.510611534118652,-3.709178924560547,-0.27930349111557007,1.4382271766662598,-0.16985458135604858
84,-0.03953943051968945,0.8054887035432274,3.127624616557489,-0.02738415263593197,-0.7211692929267883,-0.6922173500061035,-0.6819702386856079,3.1097803115844727,-1.7077058553695679,-0.6099449396133423,0.6735619306564331,0.8515039086341858
85,0.2263444701973537,0.705024335133982,3.060411720867657,0.17091484367847443,-0.6480523347854614,-0.742169976234436,-0.23252296447753906,0.3297916054725647,-0.5313842296600342,-0.28886526823043823,0.3466607332229614,0.40847551822662354
86,0.2409591237812779,0.6702799173809717,3.1084164108391166,0.18700513243675232,-0.6212053894996643,-0.7610078454017639,0.38270682096481323,0.19467340409755707,0.8048302531242371,-0.05938062071800232,0.1519213318824768,0.07362991571426392
87,0.298546067765172,0.6257027231932835,-3.078517617381149,0.23840831220149994,-0.5856670141220093,-0.7746971249580383,-0.43304550647735596,1.6639050245285034,0.09956609457731247,-0.29630017280578613,-0.11434519290924072,-0.04982680082321167
88,0.40661124338849514,0.5923021271789765,-3.07588971728371,0.3281289041042328,-0.5582724809646606,-0.7620126605033875,0.2290063500404358,1.165800929069519,0.024582507088780403,0.026439547538757324,-0.17529374361038208,-0.27891141176223755
89,0.43160288874149216,0.5796755607327055,-3.131917527455923,0.3499894440174103,-0.5477524995803833,-0.7599174380302429,-2.0446813106536865,0.3914969265460968,0.15128621459007263,0.12045428156852722,0.08078783750534058,-0.01348954439163208
90,0.40565982004986634,0.5299492321480618,3.1382151159291967,0.3404954671859741,-0.5054895281791687,-0.7928071618080139,0.16009598970413208,0.02627287246286869,-0.02534448355436325,0.05913221836090088,0.1083642840385437,-0.09490340948104858
91,0.4252397754916509,0.5069131559700739,-3.118795722787992,0.3606612980365753,-0.4854809045791626,-0.79638671875,0.1747313141822815,0.32508179545402527,-0.264156311750412,-0.016560375690460205,0.1350475549697876,0.178009033203125
92,0.40919627664685615,0.5134798729152351,-3.119750648461375,0.3465626835823059,-0.49121132493019104,-0.7991281151771545,-0.03012724593281746,0.4542515277862549,0.47691529989242554,-0.011067688465118408,0.03903236985206604,0.007502138614654541
93,0.4247466360582218,0.535646362980092,-3.102786948450084,0.35437217354774475,-0.5103969573974609,-0.7835274934768677,0.053065791726112366,0.09694180637598038,0.6595433950424194,0.15414220094680786,-0.06131935119628906,-0.026103854179382324
94,0.3969694774659282,0.5850361476548387,-3.089056117324059,0.3223264217376709,-0.5522295236587524,-0.7688616514205933,0.5363372564315796,0.42033788561820984,0.27938777208328247,0.0617372989654541,-0.08686959743499756,-0.27876102924346924
95,0.4183307284650762,0.5634600488901963,-3.126450748184245,0.3434365689754486,-0.5341145396232605,-0.772510826587677,-0.7040319442749023,-0.21802778542041779,-0.530661940574646,-0.04532560706138611,-0.008838951587677002,-0.002696692943572998
96,0.39771052692489584,0.5119645085857746,3.13965900037407,0.3376493453979492,-0.48989081382751465,-0.8037411570549011,-0.1249852254986763,-0.5625322461128235,-0.4301283061504364,-0.12376689910888672,0.007179051637649536,0.13226288557052612
97,0.34755892818998396,0.5026617008498069,3.13282325520127,0.29847216606140137,-0.4817596971988678,-0.8239064812660217,0.03792424127459526,-0.37829843163490295,-0.6334124803543091,-0.19773364067077637,0.0657898485660553,0.1779714822769165
98,0.3159363631856236,0.5045642328274529,3.1065681655110313,0.2719879746437073,-0.483426034450531,-0.8320587873458862,0.24623897671699524,0.07283682376146317,0.13136638700962067,-0.13705453276634216,-0.09602651000022888,0.05286872386932373
99,0.2849376375948552,0.5420227654633523,3.1117870923651116,0.24080702662467957,-0.5158698558807373,-0.8221254348754883,0.11459306627511978,0.0661974772810936,-0.25182172656059265,-0.19315384328365326,-0.18875044584274292,0.030301153659820557
100,0.2570667854457194,0.5912999254682926,-3.1253425898402893,0.21107830107212067,-0.5574406981468201,-0.8029357194900513,0.09805556386709213,-0.3216252326965332,0.23237064480781555,0.061687812209129333,-0.04395395517349243,-0.04459846019744873
101,0.24933451445524168,0.5517735418374476,-3.139785341019038,0.21013912558555603,-0.5241984128952026,-0.825262188911438,-0.36215588450431824,-0.09275105595588684,-0.08681025356054306,0.0020953714847564697,0.06248265504837036,-0.03444850444793701
102,0.22659135781119333,0.5190244383747022,3.1385003154148436,0.19507074356079102,-0.49603328108787537,-0.8461077809333801,-0.09032609313726425,-0.47173771262168884,-0.2991166412830353,0.051770687103271484,-0.023436933755874634,0.17498046159744263
103,0.1634559555881944,0.5426374764820258,3.1180342646891495,0.1393529772758484,-0.5163964033126831,-0.8449352383613586,0.2972072660923004,-0.5726909637451172,-0.149549201130867,-0.08321589231491089,0.061165690422058105,0.08579522371292114
104,0.11284423417027634,0.607934555827186,3.1199113795205027,0.09242942184209824,-0.5711733102798462,-0.8156088590621948,0.36256143450737,-0.28060704469680786,0.02849718928337097,0.03960488736629486,-0.03290688991546631,0.06429660320281982
105,0.09489805608203568,0.6399037503463744,3.1231717455333983,0.07600857317447662,-0.5971182584762573,-0.7985439300537109,0.34331825375556946,-0.688840389251709,-0.28836724162101746,0.06438753008842468,-0.20065701007843018,-0.04778474569320679
106,0.05651536533807933,0.6617190384668713,3.09103866851212,0.04456333443522453,-0.6144739985466003,-0.7876774668693542,0.08990076184272766,-0.19021263718605042,-0.35196584463119507,-0.10157017409801483,-0.027234315872192383,-0.19265389442443848
107,0.05463112832200129,0.6775166764280656,3.0542945150579492,0.0425436794757843,-0.6268601417541504,-0.7779694199562073,-0.14609578251838684,0.05574731528759003,-0.49939483404159546,-0.0368979312479496,0.09127670526504517,0.09056097269058228
108,0.05963792682461484,0.6792194588008517,3.020391039427938,0.04637458175420761,-0.6281859278678894,-0.776680052280426,0.020425070077180862,0.023358328267931938,-0.11904784291982651,-0.07231452316045761,0.043804824352264404,0.22212988138198853
109,0.05645016356562894,0.6682977566027808,3.0150573384764274,0.0442829430103302,-0.6196508407592773,-0.7836273908615112,-0.19640330970287323,-0.0044548059813678265,0.037237685173749924,-0.0278187096118927,0.09181874990463257,0.18348395824432373
110,0.05166944628237234,0.6710310879308328,3.01945020596622,0.04044852405786514,-0.6217938661575317,-0.7821357846260071,-0.069910928606987,0.02725360542535782,0.1641589105129242,-0.06011710315942764,-0.09303468465805054,0.10163956880569458
111,0.049084373428661454,0.6829600010886516,3.035994955524094,0.03805986046791077,-0.6310918927192688,-0.7747738361358643,-0.5266740322113037,0.09594175219535828,-0.33445751667022705,-0.012013107538223267,-0.3234369158744812,-0.06908297538757324
112,0.05560365044769755,0.6170469442167669,3.027756142441466,0.04532645642757416,-0.578629195690155,-0.8143302202224731,0.027155376970767975,-0.02850215509533882,0.6111041903495789,0.07852913439273834,0.1005408763885498,-0.24760514497756958
113,0.02320526210031393,0.6067038235218842,3.072406687981566,0.01906215213239193,-0.5701626539230347,-0.8213106989860535,-0.5583152770996094,-0.07757196575403214,0.12159144133329391,0.07238377630710602,0.15027129650115967,-0.05581033229827881
114,0.0050766373691049594,0.6057715015268659,3.1174667095026183,0.00417329790070653,-0.5693964958190918,-0.8220524191856384,0.21882472932338715,0.0822911411523819,0.2862092852592468,-0.00489046098664403,0.13804572820663452,0.2069401741027832
115,0.006466845988687019,0.613756039867403,-3.1323844049826155,0.005286548286676407,-0.5759420394897461,-0.8174734115600586,0.04387018084526062,0.3042013347148895,0.131949782371521,0.017372753471136093,0.039488792419433594,0.0660848617553711
116,-0.0014698061131567647,0.6426585596033535,-3.120166428624802,-0.0011765870731323957,-0.5993257761001587,-0.8005043864250183,0.36172646284103394,0.11716634035110474,-0.06270474195480347,-0.06693864613771439,-0.06505721807479858,-0.04324561357498169
117,0.0017910479562548904,0.6720035114105702,3.1322064623036696,0.0014016303466632962,-0.622555136680603,-0.7825747132301331,-0.2614469528198242,-0.19363562762737274,-0.532992959022522,-0.1847359836101532,-0.24640238285064697,-0.16745275259017944
118,0.013299044887056325,0.6704242401612774,3.0896583382243183,0.010420268401503563,-0.6213184595108032,-0.7834888696670532,-0.25290802121162415,-0.26208385825157166,-0.4248354136943817,-0.11486668139696121,0.08448374271392822,-0.08154714107513428
119,0.017654880016691826,0.6496860069993048,3.0540390373627977,0.014057387597858906,-0.604936420917511,-0.7961496710777283,-0.10745474696159363,-0.04311366006731987,-0.26730650663375854,-0.09204506129026413,0.10537892580032349,0.10315656661987305
120,0.034615956710087666,0.6316399018391486,3.0191363736876204,0.027931585907936096,-0.5904690623283386,-0.8065768480300903,0.10338583588600159,-0.18184933066368103,-0.13173024356365204,0.015616998076438904,0.15579193830490112,0.21510040760040283
121,0.04304443525836383,0.626613236535761,2.996141124878372,0.034856006503105164,-0.5864048004150391,-0.8092678189277649,0.003462553955614567,0.011838631704449654,0.02132272906601429,-0.06606023013591766,0.04804420471191406,0.13020598888397217
122,0.052623417643736875,0.6166870076328654,2.972438460751359,0.042910318821668625,-0.5783355832099915,-0.814669668674469,-0.14272086322307587,0.20583276450634003,-0.10794466733932495,-0.032091837376356125,-0.11372679471969604,-0.0831422209739685
123,0.045954108821953395,0.6608351397350869,3.004545001140807,0.036267075687646866,-0.6137763857841492,-0.788646399974823,-0.32534629106521606,-0.18755756318569183,0.11329971998929977,0.07306215167045593,0.01975172758102417,-0.2614176273345947
124,0.07372955495569385,0.5852071566498855,2.9959970749109446,0.06140511855483055,-0.5523720979690552,-0.8313329815864563,-0.39033475518226624,0.029083481058478355,0.14879684150218964,0.07671743631362915,-0.06414401531219482,0.005939304828643799
125,0.0413464383917035,0.5002622970472662,2.9901430511469225,0.036269377917051315,-0.4796557128429413,-0.8767068386077881,-0.5186967253684998,-0.387151837348938,-0.49983951449394226,-0.2127677947282791,0.12615534663200378,0.16579991579055786
126,0.04442949706861752,0.47116890577386056,2.9219902500367376,0.03957536071538925,-0.453928142786026,-0.890159010887146,-0.02007155492901802,-0.5704651474952698,-0.917392373085022,-0.20176103711128235,0.152139812707901,0.1033395528793335
127,-0.01639008600372278,0.44878144564686606,2.796806081381723,-0.014766420237720013,-0.4338679611682892,-0.9008554816246033,0.027852177619934082,-1.2585747241973877,-1.0716487169265747,-0.2522929012775421,0.3231654763221741,-0.23296409845352173
128,-0.06207959201663452,0.4101675268939923,2.643631130305417,-0.05689378082752228,-0.398762971162796,-0.9152874946594238,-1.5643720626831055,-1.5370516777038574,-2.4370710849761963,-0.08855300396680832,-0.09876510500907898,-0.14664793014526367
129,-0.0581171985472426,0.32307743837656955,2.395301251198991,-0.05507936328649521,-0.3174862861633301,-0.9466618895530701,-1.0490702390670776,-0.6041123867034912,-1.45156729221344,-0.1339312493801117,0.031231403350830078,0.02777761220932007
130,-0.0827905038767541,0.2815777737337123,2.2095252774188183,-0.07943924516439438,-0.27787163853645325,-0.9573279023170471,-0.3821672797203064,-0.49288639426231384,-1.840825080871582,-0.11977950483560562,-0.10800787806510925,0.07744508981704712
131,-0.04099488498963323,0.2564732312833646,1.9894494113198748,-0.03964286297559738,-0.25367072224617004,-0.9664779305458069,0.3625299334526062,0.16900718212127686,-1.7248972654342651,-0.038314297795295715,-0.16815850138664246,-0.19381564855575562
132,-0.00023321716467204233,0.34122984580994925,1.8284180539196342,-0.00021977075084578246,-0.3346462845802307,-0.9423437714576721,0.939193606376648,0.37665247917175293,-1.469059944152832,0.004003956913948059,-0.11193269491195679,-0.12120908498764038
133,0.07380707108740601,0.40381388411143054,1.7122938986132923,0.067809097468853,-0.3929283320903778,-0.9170655608177185,0.1742924153804779,-0.04958789423108101,-0.22259987890720367,0.0768442153930664,0.11286848783493042,0.051541268825531006
134,0.039370522958497065,0.3983943628322442,1.663508626866811,0.03627784922719002,-0.3879389464855194,-0.9209708571434021,-1.0346794128417969,-0.042791061103343964,-0.9702640771865845,0.006370469927787781,0.10766550898551941,-0.0747719407081604
135,0.0582288017442347,0.41743278723433813,1.605959763456616,0.05319878086447716,-0.40541502833366394,-0.9125834703445435,0.7338798642158508,0.12228602916002274,-0.49282777309417725,0.04744820296764374,-0.013392984867095947,0.21086227893829346
136,0.07325335069600278,0.4391548463357511,1.546452794363082,0.06624315679073334,-0.42517465353012085,-0.9026839733123779,0.2807285785675049,-0.2350049465894699,0.030677612870931625,0.10720348358154297,-0.05408865213394165,0.05698084831237793
137,0.05908274682132687,0.4911534546162786,1.5066731916202205,0.05206823721528053,-0.4716432988643646,-0.8802508115768433,1.1088205575942993,0.1702631115913391,-0.643070638179779,0.12792444229125977,-0.031072765588760376,-0.26101505756378174
138,0.01979111712250378,0.6545139245566578,1.4826564920424983,0.015700137242674828,-0.6087737083435059,-0.7931885123252869,2.1028566360473633,0.032442014664411545,0.0029382770881056786,-0.2574298679828644,-0.02255868911743164,-0.09722280502319336
139,0.07208699019127672,0.7595232883741068,1.4223615470019977,0.05222965404391289,-0.688575804233551,-0.7232810258865356,0.22315558791160583,-0.6182916760444641,-0.34482622146606445,0.009812593460083008,0.0087815523147583,0.26986610889434814
140,0.046975618390165653,0.7171464851709766,1.3881466770962276,0.03539176285266876,-0.6572366952896118,-0.7528527975082397,0.5349622368812561,-0.6686298847198486,-0.2736580967903137,-0.09136101603507996,0.10199987888336182,0.22300660610198975
141,0.041685448712700225,0.6613567326112497,1.3581734919704298,0.03288694843649864,-0.6141880750656128,-0.7884740829467773,-0.6955342888832092,-0.013547886162996292,-0.509667694568634,-0.04867980256676674,0.0027837157249450684,0.16937929391860962
142,0.043859657126649645,0.6143127021514379,1.3029968890771986,0.035829298198223114,-0.5763970017433167,-0.816383957862854,0.07786602526903152,-0.03283672779798508,-0.09576621651649475,-0.15152141451835632,-0.03960031270980835,-0.039100050926208496
143,0.07885810049053937,0.6064644067982672,1.2717159446084811,0.06472806632518768,-0.5699659585952759,-0.8191148638725281,0.55623459815979,0.351561039686203,0.11945678293704987,0.04463165998458862,-0.16489732265472412,-0.15203076601028442
144,0.07146550130481762,0.5968995249333294,1.277007008867185,0.05905754864215851,-0.5620808601379395,-0.824971079826355,0.3515154719352722,-0.721047043800354,-0.45073992013931274,-0.1712096482515335,0.28173112869262695,-0.4023696184158325
145,0.05753898804266211,0.6127768799311307,1.2258881035026166,0.04704403504729271,-0.5751413106918335,-0.816700279712677,-1.0740031003952026,-0.22627554833889008,-0.4396151006221771,-0.033784154802560806,0.09232276678085327,0.0961650013923645
146,0.06765130944114568,0.6069128232796996,1.1828424780694269,0.05552726238965988,-0.5703343152999878,-0.8195337057113647,-0.06361924856901169,-0.2681225836277008,-0.4871852695941925,0.0072779059410095215,0.012686610221862793,0.33172547817230225
147,0.075112633157062,0.5821143070969378,1.1503726273616208,0.06268275529146194,-0.5497912764549255,-0.8329468369483948,0.7471476793289185,-0.29897361993789673,-0.34384724497795105,-0.06823697686195374,0.06321895122528076,0.041534483432769775
148,0.0701623986338259,0.6005929285119189,1.1158891283678272,0.05783654376864433,-0.5651317238807678,-0.8229708671569824,1.1912223100662231,-0.28912439942359924,0.08078286051750183,-0.12770652770996094,-0.004219412803649902,-0.21288728713989258
149,0.04918848755984359,0.5734761025052824,1.1021937023542967,0.04130265861749649,-0.5425553321838379,-0.8390040993690491,-1.2245463132858276,-0.9247663617134094,0.07713170349597931,-0.04656694829463959,-0.1640028953552246,-0.1653599739074707
150,0.04719066382393568,0.561060922861943,1.043061183862813,0.03994108363986015,-0.5320847630500793,-0.8457484841346741,0.11197135597467422,-0.30863091349601746,-0.9861451983451843,-0.15310026705265045,0.03634202480316162,0.09266620874404907
151,0.04226882195153293,0.5618543720263913,0.9508854828357057,0.03576012700796127,-0.5327563881874084,-0.8455127477645874,0.36241617798805237,-0.3988646864891052,-0.9204179644584656,-0.21428795158863068,0.2577472925186157,0.1415790319442749
152,0.058272099327202766,0.564279349379981,0.8593621654141838,0.0492105633020401,-0.534807026386261,-0.8435400724411011,-0.283076673746109,-0.30057671666145325,-0.27782905101776123,0.0618276447057724,0.014680683612823486,0.19816958904266357
153,0.05642921830407123,0.565846284225279,0.8072877866743304,0.04760861396789551,-0.5361303687095642,-0.8427916169166565,0.42345139384269714,-0.35910165309906006,0.028959576040506363,0.039564844220876694,-0.09004449844360352,-0.0900391936302185
154,0.09165969815592978,0.6037333978472795,0.7853315404387806,0.07535065710544586,-0.5677198171615601,-0.819766104221344,0.37266287207603455,0.1396414339542389,0.22907787561416626,0.29841339588165283,-0.27805960178375244,-0.038189828395843506
155,0.08697590707523602,0.6100746457328909,0.7907090231295071,0.0711960718035698,-0.5729286670684814,-0.8165071606636047,-0.24461661279201508,0.017104987055063248,0.09425269067287445,0.08548116683959961,0.19425129890441895,-0.16769999265670776
156,0.07328515127262777,0.5584586170314991,0.8187200906758214,0.062095530331134796,-0.529879629611969,-0.845796525478363,-0.20876352488994598,-0.1662062704563141,0.671147882938385,0.0701066255569458,0.11986076831817627,0.0005206465721130371
157,0.05581288381072783,0.6137085020779492,0.8569602923767493,0.045604344457387924,-0.5759031772613525,-0.816244900226593,0.5131245255470276,0.2968568801879883,0.21462923288345337,-0.06679880619049072,0.09958487749099731,0.3173588514328003
158,0.08847822409589952,0.6183061089309166,0.8300188169550737,0.07200346887111664,-0.5796557068824768,-0.8116740584373474,-0.15924237668514252,-0.07219220697879791,-0.15178056061267853,0.11062899231910706,-0.05916875600814819,0.1602763533592224
159,0.0526989576597626,0.6371238884195789,0.8496136230407922,0.042340345680713654,-0.594886064529419,-0.8026941418647766,-0.026029132306575775,-0.11901269108057022,0.4876154959201813,0.12401096522808075,-0.3253409266471863,0.03296452760696411
160,0.03073427427553647,0.6484008211508785,0.8300106328426634,0.024492913857102394,-0.6039125323295593,-0.7966741323471069,0.6625062227249146,-0.08460558950901031,-0.3862971365451813,-0.020586654543876648,-0.0646359920501709,-0.19873297214508057
161,0.05698084859516952,0.6056938332724151,0.7665298496856159,0.04681902378797531,-0.5693325996398926,-0.8207730054855347,-0.528835654258728,-0.08419136703014374,-0.534935712814331,0.03190107271075249,0.12543922662734985,-0.14512354135513306
162,0.0626057449127155,0.6069302803797748,0.7455200644476015,0.05139094218611717,-0.5703486800193787,-0.8197934627532959,-0.16744546592235565,0.38217803835868835,-0.2443101406097412,0.02285832166671753,0.06914323568344116,0.2073972225189209
163,0.06823716700515361,0.6349581303428681,0.742509932719174,0.05489487946033478,-0.5931438207626343,-0.8032228350639343,0.6228177547454834,0.053110137581825256,0.26393789052963257,0.024191439151763916,0.08984792232513428,0.22494524717330933
164,0.08755494283292589,0.6603130951719863,0.7710413471702083,0.06906259804964066,-0.6133641600608826,-0.7867749333381653,0.2627781927585602,0.31344714760780334,0.4255067706108093,-0.04766979068517685,-0.040490150451660156,0.11749392747879028
165,0.07959050443359406,0.6887764285162097,0.8101129625474717,0.06138095259666443,-0.635593056678772,-0.7695803642272949,0.37789398431777954,-0.12384266406297684,0.4804164171218872,0.24457302689552307,-0.3889583349227905,-0.15560579299926758
166,0.10762889162323577,0.6400325054001003,0.8209063852863252,0.08616001158952713,-0.5972214937210083,-0.7974351644515991,-0.06516069918870926,-0.3395777940750122,0.2685966491699219,0.18785732984542847,0.2691881060600281,-0.3348432183265686
167,0.07586224899416816,0.6431661537005473,0.9227329727886037,0.06064683198928833,-0.599731981754303,-0.7978994250297546,0.016245150938630104,0.5233410000801086,0.8202629089355469,0.029090091586112976,0.08409172296524048,0.17102259397506714
168,0.05024976033934901,0.6465478612099289,0.9801753277265735,0.040090885013341904,-0.6024346351623535,-0.7971606850624084,-0.5240797996520996,0.3267676532268524,0.1711006462574005,-0.11705620586872101,0.14100885391235352,0.2970539331436157
169,0.044139252199536266,0.6410892121584862,0.9637144988842004,0.03536368906497955,-0.5980687141418457,-0.8006642460823059,-0.152272030711174,0.09066788852214813,-0.03402937948703766,0.01448678970336914,0.0018162727355957031,-0.002268493175506592
170,0.027442581253315453,0.674431251335351,0.9699135739176035,0.02143167331814766,-0.6244531869888306,-0.7807681560516357,-0.4180103540420532,-0.03947976976633072,-0.0729907974600792,0.012076646089553833,-0.29664361476898193,-0.25849270820617676
171,-0.01828120534835798,0.7464785400098124,0.9624501735177422,-0.013419206254184246,-0.6790578961372375,-0.7339620590209961,0.43298012018203735,-0.22139233350753784,-0.43295973539352417,-0.13198181986808777,-0.045139431953430176,-0.044083595275878906
172,0.03860173939213346,0.696829719418543,0.8858427764175245,0.029595576226711273,-0.6417896747589111,-0.766309380531311,0.129667267203331,-0.11258390545845032,-0.25404033064842224,0.056052014231681824,0.16620373725891113,0.022489190101623535
173,0.029726681739030352,0.7206971949530213,0.8746336931398897,0.022331729531288147,-0.659908652305603,-0.7510138750076294,-0.110287606716156,0.2728639245033264,-0.3254212737083435,-0.05825093388557434,0.19347798824310303,0.3132086992263794
174,0.05178047107463145,0.707272319156974,0.8465358524444053,0.039342667907476425,-0.6497628092765808,-0.7591181993484497,-0.0337454155087471,0.031557753682136536,-0.10062098503112793,-0.0037286579608917236,0.03310936689376831,0.08574783802032471
175,0.06906201546264357,0.7123200624144443,0.8466307856571601,0.05222787708044052,-0.6535914540290833,-0.7550433278083801,0.028918709605932236,0.4707369804382324,-0.031323596835136414,-0.018978983163833618,-0.19308817386627197,-0.11252564191818237
176,0.07217579030552355,0.7674376859711788,0.877790282331075,0.051899254322052,-0.6942934393882751,-0.7178182601928711,-0.12157656252384186,0.01781621016561985,0.09414032846689224,0.061076819896698,-0.10036903619766235,-0.1211404800415039
177,0.06895361547540203,0.7273047830967685,0.8762464914426084,0.051465410739183426,-0.6648588180541992,-0.7451939582824707,-1.7770568132400513,-0.01899906061589718,-0.1685764491558075,0.015139218419790268,-0.007290840148925781,0.12646538019180298
178,0.029461229794908665,0.6906139170864903,0.9384460439119199,0.022707054391503334,-0.6370105147361755,-0.7705206274986267,0.16138698160648346,0.027193401008844376,0.39192813634872437,-0.11424455046653748,0.11261177062988281,0.2844366431236267
179,0.013014611981085002,0.6975446814761128,0.9434361088011711,0.009974398650228977,-0.6423377990722656,-0.7663567662239075,-0.461990088224411,0.5462199449539185,-0.11815721541643143,-0.1587933599948883,0.12656021118164062,0.42163020372390747
180,0.02899345812569183,0.6288759041600241,0.8928311208192267,0.02344341203570366,-0.5882360935211182,-0.8083493709564209,-0.45435449481010437,-0.2932882010936737,-0.4273696541786194,-0.040731608867645264,-0.11710143089294434,0.0747067928314209
181,-0.014521526765103394,0.5497503691177891,0.8610727901142498,-0.012381416745483875,-0.5224744081497192,-0.8525650501251221,0.3645389676094055,-0.751060426235199,0.06402122229337692,-0.0577327162027359,0.004713237285614014,-0.5259138941764832
182,-0.14358415865027827,0.5571656570905434,0.8602323210908438,-0.1214497834444046,-0.5287826657295227,-0.8400231599807739,-0.13835155963897705,-1.404478907585144,0.17462113499641418,-0.1457773745059967,0.1828811764717102,-0.019840121269226074
183,-0.21780306434148022,0.4709357467108717,0.8552476383677213,-0.1925629824399948,-0.453720360994339,-0.8700904250144958,-0.5145493149757385,-1.4324100017547607,8.99340957403183e-05,0.12058727443218231,0.11091640591621399,0.23393625020980835
184,-0.2760577446187101,0.40687674782371663,0.9015641457785541,-0.2503129541873932,-0.3957429826259613,-0.8835898041725159,-0.88283371925354,-0.008093949407339096,1.1015918254852295,0.1496812403202057,0.052618592977523804,0.23927217721939087
185,-0.33449247254192926,0.35188095658494745,0.978546124812829,-0.308174192905426,-0.3446641266345978,-0.8866990804672241,-0.116156205534935,0.3934635519981384,1.6329395771026611,0.287849485874176,-0.15690752863883972,-0.10562574863433838
186,-0.4171515933462614,0.3618521750157803,1.0696766301058789,-0.3789210319519043,-0.3540070652961731,-0.855042576789856,-0.018600240349769592,0.9533727169036865,0.20470713078975677,0.024566173553466797,-0.3057066798210144,-0.45757949352264404
187,-0.3430189430769027,0.34282877065137213,1.0964455497473913,-0.31675970554351807,-0.336152583360672,-0.8869411945343018,0.6694215536117554,0.0008678848389536142,0.9713900089263916,0.09514111280441284,0.06579738855361938,-0.22922390699386597
188,-0.34723615269298486,0.3350043195019746,1.0716188419536208,-0.3213825523853302,-0.32877326011657715,-0.8880435824394226,-0.01218373328447342,1.0387499332427979,-0.5398457646369934,0.0560322105884552,0.06668829917907715,-0.014803707599639893
189,-0.24298751918415415,0.3762802529455787,1.0401129907962956,-0.22377033531665802,-0.36746349930763245,-0.9027166962623596,0.9760265350341797,0.07509954273700714,-0.8454902172088623,-0.034286290407180786,0.050294339656829834,0.07611757516860962
190,-0.15590297276832962,0.5053195034112525,0.9976700128234224,-0.13586623966693878,-0.4840870499610901,-0.8644073605537415,1.9674549102783203,-0.21273110806941986,-1.0833193063735962,-0.22121992707252502,0.1812306046485901,-0.11265867948532104
191,-0.07877430991916758,0.6313661659346329,0.9469246758729709,-0.06352259963750839,-0.5902481079101562,-0.8047186136245728,0.2951277792453766,-0.44766831398010254,-0.05514365807175636,-0.1177518218755722,0.04235076904296875,-0.19915711879730225
192,-0.041014846625747184,0.7613579154481173,0.9287199118667598,-0.02968231588602066,-0.689905047416687,-0.7232910394668579,-0.3357057571411133,-0.20236597955226898,-0.03302950784564018,-0.0016897618770599365,0.016626298427581787,0.2514129877090454
193,0.004322069380550999,0.7329957157634986,0.8761358509123324,0.0032120365649461746,-0.669098973274231,-0.7431663274765015,-1.0691560506820679,0.28883013129234314,-0.10264676809310913,0.21007531881332397,0.11708182096481323,0.46837085485458374
194,-0.10757335727692086,0.6506728925492975,0.8993864146466014,-0.08542859554290771,-0.6057219505310059,-0.7910770177841187,-0.5191767811775208,0.6867727637290955,0.2514415383338928,-0.01848377287387848,0.17534780502319336,0.15075719356536865
195,-0.12799231301856448,0.6215348206420833,0.922355245235289,-0.10377205163240433,-0.582283616065979,-0.8063356280326843,0.7120800018310547,-0.12255691736936569,0.3973035216331482,0.07667243480682373,0.09734410047531128,-0.09875470399856567
196,-0.15320661759535045,0.63840349093784,0.9739940153594737,-0.12255155295133591,-0.5959141254425049,-0.7936419248580933,0.0843837633728981,0.742895781993866,0.5582491159439087,0.1392141431570053,-0.20492815971374512,-0.13772404193878174
197,-0.15909617371210577,0.5817739525754935,1.0205359953258983,-0.13236309587955475,-0.5495069026947021,-0.8249377012252808,0.25875532627105713,0.08066015690565109,0.1602860540151596,0.11553263664245605,-0.02709221839904785,-0.46162235736846924
198,-0.14470379227179642,0.4926603343773881,1.0199216140399967,-0.12705081701278687,-0.47297152876853943,-0.8718692660331726,-1.2131564617156982,0.1476125568151474,0.13865160942077637,0.08215945959091187,0.17376193404197693,-0.1980465054512024
199,-0.16560095174037337,0.5149633098764822,1.0447613095004826,-0.14346645772457123,-0.49250292778015137,-0.8584045171737671,0.2562389671802521,-0.5628122091293335,0.05455860495567322,0.011905178427696228,0.12598681449890137,0.3411926031112671
200,-0.14375739109471472,0.5711395972281654,1.0417825151086983,-0.12052486836910248,-0.5405911207199097,-0.8326073288917542,0.8225528001785278,-0.3888110816478729,0.17470481991767883,0.029368847608566284,0.16002166271209717,0.28567129373550415
201,-0.13700974630254636,0.6667868989883036,1.0590852514368478,-0.10732749849557877,-0.6184642910957336,-0.7784488797187805,-0.2993089556694031,-0.31063544750213623,1.4414217472076416,0.16665369272232056,0.17949950695037842,0.4113682508468628
202,-0.3234860021904772,0.6043234556309303,1.1810547342599789,-0.26157402992248535,-0.5682054758071899,-0.7802060842514038,0.46086740493774414,-0.4168592393398285,2.8244733810424805,0.04042840003967285,0.5258318185806274,-0.1864076852798462
203,-0.9448021121547862,0.3047716853600387,1.6175449293800415,-0.773034930229187,-0.30007538199424744,-0.5589021444320679,-1.0782794952392578,-5.6399970054626465,6.179697036743164,0.07526588439941406,0.7498282194137573,0.06656211614608765
204,-1.2977043344764183,-0.2889674816781695,1.8544687157984354,-0.9230167269706726,0.28496265411376953,-0.25852757692337036,-0.0292960274964571,-1.9343535900115967,6.443583965301514,-0.20546239614486694,0.12664318084716797,-0.5396596193313599
205,-1.126365034768801,-0.6490159544211,2.2646946869835607,-0.719285786151886,0.6044027209281921,-0.34252771735191345,1.3358819484710693,2.469538927078247,0.5092722177505493,-1.4766217470169067,-0.8087637424468994,0.4332565367221832
206,-1.0413066433161868,-0.46585894698041935,2.22218015748234,-0.7710934281349182,0.4491903781890869,-0.4512683153152466,-0.26857972145080566,-0.8119345307350159,-2.9878110885620117,-0.6098117232322693,-0.24676728248596191,0.5611163377761841
207,-1.3337698649083842,-0.2973461498401589,2.213549682100804,-0.9293848872184753,0.29298385977745056,-0.2245090752840042,0.6607794761657715,-3.05735182762146,-1.966166615486145,0.09004461765289307,0.3010255992412567,-0.45781823992729187
208,-1.6013028299118883,-0.1750468282734221,2.309318552799692,-0.9842603802680969,0.17415425181388855,0.030035659670829773,-0.13701748847961426,-2.0223867893218994,-0.24482212960720062,0.0353313684463501,0.18583111464977264,0.23529934883117676
209,-1.642342470976731,-0.3068415952900468,2.3793385641560136,-0.9508535265922546,0.30204927921295166,0.0681462213397026,-0.07963478565216064,1.2320553064346313,0.17441686987876892,-0.6868876218795776,-1.1577011346817017,0.4168848991394043
210,-1.511528970146423,-0.13238876776368588,2.1765851301758774,-0.9895090460777283,0.13200238347053528,-0.05871434882283211,-2.1149682998657227,1.399842619895935,-1.2664144039154053,0.7256539463996887,-0.026152148842811584,0.2848038673400879
211,-1.5302722247820832,0.02319406215266706,2.1228961343533412,-0.9989103078842163,-0.02319198288023472,-0.040502116084098816,1.7101655006408691,-1.5933128595352173,-1.0073909759521484,0.09803140163421631,-0.13647598028182983,-0.5723366737365723
212,-1.6601751074238273,-0.07207105657990982,2.4292636253272737,-0.9934228658676147,0.07200867682695389,0.08902812004089355,4.893063545227051,0.26492735743522644,-0.03329407423734665,-0.6490790843963623,0.2804846167564392,-0.563164472579956
213,-1.6717489791578963,-0.11102089406139753,2.752506233157231,-0.988783597946167,0.11079296469688416,0.10016082227230072,4.305367469787598,-0.20503509044647217,0.35080769658088684,-0.31602609157562256,0.41352957487106323,-0.6954977512359619
214,-1.7144721323218401,-0.1415584892475203,-3.1118038690080962,-0.9797968864440918,0.14108619093894958,0.1417498141527176,4.920854091644287,-1.979612946510315,0.6047458052635193,0.6611627340316772,0.7300686240196228,-0.2909501791000366
215,-1.6125346233478626,-0.2743249095511417,-2.780482887471357,-0.9617699384689331,0.27089715003967285,0.040165964514017105,2.3281586170196533,0.2764611840248108,2.4906327724456787,0.4365319013595581,0.7992322444915771,0.4402111768722534
216,-1.55449388544261,-0.5451333263607439,-2.5781478553222876,-0.8549445867538452,0.5185320973396301,-0.013938918709754944,0.41733065247535706,-0.16406717896461487,2.3878555297851562,-0.2217918038368225,0.2777172923088074,0.20948028564453125
217,-1.57741507810801,-0.6512241297471232,-2.6388787152789392,-0.7953248620033264,0.6061604619026184,0.0052641346119344234,-1.6793465614318848,0.736545741558075,-0.11358007788658142,-0.5749601125717163,-0.041112303733825684,0.0805208683013916
218,-1.607074310488586,-0.6390098987364998,-2.719356140022557,-0.8021585941314697,0.5964009761810303,0.029113467782735825,-0.6948475241661072,0.4219462275505066,-0.301900178194046,-0.00039267539978027344,-0.22245383262634277,0.1648409366607666
219,-1.6121222154589785,-0.6398956494081031,-2.728760107696087,-0.801473081111908,0.5971117615699768,0.033140458166599274,0.22617743909358978,-0.11407023668289185,-0.06891310960054398,0.02666240930557251,-0.4155474901199341,0.04553389176726341
220,-1.5791145674237672,-0.6024604020439219,-2.6552732590314516,-0.8239155411720276,0.5666714310646057,0.006853685714304447,0.3993103802204132,0.07627899944782257,-0.42841637134552,0.17875850200653076,-0.23280906677246094,0.09014642238616943
221,-1.5970181073758178,-0.5802216807655717,-2.6498335075200066,-0.8360536694526672,0.5482093691825867,0.021927841007709503,0.3636893033981323,-0.09072286635637283,-0.2729872763156891,-0.11200541257858276,0.3450249433517456,0.10987746715545654
222,-1.64155519294641,-0.5800475645887847,-2.6419293133403188,-0.834343671798706,0.5480636954307556,0.059135936200618744,0.5772787928581238,-0.029227418825030327,0.36917516589164734,-0.5164865255355835,0.16069185733795166,-0.336464524269104
223,-1.6053403408712887,-0.5897969115253465,-2.652861203346584,-0.8305579423904419,0.5561922788619995,0.028702223673462868,-0.24786904454231262,0.5609561800956726,-0.08089986443519592,0.13587093353271484,-0.27774983644485474,-0.09431493282318115
224,-1.5587913929470338,-0.5700123568122393,-2.6670000239337153,-0.8418335914611816,0.5396424531936646,-0.010106642730534077,-0.0568109005689621,0.5398867130279541,-0.4416005611419678,0.20343643426895142,-0.028930842876434326,0.16574627161026
225,-1.5312798898478635,-0.534907863318817,-2.6746581050724982,-0.8596440553665161,0.5097617506980896,-0.03398776426911354,0.05550411343574524,-0.12608429789543152,-0.13587473332881927,0.20081520080566406,0.1353493332862854,0.25305819511413574
226,-1.573704011255149,-0.513746854105797,-2.699823416446516,-0.8709056377410889,0.4914438724517822,0.002532325917854905,-1.3607417345046997,-0.2771945595741272,0.010246075689792633,-0.0004932880401611328,0.02372339367866516,0.0862739086151123
227,-1.6672729259425207,-0.5411094832249032,-2.8637635573800484,-0.8531517386436462,0.5150873064994812,0.08256550133228302,-1.5080249309539795,0.6163159012794495,0.0672309622168541,-0.6789374351501465,0.05905508995056152,-0.35971081256866455
228,-1.6578896642691952,-0.49806067683348826,-3.040995697695107,-0.875180721282959,0.47772273421287537,0.07641571760177612,-1.7463736534118652,1.1013280153274536,-0.36108195781707764,0.3767067790031433,-0.14347904920578003,-0.018905416131019592
229,-1.6133349456143993,-0.4779252769807261,3.081225627114662,-0.8871476650238037,0.4599379003047943,0.037760812789201736,-1.1201083660125732,1.1501996517181396,-0.02567627839744091,0.25171077251434326,-0.21627041697502136,-0.024363644421100616
230,-1.5619527613763853,-0.4895165204670885,2.993146340603544,-0.8825258016586304,0.47019925713539124,-0.007804878056049347,-0.20828211307525635,0.4274919033050537,0.22662866115570068,-0.01809370517730713,-0.09081995487213135,0.15518951416015625
231,-1.5871723562821498,-0.5128484672674887,2.9042303152581574,-0.8712335228919983,0.49066123366355896,0.014268621802330017,-1.4278062582015991,0.026206884533166885,0.008919289335608482,-0.22453057765960693,0.06953462958335876,0.1323530673980713
232,-1.6609710729316314,-0.486122755578258,2.68419567485129,-0.8805587291717529,0.4672013521194458,0.07962008565664291,-1.2387897968292236,0.5013539791107178,-0.26758649945259094,-0.08080601692199707,0.3346633017063141,-0.3237302303314209
233,-1.6351543973790055,-0.49880143353516826,2.6153441923186564,-0.876338541507721,0.47837334871292114,0.05647745728492737,-1.5163124799728394,0.57802414894104,-0.044789254665374756,0.11225473880767822,-0.12031060457229614,0.2539626359939575
234,-1.632921121591523,-0.47734304515950376,2.458633375360664,-0.8865054249763489,0.4594208300113678,0.05514492839574814,-1.1263312101364136,0.708309531211853,0.06849417090415955,0.3616639971733093,-0.2359100580215454,0.08621252328157425
235,-1.6236557614995124,-0.4700950842330003,2.388317569236846,-0.8902801275253296,0.45297107100486755,0.04710358381271362,-0.19989024102687836,-0.08956514298915863,-0.26355260610580444,0.00026535987854003906,-0.2116379737854004,0.2075960636138916
236,-1.6542134446239267,-0.42580895578494626,2.3084750098306825,-0.9075384140014648,0.4130576252937317,0.07588032633066177,-0.7714627385139465,0.35660088062286377,0.007931200787425041,-0.05118668079376221,0.2742593288421631,-0.2361891269683838
237,-1.6831337451988673,-0.44916874296718506,2.2083930877902795,-0.895130455493927,0.4342168867588043,0.10098178684711456,0.0828600525856018,-0.17093805968761444,0.4505757689476013,-0.2217366099357605,0.27679693698883057,-0.4560232162475586
238,-1.6530558876362818,-0.47333783923580214,2.201361595982097,-0.8870421051979065,0.4558596611022949,0.07313272356987,-0.4658397436141968,0.42242202162742615,-0.04681902378797531,0.017718374729156494,-0.14181852340698242,0.024203062057495117
239,-1.621087746782474,-0.45199505097500714,2.1285312684026954,-0.898440420627594,0.43676111102104187,0.045221976935863495,-0.7621158361434937,0.5487346053123474,0.35198116302490234,0.4875362515449524,-0.20952710509300232,0.07716883718967438
240,-1.6265563387898734,-0.4802868277098079,2.0415056072162834,-0.8854842782020569,0.46203356981277466,0.049425847828388214,-0.6307514309883118,0.33386921882629395,0.3199695348739624,-0.03738272190093994,-0.08743026852607727,-0.03106950968503952
241,-1.634662791135039,-0.4742518441380267,1.9625053329406745,-0.8878210186958313,0.4566729962825775,0.05677920952439308,-1.8778406381607056,0.47756797075271606,-0.43037867546081543,-0.12266188859939575,0.05632755160331726,0.18943655490875244
242,-1.6686577491744845,-0.3823280574978914,1.8085576032479254,-0.9233595132827759,0.3730814456939697,0.09065084159374237,0.5551260709762573,-0.07892023026943207,-1.3159756660461426,-0.14547288417816162,0.4045064151287079,-0.05009293556213379
243,-1.6813443158850543,-0.3586669293582511,1.7237790973443605,-0.9306498169898987,0.3510262966156006,0.10330262035131454,-1.111405849456787,1.0070774555206299,0.008558039553463459,0.20675766468048096,-0.08541658520698547,-0.20861876010894775
244,-1.6590997173419533,-0.37601532681273636,1.6913070001194124,-0.926511287689209,0.36721712350845337,0.08202739804983139,0.08236803114414215,0.2285080999135971,0.3810241222381592,0.355039119720459,-0.11779695749282837,0.037494659423828125
245,-1.649526550563345,-0.41995486597381415,1.7019971975648336,-0.9102789163589478,0.4077192544937134,0.07181490212678909,-0.01882937178015709,0.10532717406749725,0.43310433626174927,-0.030715346336364746,-0.23032057285308838,0.237068772315979
246,-1.6720005263479798,-0.4190502856279954,1.7084835150001323,-0.908801794052124,0.4068931043148041,0.09228985756635666,-0.07341713458299637,-0.0661822035908699,-0.23967032134532928,-0.11907601356506348,0.03346031904220581,0.10117626190185547
247,-1.6795904688838936,-0.404344649611462,1.7005539420836873,-0.913925051689148,0.3934163451194763,0.09982384741306305,1.0075263977050781,-0.1445675641298294,-0.14942172169685364,0.0513455867767334,0.07919418811798096,-0.27584922313690186
248,-1.6539059201302053,-0.46769334516170735,1.8485066736603468,-0.8895297050476074,0.45082855224609375,0.07409913837909698,1.5395636558532715,-0.2603413164615631,-0.06231109797954559,-0.07857942581176758,-0.33596038818359375,0.0007756948471069336
249,-1.6071264650711687,-0.45870873149524877,1.9863688359711908,-0.8960334658622742,0.442790687084198,0.032567348331213,1.9466936588287354,-0.9410499334335327,0.21391142904758453,0.3311987519264221,-0.12971079349517822,-0.27452588081359863
250,-1.5428262261989094,-0.5149486670268759,2.2287887920591176,-0.8699776530265808,0.49249017238616943,-0.024339709430933,2.3883016109466553,-0.6274430155754089,0.5824563503265381,-0.35833966732025146,0.10153445601463318,0.2125415802001953
251,-1.5006059200977084,-0.550587466040686,2.3970734524370925,-0.8501189947128296,0.5231879949569702,-0.05976838245987892,1.291327714920044,-1.0284730195999146,0.5904901623725891,-0.28554701805114746,-0.051965951919555664,0.21821564435958862
252,-1.5852942684466147,-0.5722674169248604,2.466052366134105,-0.8405869603157043,0.5415396094322205,0.012187634594738483,0.19978326559066772,-0.975115180015564,-0.8718518614768982,-0.36266016960144043,0.23926794528961182,-0.06605112552642822
253,-1.669350257566348,-0.47722305837555024,2.4184232269542805,-0.8839635252952576,0.4593142569065094,0.08740123361349106,0.3169653117656708,0.22229494154453278,-0.6792585253715515,0.27741140127182007,0.0081082284450531,-0.355787992477417
254,-1.6518848482742796,-0.4816064529812167,2.5012586340396346,-0.8833399415016174,0.463203489780426,0.07178613543510437,1.4644159078598022,-0.446529358625412,0.02945493720471859,0.02121824026107788,-0.20948028564453125,-0.03206752985715866
255,-1.5905085713282445,-0.4480471038752388,2.5905355977118902,-0.9011198878288269,0.4332062304019928,0.01776539720594883,1.086904525756836,-0.8192560076713562,-0.04162592068314552,0.33604103326797485,-0.4026122987270355,0.09847605228424072
256,-1.662077133444784,-0.41499141888380564,2.6463003636321423,-0.9113100171089172,0.40318208932876587,0.08341692388057709,0.47232890129089355,-1.8112807273864746,-0.45541682839393616,-0.5809995532035828,0.6407632827758789,-0.20597553253173828
257,-1.7602230353201784,-0.39221262923539624,2.5900502758283954,-0.9075362682342529,0.38223397731781006,0.17399775981903076,-0.2129564881324768,0.4157240390777588,-0.7980921864509583,-0.5581161975860596,0.35030996799468994,-0.5203722715377808
258,-1.6919855941043664,-0.4034318976405742,2.7075089128222123,-0.9129735231399536,0.39257702231407166,0.11118745803833008,0.3147089183330536,0.1624443680047989,-0.36126020550727844,0.2506963014602661,-0.27159008383750916,0.3545260429382324
259,-1.6790672638310655,-0.3682749334881796,2.664108110066963,-0.9274868369102478,0.36000657081604004,0.10081411153078079,-0.5108773708343506,-0.15585646033287048,-0.447237104177475,0.4710354208946228,-0.34036850929260254,0.1103675365447998
260,-1.6895012306427404,-0.3509541548934866,2.6242452351758425,-0.9324368834495544,0.34379395842552185,0.11120765656232834,0.1797952950000763,-0.5520861148834229,0.03977318853139877,-0.11353778839111328,-0.35655033588409424,-0.017442472279071808
261,-1.84403732530867,-0.31265274430199974,2.5841511360774283,-0.9162209033966064,0.30758386850357056,0.25677138566970825,-1.3953913450241089,-0.4523242115974426,-0.9467357397079468,-0.674919843673706,0.30864235758781433,-0.387081503868103
262,-1.9013863056658544,-0.2026893855891222,2.4622728351289798,-0.9264883399009705,0.2013043910264969,0.3179561495780945,-1.003150224685669,0.33012300729751587,-0.4565827250480652,-0.28617340326309204,0.07892325520515442,-0.4459620714187622
263,-1.8684010264202706,-0.210415711250546,2.481343794634079,-0.9349554181098938,0.20886646211147308,0.28676360845565796,0.2620140314102173,0.5936076641082764,1.5890190601348877,0.758136510848999,0.06855359673500061,0.13157129287719727
264,-1.814109126621051,-0.5043774587767661,2.458895286856938,-0.8496886491775513,0.4832625091075897,0.2109188586473465,1.5531916618347168,0.46477577090263367,2.561558246612549,-0.05230426788330078,-0.11880627274513245,-0.1415676772594452
265,-1.726436053253943,-0.5809722936320106,2.6201149287663332,-0.8258254528045654,0.5488369464874268,0.12957923114299774,0.542532205581665,-0.36350446939468384,-0.8347813487052917,-0.1254686713218689,-0.3533717393875122,0.2919296324253082
266,-1.793369246742856,-0.4312622497572435,2.654961167416512,-0.8860301375389099,0.41801780462265015,0.20052862167358398,-0.8041106462478638,-0.7668651938438416,-1.2630348205566406,-0.4862232804298401,0.08948951959609985,-0.050977230072021484
267,-1.8326367121586034,-0.29317257602375935,2.623504754757073,-0.9247015714645386,0.28899088501930237,0.24781367182731628,-0.3233702480792999,1.2477465867996216,0.5223268866539001,0.18092703819274902,0.02846825122833252,-0.006968945264816284
268,-1.7435743332854774,-0.37343670565011317,2.613840721457027,-0.9172161817550659,0.36481741070747375,0.16007079184055328,0.7282692193984985,0.5282021164894104,1.3674525022506714,0.3124036192893982,-0.05912289023399353,-0.11983336508274078
269,-1.643982401809091,-0.4758320160833662,2.7174570523710644,-0.8865322470664978,0.45807820558547974,0.06499790400266647,1.4866113662719727,0.30077195167541504,0.8620730638504028,0.14941078424453735,-0.12166774272918701,0.013127081096172333
270,-1.5786082838957727,-0.5031546147756077,2.837921020129282,-0.8760390877723694,0.4821915924549103,0.006843718700110912,0.17357094585895538,0.32605645060539246,0.5378732085227966,-0.23332065343856812,0.07092425227165222,0.4231642484664917
271,-1.7036399267699434,-0.5062449892604401,2.752893996142252,-0.8668657541275024,0.4848966598510742,0.11583979427814484,-1.0970048904418945,-0.8057929873466492,-0.2922689616680145,-0.5505993366241455,0.3975038230419159,-0.3245648145675659
272,-1.7161282683363337,-0.4758299858677836,2.6752954651205716,-0.8795417547225952,0.4580763876438141,0.12873312830924988,-0.7026321291923523,0.58530592918396,0.2605823576450348,0.28713458776474,0.08267980813980103,-0.06888820230960846
273,-1.7243037292665098,-0.5023703278285877,2.6665111943125965,-0.8661374449729919,0.48150435090065,0.13401281833648682,-0.4095805585384369,0.6141754388809204,0.23577308654785156,0.3882932662963867,-0.10293379426002502,0.13811242580413818
274,-1.672104463095263,-0.5062151033016798,2.6666402146529147,-0.8701017498970032,0.4848705232143402,0.08845119178295135,0.6270850300788879,0.4122955799102783,0.15680745244026184,0.23278790712356567,-0.05597648024559021,4.982948303222656e-05
275,-1.7559976524807364,-0.4671799922103884,2.705646549012974,-0.8775734901428223,0.45037025213241577,0.16441182792186737,-0.43857505917549133,-0.8555364608764648,-1.1142528057098389,-0.32385772466659546,-0.04547834396362305,0.7318893671035767
276,-1.7454145739472007,-0.3539160280213755,2.7288907500343917,-0.9237581491470337,0.34657377004623413,0.16296476125717163,1.460955262184143,-1.5468562841415405,-2.8395192623138428,-0.6164792776107788,0.18182280659675598,-0.5027322769165039
277,-1.819260741803219,-0.15166733785849992,2.850917409971893,-0.9581642746925354,0.15108653903007507,0.2430928498506546,-1.7477281093597412,0.15530216693878174,-1.2806562185287476,0.0912361741065979,0.07663562893867493,0.16268408298492432
278,-1.582467421997718,-0.1812168588697354,2.6620224552741805,-0.9835581183433533,0.1802266389131546,0.011479721404612064,-1.2898317575454712,3.329584836959839,0.7527236938476562,0.715491771697998,-0.040410369634628296,0.20986425876617432
279,-1.5083740185535626,-0.31214105299727324,2.5959984429655547,-0.949824869632721,0.307096928358078,-0.05936739221215248,0.3211039900779724,-0.4972037076950073,1.0348237752914429,0.15035569667816162,-0.16888275742530823,-0.09691311419010162
280,-1.5438381248195183,-0.40439032071266356,2.6568380758646177,-0.9190083146095276,0.3934583365917206,-0.024780815467238426,0.8424261808395386,-2.0235278606414795,-0.4918353259563446,-0.49865514039993286,-0.3019818961620331,0.12687736749649048
281,-1.7292049815080532,-0.31538131083508336,2.6201552183852623,-0.9387751817703247,0.3101789951324463,0.14996659755706787,0.193405419588089,-2.522690773010254,-2.3558247089385986,-0.7357699871063232,0.09828349947929382,-1.0421937704086304
282,-1.8547859639601725,-0.16888728716749526,2.7073125518551784,-0.9462876319885254,0.16808557510375977,0.2762013375759125,-0.022506071254611015,-0.8983644843101501,-0.7293500900268555,0.061628758907318115,0.18553687632083893,-0.260042279958725
283,-1.8608272283810299,-0.19583831694252385,2.759486231677286,-0.9399183392524719,0.19458889961242676,0.28051528334617615,0.1949062943458557,0.4471263885498047,1.17035710811615,0.5820233821868896,-0.12477993965148926,-0.08410418033599854
284,-1.7963056171214882,-0.29429893680893876,2.7774259883505463,-0.9327749013900757,0.29006901383399963,0.21398919820785522,0.6104544401168823,1.8096654415130615,0.6278802752494812,0.11119568347930908,-0.03494200110435486,-0.012756183743476868
285,-1.7435769342739333,-0.3765702335478614,2.8219241963823136,-0.9160852432250977,0.3677331805229187,0.15987586975097656,0.29336631298065186,-1.1121444702148438,-0.08342915773391724,-0.5505437850952148,-0.0609399676322937,0.8788204193115234
286,-1.7315586148227196,-0.4149229930658318,2.7589280547003914,-0.9033472537994385,0.40311944484710693,0.14648832380771637,0.33802568912506104,0.41954436898231506,0.3808949291706085,-0.5742987394332886,0.11142224073410034,-0.5489846467971802
287,-1.618995046819704,-0.4118690433841415,2.8233471283897007,-0.9153100252151489,0.4003227651119232,0.04415096715092659,0.7144418358802795,1.0754799842834473,0.36607566475868225,0.16128170490264893,-0.11731800436973572,0.0732654333114624
288,-1.5288926969810361,-0.37947743378150545,2.8264179772906983,-0.928043007850647,0.37043511867523193,-0.03891114890575409,-0.060608334839344025,0.5783185362815857,-0.2250300943851471,0.666843056678772,-0.19140377640724182,0.19848757982254028
289,-1.4863687849071907,-0.3585487431892913,2.7695457548509683,-0.9330717325210571,0.3509156405925751,-0.07896465808153152,-0.746833860874176,0.3711525797843933,-0.10947857052087784,0.07574141025543213,0.01985764503479004,0.23788493871688843
290,-1.4055894884862734,-0.3832413570202342,2.7918331528448292,-0.9148294925689697,0.37392863631248474,-0.15252627432346344,-0.08833975344896317,-0.17306223511695862,0.0992472767829895,-0.742107093334198,-0.22918382287025452,0.5393365621566772
291,-1.5327316380874374,-0.34915435791325006,2.7120292877552123,-0.9389815330505371,0.3421033024787903,-0.03575931116938591,-1.5065253973007202,-0.6481457352638245,-0.8446140289306641,-0.20313864946365356,0.40695059299468994,-0.17668884992599487
292,-1.572627561618854,-0.2935223322341318,2.6460197319834085,-0.9572290182113647,0.28932568430900574,0.0017529131146147847,0.19107237458229065,-0.06690941005945206,-0.504252552986145,0.497008740901947,0.08062362670898438,-0.06019401550292969
293,-1.5900609465546047,-0.2894408243699419,2.6372371614902574,-0.9582258462905884,0.2854163646697998,0.01846214011311531,-0.16361109912395477,0.18213492631912231,0.030834786593914032,0.4203230142593384,-0.2141425609588623,-0.026564598083496094
294,-1.5666909983372428,-0.30999495625583273,2.6504100137252826,-0.9523270130157471,0.30505383014678955,-0.0039096372202038765,0.8088325262069702,-0.3320814371109009,0.05017978698015213,-0.10846394300460815,-0.0057832300662994385,0.09073209762573242
295,-1.7247396865597044,-0.22835416578856157,2.673793833172462,-0.9625214338302612,0.22637471556663513,0.14935548603534698,-1.767199158668518,0.8099928498268127,-0.6767541170120239,-0.01623833179473877,-0.048792943358421326,0.6701788902282715
296,-1.69493423048036,-0.2933640631426879,2.6835527124127085,-0.9499099850654602,0.2891741991043091,0.118529312312603,0.5006067752838135,-1.5426300764083862,1.199373722076416,-0.30347740650177,0.19790157675743103,-0.3696737289428711
297,-1.5841989705421224,-0.32295682088975247,2.7619632805974614,-0.9482161402702332,0.3173719048500061,0.012709364295005798,1.7537715435028076,0.7188337445259094,0.33323484659194946,0.0668683648109436,-0.2570691406726837,0.06073117256164551
298,-1.5313148209295129,-0.3309286322551455,2.864599587206627,-0.9450041055679321,0.3249213993549347,-0.03732958436012268,-0.17407725751399994,-0.03777483105659485,0.028992803767323494,0.5866208076477051,-0.2616889774799347,0.17664235830307007
299,-1.5389460464653184,-0.30788250806168604,2.7893721031432452,-0.9524940848350525,0.30304139852523804,-0.030347464606165886,-1.0000382661819458,0.33651337027549744,-0.305387943983078,0.2969154715538025,0.057920485734939575,-0.09359967708587646
300,-1.506767934734975,-0.3358693734927951,2.8327252917313706,-0.9421895146369934,0.3295900821685791,-0.06040945649147034,0.9236972332000732,0.6466744542121887,0.500329315662384,-0.4282175302505493,0.0277860164642334,0.2837676405906677
301,-1.5837965121645472,-0.3458370729879373,2.824648826609099,-0.9407126903533936,0.33898431062698364,0.012230128049850464,-2.2449872493743896,-0.7631188631057739,-0.6939229369163513,-0.43184608221054077,0.24580880999565125,0.004615547135472298
302,-1.633834388122961,-0.2760862076044283,2.696898790628485,-0.960218608379364,0.272592157125473,0.06061062589287758,-0.11451706290245056,0.34800395369529724,-0.8662172555923462,-0.005601644515991211,0.19513550400733948,-0.33331573009490967
303,-1.6758408357289984,-0.22099126743134578,2.7094903150843885,-0.9703025221824646,0.2191968858242035,0.10230150818824768,-0.36580368876457214,-0.1259523183107376,-0.45033276081085205,0.4043693542480469,-0.15851269662380219,0.11727248877286911
304,-1.6760635774063497,-0.20579515227976175,2.7257757503430446,-0.973480224609375,0.20434559881687164,0.10285578668117523,0.9797873497009277,-0.5699483752250671,-0.20724865794181824,0.3094634413719177,-0.10995471477508545,-0.12141048908233643
305,-1.7472598867735014,-0.1779281973237059,2.8388636370738762,-0.968928337097168,0.17699086666107178,0.1727776825428009,0.0890314131975174,-0.7678731083869934,-0.9858373999595642,-0.46411609649658203,-0.17017017304897308,0.9228185415267944
306,-1.7424192160466279,-0.07202159684881276,2.8438581599630317,-0.9827545285224915,0.07195934653282166,0.17033888399600983,1.0144081115722656,-0.5815792083740234,-0.5066049695014954,-0.19111931324005127,0.06437792629003525,-0.6940968036651611
307,-1.704881293536004,-0.010266199154509381,2.9465964921932057,-0.9909718632698059,0.010266019031405449,0.13367649912834167,0.8916493654251099,0.9231930375099182,-0.9969739317893982,-0.1678263545036316,0.0378296822309494,0.04425621032714844
308,-1.6139908268826377,0.05548605614805559,2.9832066701882307,-0.9975298643112183,-0.05545758828520775,0.04311462119221687,-0.30935138463974,0.9087331295013428,-0.4884282946586609,0.5385911464691162,0.03682659938931465,0.022711876779794693
309,-1.5278031428364043,0.055551671050666974,2.9270418190119964,-0.9975348114967346,-0.0555231049656868,-0.04291364178061485,-0.8710638284683228,1.1054176092147827,0.09030725061893463,0.23142153024673462,0.001598544418811798,0.02876877784729004
310,-1.3805320507526533,0.00825880374623928,2.8732656369061886,-0.9819207787513733,-0.00825870968401432,-0.18911194801330566,0.35307422280311584,0.07248472422361374,1.065630316734314,-0.015103757381439209,-0.15253841876983643,0.05779486894607544
311,-1.2956575381323154,-0.027056060895352136,2.907609718297685,-0.9620352983474731,0.027052760124206543,-0.27158108353614807,0.1741565465927124,-1.637008547782898,-0.04691167548298836,-0.27693259716033936,-0.23246657848358154,0.21298733353614807
312,-1.4373750099112153,-0.03780212876341701,2.8130302117380683,-0.990404486656189,0.037793125957250595,-0.13293078541755676,-0.2058681696653366,-0.8449859023094177,0.02541307732462883,-0.22274547815322876,0.3290434181690216,-0.5977668762207031
313,-1.4649046411188116,-0.059560486997627116,2.7923555262907134,-0.9926355481147766,0.059525277465581894,-0.10550649464130402,-0.12903502583503723,0.09629137068986893,0.34625881910324097,0.46945732831954956,0.0716087594628334,0.004615411162376404
314,-1.462488710534133,-0.09556980486819026,2.787633994748569,-0.9896039962768555,0.09542439132928848,-0.10760272294282913,-0.08996009081602097,0.1935463845729828,0.2685920298099518,0.3647869825363159,-0.1438862830400467,0.05694352090358734
315,-1.4432681711190845,-0.11405927794603504,2.804111991267053,-0.9854344129562378,0.11381212621927261,-0.12635637819766998,0.3424925208091736,-0.45889565348625183,0.0668255090713501,0.04778176546096802,-0.05186145007610321,0.2290632724761963
316,-1.574174551780176,-0.05808432774830692,2.7852564187640443,-0.998308002948761,0.05805167183279991,0.0033725218381732702,-0.6914746761322021,-1.807316541671753,-0.9905872344970703,-0.5318434834480286,-0.2524486482143402,0.6524959802627563
317,-1.5909940706801675,-0.0664373351373239,2.811362121993534,-0.9975903630256653,0.06638847291469574,0.020151814445853233,1.379256248474121,-0.6550744771957397,1.4474191665649414,-0.09184139966964722,0.06274665892124176,-0.49650073051452637
318,-1.5476142409414393,-0.11464801224090099,2.8688111977220623,-0.9931681752204895,0.11439701914787292,-0.02302783541381359,0.8115870356559753,0.8852810263633728,0.11081385612487793,0.030231833457946777,-0.2552661597728729,-0.17014843225479126
319,-1.4779381116199692,-0.09977633192635277,2.9278947656898295,-0.9907397627830505,0.09961086511611938,-0.09226366132497787,0.3606036901473999,0.4317123293876648,-0.030392952263355255,0.4482439160346985,-0.013841189444065094,0.12752670049667358
320,-1.4370278966030543,-0.11921852829024139,2.8722451485656046,-0.9840316772460938,0.11893632262945175,-0.13242317736148834,-1.3805696964263916,1.00990891456604,-0.4496779441833496,0.10756683349609375,-0.16181352734565735,0.0053784847259521484
321,-1.4161700958015246,-0.1473232746002936,2.79213691594199,-0.9773659706115723,0.14679093658924103,-0.15234248340129852,0.20777714252471924,-0.3155692517757416,0.2866213023662567,-0.6079306602478027,-0.05616900324821472,0.003111541271209717
322,-1.4325767563287577,-0.1589046739854728,2.835719033764212,-0.9779843091964722,0.1582367718219757,-0.13604402542114258,-0.25829166173934937,-0.7702628374099731,-0.06834783405065536,-0.6753056049346924,0.056378111243247986,0.04114966094493866
323,-1.487229266113611,-0.1145066319707083,2.734562311466156,-0.9899844527244568,0.11425656825304031,-0.08292321115732193,-1.597715139389038,-0.3977430760860443,-0.8336360454559326,-0.07710844278335571,0.1904004067182541,-0.511284589767456
324,-1.466285373379731,-0.07663322324386262,2.724670240143173,-0.9916248917579651,0.07655823975801468,-0.10401463508605957,0.3650668263435364,0.5033993124961853,0.2870144546031952,0.6643238067626953,0.09919250011444092,0.33933568000793457
325,-1.4574666004794747,-0.11341017006384838,2.7532454176663004,-0.9872022271156311,0.11316721886396408,-0.11236081272363663,0.08350305259227753,0.3281702697277069,0.31358033418655396,0.4899945855140686,-0.09621469676494598,0.3174389600753784
326,-1.444374433691093,-0.14183669281629233,2.783096197086947,-0.9820575714111328,0.14136159420013428,-0.12481926381587982,0.25223904848098755,-0.3591453731060028,0.12726064026355743,0.1411914825439453,0.00014841556549072266,0.18797540664672852
327,-1.5481159946824556,-0.09608360249929479,2.7359887529321973,-0.9951316714286804,0.09593582898378372,-0.022573787719011307,-1.2789421081542969,-1.7242841720581055,-0.9562166929244995,-0.04467862844467163,-0.22938917577266693,0.4828703999519348
328,-1.523071525027161,-0.12870454258128033,2.7973272832595053,-0.9905998110771179,0.12834951281547546,-0.04731210693717003,-0.7793715596199036,-0.08105389028787613,-0.3441009521484375,-0.5094612240791321,0.12033823132514954,-0.08830797672271729
329,-1.4920992405273243,-0.13998863795153196,2.7997936461295363,-0.9871528744697571,0.13953186571598053,-0.07784683257341385,0.7183579802513123,0.8990663886070251,-0.6717387437820435,-0.00576704740524292,-0.17416933178901672,0.10299330949783325
330,-1.4724483928476677,-0.1347818110133697,2.765644955986688,-0.986142098903656,0.13437409698963165,-0.09729894250631332,-0.13143675029277802,0.039886023849248886,-0.12490395456552505,0.25231659412384033,-0.11821506917476654,-0.14794032275676727
331,-1.4410056278391365,-0.14623757354797493,2.751399082095669,-0.9810051321983337,0.14571690559387207,-0.12804514169692993,0.1908821165561676,0.3486778736114502,0.004616294056177139,0.11743396520614624,-0.14208531379699707,0.06928354501724243
332,-1.4146788856362749,-0.17147405497552345,2.7394454004369644,-0.9733511209487915,0.17063497006893158,-0.15320377051830292,0.1760350614786148,0.6872646808624268,0.0431038960814476,-0.20685523748397827,-0.11275838315486908,0.06302432715892792
333,-1.4376582895606902,-0.16964338612716048,2.7339108444781672,-0.9769223928451538,0.16883087158203125,-0.1308395266532898,-0.8526474237442017,-0.43811845779418945,-0.3385702967643738,-0.4780489206314087,0.15364839136600494,-0.02083289623260498
334,-1.5146874398505135,-0.1355541728378256,2.6795352620854036,-0.9892673492431641,0.13513942062854767,-0.055565014481544495,-1.185652494430542,-0.35182487964630127,-0.8151726722717285,-0.21764183044433594,0.11774447560310364,-0.4195479154586792
335,-1.5105073410875833,-0.11557244115801377,2.663688999793667,-0.9915242195129395,0.11531533300876617,-0.05985052138566971,0.165056973695755,-0.12307260930538177,0.1048293337225914,0.30155235528945923,0.021464459598064423,0.03368169441819191
336,-1.5180849482245937,-0.11670068550335785,2.670715762206771,-0.9918187856674194,0.11643597483634949,-0.05232860893011093,0.06883423775434494,0.09963218867778778,0.08497729152441025,0.31373339891433716,-0.11088177561759949,0.08486032485961914
337,-1.5438762080254487,-0.12802034741995505,2.699164094866657,-0.9914573431015015,0.12767094373703003,-0.026696598157286644,0.5984571576118469,-1.115530014038086,0.05718301981687546,-0.010495901107788086,-0.13171450793743134,0.2809690237045288
338,-1.6486826695754904,-0.05908639214606203,2.6844983908806546,-0.9952287077903748,0.05905201658606529,0.0776718482375145,-0.04171006754040718,-1.6492865085601807,-0.6732397675514221,-0.1002303957939148,-0.1255498230457306,0.37580406665802
339,-1.6083094209421733,-0.08543659523481743,2.7430532633733584,-0.995651364326477,0.08533269166946411,0.03736749291419983,0.37428319454193115,-0.7831302881240845,0.06402190774679184,-0.14697229862213135,0.131937175989151,-0.10464347153902054
340,-1.5463946616197992,-0.11782766357241166,2.769669570788434,-0.9927706122398376,0.11755520850419998,-0.02423006482422352,1.3536489009857178,0.9721381664276123,0.2770269513130188,-0.0991176962852478,-0.16160735487937927,-0.22041410207748413
341,-1.492019265147479,-0.12148989605159145,2.7907092103843065,-0.9895506501197815,0.12119125574827194,-0.0781155526638031,-0.3302464783191681,0.09516613185405731,0.2615078091621399,0.42752379179000854,-0.018560655415058136,0.1276302933692932
342,-1.4660241554367552,-0.15607516047856673,2.752708880344183,-0.9824281334877014,0.1554422825574875,-0.10330942273139954,-0.9331870079040527,0.35826998949050903,-0.032943058758974075,0.12119156122207642,-0.2103739082813263,0.10094428062438965
343,-1.4406555337409677,-0.18136593301302512,2.724485339056384,-0.9752805829048157,0.18037326633930206,-0.12764522433280945,0.5090858340263367,0.3732270896434784,0.43900376558303833,-0.3162538409233093,-0.26676854491233826,0.11377501487731934
344,-1.4549614410833616,-0.18464454608634626,2.7303068292996415,-0.9764140844345093,0.183597132563591,-0.11361140012741089,0.5531994700431824,-0.018729662522673607,0.12053021788597107,-0.41602665185928345,0.0623898059129715,-0.2483423352241516
345,-1.5383220825908963,-0.15744523530954602,2.6821013173621524,-0.9871105551719666,0.15679556131362915,-0.032066941261291504,-2.0625948905944824,-0.8978212475776672,-0.7284625172615051,-0.1244770884513855,0.12244029343128204,-0.482688307762146
346,-1.4971015544900697,-0.11520262158796506,2.6434274401043174,-0.9906753301620483,0.11494796723127365,-0.07314004749059677,0.6168117523193359,0.37064677476882935,0.04846958816051483,0.5609878301620483,0.031261757016181946,0.15120398998260498
347,-1.49371296114012,-0.11381813703844182,2.639774856353744,-0.9905794858932495,0.11357255280017853,-0.07650879770517349,0.015342882834374905,0.6619645953178406,0.056689754128456116,0.3671969771385193,-0.014649838209152222,-0.04905581474304199
348,-1.5241969434001281,-0.14111542803397992,2.700201583662517,-0.9889850616455078,0.1406475454568863,-0.046119481325149536,0.12777936458587646,-1.1092063188552856,-0.22820082306861877,-0.31416141986846924,0.0355762243270874,0.5181806087493896
349,-1.6332210022146907,-0.04907201650233671,2.6025913273429078,-0.996850848197937,0.04905232414603233,0.06230904534459114,-0.7048611044883728,0.8704054355621338,-0.13103114068508148,-0.11871922016143799,0.20749369263648987,-0.43476080894470215
350,-1.5857263946485922,-0.0918501373067385,2.621882047055192,-0.9956737756729126,0.09172104299068451,0.014866582117974758,-0.7554886341094971,0.4170471727848053,-0.21401996910572052,-0.3553241491317749,0.2499537616968155,-0.5086562633514404
351,-1.478044911609954,-0.10511687284343386,2.697144172930694,-0.990205705165863,0.10492339730262756,-0.09210725873708725,0.015343941748142242,0.7509915232658386,-0.19234760105609894,0.36731141805648804,-0.09491361677646637,0.6354269981384277
352,-1.4625046472827659,-0.11222316766761942,2.667095667447098,-0.9878886342048645,0.11198776215314865,-0.10740027576684952,-0.3562755584716797,-0.04646778479218483,0.39020711183547974,0.286579430103302,0.005489662289619446,0.07137429714202881
353,-1.4448341379014318,-0.14813819903169484,2.6401929295696047,-0.9812116622924805,0.14759698510169983,-0.12425342202186584,0.22139309346675873,0.28268858790397644,0.49944522976875305,0.08547496795654297,-0.13937248289585114,-0.03182876110076904
354,-1.4002594457234858,-0.1802742804157587,2.67475646148787,-0.969523549079895,0.17929941415786743,-0.16696123778820038,0.5590406656265259,0.5176246762275696,0.02329157665371895,-0.35324573516845703,-0.33640390634536743,0.2788538932800293
355,-1.4464203655694803,-0.17148708055641912,2.6753403918753844,-0.9777206778526306,0.17064779996871948,-0.12223590165376663,0.2617630660533905,-0.8333701491355896,-0.6628014445304871,-0.0016646981239318848,0.22901040315628052,-0.1817343831062317
356,-1.5664993469952573,-0.1469680929277825,2.5608443599058126,-0.9892104864120483,0.1464395821094513,-0.004250643774867058,-0.795087993144989,0.05719589814543724,-0.4404604732990265,-0.07751613855361938,0.11344809830188751,-0.7266758680343628
357,-1.5381838746680287,-0.13218970473666794,2.558657694068922,-0.9907485842704773,0.13180506229400635,-0.03232220187783241,0.07811101526021957,0.21545253694057465,0.29660388827323914,0.3775283694267273,-0.09439051151275635,0.022129297256469727
358,-1.5306988449833288,-0.13684921620055984,2.588174084873345,-0.9898544549942017,0.13642247021198273,-0.039711955934762955,0.9827184081077576,0.20243950188159943,0.3345206677913666,0.38015908002853394,-0.10039649903774261,-0.10312557220458984
359,-1.5749683750611467,-0.1429066066182615,2.6235743723608307,-0.9897975921630859,0.142420694231987,0.00412950711324811,0.4274281859397888,-1.310390591621399,-0.3902941346168518,-0.2730502486228943,-0.241053506731987,0.2743281126022339
360,-1.6335779086029225,-0.04851899181737922,2.548487150876721,-0.9968554377555847,0.04849995672702789,0.06266652047634125,0.8859186172485352,0.8080744743347168,0.40567541122436523,0.08227407932281494,0.5925828218460083,-0.9035021066665649
361,-1.6224426509615675,-0.11022861851259706,2.5590657159782455,-0.9926056265830994,0.11000553518533707,0.051310062408447266,0.8347757458686829,1.2373998165130615,0.748135507106781,-0.43023061752319336,0.25054439902305603,-0.6337838172912598
362,-1.5170063221828047,-0.1419383073692749,2.639823343935988,-0.9885119199752808,0.14146219193935394,-0.05322340130805969,-0.3330358862876892,0.44304391741752625,-0.022920798510313034,0.26361262798309326,0.002000942826271057,0.3414161801338196
363,-1.4868373169527644,-0.1496209837608871,2.625620797142073,-0.985344409942627,0.1490633636713028,-0.08292347937822342,-0.20965278148651123,0.18095484375953674,-0.10532759130001068,0.346230149269104,-0.1343538910150528,0.05953175574541092
364,-1.46541427280215,-0.14649129781648967,2.619884742553913,-0.9838012456893921,0.14596791565418243,-0.10406048595905304,0.08895095437765121,0.07822301983833313,-0.1241474598646164,0.10671079158782959,-0.08839650452136993,0.20008403062820435
365,-1.4541697339051411,-0.16661597395260488,2.6537964496107254,-0.9794526100158691,0.16584613919258118,-0.11475096642971039,0.3727846145629883,-1.047095775604248,0.3997911214828491,-0.47890615463256836,-0.23908832669258118,0.22244751453399658
366,-1.5292066419957364,-0.14361465679079854,2.636691997573178,-0.9888494610786438,0.14312148094177246,-0.04114966467022896,0.10462568700313568,-0.8032781481742859,-0.4260595440864563,-0.21113234758377075,0.41431260108947754,-0.24420493841171265
367,-1.5523535273126623,-0.1210000013731207,2.5958008556309125,-0.9925196766853333,0.12070495635271072,-0.01830691657960415,0.20735053718090057,0.5762720108032227,-0.05111749470233917,0.22755080461502075,0.013587653636932373,-0.2534215450286865
368,-1.5274314986225188,-0.12728700126303608,2.6009591718087974,-0.9909773468971252,0.12694355845451355,-0.04300051927566528,0.26247918605804443,0.3114466369152069,0.10235801339149475,0.3655959963798523,-0.07575033605098724,-0.02740352973341942
369,-1.503002390958527,-0.14441106430021608,2.630877666733576,-0.9873175024986267,0.14390964806079865,-0.06703687459230423,0.6109892129898071,0.16887791454792023,0.3510020077228546,0.16738659143447876,-0.10969944298267365,0.05119825154542923
370,-1.56590023226508,-0.13513554609035294,2.6439753187667865,-0.990871250629425,0.13472461700439453,-0.004851438105106354,-0.5064400434494019,-0.9393945336341858,-0.9579290747642517,-0.5902139544487,-0.13968373835086823,0.5350485444068909
371,-1.5586968992239911,-0.09155590857527987,2.616988851816148,-0.995738685131073,0.09142804890871048,-0.012048455886542797,1.1578525304794312,0.7328979969024658,1.035910964012146,-0.21164339780807495,0.24511978030204773,-0.68166184425354
372,-1.5680326133623452,-0.1264338033210931,2.631517503258148,-0.9920139908790588,0.12609721720218658,-0.0027416495140641928,0.0671330988407135,0.8349559307098389,0.4052658677101135,-0.03349858522415161,0.14630265533924103,-0.5211536288261414
373,-1.4860922919483703,-0.14139315503757546,2.6942582872494643,-0.9864712357521057,0.14092250168323517,-0.08375850319862366,-0.5516332387924194,0.2664802074432373,-0.0498749241232872,0.5064297318458557,-0.05112454295158386,0.36807554960250854
374,-1.4752836678797285,-0.15555374919859463,2.6515098431440554,-0.9834230542182922,0.15492717921733856,-0.09421602636575699,-0.3569978177547455,0.1513187736272812,0.1823481172323227,0.14338093996047974,-0.08025066554546356,-0.03841334581375122
375,-1.4425203611256652,-0.176121668307644,2.6549047512871224,-0.9764416813850403,0.175212562084198,-0.1259455531835556,0.5203803777694702,0.3726063370704651,0.16569136083126068,-0.15113705396652222,-0.08857317268848419,0.158263698220253
376,-1.3930001048280183,-0.19753994244942052,2.707631651518462,-0.9650949239730835,0.19625771045684814,-0.1734214574098587,0.6949862837791443,-0.17490127682685852,-0.31628668308258057,-0.8314903378486633,-0.23741061985492706,0.4708612561225891
377,-1.5119409785871198,-0.15578204398496112,2.6390358974652326,-0.9861800670623779,0.15515272319316864,-0.05810908228158951,-1.3371645212173462,-0.677358865737915,-0.7973732948303223,-0.14585423469543457,0.37446457147598267,-0.3261987566947937
378,-1.5589737891146576,-0.1049992845216975,2.5288614086627095,-0.9944232106208801,0.10480646044015884,-0.01175715308636427,0.08885118365287781,0.3251737356185913,0.11669889837503433,0.27738213539123535,0.12209174036979675,-0.47609686851501465
379,-1.5445869764496993,-0.12620371147103232,2.5806913736388877,-0.9917060732841492,0.12586896121501923,-0.02599792554974556,-0.44656240940093994,-0.31938132643699646,-0.14613428711891174,0.20217067003250122,-0.1880638152360916,0.4062774181365967
380,-1.51011205930378,-0.1336867704346832,2.5881603111134734,-0.9892528653144836,0.1332889199256897,-0.060105886310338974,0.7479830384254456,-0.15158461034297943,0.34281301498413086,0.2601879835128784,-0.04136998951435089,0.11461031436920166
381,-1.5781704750948524,-0.12990480184872932,2.6240830387187075,-0.9915474057197571,0.12953974306583405,0.007311949972063303,-0.5595038533210754,-0.6398791670799255,-1.1485880613327026,-0.6282951831817627,-0.26949334144592285,0.7155121564865112
382,-1.5840030929255728,-0.08197694685152518,2.5923714302430736,-0.9965549111366272,0.08188515901565552,0.013162032701075077,0.7720520496368408,0.5511893033981323,1.0073521137237549,-0.1718868613243103,0.1470119208097458,-0.7464994192123413
383,-1.5527701874751112,-0.1186866873674615,2.6086352097182783,-0.992803692817688,0.11840823292732239,-0.017898356541991234,0.22349201142787933,1.063109040260315,0.3573859632015228,-0.15816670656204224,0.12911982834339142,-0.3671419620513916
384,-1.4694695257059587,-0.11094077317480974,2.701394230733096,-0.9887547492980957,0.11071334034204483,-0.10053165256977081,-0.07421433925628662,0.5862743854522705,-0.5593754649162292,0.4444737434387207,-0.07245954871177673,0.3862829804420471
385,-1.4587498502390435,-0.09635313581804617,2.6363778340765216,-0.9891201853752136,0.09620411694049835,-0.11129356175661087,-0.6793398261070251,0.002315069315955043,-0.011019546538591385,0.3368373513221741,0.029467284679412842,-0.06715799868106842
386,-1.4345320199584866,-0.14043081638756047,2.62644985108344,-0.9809774160385132,0.13996970653533936,-0.1345057487487793,0.9778061509132385,0.5841466188430786,0.7574615478515625,-0.10792022943496704,-0.08726584911346436,-0.012115955352783203
387,-1.3795173953032123,-0.1795003114548585,2.7005474671909164,-0.9659879803657532,0.17853793501853943,-0.18706010282039642,0.5106930136680603,-0.7038595080375671,-0.013577315956354141,-0.8620911836624146,-0.16137178242206573,0.3233516216278076
388,-1.5148621121490362,-0.1430647069530705,2.616718971584732,-0.988235592842102,0.1425771713256836,-0.055333901196718216,-1.5407822132110596,-0.9038648009300232,-0.8916035890579224,-0.12040680646896362,0.3986520767211914,-0.16636107861995697
389,-1.5781643916311447,-0.07903441350130619,2.4779157532958136,-0.99685138463974,0.07895215600728989,0.0073449984192848206,-0.18307740986347198,-0.39577773213386536,-0.275736004114151,0.429315984249115,0.12382187694311142,-0.33740782737731934
390,-1.6512330892885774,-0.08261549199203974,2.5565705491529345,-0.9933670163154602,0.08252154290676117,0.08007600158452988,0.7835161089897156,-0.6546847820281982,-0.1537277102470398,0.3538864254951477,-0.19661152362823486,-0.049054861068725586
391,-1.7330810083300654,-0.06731540648832139,2.6330202959264435,-0.9846255779266357,0.06726457923650742,0.16120734810829163,0.6694414615631104,0.008731954731047153,-0.1735100895166397,0.19083291292190552,0.2341422736644745,0.09150861203670502
392,-1.7523498775235717,-0.09592505036672358,2.759754293287904,-0.9790427684783936,0.09577801078557968,0.17972774803638458,1.1007133722305298,-1.2094982862472534,0.36885809898376465,-0.2824013829231262,-0.09194804728031158,0.5352990627288818
393,-1.7679294099574951,-0.11965494391363608,2.7060696914157414,-0.9736204743385315,0.11936962604522705,0.19445833563804626,-0.6738808155059814,0.32192057371139526,0.9943237900733948,-0.42211616039276123,0.015960566699504852,-0.7615816593170166
394,-1.6836725094459608,-0.17842143820356537,2.684741213832764,-0.9778623580932617,0.17747628688812256,0.11084854602813721,-0.11497360467910767,2.164233922958374,0.6995041966438293,-0.09753131866455078,0.13477954268455505,-0.0759517028927803
395,-1.5456623437416392,-0.2063373140296073,2.7277666638602858,-0.9784786105155945,0.20487628877162933,-0.024598244577646255,0.42761850357055664,0.37902185320854187,0.03697323426604271,0.45797091722488403,-0.20797386765480042,0.14247238636016846
396,-1.530650272595696,-0.20700885979966857,2.7052169808344746,-0.9778616428375244,0.20553354918956757,-0.03927839174866676,-0.31771203875541687,0.2191685140132904,0.024210697039961815,0.27438563108444214,-0.08865121006965637,-0.11578142642974854
397,-1.4786654649160325,-0.22085647311351003,2.7403893228734804,-0.9715722799301147,0.2190653681755066,-0.08976591378450394,0.5887950658798218,0.337248831987381,0.491671621799469,-0.2408759593963623,-0.1161448210477829,0.17948758602142334
398,-1.4399792484919414,-0.21568121333139098,2.763518612401033,-0.9684844613075256,0.21401290595531464,-0.1274220049381256,0.1715337336063385,-1.4482159614562988,-0.0681333988904953,-0.5130676627159119,-0.08695296943187714,0.13804209232330322
399,-1.5591107002088707,-0.18403646273317698,2.647606633409163,-0.9830459952354431,0.1829993575811386,-0.011488031595945358,-1.2998244762420654,-0.1644313931465149,-0.37503308057785034,0.11227267980575562,0.3958885967731476,-0.37077516317367554
400,-1.5642355855192116,-0.17958916211255443,2.6026611670964495,-0.983896017074585,0.17862536013126373,-0.0064551797695457935,0.7983410358428955,0.5626243948936462,0.2872488796710968,0.26661086082458496,0.11654064059257507,-0.2673485279083252
401,-1.5930229602523902,-0.13853704762799832,2.6193615512286437,-0.990174412727356,0.13809432089328766,0.02201186865568161,-1.2408766746520996,0.882861316204071,-0.5254406929016113,0.34767264127731323,-0.05652084946632385,0.1258305311203003
402,-1.5674002038623478,-0.1587104146860713,2.612101878404106,-0.9874263405799866,0.1580449640750885,-0.0033534341491758823,0.833760678768158,-0.46989065408706665,0.4965105652809143,0.23426765203475952,0.05017650127410889,0.03425252437591553
403,-1.6168168405715393,-0.1537417020042179,2.635047494600345,-0.9871589541435242,0.15313675999641418,0.045461662113666534,-0.9049054384231567,-0.9790667295455933,-1.1106164455413818,-0.4270562529563904,-0.10069230198860168,0.7313022613525391
404,-1.5458326877427413,-0.14744725910132572,2.597941775297215,-0.9888411164283752,0.1469135731458664,-0.02469020150601864,-0.05209602415561676,1.15500807762146,1.3674348592758179,-0.08075422048568726,0.0870494544506073,-0.7095627188682556
405,-1.532059491637577,-0.20392713551229816,2.61092408800765,-0.9785441756248474,0.20251664519309998,-0.03792467713356018,-0.08491459488868713,1.3666276931762695,0.3196173310279846,-0.07470893859863281,0.19009198248386383,-0.18421274423599243
406,-1.428227775035718,-0.20432455380342462,2.649051825803966,-0.9692637324333191,0.2029058039188385,-0.13913045823574066,-0.13982008397579193,0.9943716526031494,0.048253338783979416,0.39788299798965454,-0.08428396284580231,0.24559102952480316
407,-1.3511700161454694,-0.23163268299359982,2.638470089829487,-0.9499134421348572,0.22956690192222595,-0.21204639971256256,-0.38522207736968994,1.022969126701355,0.4206194281578064,0.04755443334579468,0.009874016046524048,0.06823229789733887
408,-1.2574898888254982,-0.2672974554217097,2.657678531148321,-0.917536735534668,0.2641258239746094,-0.2972608804702759,0.3360387086868286,0.16196250915527344,0.5160489082336426,-0.10187244415283203,-0.17832565307617188,0.19659864902496338
409,-1.2149704992236294,-0.277620224634995,2.6692518239273966,-0.9014679789543152,0.274067759513855,-0.335025817155838,0.2561209797859192,-0.9255154132843018,-0.2874816060066223,-0.48770737648010254,-0.06395426392555237,0.205692321062088
410,-1.3916442277629915,-0.29444673065295773,2.6362550468778125,-0.9416468143463135,0.29021042585372925,-0.17052629590034485,-0.30757206678390503,-1.9911634922027588,-0.16729572415351868,-0.13399100303649902,0.34405165910720825,-0.41640305519104004
411,-1.4430160880000584,-0.2921259676708829,2.549633266456148,-0.9498263597488403,0.2879887819290161,-0.12203394621610641,-0.19961458444595337,0.5929378867149353,0.16469618678092957,0.4618503451347351,0.0867060124874115,-0.2614346742630005
412,-1.448886778987025,-0.30151249200044244,2.527925314679432,-0.9478013515472412,0.2969647943973541,-0.11612187325954437,-0.567194402217865,-0.003682459704577923,0.1804841309785843,0.20819270610809326,-0.1465284526348114,0.16162361204624176
413,-1.452175958714584,-0.3312766436205188,2.5373691250395085,-0.9389827251434326,0.3252505362033844,-0.11190784722566605,0.38327130675315857,-0.5580082535743713,0.17129480838775635,0.08969390392303467,-0.1063326895236969,0.19502247869968414
414,-1.4855361660972317,-0.3167343317345557,2.564346667137066,-0.9468058347702026,0.31146499514579773,-0.0809209942817688,-0.20015248656272888,-0.6682801246643066,-0.3062679171562195,-0.4752827286720276,-0.0948207676410675,0.5217626690864563
415,-1.5284055793105416,-0.2858315326041717,2.5669684631854683,-0.9585655331611633,0.2819553315639496,-0.04065866768360138,0.3068849742412567,-0.23630733788013458,0.2938389480113983,0.02758115530014038,0.14167436957359314,-0.6106017231941223
416,-1.5306028309370956,-0.3051072887715888,2.5720290650750677,-0.9530442357063293,0.30039551854133606,-0.038326822221279144,0.10746657103300095,0.3424564003944397,0.009980011731386185,-0.15706300735473633,0.11044734716415405,-0.15019553899765015
417,-1.4873713877623524,-0.30864496310624245,2.6073193632559386,-0.9494325518608093,0.3037679195404053,-0.07939062267541885,0.20924785733222961,0.559948742389679,-0.03566000610589981,0.3546602725982666,-0.20612692832946777,0.11271584033966064
418,-1.457487492089035,-0.29989544598211887,2.6234015234967742,-0.949241042137146,0.2954203188419342,-0.10802008211612701,0.20554111897945404,0.30659154057502747,-0.12190829962491989,0.1003183126449585,-0.037638336420059204,-0.09541010856628418
419,-1.4310549892070372,-0.2886686599064222,2.6709704440460147,-0.9492791295051575,0.2846762239933014,-0.13352380692958832,1.0189692974090576,-0.303758442401886,0.2991500496864319,-0.009064316749572754,-0.02484956383705139,0.2409762144088745
420,-1.420421440726383,-0.2884783693666937,2.724366685596718,-0.9478592872619629,0.2844938039779663,-0.1436183899641037,0.6969029307365417,-0.12542326748371124,0.06269971281290054,-0.6199355125427246,-0.10387551784515381,0.19691729545593262
421,-1.4705472473027332,-0.27502671659689376,2.694713962343939,-0.9575859308242798,0.27157264947891235,-0.09631999582052231,-0.6208351850509644,-0.3990335166454315,-0.12385378777980804,-0.11724317073822021,0.34505027532577515,-0.1977626085281372
422,-1.4999002194157678,-0.2303873045942907,2.613910214564079,-0.971132218837738,0.22835461795330048,-0.06896507740020752,-0.1581777036190033,0.285609632730484,-0.27241986989974976,0.4690418839454651,0.00809556245803833,-0.272297739982605
423,-1.4811420612221882,-0.21237978081387082,2.6074842729164645,-0.9736060500144958,0.21078680455684662,-0.08752255886793137,0.1790839433670044,-0.08050063252449036,-0.06569574028253555,0.49560922384262085,-0.06628607213497162,-0.015916764736175537
424,-1.4650127657434135,-0.23726731899995357,2.63849211150985,-0.9665507078170776,0.23504738509655,-0.10262826830148697,0.4968864917755127,-0.10756391286849976,0.4284895360469818,-0.019716382026672363,0.014830544590950012,0.05564647912979126
425,-1.532445524868063,-0.2230012900249043,2.6963662813814473,-0.9745209217071533,0.22115758061408997,-0.03739199414849281,-0.7098076343536377,-0.4351435899734497,-1.1417553424835205,-0.6136747598648071,-0.09354835748672485,0.7415393590927124
426,-1.5197361560208076,-0.1832175040036641,2.6618702752756924,-0.981981098651886,0.18219415843486786,-0.0501837432384491,0.7960333228111267,0.82541424036026,0.5000771284103394,0.07864552736282349,0.29253730177879333,-0.6391320824623108
427,-1.4965339475890567,-0.26146026454208615,2.7079775866979774,-0.9633509516716003,0.2584914565086365,-0.07167253643274307,-0.273286908864975,0.21110422909259796,0.14661619067192078,-0.4057896137237549,0.06252288818359375,-0.2683085799217224
428,-1.4421266500879337,-0.23072725021386098,2.760476111128311,-0.9654527306556702,0.22868555784225464,-0.12491460889577866,0.48207348585128784,0.4526453912258148,-0.39455944299697876,0.3737475275993347,-0.043550699949264526,0.24191899597644806
429,-1.4119886884407558,-0.23111307558870856,2.759382012365459,-0.9611631631851196,0.22906114161014557,-0.15393631160259247,0.08576714247465134,0.15972018241882324,0.2874235510826111,0.24140608310699463,-0.06866076588630676,0.07050126791000366
430,-1.384137469450061,-0.26875839386898087,2.7533243369726925,-0.9473546147346497,0.2655346095561981,-0.1789148598909378,0.5817010998725891,0.18330352008342743,0.7180336117744446,0.014203429222106934,-0.134537935256958,0.038701847195625305
431,-1.3735756002960797,-0.31666262429233133,2.74060477776266,-0.9318588376045227,0.31139686703681946,-0.18620233237743378,0.11863768100738525,0.4351069927215576,0.31442177295684814,-0.4887649416923523,-0.25460362434387207,0.005278825759887695
432,-1.4317967217466077,-0.31312034086372714,2.7006723155068726,-0.9422011971473694,0.3080287575721741,-0.1318156123161316,-1.1530295610427856,-0.7447375655174255,-0.16398711502552032,-0.14915329217910767,0.2838291823863983,-0.2310231477022171
433,-1.4799268973460786,-0.2887513410208015,2.615533957990375,-0.9546452164649963,0.2847554683685303,-0.08698762208223343,-0.38357487320899963,0.29428642988204956,-0.3606470823287964,0.21915632486343384,-0.006053715944290161,-0.24414336681365967
434,-1.5375826003105952,-0.23524700909233207,2.5793979769849518,-0.9719204306602478,0.23308320343494415,-0.03229297697544098,-1.032509684562683,-0.737647294998169,-0.6467524766921997,0.3834195137023926,-0.02556365728378296,0.11171495914459229
435,-1.5446277544994307,-0.2433166788281864,2.5627079134644384,-0.9702119827270508,0.2409229278564453,-0.02539486065506935,0.600672721862793,-0.04453941807150841,0.47784262895584106,0.21525293588638306,-0.08294868469238281,0.024921834468841553
436,-1.5969286825695912,-0.26136187218696627,2.6558183971641163,-0.9657090902328491,0.2583964169025421,0.025241998955607414,0.21565543115139008,-0.8576186299324036,-0.3841939866542816,-0.5769239068031311,-0.1754191517829895,0.6704977750778198
437,-1.5742870556369681,-0.22091671426257595,2.6529651446534275,-0.9756909012794495,0.21912415325641632,0.0034058860037475824,0.5862593650817871,0.7041350603103638,0.7309740781784058,0.08015269041061401,0.2027202695608139,-0.8179048299789429
438,-1.5428862067014386,-0.2793226579832565,2.685648591884531,-0.9608678817749023,0.27570462226867676,-0.02682490274310112,0.15221655368804932,1.6510584354400635,0.30987516045570374,-0.11663132905960083,0.30162686109542847,-0.2641907334327698
439,-1.4307235488059131,-0.2924504259200385,2.7472276931648376,-0.9481619000434875,0.28829947113990784,-0.13368715345859528,-0.7642024755477905,0.39859363436698914,-0.22236007452011108,0.4213523268699646,-0.14959710836410522,0.2670794725418091
440,-1.4035650702730083,-0.2821877463697241,2.699635711300528,-0.9470496773719788,0.27845752239227295,-0.15986940264701843,-0.31292128562927246,0.4214959442615509,-0.2383478581905365,0.33791887760162354,-0.017379671335220337,0.23791815340518951
441,-1.3873588711259541,-0.3086461074775659,2.726719127946045,-0.9367609024047852,0.30376899242401123,-0.17379073798656464,0.45141807198524475,-0.11531805247068405,-0.009867945685982704,-0.1926792860031128,0.05389699339866638,0.35144877433776855
442,-1.4045446996925406,-0.3135972414492459,2.703020005946798,-0.9381144046783447,0.30848243832588196,-0.15741603076457977,-0.29854926466941833,-0.8907987475395203,-0.08109670132398605,-0.3706318736076355,0.017384231090545654,0.11020530760288239
443,-1.5057495034075021,-0.3116517558400347,2.595986137587483,-0.949815571308136,0.3066312372684479,-0.06186977028846741,-0.8405241966247559,-0.10317427664995193,-0.19656117260456085,-0.178449809551239,0.3572786748409271,-0.39531409740448
444,-1.5155604188634424,-0.28570319654909365,2.556057341228322,-0.9580004811286926,0.281832218170166,-0.05296991020441055,0.3451748490333557,-0.6549485325813293,-0.09354154765605927,0.30689263343811035,-0.11258170008659363,-0.07845402508974075
445,-1.5345538064214181,-0.2429787731104554,2.524485000053234,-0.9699884057044983,0.24059496819972992,-0.03517022356390953,-0.3193465769290924,0.1454867720603943,-0.08494417369365692,0.549089789390564,-0.03701217472553253,-0.17768985033035278
446,-1.5428115910543652,-0.2655552566328038,2.5638699382447934,-0.964569091796875,0.2624450922012329,-0.02700025960803032,0.7187411189079285,-0.8401983976364136,0.29821720719337463,0.06932073831558228,-0.0716492235660553,0.2282942533493042
447,-1.6623020064406684,-0.21881153522902635,2.5681438911762657,-0.9720721244812012,0.21706965565681458,0.08919922262430191,0.009866726584732533,-0.8829521536827087,-0.2672099471092224,-0.11940431594848633,-0.16703607141971588,0.3541144132614136
448,-1.5836979483947708,-0.2523417177496183,2.57286311363535,-0.9682497978210449,0.24967220425605774,0.012492685578763485,-0.043079689145088196,-1.1424384117126465,1.1751307249069214,-0.0615047812461853,0.25196051597595215,-0.36376523971557617
449,-1.4848025089547108,-0.29224311525408486,2.614863537094851,-0.9540616273880005,0.2881009578704834,-0.08224623650312424,0.6620290279388428,0.8422785401344299,0.11579903960227966,0.10227012634277344,-0.11915561556816101,0.012727133929729462
450,-1.4226949194136418,-0.2866859656337338,2.6280380483922903,-0.9486861228942871,0.28277501463890076,-0.1415380984544754,-0.16631034016609192,0.19751985371112823,0.0701049342751503,0.4819045066833496,-0.13465791940689087,0.15305852890014648
451,-1.4133723537572564,-0.2940483479287152,2.584476421896193,-0.9452435970306396,0.28982916474342346,-0.15004554390907288,-0.2659965455532074,0.4870700240135193,0.11032356321811676,0.23506903648376465,-0.08086004853248596,0.0029050707817077637
452,-1.3473936858926323,-0.3342025543790161,2.6285256776577985,-0.9211964011192322,0.3280159533023834,-0.20929117500782013,0.04959281533956528,0.9567446708679199,0.20953959226608276,-0.4649882912635803,-0.21316304802894592,0.33596962690353394
453,-1.3852063381619055,-0.33063480215528557,2.624161991912547,-0.929594099521637,0.3246435225009918,-0.17453180253505707,-1.24355947971344,-0.925213098526001,-0.1910799741744995,-0.21957582235336304,0.09887942671775818,0.05410945415496826
454,-1.5035259377007117,-0.31424969797111973,2.530755610141399,-0.9488776326179504,0.30910301208496094,-0.06392782926559448,-0.5787070393562317,-0.3239148259162903,-0.6065329909324646,-0.1721246838569641,0.31583598256111145,-0.327627956867218
455,-1.4903284171266025,-0.2361160316951245,2.4979899809655857,-0.9691078066825867,0.23392820358276367,-0.07815083116292953,0.2599658966064453,-0.11524012684822083,0.0733322948217392,0.7965614795684814,-0.07825803756713867,-0.042713992297649384
456,-1.5087469036742056,-0.2397324837743582,2.5049059027051808,-0.9695320725440979,0.2374427765607834,-0.060236234217882156,0.1306980401277542,0.3026878833770752,0.21097101271152496,0.3454018831253052,-0.08148269355297089,-0.06709837913513184
457,-1.5579450220665987,-0.24655465227448964,2.566940665773298,-0.9696791172027588,0.24406425654888153,-0.012462327256798744,0.7486975789070129,-1.0586825609207153,-0.22538042068481445,-0.499070942401886,0.012939512729644775,0.461620032787323
458,-1.6163280753640172,-0.1833464129022135,2.5826740303147213,-0.9822201132774353,0.18232090771198273,0.04475313052535057,0.002729486208409071,0.33553963899612427,-0.4998052716255188,0.1220669150352478,0.08786645531654358,-0.0668020248413086
459,-1.5711558515843964,-0.24860831011246737,2.6028572123964118,-0.9692556858062744,0.24605529010295868,0.0003484714834485203,0.43411985039711,-0.15939709544181824,0.8100858926773071,-0.2260720133781433,0.08963803946971893,-0.23431146144866943
460,-1.4491872585079513,-0.2834420253307286,2.6615106226911065,-0.9530080556869507,0.27966198325157166,-0.1164691299200058,1.1270068883895874,0.7229074835777283,0.12905867397785187,0.020024597644805908,-0.29925426840782166,0.0005938410758972168
461,-1.3852867238631614,-0.27068542803722845,2.7082536767240146,-0.9470549821853638,0.26739197969436646,-0.17773129045963287,0.04852207005023956,0.19559915363788605,-0.038935452699661255,0.39136040210723877,-0.13317567110061646,0.15533137321472168
462,-1.3621411203278826,-0.2801546687161792,2.6847226947153757,-0.9401687383651733,0.2765042781829834,-0.19906847178936005,0.11098962277173996,0.2595941424369812,0.4158841371536255,0.21102744340896606,-0.0617063045501709,0.01837390661239624
463,-1.3182180237654633,-0.3229529679673039,2.716541926149112,-0.9182140827178955,0.3173682391643524,-0.23698200285434723,-0.5121613144874573,0.8339205980300903,-0.14620709419250488,-0.566374659538269,-0.2574164569377899,0.25846633315086365
464,-1.4033936392351467,-0.3148829295224872,2.673132844215196,-0.9375409483909607,0.3097051680088043,-0.1584295630455017,-2.095451593399048,-1.8074904680252075,-0.2598152160644531,-0.22813910245895386,0.11149847507476807,-0.12422432005405426
465,-1.5171425148858877,-0.24678674526273842,2.5777569250312276,-0.9683068990707397,0.2442893236875534,-0.05200326815247536,-0.01753593608736992,-0.23176252841949463,-1.2419705390930176,-0.03382927179336548,0.1856270283460617,-0.25169241428375244
466,-1.60881715282491,-0.1254780701811565,2.6688472946086716,-0.9914209842681885,0.12514905631542206,0.03771281987428665,0.7815349698066711,-1.6875356435775757,-0.6583329439163208,0.6845362186431885,-0.10679274797439575,0.17772603034973145
467,-1.6794753255708814,-0.10216826887323568,2.6823766526340673,-0.9889165163040161,0.10199061781167984,0.10789959877729416,0.03019978478550911,0.273255318403244,-0.07218927890062332,0.23690229654312134,0.11328040063381195,-0.1690872758626938
468,-1.6444926390042942,-0.1306477806442734,2.7779486283559405,-0.9887864589691162,0.13027642667293549,0.07300212979316711,1.6836086511611938,-0.32295069098472595,0.3393820822238922,-0.2221052050590515,-0.031231626868247986,0.4203145503997803
469,-1.7326938835497936,-0.11291605497294632,2.8067602399716094,-0.9806382060050964,0.11267626285552979,0.1601647287607193,-1.80963933467865,2.260498523712158,0.14714008569717407,0.020509421825408936,0.11777723580598831,0.042914509773254395
470,-1.6724362878044432,-0.12495914753504755,2.7374009512270794,-0.9870821833610535,0.12463419884443283,0.10067391395568848,-0.44320619106292725,0.3029453456401825,0.38776469230651855,-0.18024581670761108,0.20770224928855896,-0.4129908084869385
471,-1.5683566006259038,-0.17514982194506268,2.7618699247987517,-0.9846976399421692,0.17425566911697388,-0.0024023973383009434,0.33766353130340576,1.479791522026062,0.12232533097267151,0.24464625120162964,-0.23345975577831268,0.06565004587173462
472,-1.487459764418208,-0.18948637244446542,2.801145239210143,-0.9786928296089172,0.1883544921875,-0.08175023645162582,0.20791073143482208,0.37721163034439087,0.23982837796211243,0.34279805421829224,-0.119873046875,0.10309731960296631
473,-1.4649491034077184,-0.20684148521503004,2.8099287234536043,-0.9732071757316589,0.2053697407245636,-0.10339770466089249,0.5941843390464783,0.18587231636047363,-0.03954814374446869,-0.016935646533966064,-0.05150012671947479,0.09775198251008987
474,-1.4592738636937976,-0.2036999360476493,2.860271565924799,-0.9732410907745361,0.20229414105415344,-0.10899046808481216,0.04800533503293991,-0.20308563113212585,-0.003992697224020958,-0.6423289775848389,-0.08387069404125214,0.3574035167694092
475,-1.595228513389263,-0.22032966213002458,2.822369870930444,-0.9755341410636902,0.21855132281780243,0.023839175701141357,-0.829727292060852,-1.2481920719146729,-0.07935616374015808,-0.27414530515670776,0.07069423794746399,-0.3225146532058716
476,-1.7007517778295214,-0.14686603466573775,2.708547289016518,-0.9808930158615112,0.14633862674236298,0.1281948685646057,-1.6520241498947144,0.00032443879172205925,-0.5051724314689636,0.25373542308807373,0.4511040151119232,-0.31511497497558594
477,-1.6758040741029399,-0.13687555057007578,2.6598473460364365,-0.9851904511451721,0.13644856214523315,0.10383456200361252,-0.24096500873565674,0.6329271197319031,0.15079686045646667,0.4864874482154846,0.004023835062980652,-0.06582486629486084
478,-1.621751422006955,-0.16765963459506522,2.650132170644724,-0.9846983551979065,0.16687525808811188,0.050218869000673294,0.3704025447368622,0.30842000246047974,0.1769334226846695,0.002902090549468994,-0.17204800248146057,-0.0008718967437744141
479,-1.6352481544106987,-0.1755004360328963,2.7379309995953336,-0.982594907283783,0.17460091412067413,0.06341787427663803,0.7454633116722107,-1.0926852226257324,-0.1657155305147171,-0.5129953026771545,-0.22544319927692413,0.5894904136657715
480,-1.6492676450151218,-0.14219984041520467,2.7346439305326675,-0.9868605136871338,0.14172109961509705,0.07759959250688553,0.021787019446492195,0.8204749822616577,0.13952891528606415,-0.03102290630340576,0.32548779249191284,-0.7477656602859497
481,-1.6226616179442739,-0.18194413909425677,2.728091468540395,-0.9821712374687195,0.18094196915626526,0.05098632350564003,0.7258492112159729,0.5979867577552795,0.17859108746051788,-0.15997958183288574,0.19601115584373474,-0.33382320404052734
482,-1.5408981529465464,-0.2038007166292713,2.782011747192908,-0.978866696357727,0.2023928463459015,-0.02927505038678646,0.12337859719991684,0.39511698484420776,0.11869627237319946,0.3910219073295593,-0.21844510734081268,0.13012033700942993
483,-1.5071750107220563,-0.2172293034403565,2.7822709131987904,-0.9745228290557861,0.21552486717700958,-0.06208421289920807,0.0014389846473932266,0.2813121974468231,0.19840297102928162,0.29100537300109863,-0.08346006274223328,-0.055469512939453125
484,-1.4594028222656585,-0.2348511493820592,2.8208006612647236,-0.9665212631225586,0.2326982170343399,-0.10811173170804977,0.7857725620269775,0.29244184494018555,0.4147888422012329,-0.11856168508529663,-0.005494862794876099,0.22284257411956787
485,-1.416699085365389,-0.2508477025318346,2.850847964785829,-0.9572237730026245,0.24822522699832916,-0.1486842930316925,0.003518423531204462,-0.5496042370796204,-0.15592697262763977,-0.5588895082473755,-0.12681102752685547,0.3351008892059326
486,-1.5184919517325708,-0.2500814979509752,2.7826085596962358,-0.9675672650337219,0.24748292565345764,-0.050654202699661255,-0.9413203597068787,-0.7974407076835632,-0.2798074781894684,-0.06119561195373535,0.23463380336761475,-0.24954724311828613
487,-1.5621711431658365,-0.18782950917326435,2.6734451486231836,-0.9823753833770752,0.18672701716423035,-0.008473377674818039,-0.7056822776794434,0.48212361335754395,-0.9396634697914124,0.3087150454521179,0.21828700602054596,-0.20684337615966797
488,-1.5491709111193506,-0.16694777148761836,2.6098920524798004,-0.9858660697937012,0.16617333889007568,-0.02132308855652809,-0.3480674624443054,-0.379815012216568,0.08441570401191711,0.4053301215171814,-0.08072412014007568,-0.09662735462188721
489,-1.5560488596055018,-0.18375523226380622,2.5859918163395306,-0.9830574989318848,0.18272286653518677,-0.014498659409582615,0.5751532316207886,-0.31947124004364014,0.2787030339241028,-0.014104306697845459,-0.015074551105499268,-0.07536035776138306
490,-1.6407975977295004,-0.1597851931898379,2.6819966909915296,-0.9848434925079346,0.15910613536834717,0.06905312091112137,-1.1327773332595825,-0.3203754723072052,-0.9833430051803589,-0.6281629800796509,-0.17170991003513336,1.2535635232925415
491,-1.591198893990821,-0.1730480785557667,2.6919762117645636,-0.9848597049713135,0.17218570411205292,0.02009645476937294,0.022189531475305557,0.647468626499176,1.1317766904830933,0.004802703857421875,0.045419931411743164,-0.44680845737457275
492,-1.5607431723988083,-0.23376121340253408,2.740688097136365,-0.9727527499198914,0.2316380739212036,-0.009779563173651695,0.30588701367378235,1.0966124534606934,0.10499238967895508,-0.08950299024581909,0.0389765202999115,-0.02610909938812256
