,attitude.roll,attitude.pitch,attitude.yaw,gravity.x,gravity.y,gravity.z,rotationRate.x,rotationRate.y,rotationRate.z,userAcceleration.x,userAcceleration.y,userAcceleration.z
0,-1.5050377703994495,-0.23160592061031512,2.6292958064297136,-0.9711955189704895,0.2295408546924591,-0.06395662575960159,-0.008486459963023663,0.8004848957061768,0.4832209050655365,0.5294992923736572,-0.1748075783252716,0.2691720724105835
1,0.205304000146627,0.5852993170621793,1.5780811941558919,0.1699308305978775,-0.5524489283561707,-0.8160415291786194,-0.5329034924507141,0.22080247104167938,0.061363767832517624,-0.04079569876194,0.10539686679840088,-0.043928563594818115
2,0.1594281401619254,0.5348685536576839,1.5844943868538113,0.1365814059972763,-0.509727954864502,-0.8494250774383545,0.023824580013751984,0.06557386368513107,0.19807451963424683,-0.027145355939865112,0.08164262771606445,0.12434267997741699
3,0.1255009524614801,0.5531774477677487,1.5971273661182532,0.10650357604026794,-0.5253934264183044,-0.8441674709320068,0.21441972255706787,-0.49223437905311584,0.16393250226974487,0.08612339198589325,0.06642431020736694,0.22710204124450684
4,0.035890382216047484,0.5894035228206772,1.6037118915885418,0.029828278347849846,-0.5558652877807617,-0.8307370543479919,0.3042266070842743,-0.07251954823732376,-0.020700305700302124,0.049303799867630005,-0.02802753448486328,0.08063024282455444
5,-0.03380684221771447,0.6464827977839259,1.667196861551763,-0.026979733258485794,-0.6023826599121094,-0.7977513670921326,0.6736728549003601,-0.6580713391304016,1.8289341926574707,-0.2340066134929657,0.15487295389175415,-0.07494455575942993
6,-0.4938809450282351,0.5772577774748753,2.1075490160021317,-0.39723318815231323,-0.5457280874252319,-0.7378255724906921,1.2766501903533936,-4.302891254425049,5.626873016357422,0.04423636198043823,0.9712805151939392,0.17834681272506714
7,-0.7880793419093228,0.01606320258563274,2.4009573294434157,-0.7089086771011353,-0.016062511131167412,-0.705117404460907,-4.6862945556640625,-3.4653379917144775,6.074082374572754,0.25589048862457275,0.7507884502410889,-0.012472927570343018
8,-0.811769062078389,-0.6094694521612276,2.683691852001749,-0.5948798656463623,0.5724325180053711,-0.5643040537834167,-2.512580156326294,-1.3246501684188843,4.80776309967041,-0.4637749195098877,-0.0901479721069336,-0.16274672746658325
9,-0.6129556312713894,-0.8626638579546699,-3.1097334610017966,-0.37417638301849365,0.7595778703689575,-0.5320088267326355,1.6022497415542603,0.7333520650863647,1.8990527391433716,-1.8939357995986938,-0.1289169192314148,-0.2790873050689697
10,-0.6358839790669835,-0.6567647266555641,3.1063231506056526,-0.4703432321548462,0.6105577945709229,-0.6371784806251526,0.7525817155838013,-1.8025506734848022,-1.861067533493042,-0.08992898464202881,0.20522284507751465,0.3494587540626526
11,-0.9606072904737222,-0.5228613995621446,2.998550255962099,-0.710044264793396,0.4993612766265869,-0.4964631497859955,0.2112829089164734,-3.501330852508545,-2.0421082973480225,0.3655923008918762,0.18812352418899536,-0.4830748438835144
12,-1.1364242636555713,-0.31793923699249504,2.711035530206234,-0.8616703748703003,0.3126097321510315,-0.3997490108013153,-2.0550284385681152,-0.2965894937515259,-2.748602867126465,0.28914541006088257,0.3697327673435211,0.07742241024971008
13,-1.4743060298755737,-0.23443321407767462,2.719530339409126,-0.9681219458580017,0.23229174315929413,-0.09370536357164383,0.6368075609207153,-1.934380292892456,0.18967901170253754,0.31623584032058716,-0.24974775314331055,-0.10677982121706009
14,-1.4916490174035977,-0.2556810549741292,2.744038528977745,-0.9644625782966614,0.25290438532829285,-0.07649441063404083,-2.351137399673462,2.703568935394287,-0.6010291576385498,-0.06039398908615112,-0.30310583114624023,0.23988550901412964
15,-1.3575788652398917,-0.15810713065458135,2.596471096409784,-0.9651647210121155,0.15744923055171967,-0.20896627008914948,-2.159461259841919,1.6702454090118408,-1.7228299379348755,-0.11158698797225952,-0.09363697469234467,0.5637484192848206
16,-1.5509662595297518,-0.06840547934098203,2.5448209204376466,-0.9974652528762817,0.06835214048624039,-0.019782396033406258,2.376410961151123,-3.6106882095336914,-0.8271585702896118,-0.0017719268798828125,0.2171855866909027,0.011054335162043571
17,-1.8268486830832502,-0.10252679132734964,2.6533866720785326,-0.962317168712616,0.10234726220369339,0.25193363428115845,0.940066397190094,-2.464218854904175,1.0094349384307861,0.10704684257507324,0.4312373101711273,-0.25750306248664856
18,-1.8377517604773423,-0.3883529863743543,2.6866076110555377,-0.8927502036094666,0.3786645531654358,0.24415211379528046,1.8899345397949219,1.6296701431274414,2.325132369995117,0.49731874465942383,0.09904232621192932,0.001728057861328125
19,-1.7039076029177986,-0.6516181287515606,2.817084750905487,-0.7880699634552002,0.6064738035202026,0.10552498698234558,1.900359869003296,0.9482353925704956,1.0271869897842407,-0.13501065969467163,-0.20614415407180786,-0.013880714774131775
20,-1.5121783985227335,-0.7000350521610934,2.9958534518876414,-0.7635059356689453,0.6442444920539856,-0.04480646550655365,0.2258603721857071,0.7357235550880432,-0.5562273263931274,-0.2980937361717224,-0.08841264247894287,0.48993587493896484
21,-1.5833065892744882,-0.5950179219692516,2.986922239953627,-0.8280736804008484,0.5605235695838928,0.010359959676861763,0.40726661682128906,-0.2170019894838333,-1.0634289979934692,0.11850941181182861,0.3068164587020874,0.21348655223846436
22,-1.5761430398370186,-0.5581191472348629,2.971590776860073,-0.8482406139373779,0.5295916795730591,0.004535342566668987,-0.17911095917224884,0.008174387738108635,0.12539468705654144,-0.28985142707824707,0.3447216749191284,-0.685550332069397
23,-1.5179734351803449,-0.5162141300631621,3.007751176178138,-0.8684810996055603,0.4935911297798157,-0.04591840133070946,0.5319914221763611,0.7964279055595398,-0.4320475459098816,-0.021304666996002197,-0.5759122967720032,0.14664167165756226
24,-1.4577937672183439,-0.48934841461730627,2.955949610428253,-0.8770098686218262,0.4700508713722229,-0.09952837228775024,-0.8392249941825867,0.9903811812400818,-0.18532723188400269,0.5918536186218262,0.2568930983543396,-0.24721235036849976
25,-1.3624306705137277,-0.5533905807000714,3.0264436133470554,-0.8323458433151245,0.5255747437477112,-0.17598658800125122,0.6726490259170532,0.25690221786499023,0.8810939192771912,-0.09120750427246094,-0.10437124967575073,0.09311611950397491
26,-1.3219012975911546,-0.644087481030551,3.0952009619024663,-0.7750071287155151,0.6004689931869507,-0.19697986543178558,-0.637558102607727,-0.6930336952209473,-0.023911895230412483,-0.6324025988578796,-0.17752587795257568,0.05258595943450928
27,-1.5180601943706984,-0.5942384153168562,3.0556861316552757,-0.8274232149124146,0.559877872467041,-0.04367559403181076,-1.5528827905654907,-2.7467329502105713,-0.9464470744132996,-0.29716479778289795,-0.18826532363891602,0.19536322355270386
28,-1.7878649099727841,-0.4915204094593017,2.851471816487774,-0.860927402973175,0.47196686267852783,0.1898718774318695,-0.7490136027336121,0.4481053650379181,-0.5089693665504456,0.08831387758255005,0.5556668043136597,-0.4854193925857544
29,-1.7267056561376317,-0.4545125226681921,2.869935225327541,-0.887577474117279,0.4390243887901306,0.13951386511325836,0.6005945801734924,1.2855491638183594,0.18707974255084991,0.911609947681427,0.02501070499420166,-0.22606168687343597
30,-1.630353390850076,-0.5328970777369625,2.90417142401848,-0.8598117828369141,0.5080308318138123,0.05126849561929703,-0.5180912613868713,0.8163627982139587,0.28154993057250977,-0.17372703552246094,-0.44005298614501953,0.10563766956329346
31,-1.6130735193706838,-0.522802748273225,2.9754268839325526,-0.8656490445137024,0.4993104636669159,0.03661902993917465,0.30777567625045776,-1.0699812173843384,-0.23651781678199768,-0.24343615770339966,0.20944508910179138,0.5546132326126099
32,-1.66241856735406,-0.457575098711015,2.897416050302237,-0.8933634757995605,0.4417739510536194,0.08208177238702774,-1.4276396036148071,1.1412272453308105,0.07587228715419769,0.024116098880767822,0.20400848984718323,-0.15842151641845703
33,-1.6239672747572516,-0.48708707903817944,2.930516018235221,-0.8824511766433716,0.4680537283420563,0.04696503281593323,-0.3661341667175293,-0.2492266744375229,-0.6146368384361267,-0.17644774913787842,-0.028386950492858887,-0.18060147762298584
34,-1.583307707483232,-0.3842102620733333,2.920966404833,-0.9270222783088684,0.3748270869255066,0.01159893348813057,1.2536622285842896,0.6036064028739929,-1.584795594215393,0.31233710050582886,-0.1467234194278717,-0.19787824153900146
35,-1.486556009367097,-0.25363955443103947,2.9026792853548047,-0.9645729064941406,0.25092872977256775,-0.08144868165254593,-0.29807934165000916,-0.0813886821269989,0.4675980508327484,0.8441200256347656,-0.13105568289756775,-0.16142547130584717
36,-1.3878623276940976,-0.32657514719562464,2.990499680968582,-0.9313428401947021,0.3208010792732239,-0.1723005771636963,1.5060847997665405,0.7828269004821777,0.43764299154281616,-0.13102000951766968,-0.07989528775215149,0.2709791660308838
37,-1.305745993449109,-0.354237807561179,3.0523346000270206,-0.9051586985588074,0.3468756079673767,-0.24569319188594818,0.2972516715526581,0.7821832895278931,-0.23007166385650635,-0.7701953053474426,-0.3109716773033142,0.3267936110496521
38,-1.469795052014346,-0.3553383154518627,2.986821018451962,-0.9327510595321655,0.34790757298469543,-0.09453070908784866,-1.3796780109405518,-0.9597228765487671,0.012243924662470818,-0.1495245099067688,0.15940141677856445,-0.34586846828460693
39,-1.5549068042247165,-0.32611196155652755,2.8518002899484642,-0.9471756219863892,0.3203623294830322,-0.015051434747874737,-1.1019052267074585,0.47450223565101624,-0.4549882411956787,0.21969753503799438,0.22031757235527039,-0.21657699346542358
40,-1.5461125923973518,-0.32464523832192294,2.808954982711255,-0.9474753737449646,0.3189725875854492,-0.023391980677843094,0.050711292773485184,0.124848872423172,-0.2100723683834076,0.37261563539505005,-0.10110753774642944,-0.1429135799407959
41,-1.5756523931684192,-0.31352499433650377,2.7880860687952382,-0.9512412548065186,0.30841371417045593,0.004619326908141375,0.7840129137039185,-0.06738834083080292,-0.48422738909721375,0.054604172706604004,0.06972962617874146,-0.24375510215759277
42,-1.6879371232511249,-0.26491309534337554,2.939486335151005,-0.9585013389587402,0.2618253827095032,0.11279600858688354,-0.43588361144065857,-1.189002275466919,-1.9923163652420044,-0.8785806894302368,-0.014709293842315674,1.2625701427459717
43,-1.7037316874041404,-0.19901749305551103,2.9066563855521985,-0.9716124534606934,0.19770631194114685,0.12992790341377258,0.42278724908828735,-0.5129058957099915,-0.1536346971988678,-0.4524139165878296,-0.04432499408721924,-0.6542352437973022
44,-1.7482714226290204,-0.2290297475472754,2.930213537338674,-0.9585899710655212,0.22703272104263306,0.1719348132610321,0.9092824459075928,0.48331955075263977,-0.4380742907524109,-0.26650774478912354,0.30734536051750183,-0.2477404922246933
45,-1.6602880476595476,-0.14225945484621993,2.965025903228795,-0.9859369993209839,0.14178010821342468,0.088469497859478,-0.9261631965637207,0.37659069895744324,-0.46793684363365173,1.0932214260101318,0.02692107856273651,-0.001723162829875946
46,-1.6530804633534073,-0.26424314169518676,2.9055197456194826,-0.9620243310928345,0.26117876172065735,0.07933848351240158,-0.17557412385940552,0.40424883365631104,2.972872018814087,0.3722875118255615,0.15292948484420776,-0.27022600173950195
47,-1.438964324133295,-0.4766937419109885,3.066497888206974,-0.8808069825172424,0.45884403586387634,-0.11679595708847046,2.58805251121521,0.756276547908783,0.10945247858762741,-0.5522527098655701,-0.14024049043655396,0.39952605962753296
48,-1.378766243036613,-0.4491165429436214,3.0829918654026622,-0.884272575378418,0.43416985869407654,-0.17192542552947998,-0.7081323266029358,-1.0655864477157593,-0.15099763870239258,-0.3118637800216675,-0.06768429279327393,0.12236489355564117
49,-1.5529187078241815,-0.41561070156896474,2.9067070834084636,-0.9147236943244934,0.4037487208843231,-0.016354823485016823,-1.5480066537857056,-0.38779863715171814,-0.7392726540565491,0.08415728807449341,0.3718555271625519,-0.3548762798309326
50,-1.5745816470500533,-0.36529922059893055,2.826303820584685,-0.9340101480484009,0.3572287857532501,0.0035355444997549057,-0.359286367893219,0.4070022702217102,-0.4374280273914337,0.5645491480827332,-0.06075054407119751,-0.12531590461730957
51,-1.5551173847236346,-0.3731474386276756,2.793091646427886,-0.9310699105262756,0.36454808712005615,-0.014599387533962727,0.08806396275758743,0.10555379092693329,-0.007680848240852356,0.14147353172302246,-0.12814372777938843,-0.022723611444234848
52,-1.5064410119692386,-0.3921600536249442,2.836813292774276,-0.9221727252006531,0.3821853697299957,-0.059428781270980835,0.6901636123657227,-0.31204691529273987,0.07890863716602325,-0.18541693687438965,0.008348047733306885,0.33930546045303345
53,-1.6229994330829012,-0.3385845168541777,2.834732852736489,-0.9419409036636353,0.3321523070335388,0.04921695962548256,-1.1537225246429443,-0.44222646951675415,-0.8334386944770813,-0.40766847133636475,0.11564737558364868,0.47357964515686035
54,-1.5446265570832696,-0.3934055031518973,2.8579028881954502,-0.9232927560806274,0.38333597779273987,-0.024167876690626144,0.2673317790031433,-0.6794474124908447,0.7753311991691589,-0.15858590602874756,0.25854021310806274,-0.18324482440948486
55,-1.4950745588211332,-0.41034535057351457,2.8723752427355302,-0.9143555164337158,0.3989260196685791,-0.06936924904584885,0.45320624113082886,0.4657916724681854,-0.07416131347417831,0.10951542854309082,-0.164139062166214,-0.046246640384197235
56,-1.4195018271228483,-0.33318212860108287,2.841893834106721,-0.9342114329338074,0.3270518183708191,-0.14242945611476898,-1.0691697597503662,0.8386111855506897,-0.9790792465209961,0.6335674524307251,-0.1336618959903717,0.16968165338039398
57,-1.4205435931893524,-0.342612364208286,2.69401360805981,-0.9312684535980225,0.33594876527786255,-0.14098820090293884,-0.5588089823722839,0.6426255702972412,1.1735397577285767,0.2696777582168579,-0.07468774914741516,-0.30350029468536377
58,-1.2717998978238416,-0.43427202159267503,2.8437883253815075,-0.866927444934845,0.42075011134147644,-0.26721909642219543,1.3598589897155762,1.0996614694595337,-0.09160706400871277,-0.8658300638198853,-0.07788515090942383,0.6680065393447876
59,-1.4079460332289913,-0.4495619108145528,2.7496354829262426,-0.8887213468551636,0.4345710277557373,-0.14602166414260864,-2.280205249786377,-1.909260630607605,-0.032465387135744095,-0.33446890115737915,0.08451768755912781,-0.11145512759685516
60,-1.6682286435167053,-0.39624208104763264,2.539681153832181,-0.9181427359580994,0.3859543204307556,0.08974092453718185,-1.6124699115753174,-2.1443824768066406,-0.4341220557689667,0.2084716558456421,0.3406081795692444,-0.4995156526565552
61,-1.7534782933039454,-0.35500188938087,2.482535817347428,-0.9220435619354248,0.34759214520454407,0.17033985257148743,0.8958262801170349,-0.8095269203186035,0.39281490445137024,0.7549139261245728,-0.019924849271774292,-0.21245406568050385
62,-1.691102684663474,-0.4277229543381384,2.5888596471802643,-0.9033358097076416,0.4147999584674835,0.10920441150665283,1.4368970394134521,0.26229366660118103,-0.21879035234451294,-0.13743573427200317,-0.10558053851127625,0.17192353308200836
63,-1.560693929535815,-0.5060826111020944,2.71382581267144,-0.8746054768562317,0.48475462198257446,-0.008835912682116032,2.0475430488586426,-0.581070601940155,0.11998352408409119,-0.33410418033599854,-0.01086243987083435,0.15905869007110596
64,-1.6453693303254953,-0.47443562942038436,2.73266151332555,-0.8870785236358643,0.4568364918231964,0.06627500802278519,-2.944545269012451,3.1590466499328613,0.27828940749168396,-0.23891335725784302,0.2802087962627411,0.4828277826309204
65,-1.601185382015178,-0.5638278987755456,2.7115569744056125,-0.8448255062103271,0.5344254970550537,0.025681354105472565,0.8759881258010864,-0.9261656403541565,0.421634316444397,-0.12958568334579468,0.12641745805740356,-0.28228843212127686
66,-1.5672157737627423,-0.6383461596378255,2.804511007293243,-0.803077220916748,0.5958681106567383,-0.0028754728846251965,1.3802725076675415,-0.8061724305152893,1.1502622365951538,0.08595991134643555,-0.3795289993286133,-0.1756981611251831
67,-1.5529307815131217,-0.6912003674004942,2.866851699996948,-0.7703584432601929,0.6374624967575073,-0.0137643376365304,0.0910223126411438,0.547446608543396,0.2993035614490509,0.33597123622894287,-0.24581515789031982,-0.03185945749282837
68,-1.5051911234658475,-0.717209939594371,2.8634050789528143,-0.7520213723182678,0.6572844982147217,-0.04940741881728172,-0.17656537890434265,0.652125895023346,0.7067205309867859,0.11377668380737305,-0.048031508922576904,-0.01733458787202835
69,-1.4565209791533846,-0.792687181271949,2.9186007527506304,-0.6973556876182556,0.712242066860199,-0.08003927022218704,-0.7031644582748413,1.0122050046920776,0.7844728827476501,-0.13948208093643188,0.15329748392105103,0.47800374031066895
70,-1.5505268566142167,-0.8628585096246635,2.8007621232112365,-0.650134801864624,0.7597044706344604,-0.01317969337105751,-2.476106882095337,1.19326651096344,2.7445859909057617,0.0535162091255188,-0.0250244140625,0.2667044997215271
71,-1.8025568089342328,-0.9619664454140266,2.511550976651622,-0.5566169619560242,0.820317804813385,0.13136222958564758,1.3082473278045654,1.44259774684906,-0.28233346343040466,-0.007225692272186279,0.5927375555038452,-0.6529839038848877
72,-1.7703771752661885,-1.0625587281313367,2.5533245249552765,-0.47697827219963074,0.8736035227775574,0.09648016095161438,-0.38015082478523254,-1.4382377862930298,0.20845595002174377,-0.0582999587059021,-0.09964734315872192,0.007981523871421814
73,-1.8548829731654977,-1.0324985561643751,2.5746767651301083,-0.49212610721588135,0.858582615852356,0.1436930149793625,1.0461527109146118,0.585013210773468,-0.19088998436927795,0.4133297801017761,-0.176530122756958,-0.0905923992395401
74,-1.639670195580856,-1.0600033216004212,2.845154563294208,-0.48770999908447266,0.8723571300506592,0.033643689006567,1.9527782201766968,-1.7511216402053833,0.2063748687505722,0.034615546464920044,-0.15005189180374146,0.08998298645019531
75,-1.812529086653639,-1.0365566270142632,2.7538165117458577,-0.4943822920322418,0.8606560230255127,0.12189193814992905,-0.3465062975883484,2.419828176498413,0.3934713304042816,0.15450796484947205,0.18469321727752686,0.22774793207645416
76,-1.7899970618019703,-1.1968409242389217,2.9096024521452986,-0.3565593659877777,0.9308897256851196,0.07943441718816757,0.27370718121528625,-0.8516943454742432,2.663687229156494,-0.06316414475440979,0.008136153221130371,-0.02164936065673828
77,-2.2959503830004344,-1.3291781799831657,2.2612856158759613,-0.17907194793224335,0.9709520936012268,0.15869860351085663,-1.6760684251785278,1.6803096532821655,0.5107421875,-0.34489959478378296,0.23075377941131592,-0.32413434982299805
78,-2.3663751011336114,-1.3398776762987672,2.036633914718192,-0.16018067300319672,0.9734565615653992,0.16347581148147583,0.20234425365924835,0.6660931706428528,0.8187001347541809,-0.1743224710226059,-0.4068215489387512,0.0239020437002182
79,-2.216426989713946,-1.330034029250391,2.0962821151422086,-0.19044961035251617,0.9711564779281616,0.14347192645072937,-0.5232425928115845,-0.226370707154274,-0.8481152653694153,0.08910074830055237,-0.21059739589691162,-0.19091153144836426
80,-2.228349263263392,-1.3073993606762158,2.2112006084474487,-0.2060743123292923,0.9655110836029053,0.15912878513336182,0.15600866079330444,0.3226783871650696,-1.414835810661316,-0.21067377924919128,0.3467754125595093,0.4468740224838257
81,-2.2361140413918914,-1.222570216012749,2.183785449029988,-0.2684537172317505,0.9399794936180115,0.2106451839208603,-1.9691407680511475,1.6958009004592896,0.01862502098083496,0.1893216073513031,0.16898363828659058,-0.1451697051525116
82,-2.5231566958588796,-1.142251385621669,1.642406333694123,-0.24091872572898865,0.9095713496208191,0.3385827839374542,-2.4733426570892334,3.10381817817688,1.7482408285140991,0.20623549818992615,-0.008448302745819092,-0.17760252952575684
83,-2.6187025813737197,-1.0838098845188324,1.2300880313263483,-0.23369500041007996,0.8837471008300781,0.40543490648269653,-0.49180838465690613,-0.8444225788116455,0.3756782114505768,0.08528803288936615,-0.12070095539093018,-0.706170380115509
84,-2.732324994673744,-1.0442983342155052,1.2179303284385752,-0.19996729493141174,0.8645721673965454,0.461008220911026,-0.6313740611076355,0.5236532092094421,-0.6928997039794922,0.13098226487636566,-0.3803800940513611,-0.23664283752441406
85,-2.6001500934676303,-1.1191333937567363,1.3179325586249027,-0.22494079172611237,0.8997225165367126,0.3740334212779999,-0.4978474974632263,-0.9273842573165894,-0.8903631567955017,-0.21910521388053894,-0.020968914031982422,0.38133764266967773
86,-2.6518345454788865,-1.0268876822901145,1.3164271129859315,-0.24343137443065643,0.8556925654411316,0.4566529095172882,-0.8896692991256714,0.738353967666626,-0.390122652053833,-0.07775092124938965,0.44696569442749023,0.21557313203811646
87,-2.628276802506169,-0.9868857928007984,1.28867479201853,-0.27072158455848694,0.8343132138252258,0.4802411198616028,-0.06833551824092865,0.8541507124900818,-0.20599676668643951,-0.10626205801963806,0.47808003425598145,0.007536649703979492
88,-2.60754955953951,-1.007392708649949,1.3552259008835048,-0.27184951305389404,0.8454422354698181,0.45970144867897034,0.6993711590766907,0.16611962020397186,-0.43368208408355713,0.10688671469688416,-0.5207656025886536,-0.2682341933250427
89,-2.556568609543871,-1.0140839200533707,1.4041972988600269,-0.291791707277298,0.8489968776702881,0.4405248761177063,-0.05753866583108902,-0.06885509938001633,-0.052257388830184937,0.008817464113235474,-0.34650957584381104,0.0339013934135437
90,-2.5887843631201646,-0.9968628964526032,1.4012219453643318,-0.285086452960968,0.8397718667984009,0.4620707035064697,-0.8318158388137817,-0.17335376143455505,0.18953832983970642,-0.31116601824760437,-0.27797365188598633,0.42666226625442505
91,-2.5673220324477963,-0.984714228848182,1.4500186613685253,-0.3004571497440338,0.8331140875816345,0.4643777012825012,-1.2039730548858643,0.89761883020401,0.4247805178165436,-0.03363409638404846,0.19899052381515503,0.8213127255439758
92,-2.616791948416577,-0.9200859477358123,1.2899716091761941,-0.30350619554519653,0.7956537008285522,0.524232029914856,1.485494613647461,-0.03191094473004341,-1.2022426128387451,-0.20810571312904358,0.406952440738678,-0.23483377695083618
93,-2.5677144899127016,-0.9580872803525923,1.2617352809592535,-0.3122103810310364,0.8180930614471436,0.4829586148262024,-0.1460791379213333,1.099841594696045,0.9526113271713257,-0.0192258358001709,0.13635951280593872,-0.2870658040046692
94,-2.4373547878840203,-1.1111724100454206,1.1304179030841168,-0.28721728920936584,0.8962193727493286,0.33807820081710815,1.0317105054855347,4.477949142456055,3.010453224182129,0.14219778776168823,-0.3083745837211609,0.14995881915092468
95,-2.4256752920528126,-1.33540354130835,0.9602661460771712,-0.15306782722473145,0.9724228382110596,0.17596623301506042,1.913312315940857,0.3710383474826813,0.35659506916999817,-0.34986186027526855,-0.31396031379699707,-0.01918208599090576
96,-2.163469499067071,-1.4422359137121161,1.1298903503971434,-0.10634097456932068,0.9917474985122681,0.07161364704370499,-0.778127133846283,1.8847635984420776,-0.30938002467155457,-0.3992895185947418,0.09110772609710693,0.4210622310638428
97,-2.7179290249570602,-1.3152508242563745,0.5276689269107954,-0.10391572117805481,0.9675255417823792,0.23042507469654083,-0.9715481996536255,-1.6317557096481323,0.11264312267303467,0.4921298325061798,0.3516119718551636,-0.6792929172515869
98,2.7331833711235056,-1.268222990579992,-0.2769416263956431,0.11834204196929932,0.954572856426239,0.2734706401824951,-1.3081953525543213,0.05164848268032074,3.578249454498291,0.020512953400611877,0.2423572540283203,0.16752365231513977
99,2.7148601284214817,-0.9974822423254304,-0.23424004587997024,0.22450648248195648,0.8401079773902893,0.4937765896320343,-3.0277462005615234,-0.35956576466560364,-0.14816948771476746,-0.2557564973831177,-0.6616564393043518,-0.29414597153663635
100,2.778892130836032,-0.8565159346787131,-0.19961488831521923,0.23242053389549255,0.75556480884552,0.6124563813209534,0.40384188294410706,0.11119391024112701,-0.8687673211097717,-0.4984574615955353,0.05646234750747681,-0.1985616683959961
101,2.6402698760095706,-0.8707250289808548,-0.41874651684193814,0.30962806940078735,0.764796257019043,0.5649927854537964,1.2908426523208618,0.2925991714000702,0.3551655113697052,-0.46516096591949463,0.4817246198654175,0.31606483459472656
102,2.430506921761937,-0.9109222044930092,-0.6465994225785108,0.40009015798568726,0.7900694012641907,0.46445515751838684,0.7627270221710205,-0.5102806687355042,0.4425296187400818,0.684184193611145,0.2624667286872864,0.05577808618545532
103,2.370467563784352,-0.753192748830394,-0.6086465461337421,0.508425772190094,0.6839714050292969,0.5231505036354065,-1.1807219982147217,-1.7072808742523193,1.6783400774002075,-0.160250723361969,0.1443977952003479,-0.18455803394317627
104,2.158555326124022,-0.6876367647138806,-0.6919760065697529,0.6430696249008179,0.6347127556800842,0.42848682403564453,1.4610284566879272,-1.8636332750320435,1.163726806640625,-0.32144492864608765,-0.108193039894104,-0.2363329529762268
105,2.010869641900208,-0.6949201011599544,-0.761587468148792,0.6949201822280884,0.640324056148529,0.32721713185310364,0.1646992266178131,-0.9318451285362244,0.3799841105937958,0.03493821620941162,-0.11159175634384155,0.2825392484664917
106,1.83555150963505,-0.5963736453964177,-0.7472557442903248,0.798549234867096,0.5616458058357239,0.21650244295597076,-0.6551801562309265,-3.4782140254974365,0.4138382077217102,0.1834302544593811,0.4168851375579834,0.45726457238197327
107,1.6678604160420172,-0.5224544892484233,-0.7650378066559486,0.862517774105072,0.4990086853504181,0.0839834213256836,1.0088200569152832,0.23550625145435333,0.7810078859329224,0.6732487082481384,0.21687260270118713,-0.5152425765991211
108,1.6581300420934797,-0.43949873225245256,-0.771435746276046,0.9015161395072937,0.42548587918281555,0.07893353700637817,-1.544577956199646,0.6323699355125427,0.8151495456695557,-0.15758907794952393,0.03366634249687195,-0.0643460750579834
109,1.8254148462694688,-0.3945043620169298,-0.5695520395000745,0.8934231400489807,0.38435065746307373,0.2325289249420166,-1.012521505355835,0.5416393876075745,-0.8961293697357178,-0.5690975785255432,0.07315361499786377,-0.4274446964263916
110,1.9795931646486844,-0.4305452815849632,-0.4215474234341224,0.8338578939437866,0.4173663854598999,0.36122849583625793,-0.049356311559677124,1.5296645164489746,-0.5368225574493408,-0.43281131982803345,-0.26638075709342957,0.24901622533798218
111,2.0843490638261257,-0.4283941897531588,-0.3888592663955457,0.792295515537262,0.4154106378555298,0.4468803107738495,-0.46163448691368103,1.7631680965423584,0.3790034055709839,-0.024457991123199463,0.4315437078475952,0.10963833332061768
112,2.148497206998424,-0.4648300834424503,-0.5278351991660893,0.74883633852005,0.44827091693878174,0.4881569445133209,1.5847688913345337,1.3634943962097168,0.42288270592689514,0.4187356233596802,-0.14745917916297913,0.02791053056716919
113,1.978032444890612,-0.5020104550054071,-0.7006456260134624,0.8049263954162598,0.48118892312049866,0.3472042977809906,0.7309009432792664,-2.8570728302001953,0.8264544010162354,0.05943828821182251,-0.17810356616973877,-0.10750401020050049
114,1.841737641407169,-0.42819673811599324,-0.7036900426917142,0.8765289783477783,0.41523101925849915,0.2434750497341156,-1.1278599500656128,-1.0940861701965332,1.080849051475525,-0.5804932713508606,-0.07596716284751892,0.01955603063106537
115,1.7803317136497225,-0.3753426926342357,-0.6383808954266659,0.910032331943512,0.3665913939476013,0.1935245394706726,-0.49674493074417114,0.3851826786994934,0.20167754590511322,-0.13033878803253174,-0.017241448163986206,0.14120756089687347
116,2.0086768378424624,-0.37244479256076424,-0.5049243516814627,0.8435614705085754,0.36389368772506714,0.3949503004550934,-1.35108482837677,-1.265120506286621,-0.07615863531827927,0.02744084596633911,0.49027809500694275,0.8863912224769592
117,2.2367560697768836,-0.4276888251467301,-0.4582605214625296,0.7154973149299622,0.41476890444755554,0.5621654391288757,0.45291030406951904,2.3192317485809326,-0.5891207456588745,0.36380255222320557,0.12838289141654968,-0.2971509099006653
118,2.424467416227434,-0.47872045053731815,-0.4434264976863953,0.5833393931388855,0.46064385771751404,0.6689714193344116,-0.3002908527851105,2.42232346534729,-0.9992980360984802,0.11807668209075928,0.07907480001449585,-0.12824559211730957
119,2.521292632304659,-0.4822316048803294,-0.3967212063862671,0.5149917602539062,0.4637574553489685,0.7209113836288452,0.06979290395975113,0.0906996950507164,-0.07260815054178238,-0.15216809511184692,-0.23170161247253418,-0.4177190065383911
120,2.5757035060182285,-0.518098319975149,-0.421421967180466,0.4658013582229614,0.49522891640663147,0.7333329319953918,0.9490999579429626,0.5042809844017029,0.004123136401176453,-0.2832757532596588,0.09655264019966125,0.035831987857818604
121,2.5860682343584607,-0.5375321212419378,-0.4473908425306212,0.4530138671398163,0.5120177268981934,0.7298056483268738,0.07923207432031631,0.11122105270624161,0.1809513121843338,-0.12148615717887878,0.35448312759399414,0.29561543464660645
122,2.6676291709684543,-0.5790876645007185,-0.45635471357191065,0.3820034861564636,0.547260582447052,0.744701087474823,0.9042229652404785,0.7327103614807129,-0.8280341625213623,0.37919655442237854,0.38668423891067505,-0.014811933040618896
123,2.7168871674280854,-0.5880257182861195,-0.5265626482224774,0.34284302592277527,0.5547194480895996,0.7581192851066589,-1.0288941860198975,0.35230305790901184,1.32256019115448,-0.022942572832107544,-0.1948561668395996,-0.061555683612823486
124,2.7638109281707592,-0.5148725051718934,-0.4976254247565244,0.3210389018058777,0.4924238920211792,0.8089824914932251,-1.0167181491851807,-0.002443521749228239,0.25029614567756653,-0.08179637789726257,-0.372001588344574,-0.3376995325088501
125,2.710315912015047,-0.4862093279638854,-0.5063620106815232,0.3695855438709259,0.4672778844833374,0.8031548857688904,0.3342687785625458,-0.316961407661438,-0.8840174674987793,-0.1710839867591858,0.09572562575340271,-0.01908212900161743
126,2.7698204917918354,-0.512980296856746,-0.3871148885020874,0.3165094256401062,0.4907761216163635,0.8117638230323792,-0.6278398036956787,-0.6880851984024048,-1.223920464515686,-0.1529046893119812,0.31031033396720886,0.030429720878601074
127,2.8621905057067853,-0.5530488453673335,-0.26557471610064987,0.23466947674751282,0.5252839922904968,0.8179283142089844,-0.5658208727836609,0.15823261439800262,-0.9480604529380798,0.5801041126251221,0.4777830243110657,0.5758093595504761
128,2.9725595714837634,-0.5683647820477539,-0.24841942108987677,0.14178062975406647,0.5382546186447144,0.8307706713676453,-0.10645052045583725,-0.1846141368150711,-0.09432834386825562,0.11804600059986115,-0.0015420317649841309,-0.2483733892440796
129,2.9796838315025123,-0.5358241207270144,-0.2903086183558337,0.13860957324504852,0.5105498433113098,0.8486026525497437,-0.19452108442783356,-0.3202127516269684,0.20112484693527222,-0.06535211205482483,-0.40346360206604004,-0.5423586368560791
130,2.981815108277477,-0.5683056819373961,-0.29918240204075164,0.13409054279327393,0.5382048487663269,0.8320789337158203,0.21290281414985657,-0.05508355051279068,0.5940694808959961,-0.07769405841827393,-0.07937300205230713,-0.1735858917236328
131,2.896772743183052,-0.5315985521732558,-0.37143951987781243,0.20893242955207825,0.5069119334220886,0.8362939357757568,-0.2567357122898102,-0.35858863592147827,0.29228949546813965,-0.09237053990364075,0.4070436954498291,0.012964487075805664
132,2.8818919990471707,-0.5337549967412989,-0.41164660738952397,0.22107230126857758,0.5087696313858032,0.8320340514183044,0.45645350217819214,1.529716968536377,-0.12079047411680222,0.04441538453102112,0.30618709325790405,0.33350861072540283
133,3.0145628848090205,-0.5853467142006231,-0.46675042059167055,0.10559738427400589,0.552488386631012,0.8268044590950012,0.2180669754743576,1.3035975694656372,0.1213391125202179,0.2544642686843872,-0.06976139545440674,0.464729905128479
134,3.1213643115463854,-0.6076148111739289,-0.44533259014906346,0.016606586053967476,0.5709108114242554,0.8208443522453308,0.49156832695007324,-0.005151235498487949,-0.09227987378835678,-0.030492078512907028,-0.3254578113555908,-0.5851874947547913
135,3.016273704766115,-0.6186315866128528,-0.4954015291750285,0.10182694345712662,0.5799208879470825,0.8082842230796814,-0.4115554988384247,-0.6289713382720947,0.2540208399295807,0.24407455325126648,-0.45359331369400024,-0.32368016242980957
136,2.9809564896767706,-0.6008238849474951,-0.40745815247373685,0.13193485140800476,0.5653222799301147,0.8142505288124084,-0.6644298434257507,-1.15878164768219,-1.3133089542388916,-0.37090277671813965,0.413055956363678,0.25996822118759155
137,2.9583998851574234,-0.5590873603581535,-0.23733258587101727,0.15443260967731476,0.5304127335548401,0.8335545063018799,0.5892021059989929,0.7621018290519714,-0.1660093069076538,0.33636635541915894,0.2290935516357422,-0.15070831775665283
138,2.9505325059775727,-0.5783502912722868,-0.22217027971951192,0.15901556611061096,0.5466432571411133,0.822128176689148,0.1641169637441635,-0.28113168478012085,-0.012070255354046822,0.47227102518081665,0.13489043712615967,0.18371576070785522
139,2.9073843171352487,-0.580946940093914,-0.21636651380235675,0.19399988651275635,0.5488157868385315,0.8131207227706909,0.22518101334571838,-0.14222994446754456,0.11013930290937424,-0.11274683475494385,-0.1955443024635315,-0.3930310010910034
140,2.896986387765336,-0.58687887686261,-0.22054664483865252,0.20165205001831055,0.553764820098877,0.8078867197036743,0.05209679156541824,-0.02120795287191868,0.08976317197084427,0.01979874074459076,-0.14318138360977173,-0.2438303828239441
141,2.8677025147441353,-0.563905093936378,-0.24605224843206294,0.2286016196012497,0.5344907641410828,0.8136714696884155,-0.1930043250322342,-0.058326490223407745,-0.028702199459075928,-0.3699132204055786,0.1279696226119995,0.12411856651306152
142,2.9011693648799706,-0.5737286380798121,-0.2255597556329229,0.1999877691268921,0.5427674055099487,0.8157259225845337,0.1529223620891571,0.6444856524467468,-0.30565741658210754,-0.0683196485042572,0.46202391386032104,0.48833608627319336
143,3.0079081946739654,-0.5996819394460432,-0.24561032607663477,0.11003018170595169,0.5643799304962158,0.8181499242782593,0.23882798850536346,1.1531946659088135,0.1316598504781723,0.2886667549610138,-0.18118584156036377,0.17480069398880005
144,3.0414444966836918,-0.6066571232361818,-0.2804986825170748,0.08214008808135986,0.5701242685317993,0.8174418210983276,-0.03892531991004944,0.13451562821865082,0.2511270344257355,0.04597270488739014,-0.3064524531364441,-0.2713451385498047
145,3.0403827984691523,-0.5909780404204797,-0.3107029147226631,0.08390083909034729,0.5571734309196472,0.8261464834213257,-0.23641672730445862,-0.06539282202720642,0.14988598227500916,-0.019157811999320984,-0.20355117321014404,-0.23485326766967773
146,3.0374965359764614,-0.5937211313758938,-0.3010084294991379,0.08612585812807083,0.5594491958618164,0.8243779540061951,0.15153276920318604,-0.26338183879852295,-0.2771798372268677,-0.29738378524780273,0.1424703598022461,0.03266251087188721
147,3.0535148067450675,-0.573747272916026,-0.217216060983871,0.07387860864400864,0.5427830815315247,0.8366174697875977,-0.16072869300842285,0.26081252098083496,-1.0180860757827759,-0.47748881578445435,0.2575404644012451,0.3444739580154419
148,3.083462279131228,-0.5954866336941611,-0.22783583064271018,0.0480976365506649,0.5609117150306702,0.8264775276184082,0.2895694971084595,0.3221130967140198,0.24360530078411102,0.236997589468956,-0.059660375118255615,0.19482392072677612
149,3.017320615844504,-0.59357774479115,-0.2931680294969903,0.10274969786405563,0.5593303442001343,0.8225520253181458,0.0499553456902504,-0.5504944920539856,0.6483771204948425,-0.036435022950172424,0.08182859420776367,-0.280575156211853
150,2.9621850745489318,-0.5912051064577505,-0.3671620554777721,0.14815881848335266,0.5573620200157166,0.8169431686401367,-0.022749163210392,-0.05843210220336914,0.40523239970207214,-0.02729398012161255,-0.16150331497192383,-0.34575194120407104
151,2.942055607583903,-0.5903579304374174,-0.4293900686545333,0.16466592252254486,0.5566583871841431,0.814258337020874,0.1429031491279602,0.06429977715015411,0.6066932678222656,0.16779257357120514,-0.023577392101287842,-0.3078038692474365
152,2.8866436706925342,-0.5805277336460525,-0.43177440628477926,0.2108796238899231,0.5484653115272522,0.8091450929641724,-0.22834768891334534,-0.7866206765174866,-0.3793618381023407,-0.3519776165485382,0.3733944892883301,0.1788158416748047
153,2.9515063407970517,-0.593891011706145,-0.3633858885850763,0.1565907746553421,0.5595899820327759,0.8138418197631836,0.2077372968196869,1.2794549465179443,0.06065808981657028,0.2721659541130066,0.2864793539047241,0.25566208362579346
154,3.0264553856441005,-0.6133917889631085,-0.351441427638119,0.09393986314535141,0.5756442546844482,0.8122860193252563,-0.01390419714152813,0.2747648060321808,-0.17238256335258484,0.2469414472579956,-0.16930276155471802,-0.035034000873565674
155,3.0314166436418652,-0.6158091067633789,-0.3413681593548047,0.08975555747747421,0.577619194984436,0.8113570809364319,-0.025095762684941292,-0.15864886343479156,-0.02377549186348915,0.06556367129087448,-0.28152233362197876,-0.33477914333343506
156,2.9910695873091218,-0.6036282529370711,-0.32928721236359143,0.12345544993877411,0.5676332712173462,0.8139725923538208,-0.23990577459335327,-0.6298736929893494,-0.3339393436908722,-0.061764150857925415,-0.21452957391738892,-0.17873382568359375
157,2.989744974123693,-0.589718129654583,-0.237811357257216,0.12571582198143005,0.5561267733573914,0.8215343952178955,-0.5611253380775452,-0.6070520877838135,-1.616747260093689,-0.45410019159317017,0.31366997957229614,0.05807387828826904
158,3.0205900064032196,-0.5946704392548031,-0.1364220489516056,0.09998612105846405,0.5602357983589172,0.8222767114639282,0.3329654037952423,-0.23262177407741547,-0.32702118158340454,0.506535530090332,0.18308091163635254,0.15495741367340088
159,3.0148664622044965,-0.6052028618533849,-0.09189989385196584,0.10393920540809631,0.5689288973808289,0.8157919645309448,-0.00924507062882185,-0.8927008509635925,-0.4918869733810425,0.3950079083442688,0.18708300590515137,0.052631497383117676
160,2.9308358257205427,-0.6059375212695419,0.019195153106737015,0.1719558984041214,0.5695329308509827,0.8037809133529663,-0.034841589629650116,-1.1481187343597412,-0.8442161083221436,-0.1760299801826477,-0.1629166603088379,-0.32621121406555176
161,2.8748408224661324,-0.6231522576707967,0.10103637199616348,0.21405422687530518,0.5835978388786316,0.7833230495452881,0.04380626976490021,-0.7101731300354004,-0.24045656621456146,0.1177634596824646,-0.31904077529907227,-0.14906078577041626
162,2.8245469369880363,-0.6118678408123503,0.12177125258727789,0.25520017743110657,0.5743974447250366,0.777779221534729,-0.5097810626029968,-0.6325331926345825,-0.4314759373664856,-0.20631098747253418,0.021443068981170654,0.2484506368637085
163,2.7666466415481255,-0.6069719334495255,0.12995886831275816,0.3008071780204773,0.5703828930854797,0.7643153667449951,0.03410879522562027,-0.4965876042842865,-0.34043219685554504,-0.31299901008605957,0.5900936722755432,0.35394006967544556
164,2.870459678310591,-0.6167188713852029,0.2576346818759521,0.21848489344120026,0.5783615708351135,0.7859783172607422,-0.28985220193862915,0.24267572164535522,-0.9217839241027832,0.32732197642326355,0.16957837343215942,0.24916255474090576
165,2.9245746500582754,-0.6268312719272338,0.3243454300615331,0.17438437044620514,0.5865814089775085,0.7908933162689209,0.03825320675969124,-0.19588476419448853,-0.511360764503479,0.20926736295223236,-0.2664520740509033,-0.3095701336860657
166,2.9074546596989617,-0.6247509834010366,0.38287289393522705,0.18818099796772003,0.5848953127861023,0.7889775633811951,-0.2834610044956207,-0.7553714513778687,-0.47736886143684387,-0.014627531170845032,-0.3317977786064148,-0.2554692029953003
167,2.864200952789641,-0.6106153203953959,0.44583003244333486,0.22436240315437317,0.5733717083930969,0.7879762053489685,-0.33982929587364197,-1.1377737522125244,-0.3186275362968445,-0.011746421456336975,-0.18476086854934692,-0.0056275129318237305
168,2.8499967027808277,-0.5506327283798491,0.608889013711911,0.2449895590543747,0.5232265591621399,0.81621915102005,-1.8807002305984497,-0.8659382462501526,-1.6140413284301758,-0.4574071764945984,0.36193573474884033,0.3953285217285156
169,2.9153883421235567,-0.6065812801612502,0.6363193741371721,0.18426892161369324,0.570061981678009,0.8006709814071655,-0.5344263315200806,-0.9496287703514099,0.2454179972410202,0.013164550065994263,0.5153108835220337,0.6839479804039001
170,2.9115523655646793,-0.5909874281882427,0.639688501212564,0.18934303522109985,0.5571812391281128,0.8085160851478577,0.07829096168279648,-0.24978263676166534,-0.027987737208604813,0.37286704778671265,0.2478266954421997,-0.20466482639312744
171,2.887501867199818,-0.6282044679420483,0.6037689698879664,0.20337583124637604,0.5876929759979248,0.7831062078475952,0.6830686926841736,0.09225084632635117,1.086372971534729,0.14002323150634766,-0.44682377576828003,-0.4164375066757202
172,2.8401105198980625,-0.6479535597885849,0.5075118263080819,0.23675307631492615,0.6035559773445129,0.7613595128059387,-0.03909819573163986,-0.08805954456329346,0.28999075293540955,-0.10586316883563995,-0.24466931819915771,-0.06810688972473145
173,2.8203402269489657,-0.618862563301216,0.5163792842580583,0.25719478726387024,0.5801090598106384,0.7728674411773682,-0.029940787702798843,0.04514061287045479,0.3217136561870575,-0.3329241871833801,0.3964838981628418,0.08012926578521729
174,2.8456065826931844,-0.631159807623255,0.5203521444061573,0.23548847436904907,0.590081512928009,0.7722359895706177,-0.1870044767856598,1.165738821029663,-0.7834087014198303,-0.22228969633579254,0.28523874282836914,0.2820392847061157
175,2.9742590902732835,-0.6388445112196331,0.5722136314197818,0.13370683789253235,0.5962682366371155,0.7915719151496887,0.025747202336788177,0.48496636748313904,-0.10932910442352295,0.45645731687545776,0.14329463243484497,0.3410877585411072
176,2.9955275924076865,-0.637799032559524,0.5840742988964631,0.11693307757377625,0.5954285860061646,0.7948533296585083,0.03125304728746414,0.20925624668598175,0.11117704957723618,-0.007558032870292664,-0.2729187607765198,-0.2760390639305115
177,2.9848880381722136,-0.6359316558058672,0.5609809617392407,0.12555646896362305,0.5939273238182068,0.7946609854698181,0.0007977504283189774,0.01284785382449627,0.2323310375213623,-0.10343120992183685,-0.4166353940963745,-0.29269254207611084
178,2.9692039091593907,-0.6354508621248308,0.5178365661792325,0.13805298507213593,0.5935404300689697,0.7928749918937683,-0.055344462394714355,0.15689027309417725,0.4830271899700165,-0.09894472360610962,-0.16461598873138428,-0.05921733379364014
179,2.994892371089595,-0.6166092135921852,0.5243674575245407,0.1192556843161583,0.5782721638679504,0.8070806264877319,0.4272380471229553,0.6676368713378906,0.3789171576499939,-0.22835606336593628,0.3173728585243225,0.033190250396728516
180,3.0066860491392866,-0.6465748770354605,0.45951610043425056,0.1073497012257576,0.6024561524391174,0.7909002304077148,0.26139581203460693,0.34322425723075867,0.39804530143737793,0.295146644115448,-0.007271766662597656,0.22103232145309448
181,2.9544720780814697,-0.6446421234840756,0.41506851792430155,0.14869694411754608,0.6009123921394348,0.7853620052337646,0.0370909608900547,-0.7802769541740417,0.31616854667663574,0.19390861690044403,0.1669555902481079,-0.18135815858840942
182,2.8877301769335526,-0.6510551497499134,0.35964800497244764,0.19977159798145294,0.6060260534286499,0.7699505090713501,-0.03807280212640762,-0.26110148429870605,0.15897329151630402,-0.030505865812301636,-0.3095630407333374,-0.2492595911026001
183,2.8438935337460234,-0.6299408625183031,0.35020745605286513,0.23702199757099152,0.5890969634056091,0.7725191712379456,-0.2655518651008606,-0.41263556480407715,-0.007317554205656052,-0.30351975560188293,0.10443031787872314,-0.07085877656936646
184,2.8205365470559314,-0.6238059012154775,0.35222764158194814,0.25613492727279663,0.5841284990310669,0.7701871991157532,0.15953490138053894,0.11612096428871155,-0.22363263368606567,-0.270905464887619,0.28455424308776855,0.14608758687973022
185,2.9078908395016363,-0.6594095107065039,0.3999570408929869,0.18303045630455017,0.6126502752304077,0.7688691020011902,0.38543885946273804,1.2909328937530518,-0.22509539127349854,0.27545034885406494,0.3889518976211548,0.3810485601425171
186,2.987853099414917,-0.6935350740164864,0.3708569092835396,0.11775920540094376,0.6392596364021301,0.7599213123321533,0.10836364328861237,0.2927124500274658,0.15295228362083435,0.37969261407852173,-0.20342260599136353,0.364926278591156
187,2.985840768202184,-0.6811330721823666,0.36662063773345105,0.12050878256559372,0.6296736598014832,0.7674561738967896,-0.11513887345790863,0.13585852086544037,0.013466624543070793,-0.24112948775291443,-0.16048109531402588,-0.3314208984375
188,2.97694665475872,-0.6758964941786378,0.3536589002126099,0.12786845862865448,0.6255969405174255,0.7695961594581604,-0.05293560028076172,-0.298566997051239,-0.26879826188087463,-0.03001384437084198,-0.3038654327392578,-0.3761940002441406
189,2.969763588117366,-0.6803275681164495,0.40090598927034754,0.1329178661108017,0.629047691822052,0.7659189105033875,-0.23871588706970215,-0.5365695357322693,-0.6018686890602112,-0.333860844373703,0.1863972544670105,0.019588232040405273
190,3.003287653198867,-0.6996954548275869,0.47110447854061177,0.10547161102294922,0.6439847350120544,0.7577329277992249,0.12814989686012268,-0.4025740921497345,-0.9202510118484497,0.1759767234325409,0.3384522795677185,0.11400163173675537
191,3.0095497059051053,-0.709929998891747,0.5374646636060353,0.09985160827636719,0.6517806649208069,0.7518055438995361,0.053112342953681946,-0.753797173500061,-0.18416382372379303,0.6571369171142578,-0.13838344812393188,0.40050768852233887
192,2.9240889172438553,-0.6960106175881947,0.583528473683351,0.1656007617712021,0.641161322593689,0.7493253946304321,0.015916362404823303,-0.5236923098564148,-0.10899621248245239,-0.2800416648387909,-0.25053632259368896,-0.24120771884918213
193,2.8755831128789606,-0.6979295099368376,0.5419436456190274,0.20141451060771942,0.6426327228546143,0.7392260432243347,0.1396191567182541,-0.0804094523191452,0.427603155374527,0.03654627501964569,-0.3348935842514038,-0.189711332321167
194,2.852840504900977,-0.6728094150774884,0.5311692461415257,0.2227005809545517,0.6231856346130371,0.7496964931488037,-0.40320512652397156,-0.12358775734901428,0.00516792107373476,-0.2532028257846832,0.08895754814147949,-0.04728841781616211
195,2.816479247239319,-0.6397669712316864,0.5451153293512677,0.2562468945980072,0.5970085263252258,0.7602095007896423,-0.17757195234298706,-0.7924321293830872,-0.31841641664505005,-0.23630359768867493,0.6239540576934814,0.26804983615875244
196,2.8842531334671704,-0.6301899697871304,0.6004943167272985,0.20562151074409485,0.5892982482910156,0.781311571598053,-0.23686078190803528,1.5024752616882324,0.11708657443523407,0.26129746437072754,0.18140798807144165,0.13969385623931885
197,2.99809379576153,-0.6225280675268978,0.5810566897364566,0.11617979407310486,0.5830908417701721,0.8040568828582764,-0.09002190083265305,0.7020778656005859,0.30201005935668945,0.5376898050308228,-0.15004640817642212,0.007085084915161133
198,2.9769998221930503,-0.5937809357043746,0.5793970788605928,0.13580457866191864,0.5594987869262695,0.8176298141479492,-0.3629258871078491,-0.3334251046180725,-0.2097383737564087,-0.19886913895606995,-0.059163033962249756,-0.30800139904022217
199,2.9704251420636067,-0.5534566348270351,0.6477196494967205,0.14490436017513275,0.5256309509277344,0.8382807374000549,-0.15294809639453888,-0.518749475479126,-0.2833218276500702,0.06012798845767975,0.03331369161605835,-0.26744961738586426
200,2.9254322332191958,-0.5462633751464965,0.6941228347601474,0.18326790630817413,0.5194980502128601,0.8345864415168762,-0.08146816492080688,-0.5733189582824707,-0.5797537565231323,-0.22587047517299652,0.1560695767402649,-0.101798415184021
201,2.9233035089537904,-0.5663626522859235,0.7555356431386383,0.18274568021297455,0.5365661978721619,0.8238329887390137,0.3643096089363098,-0.011934483423829079,-0.2232210636138916,-0.11244845390319824,0.039804041385650635,-0.014674663543701172
202,2.933048396984992,-0.5981555530169406,0.8135757885340638,0.17108941078186035,0.5631192326545715,0.8084706664085388,0.1984233558177948,-0.44226646423339844,-0.3706972002983093,0.30890631675720215,0.04280722141265869,0.14474570751190186
203,2.8525533802941268,-0.6035468666843816,0.9041458868488538,0.23467431962490082,0.5675662755966187,0.7891745567321777,-0.2247309386730194,-1.4867562055587769,-0.9222163558006287,-0.08081994950771332,0.03721582889556885,-0.17647314071655273
204,2.796007713051072,-0.608597447869731,1.0075331569698553,0.2779252231121063,0.5717173218727112,0.7719433903694153,-0.3492884039878845,-0.5385213494300842,-0.58212810754776,-0.1447007954120636,-0.26165878772735596,-0.054109036922454834
205,2.832394043244463,-0.6299677871284968,0.9499535812387485,0.24588492512702942,0.5891187191009521,0.7697275280952454,0.4424852132797241,1.3431220054626465,0.436905175447464,-0.12886521220207214,-0.5877300500869751,-0.33221203088760376
206,2.943162764319022,-0.5879628855177628,0.9915801473068308,0.1640266627073288,0.5546671748161316,0.815744936466217,-2.4030210971832275,-0.8694807291030884,-2.9717204570770264,-0.34920734167099,1.1271259784698486,1.1353507041931152
207,2.9315057162889167,-0.5624503951511037,0.9013334835330304,0.17641884088516235,0.533260703086853,0.8273511528968811,0.6507322788238525,0.35580334067344666,2.238537073135376,-0.15583471953868866,0.13791245222091675,-0.4732555150985718
208,2.8624598213684322,-0.5926730278479702,0.782954188670491,0.22853203117847443,0.5585801601409912,0.7973465323448181,0.004212686326354742,-0.6444686651229858,-0.3603364825248718,-0.22253528237342834,-0.14705055952072144,-0.37376248836517334
209,2.917863882070301,-0.6198051848730526,0.9471453008871814,0.1805979311466217,0.5808765888214111,0.7937046885490417,0.07785028219223022,-0.7925657033920288,-2.1466081142425537,0.45001736283302307,0.08794677257537842,0.2771114706993103
210,2.868510029403403,-0.6086324456909911,1.06596337624456,0.22127112746238708,0.5717459917068481,0.7900290489196777,0.05924909561872482,-1.2170323133468628,-0.8764145970344543,0.3429836630821228,0.28959745168685913,0.2930246591567993
211,2.806843726526013,-0.6496597955173499,1.1633858722867658,0.26160678267478943,0.6049155592918396,0.7520902156829834,0.44461536407470703,-0.9373137950897217,-0.3834537863731384,-0.24311310052871704,-0.4137532711029053,-0.11268573999404907
212,2.7875724740020185,-0.6689351142651467,1.1307707445063762,0.271957665681839,0.6201509833335876,0.735834002494812,0.12078702449798584,1.3870183229446411,0.20290786027908325,-0.31120333075523376,-0.6372714042663574,-0.1255892515182495
213,2.9517629985833667,-0.6283255286786675,1.1185391369586573,0.15265390276908875,0.5877909064292908,0.7944799065589905,-0.9207668304443359,0.9850653409957886,1.15317702293396,0.9938304424285889,0.7033314108848572,1.2631218433380127
214,2.9016817502325907,-0.5273118700469419,1.0936543921452109,0.2053389549255371,0.5032121539115906,0.8394123911857605,0.01656550168991089,-0.2922210693359375,1.3321176767349243,-0.1330733597278595,0.3672100901603699,-0.43117886781692505
215,2.8480340550333256,-0.5368068487029882,0.9932146237517223,0.24866077303886414,0.5113945603370667,0.8225835561752319,1.099361777305603,-0.06441588699817657,1.0867359638214111,-0.016391441226005554,-0.044734954833984375,-0.6941044330596924
216,2.793145333040691,-0.5631651714890459,1.0761663466175129,0.28871026635169983,0.533865213394165,0.7947540879249573,-0.20511752367019653,-0.5128112435340881,-1.7571885585784912,-0.07408013939857483,0.026345908641815186,-0.15460222959518433
217,2.766012621571531,-0.5688376185410481,1.263824849312093,0.3090493977069855,0.5386530756950378,0.7837992310523987,-0.26188552379608154,-1.5469545125961304,-0.7070918679237366,0.315416544675827,0.5708745121955872,0.31046950817108154
218,2.6683485004611858,-0.6015809239257165,1.3247987495479756,0.3757610619068146,0.5659465789794922,0.7338311076164246,0.2276112586259842,-1.2591965198516846,-0.23669110238552094,-0.17411619424819946,-0.3530406951904297,-0.030462026596069336
219,2.56557677845549,-0.6037862226725534,1.2730321238864888,0.4483819901943207,0.5677633285522461,0.6903612613677979,0.1402113139629364,0.42291200160980225,0.656007707118988,-0.487947940826416,-0.6864156126976013,-0.016075313091278076
220,2.7466116655896498,-0.605537298109364,1.248935503361449,0.31637346744537354,0.5692039132118225,0.7588904500007629,-0.6664677858352661,1.589381456375122,0.9917807579040527,1.3569663763046265,0.479731023311615,1.1027733087539673
221,2.7276761906337086,-0.4825262724645828,1.2035350527008282,0.3562772274017334,0.46401849389076233,0.8110195994377136,0.5149465799331665,0.09135884046554565,1.7721383571624756,-0.09091171622276306,0.10368463397026062,-0.3939208388328552
222,2.692281620518629,-0.49145288236513995,1.079161365958904,0.38293951749801636,0.4719073176383972,0.7941415905952454,1.1734379529953003,0.019634271040558815,0.7766090035438538,-0.17148324847221375,0.025239259004592896,-0.6996439099311829
223,2.6637252100107873,-0.5237000570087791,1.1676037282484162,0.39825016260147095,0.5000877380371094,0.7689662575721741,-0.06337044388055801,-0.0278386939316988,-2.0834009647369385,-0.08559760451316833,-0.04952627420425415,-0.5242915749549866
224,2.643679136137411,-0.5133368578380313,1.4395356335719183,0.4160367250442505,0.4910867512226105,0.7653412222862244,-0.7939074635505676,-1.83321213722229,-0.7356250286102295,0.256616473197937,0.6933767795562744,0.40778493881225586
225,2.557247269298493,-0.5433887649115933,1.5563674223608284,0.4721941649913788,0.5170395970344543,0.7139347195625305,0.8300683498382568,-1.1035962104797363,0.22799111902713776,-0.09685847163200378,-0.4400285482406616,-0.022238552570343018
226,2.381341617830025,-0.5340935420814527,1.40207405761829,0.5931321978569031,0.5090610384941101,0.62373948097229,0.3072681725025177,0.6887921094894409,0.1339443176984787,-0.7528917789459229,-0.8726170063018799,-0.3095915913581848
227,2.6067570516793226,-0.5412502169156196,1.4296694014190447,0.4368457496166229,0.5152078866958618,0.7373780608177185,-1.2570908069610596,0.9304976463317871,-0.34611842036247253,1.3490123748779297,1.3920643329620361,1.4200468063354492
228,2.506384482140802,-0.36555902353315045,1.4396055928637375,0.554139256477356,0.35747143626213074,0.7517604827880859,0.6760929226875305,-0.9190900921821594,1.8633151054382324,-0.39910995960235596,0.14803698658943176,-0.29205894470214844
229,2.4117781092954647,-0.34882544885158584,1.3196796525205519,0.6265774369239807,0.3417942225933075,0.700412392616272,1.1356292963027954,-1.2208654880523682,1.6830589771270752,-0.4980831742286682,-0.1105014979839325,-0.611240029335022
230,2.366364481556331,-0.3461442314541644,1.3221371044614028,0.6583678126335144,0.33927327394485474,0.6718970537185669,-1.7940380573272705,-0.9680299162864685,-1.5288710594177246,0.6119416952133179,-0.12229326367378235,-0.02497011423110962
231,2.2860842973429745,-0.3272266311632363,1.4552167136348217,0.7148470282554626,0.32141804695129395,0.6210343837738037,-1.4949203729629517,-2.94042706489563,-0.7196240425109863,0.022732138633728027,0.0795828104019165,0.18208134174346924
232,2.099801139015821,-0.29389241189833665,1.5889129800882964,0.8262941241264343,0.2896799147129059,0.4830358028411865,-1.2591263055801392,-1.4561604261398315,-0.5014258027076721,-0.7524263262748718,-0.38823646306991577,-0.10106256604194641
233,2.0204250189760815,-0.2791824118190682,1.6246106151772843,0.8657379746437073,0.2755697965621948,0.41780272126197815,0.5597586631774902,-0.1307259052991867,0.46175336837768555,-0.5752410888671875,-0.3316611349582672,-0.2139148712158203
234,2.16305454552769,-0.2911901525368956,1.532600104878604,0.7947547435760498,0.2870924770832062,0.5347357988357544,0.09709887206554413,2.0283632278442383,0.25600698590278625,1.676222801208496,0.9818741083145142,0.677574872970581
235,2.2180316346000253,-0.3134023287252446,1.4524437395827725,0.7588955163955688,0.3082970082759857,0.5736120343208313,0.5512475967407227,1.3131449222564697,0.12354868650436401,-0.2452998161315918,0.21109691262245178,0.31065016984939575
236,2.3215755929181436,-0.32169093335926363,1.476126271262627,0.6936507225036621,0.31617119908332825,0.6472129821777344,-0.7406790852546692,1.35707426071167,-1.6130731105804443,-0.8050550818443298,0.31227734684944153,-0.6068839430809021
237,2.4299507010187114,-0.3494746602071611,1.6556606941158718,0.6136014461517334,0.3424042761325836,0.7115145921707153,-0.9530019760131836,0.10503867268562317,-1.7157121896743774,0.3980410695075989,-0.4927186071872711,-0.620419442653656
238,2.4401256125750987,-0.32153651732515154,1.8851264769352096,0.6122660040855408,0.31602469086647034,0.7247473001480103,-1.154002070426941,-1.5112959146499634,-1.7415305376052856,0.516319751739502,0.11241152882575989,0.14465278387069702
239,2.3570855126270542,-0.3482132567649653,2.028273202793783,0.6640763878822327,0.34121882915496826,0.6652608513832092,0.2617306411266327,-1.0729331970214844,-0.43636414408683777,-0.3360125422477722,-0.6391467452049255,0.0851815938949585
240,2.3041639395456897,-0.36083281045649185,1.930981921290514,0.6950822472572327,0.3530535399913788,0.6262694597244263,0.7136944532394409,1.482673168182373,1.0823187828063965,-0.5110461711883545,-0.49480774998664856,-0.1794312596321106
241,2.3397508547017285,-0.31266219959169983,1.749141777323426,0.6837972402572632,0.30759286880493164,0.6616708636283875,1.3157315254211426,0.13849778473377228,3.6662421226501465,1.8816478252410889,-0.9754852652549744,0.0590171217918396
242,2.1565269761460777,-0.14816918334313978,1.6196379377880572,0.8241778612136841,0.14762762188911438,0.5467512607574463,0.26738420128822327,-1.0905063152313232,1.2471554279327393,-0.04155457019805908,0.23805353045463562,0.2023026943206787
243,2.004110509634498,-0.06366284343753674,1.4508343116194824,0.9057405591011047,0.06361985206604004,0.4190303683280945,0.02534148097038269,-1.2569093704223633,0.17546990513801575,-0.921106219291687,0.689828634262085,-0.37548184394836426
244,1.778867598708394,0.02950015686235768,1.508637680864771,0.9780053496360779,-0.029495878145098686,0.20648325979709625,-1.5891380310058594,-0.8125455379486084,0.49994799494743347,-0.9984369874000549,0.44929566979408264,0.029860123991966248
245,1.7671975655138312,0.218660716072924,1.7234932399819713,0.9574218988418579,-0.21692241728305817,0.19049450755119324,-3.085963249206543,0.9290134906768799,1.738361120223999,1.9223542213439941,0.03183329105377197,-0.017551392316818237
246,1.7176551602374706,0.23460841180205996,1.9181010584678087,0.9621357917785645,-0.23246213793754578,0.14232279360294342,-0.8300804495811462,0.24924138188362122,-0.41520771384239197,-0.3754507899284363,-0.26843810081481934,0.23315021395683289
247,1.701919211268431,0.18451033156615124,1.9297053553699826,0.974587619304657,-0.18346519768238068,0.1285281926393509,0.8683800101280212,-0.4653555750846863,-0.2750903069972992,-0.897866427898407,-0.10648229718208313,0.13695955276489258
248,1.7980090383404743,0.16257559543796082,1.8104458216387112,0.9614507555961609,-0.1618603765964508,0.22229239344596863,2.3633577823638916,1.8225098848342896,-0.23147456347942352,0.6541651487350464,-0.8992358446121216,-0.24414297938346863
249,1.8870780114567438,0.20050477759237648,1.6919815778601293,0.9313585162162781,-0.199164018034935,0.30480366945266724,0.6845882534980774,0.9413743019104004,0.5268816947937012,0.027702271938323975,0.2281709611415863,0.7111876010894775
250,1.837079001880381,0.23484176650580912,1.557346646942934,0.9382743239402771,-0.23268909752368927,0.255923867225647,0.8309624195098877,-1.0625237226486206,0.30940720438957214,-0.7205162048339844,0.5951310992240906,-0.09962812066078186
251,1.807430170152586,0.23042821370099598,1.6344896087679033,0.9464378952980042,-0.22839443385601044,0.22823528945446014,-1.8508360385894775,1.3243709802627563,-0.5036576986312866,-0.8391991257667542,0.39332669973373413,0.0051174163818359375
252,1.863812639359568,0.2105965205830852,1.8973828730681335,0.9362250566482544,-0.20904327929019928,0.28245973587036133,-3.1587867736816406,0.09421315789222717,-0.5685231685638428,1.424462080001831,0.41366368532180786,0.3079943358898163
253,1.7741277160128106,0.18601662262323643,2.0759228616142074,0.9625032544136047,-0.1849457174539566,0.19844956696033478,-0.02046634629368782,-0.6074275374412537,-1.1225544214248657,-0.46970558166503906,-0.026953086256980896,0.09929510951042175
254,1.7503857625944614,0.10515801523550676,2.0097555580611632,0.9784821271896362,-0.10496431589126587,0.1776389330625534,1.465619683265686,0.6233518123626709,-0.09871302545070648,-1.2846648693084717,-0.35809415578842163,0.16572965681552887
255,1.9364518118084961,0.12192346303600579,1.7847067473068523,0.926956832408905,-0.12162161618471146,0.35490715503692627,2.6683390140533447,0.8538883924484253,2.224247932434082,1.8054802417755127,-1.5643219947814941,-0.8428679704666138
256,1.984458899172459,0.20623807361754265,1.6525120154312392,0.8962504863739014,-0.20477914810180664,0.3934473693370819,0.9462835192680359,-0.3208428919315338,1.1867265701293945,0.18378198146820068,0.35260626673698425,0.3927159905433655
257,1.9234541856274847,0.2296229491037239,1.5090574937483088,0.9138257503509521,-0.22761037945747375,0.33632755279541016,0.7357568144798279,-0.9554422497749329,0.4575743079185486,-0.5945659875869751,0.6053721904754639,-0.03220459818840027
258,1.8763231278673544,0.20973280023727692,1.5415593652251254,0.9327901601791382,-0.20819856226444244,0.2942041754722595,-1.2800250053405762,0.42558813095092773,-0.5965851545333862,-0.9319965839385986,0.25385284423828125,-0.2098993957042694
259,1.9538048184619343,0.2312167770410681,1.7658059440552296,0.9028611183166504,-0.2291620820760727,0.3637675940990448,-4.467431545257568,0.20031481981277466,-0.2947078347206116,2.036607265472412,0.5489557981491089,0.5072193145751953
260,1.8938112756085148,0.2114881855169508,2.031427657285978,0.927154541015625,-0.2099151611328125,0.310354620218277,-0.5788094997406006,-0.7477947473526001,-0.9514195322990417,-0.26454174518585205,-0.1133880764245987,0.16948851943016052
261,1.772343581436117,0.14162949106841324,1.9662703752393167,0.9699480533599854,-0.14115647971630096,0.1981811225414276,0.5879376530647278,0.04230732098221779,-0.2140553593635559,-1.0398179292678833,-0.30272167921066284,0.3379516899585724
262,1.879106573894692,0.13345073608945138,1.774039285734605,0.9443754553794861,-0.13305498659610748,0.30075088143348694,2.674445390701294,3.521089792251587,1.022468090057373,0.47113651037216187,-1.0817124843597412,-0.03773528337478638
263,2.014272189830789,0.22003080189885393,1.646045252906236,0.8814886808395386,-0.21825967729091644,0.41873687505722046,1.0262048244476318,-0.9675729274749756,0.8873315453529358,0.08445370197296143,0.21615394949913025,0.5174051523208618
264,2.042321180968752,0.22351403913249707,1.4820884669968306,0.8687156438827515,-0.22165760397911072,0.4429456889629364,1.4896970987319946,-0.008457604795694351,0.0993986651301384,-0.43644946813583374,0.4657982587814331,-0.03903034329414368
265,2.007351269945681,0.16934250461888423,1.4225146369273163,0.8932509422302246,-0.1685342937707901,0.41677188873291016,-0.287787526845932,0.3314872086048126,-0.8850809931755066,-0.9200149178504944,0.3943949341773987,-0.31151679158210754
266,2.0894177083190346,0.16113660696936996,1.5374971685716443,0.8572523593902588,-0.16044019162654877,0.4892619550228119,-1.588188886642456,1.2616630792617798,-0.561995267868042,2.0406813621520996,-0.24054552614688873,-0.327259361743927
267,2.101900716981819,0.13378736750123965,1.9111681400517322,0.8545430898666382,-0.13338860869407654,0.5019599199295044,-1.3101471662521362,-0.6572608947753906,-1.9312922954559326,-0.20700573921203613,-0.08189766108989716,0.2852715849876404
268,1.9454729725881725,0.02891288313430216,1.9558705089555442,0.9302371144294739,-0.028908854350447655,0.36581867933273315,0.5925617814064026,-1.0560446977615356,-0.15832601487636566,-0.9537203907966614,-0.2148655652999878,-0.12358546257019043
269,1.9846055043517399,-0.0028953256832614164,1.8388624698781233,0.9155920147895813,0.002895321696996689,0.40209823846817017,1.9687122106552124,1.8340249061584473,0.9396286010742188,-0.0697210431098938,-0.9241142272949219,-0.2719559669494629
270,2.285540428429345,0.02507726865395013,1.7268405232753243,0.7550234198570251,-0.025074640288949013,0.6552180051803589,0.54301518201828,0.020911220461130142,1.2570066452026367,0.3021511435508728,0.10602251440286636,0.6355075240135193
271,2.229972474517196,0.08194931876741648,1.5387659000211975,0.7878443002700806,-0.08185762166976929,0.6104105114936829,1.397621989250183,0.25104108452796936,0.9109449982643127,-0.4512200355529785,0.5329989790916443,-0.1761605143547058
272,2.233453052804194,0.0469723264866954,1.473730504709885,0.7874910831451416,-0.04695505648851395,0.6145349740982056,0.22593609988689423,0.7486721873283386,-0.9070970416069031,-0.9166262149810791,0.39064401388168335,-0.3609185218811035
273,2.3918530778488063,-0.049738972950540986,1.5889386092101108,0.680605411529541,0.0497184656560421,0.7309612035751343,-2.543879985809326,1.6622298955917358,-1.4518163204193115,2.0994086265563965,-0.4879051148891449,0.28394651412963867
274,2.4087281508897322,-0.054182296817703465,1.8661731178102574,0.6680196523666382,0.05415578931570053,0.7421703338623047,-0.6090042591094971,-0.7193948030471802,-2.0133674144744873,0.16512542963027954,0.015134360641241074,0.22851747274398804
275,2.26520311935081,-0.09914532508988844,1.924499922941969,0.7646598219871521,0.09898297488689423,0.6367871761322021,0.24599647521972656,-1.8345383405685425,0.3022611141204834,-0.7125509977340698,-0.4542381167411804,-0.4003216624259949
276,2.2804127523068973,-0.11169681227116099,1.8704413266175317,0.7538845539093018,0.11146470159292221,0.6474827527999878,1.3150638341903687,3.0787315368652344,0.2458525449037552,-0.1848994493484497,-0.4667198061943054,-0.24610024690628052
277,2.546305241257876,-0.1362671836854351,1.7542080353312421,0.5555486679077148,0.1358458548784256,0.8203120231628418,0.8420764207839966,1.246631145477295,0.8622210621833801,0.5890741944313049,0.1640961766242981,0.7331854104995728
278,2.563765710862213,-0.06134338774314815,1.5482476484387109,0.5451775193214417,0.06130492314696312,0.8360759019851685,0.48717308044433594,-0.37861111760139465,2.62200665473938,-0.4430353045463562,0.4153643846511841,-0.4697125554084778
279,2.5539162672118154,-0.07105755796129094,1.4407044093202082,0.5530296564102173,0.07099777460098267,0.8301311135292053,0.3526657223701477,0.8387570977210999,-0.3917473256587982,-0.7142387628555298,0.20120376348495483,-0.583503246307373
280,2.6487709962782064,-0.13754561998641487,1.6005241939094643,0.4686453342437744,0.1371123343706131,0.8726808428764343,-1.637765645980835,0.08065363764762878,-2.0583248138427734,1.5793893337249756,-0.0997893363237381,0.8385313749313354
281,2.6256170140858432,-0.12149596708374343,1.8209344838031971,0.48974668979644775,0.12119728326797485,0.863399863243103,-0.5650147795677185,-0.12525159120559692,-1.5773279666900635,0.24951109290122986,-0.02174050360918045,0.2784762978553772
282,2.5195059669154216,-0.09887543495383663,1.9059218771444926,0.5798861980438232,0.09871440380811691,0.8086952567100525,-0.12031436711549759,-1.5920543670654297,0.26082590222358704,-0.7672792077064514,-0.26408910751342773,-0.4947606921195984
283,2.528565946503532,-0.1034023904394376,1.891462264375664,0.5722726583480835,0.10321822762489319,0.8135417699813843,0.5521988868713379,1.7822191715240479,0.5211308598518372,-0.3013222813606262,-0.3103104829788208,-0.4647411108016968
284,2.727312981138796,-0.12306809818024109,1.7419496263401824,0.39948609471321106,0.1227576732635498,0.9084827899932861,0.5994643568992615,0.6584663987159729,1.1027765274047852,0.9601329565048218,0.1315147578716278,0.9292855262756348
285,2.691988669015422,-0.0777510521157924,1.6065130568999395,0.4332959055900574,0.07767274230718613,0.8978984355926514,0.3636806309223175,-0.27057522535324097,1.7283782958984375,-0.2718273997306824,0.4831487834453583,-0.08233141899108887
286,2.6686274429455104,-0.06674208919613474,1.507853901368357,0.4545137882232666,0.0666925460100174,0.8882394433021545,0.16823820769786835,-0.34967324137687683,0.1310923844575882,-0.5538942813873291,0.3561285138130188,-0.7593790292739868
287,2.713466799946957,-0.11106217210459671,1.603936790228516,0.4126087725162506,0.11083398759365082,0.9041406512260437,0.33687078952789307,1.6246551275253296,-2.612302541732788,0.6501354575157166,-0.16739827394485474,0.11249160766601562
288,2.66649207585371,-0.10340556880581606,1.8482158692491828,0.45498454570770264,0.10322138667106628,0.884496808052063,-0.4705420732498169,-0.9878073334693909,-2.2887001037597656,0.26815998554229736,0.07451297342777252,0.38443946838378906
289,2.6056500477265647,-0.17819434131341547,2.010381167560133,0.5025657415390015,0.17725279927253723,0.8461733460426331,0.4401969313621521,-1.2177910804748535,-0.4358479678630829,-0.29060590267181396,-0.38959407806396484,-0.36843574047088623
290,2.5324355386177695,-0.1835951286201925,1.9837608016358956,0.5625601410865784,0.18256545066833496,0.806347131729126,0.15125828981399536,0.5530989170074463,0.0756336897611618,-0.48905861377716064,-0.35592055320739746,-0.3788875341415405
291,2.7307095474710965,-0.1936085954243434,1.932770803052662,0.3919565677642822,0.19240131974220276,0.8996400237083435,-0.6432870626449585,0.12958788871765137,1.4867260456085205,1.3649252653121948,0.5665251016616821,1.2426025867462158
292,2.7170978385479247,-0.15654989924161206,1.8181335040530233,0.4068239629268646,0.15591123700141907,0.9001035690307617,0.22368091344833374,-0.7905646562576294,1.847774624824524,0.01933881640434265,0.18509221076965332,-0.04637408256530762
293,2.6815967632958224,-0.13132269722409687,1.681985660475554,0.4401217997074127,0.13094556331634521,0.8883388042449951,0.12627574801445007,-0.14846530556678772,0.5756039023399353,-0.4881870746612549,0.11671984195709229,-0.47770965099334717
294,2.6776838680567394,-0.1527446874468662,1.6936272706712998,0.4422377645969391,0.1521514356136322,0.8838983178138733,0.011095279827713966,0.8196786642074585,-1.7404063940048218,-0.13339978456497192,0.11142890155315399,-0.39250409603118896
295,2.709163694722896,-0.1329631433745457,1.9330827642173203,0.4153783619403839,0.13257171213626862,0.899936318397522,-0.47701898217201233,-0.7704814672470093,-1.6553738117218018,0.5103722810745239,0.5517696738243103,0.5200464725494385
296,2.645901674661691,-0.19553999393361693,2.088430416314349,0.4665752649307251,0.19429627060890198,0.8628768920898438,0.2670630216598511,-0.7763665318489075,-1.022894263267517,-0.1649547815322876,-0.21526184678077698,-0.11176300048828125
297,2.561890676127564,-0.21803478172857052,2.090471087899534,0.5348058342933655,0.21631135046482086,0.8168184757232666,0.2111930400133133,-0.25144121050834656,0.31980785727500916,-0.6999364495277405,-0.5043667554855347,-0.43241894245147705
298,2.7503544381846368,-0.23053239137194148,2.038896630019898,0.37124505639076233,0.22849586606025696,0.8999813199043274,0.13301369547843933,3.0479023456573486,1.4189903736114502,1.300645112991333,-0.6822922825813293,1.3367891311645508
299,2.809334240056279,-0.17596104605785645,1.9520806798061423,0.3211421072483063,0.1750544309616089,0.9307112693786621,-0.15994518995285034,0.09082797169685364,1.143447756767273,-0.12175554037094116,0.06781969964504242,0.28013455867767334
300,2.7840266733595502,-0.15064838210063555,1.816970278590591,0.3460310995578766,0.15007920563220978,0.9261417388916016,0.23912253975868225,0.29225215315818787,0.8465431928634644,-0.38768765330314636,0.19866040349006653,-0.5454503297805786
301,2.764361037262353,-0.15784254946718704,1.802971049431634,0.3637690842151642,0.15718793869018555,0.91813063621521,0.019273502752184868,-0.09495654702186584,-1.0203520059585571,-0.22189289331436157,0.47553300857543945,-0.6939638257026672
302,2.7903953840014935,-0.17464853187615978,2.023297032277916,0.338788777589798,0.1737620234489441,0.9246774315834045,-0.7907266616821289,-1.162488341331482,-1.548458456993103,1.0469838380813599,0.32880139350891113,0.7332507371902466
303,2.706879642973777,-0.21187087927261147,2.2180392718239683,0.41173285245895386,0.21028931438922882,0.8867098689079285,-0.11354239284992218,-1.3868495225906372,-1.6055926084518433,-0.009587526321411133,-0.12093387544155121,-0.06813693046569824
304,2.5876581820738243,-0.2481313178224171,2.2697691180820176,0.5099264979362488,0.24559293687343597,0.8244144320487976,0.06661395728588104,-0.2569664716720581,0.18604117631912231,-0.8375632166862488,-0.5793942213058472,-0.38802826404571533
305,2.6605457418549077,-0.24933500866974004,2.2314570798601814,0.44839906692504883,0.2467595934867859,0.8590971231460571,0.5104616284370422,3.0000903606414795,0.14649558067321777,-0.051319628953933716,-0.5681096911430359,-0.2683379054069519
306,2.7573026150257185,-0.198723935749759,2.167625306236091,0.36752283573150635,0.19741854071617126,0.9088197946548462,-0.09570153057575226,0.006960766389966011,0.42742180824279785,0.11087080836296082,0.22657746076583862,0.5986114740371704
307,2.6492266037607903,-0.13616179844425347,2.0046127122194535,0.46833693981170654,0.1357414424419403,0.8730606436729431,0.6555702090263367,-0.800980806350708,2.0627379417419434,-0.39807018637657166,0.09439162909984589,-0.26777493953704834
308,2.571223561250221,-0.11615316843692992,1.9328567061593156,0.5363045334815979,0.11589216440916061,0.8360302448272705,-0.08450552076101303,-1.0102804899215698,-0.21892431378364563,-0.4648628830909729,0.3259565830230713,-0.279771089553833
309,2.603063861606495,-0.14880562313771492,2.0617954659520206,0.5072057843208313,0.1482570618391037,0.848977267742157,-1.1166664361953735,0.14729364216327667,-1.689997673034668,0.701458215713501,0.1949131190776825,0.4437168836593628
310,2.54244876619497,-0.14852929614121133,2.196385798668732,0.5577267408370972,0.14798377454280853,0.8167264461517334,-0.3114580512046814,-0.9329686760902405,-1.3202978372573853,0.2072879672050476,0.03823448717594147,0.22697484493255615
311,2.426795423265245,-0.20628959909157607,2.292764764106751,0.6415669322013855,0.20482958853244781,0.7392136454582214,0.39528605341911316,-1.5352054834365845,0.19014932215213776,-0.4720417857170105,-0.5091966390609741,-0.09813082218170166
312,2.37824475039853,-0.19135733956786233,2.257403663640444,0.6787252426147461,0.1901916265487671,0.7093373537063599,0.24221433699131012,1.3924261331558228,0.0995471253991127,-0.4754628539085388,-0.3220733404159546,0.021116197109222412
313,2.587453167852737,-0.20234922374701667,2.1751320840841855,0.5154754519462585,0.20097117125988007,0.8330037593841553,0.4067443907260895,0.5424774289131165,1.5233510732650757,1.0710570812225342,0.04356613755226135,0.9412575364112854
314,2.5541496424953225,-0.12673015911927818,2.0283335573266434,0.5497897863388062,0.12639120221138,0.8256853818893433,0.29043006896972656,-0.8289756774902344,2.2774600982666016,-0.05992168188095093,0.2860233187675476,-0.12259095907211304
315,2.5410281107280777,-0.08928552078581467,1.859354423856977,0.5628572702407837,0.08916693925857544,0.8217303156852722,0.4151351749897003,-0.2972632944583893,0.8699155449867249,-0.37253445386886597,0.11661308258771896,-0.46317940950393677
316,2.480637140276851,-0.06810756101887575,1.846571701444918,0.6124480366706848,0.0680549219250679,0.7875756621360779,-0.30441832542419434,-0.010482141748070717,-1.1918691396713257,-0.6321625113487244,0.4831688404083252,-0.495370090007782
317,2.4909398333196084,-0.06772349531111262,2.034998833014865,0.6043173670768738,0.06767173856496811,0.793864369392395,-1.521982192993164,-1.2913278341293335,-0.8973000049591064,0.9413978457450867,0.6217050552368164,0.7231490015983582
318,2.391949159021795,-0.0961163367844973,2.1680100434582377,0.6782327890396118,0.09596841037273407,0.7285534143447876,0.03010590933263302,-0.8013169169425964,-1.0192880630493164,-0.1584116816520691,-0.018865779042243958,-0.07585877180099487
319,2.285873689220693,-0.1165522710313252,2.1257574759236877,0.7499198913574219,0.11628856509923935,0.6512273550033569,0.7884613871574402,-0.5605884194374084,0.45245856046676636,-0.8941002488136292,-0.5109266638755798,-0.3766607642173767
320,2.3218931374159304,-0.1322518833614246,2.0085234536953847,0.7245578169822693,0.1318666934967041,0.6764814257621765,0.9710986018180847,3.283548593521118,0.6673610806465149,0.31545066833496094,-0.8654024600982666,0.286790668964386
321,2.4803541961541877,-0.12020473904738321,1.9598711145511534,0.6096636056900024,0.11991547048091888,0.7835373878479004,0.11977912485599518,-0.6599986553192139,1.1002520322799683,0.20115798711776733,0.215976282954216,0.49470674991607666
322,2.438997687776744,-0.06877332922229648,1.9139153628146202,0.6446725726127625,0.06871912628412247,0.761363685131073,-0.009822577238082886,0.4649094343185425,-0.11866708099842072,-0.3339122533798218,0.31233859062194824,-0.30639249086380005
323,2.4773019136352006,-0.07921763853122492,1.953258532347156,0.6145675182342529,0.07913480699062347,0.7848851084709167,-0.25389862060546875,0.7426989078521729,-1.2447171211242676,-0.7342879176139832,0.40232574939727783,-0.285434365272522
324,2.5613807252689424,-0.10048604116087964,2.098460606774755,0.5454357266426086,0.10031701624393463,0.8321273922920227,-0.8426285982131958,0.4089135229587555,-1.4415510892868042,1.041432499885559,-0.19884303212165833,0.24293047189712524
325,2.49113512800573,-0.07788968552113558,2.286773775820727,0.6037145853042603,0.07781095057725906,0.7933940291404724,-0.7466437220573425,-1.1636103391647339,-1.1360573768615723,-0.039597153663635254,0.06816987693309784,0.6657276153564453
326,2.2906648161538468,-0.10393418768990244,2.3360323316983322,0.7478350400924683,0.1037471666932106,0.6557281613349915,0.8894633054733276,-2.068432331085205,0.5743674635887146,-0.47439754009246826,-0.4559200406074524,-0.02541804313659668
327,2.0089215667090627,-0.02912989653315607,2.1716647380697283,0.9051647186279297,0.029125776141881943,0.42406266927719116,1.0350781679153442,-1.2080368995666504,1.147875428199768,-1.027707815170288,-0.24610573053359985,0.22371885180473328
328,1.9530890569674737,0.09227584570692615,2.06857244441928,0.9238643646240234,-0.09214495122432709,0.37146151065826416,0.5149019956588745,-0.026979614049196243,1.5899639129638672,1.554223895072937,-0.052676185965538025,-0.15898293256759644
329,1.906954978062659,0.15922353530270636,2.020009975431372,0.9320874214172363,-0.15855161845684052,0.3256906569004059,1.0784657001495361,-0.8757604956626892,0.8087002038955688,-0.06245851516723633,0.2114080786705017,0.054405808448791504
330,1.7854322930089508,0.2088660355563645,1.8952237162777434,0.9558195471763611,-0.2073507159948349,0.20836277306079865,0.6993487477302551,-0.9877570867538452,0.480053573846817,-0.34970980882644653,0.6722707152366638,0.02833154797554016
331,1.6421330058263994,0.23467333864966738,1.8899599018670432,0.9701164960861206,-0.2325252890586853,0.06932252645492554,-1.3564205169677734,0.05065231770277023,-0.20082521438598633,-0.21299082040786743,0.5126614570617676,0.3500499725341797
332,1.6409371884386432,0.23865516303984338,2.0254681932760628,0.9692674875259399,-0.23639611899852753,0.06809696555137634,-1.8735744953155518,0.5274697542190552,-0.22456055879592896,0.8992321491241455,0.0942147970199585,-0.37502753734588623
333,1.6271758978523838,0.20566604425466173,2.1786768400338,0.9773697853088379,-0.20421920716762543,0.05516215041279793,-1.2603870630264282,-0.7199855446815491,-0.05738072842359543,-0.1704087257385254,0.002864241600036621,0.03484940528869629
334,1.603329282352633,0.18300961869141996,2.3096086193313443,0.9827802777290344,-0.18198975920677185,0.031984031200408936,-1.0228725671768188,0.5733362436294556,-0.15759357810020447,-0.7596051096916199,-0.09915344417095184,0.24011075496673584
335,1.6753866830986133,0.22724815564296183,2.2982499398691085,0.9689661264419556,-0.22529728710651398,0.10171567648649216,1.1903691291809082,0.8112601637840271,1.0036813020706177,0.1712622046470642,-0.5865771174430847,-0.041763901710510254
336,1.6848969398112459,0.407020587442678,2.1602210212222115,0.9123332500457764,-0.39587509632110596,0.10455189645290375,1.1164872646331787,-1.282423496246338,1.4185187816619873,0.46313977241516113,-0.17521563172340393,-0.17993032932281494
337,1.7054395306445538,0.44610858432831874,2.0838413774691564,0.893967866897583,-0.4314582347869873,0.12109938263893127,1.5403027534484863,-0.7024915218353271,-0.16321870684623718,-0.36285531520843506,0.4492042362689972,-0.10800731927156448
338,1.680906280480651,0.4479827411262386,2.0612634405917323,0.8958644270896912,-0.43314820528030396,0.09904418885707855,-1.283921480178833,0.455008864402771,0.222467839717865,-0.3479364514350891,0.4959685802459717,0.12774719297885895
339,1.6851400779829946,0.43515500466314333,2.1859712021903537,0.9008830189704895,-0.4215509593486786,0.10346164554357529,-2.544111490249634,0.038943465799093246,1.2454191446304321,1.1438860893249512,-0.8454472422599792,-0.428000807762146
340,1.6357754510037967,0.44923585671925403,2.395032328075652,0.898878276348114,-0.43427732586860657,0.05849066749215126,-1.4775277376174927,-0.40528857707977295,-0.5099234580993652,0.2433488965034485,-0.21432802081108093,-0.042346835136413574
341,1.5752017602958897,0.400467642830323,2.517059317735661,0.9208699464797974,-0.3898490369319916,0.00405685743317008,-0.24589698016643524,-0.4536827504634857,-0.0013892203569412231,-0.6346302628517151,-0.06506124138832092,0.18464863300323486
342,1.5587103577120787,0.42253198658995506,2.4976792910925947,0.9119870662689209,-0.41007107496261597,-0.011022783815860748,0.9808468222618103,0.18416032195091248,0.23815317451953888,-0.5279079675674438,0.09181845188140869,0.18846726417541504
343,1.6757969709842144,0.48003402653308436,2.282058253913361,0.8820942044258118,-0.461809366941452,0.0929623544216156,1.743644118309021,0.0018397732637822628,1.2211050987243652,1.0844738483428955,-0.7413766384124756,-0.5798550844192505
344,1.6917891141803356,0.507604226164217,2.258272911398198,0.8675227761268616,-0.4860849380493164,0.10547921061515808,0.5871807932853699,1.6555720567703247,-0.026271410286426544,0.22721916437149048,0.38403409719467163,0.9270219802856445
345,1.6306388851225768,0.4796347429642126,2.107683656516134,0.8855756521224976,-0.46145516633987427,0.05305846408009529,0.37307459115982056,-1.2700095176696777,0.029805459082126617,-0.6938793659210205,0.3475940227508545,0.21747994422912598
346,1.593375789653985,0.5155199191245096,2.1617127047891045,0.8698147535324097,-0.4929872751235962,0.019643288105726242,-0.8099002838134766,0.5351591110229492,-0.3423124849796295,0.011685490608215332,0.6931062936782837,0.09745264053344727
347,1.5951829109480373,0.5396700075582593,2.281710039377893,0.8576232194900513,-0.5138529539108276,0.020918648689985275,-2.5143537521362305,0.09722194820642471,0.18765459954738617,1.0834625959396362,-0.19258320331573486,-0.248488187789917
348,1.5213614095048413,0.5086426746326056,2.4987062967229967,0.8723393082618713,-0.486992210149765,-0.04315918684005737,-1.2586699724197388,-0.10319609940052032,-0.6026502847671509,-0.20981794595718384,0.18009215593338013,0.06037110090255737
349,1.4844375901532822,0.45359349694040885,2.5359492751884907,0.8955283761024475,-0.4381984770298004,-0.07752952724695206,0.021349208429455757,0.21797047555446625,0.08477389812469482,-0.5222679972648621,-0.16196012496948242,0.19419825077056885
350,1.520295949933727,0.46385595497621307,2.497572628472088,0.893193781375885,-0.44739994406700134,-0.045145004987716675,1.5181158781051636,1.2881804704666138,0.1296880841255188,-0.3831230401992798,-0.18950188159942627,0.14014625549316406
351,1.6307693190981298,0.5478441608178569,2.318139976349117,0.8521146178245544,-0.5208480954170227,0.05116521939635277,-1.3319218158721924,0.3851938247680664,0.08115468174219131,0.5894899964332581,-0.36857134103775024,0.16077935695648193
352,1.7662843800152963,0.509879556502332,2.160234110887994,0.8561789393424988,-0.48807212710380554,0.16953793168067932,1.9544544219970703,-2.4601006507873535,0.12063601613044739,-0.34030985832214355,0.2808120548725128,0.06624089181423187
353,1.6394011150632775,0.5419277582957317,2.105217552088274,0.8547006249427795,-0.5157884955406189,0.058728720992803574,-0.9189823269844055,-1.1804777383804321,0.16147835552692413,-0.45812469720840454,0.5899767279624939,0.038225650787353516
354,1.6108932683690684,0.5561611290888734,2.176526693766803,0.8486054539680481,-0.5279297828674316,0.03404473140835762,0.14620311558246613,2.1265006065368652,0.8431738615036011,0.7564665675163269,-0.5739684104919434,0.2643866539001465
355,1.5328576406869363,0.5573045336392211,2.2963754263052425,0.8480730056762695,-0.5289005041122437,-0.032190222293138504,-2.189906120300293,0.01056056097149849,-0.613879919052124,0.2175397276878357,-0.0996088981628418,0.09023463726043701
356,1.4034223017840586,0.48418521247618534,2.4953609943801234,0.8726865649223328,-0.46548739075660706,-0.147444486618042,-0.8767037391662598,-0.10905878245830536,-0.19103093445301056,-0.4484310746192932,-0.013501346111297607,0.5580432415008545
357,1.4204335297361377,0.47373110567541504,2.4382231065424973,0.879831850528717,-0.456209659576416,-0.13330009579658508,0.5160051584243774,0.8990734219551086,0.23240339756011963,-0.73757404088974,0.03196951746940613,0.28532344102859497
358,1.6526379240156617,0.5494195072978161,2.109933602209086,0.8499732613563538,-0.5221922397613525,0.06971890479326248,3.4013638496398926,-0.8122576475143433,2.1757917404174805,1.415789008140564,-1.10367751121521,-1.260972499847412
359,1.5862680223525498,0.5917512727504687,2.081562182212231,0.8298657536506653,-0.5578153729438782,0.01284045446664095,2.38986873626709,-0.8452004790306091,-0.1333395391702652,-0.15345889329910278,0.46984851360321045,0.34094977378845215
360,1.5564779516902967,0.6214771087994894,1.9045961012768517,0.812936007976532,-0.5822367072105408,-0.011640718206763268,0.2746553421020508,-0.8361549973487854,0.3964361548423767,-0.48400235176086426,0.6384653449058533,0.10192692279815674
361,1.5259070008605187,0.6114437481139767,1.9723795116722143,0.8179953098297119,-0.57405024766922,-0.03674394264817238,-0.5676043033599854,1.3575341701507568,-0.3910662829875946,-0.22723603248596191,0.4852745532989502,0.04901200532913208
362,1.5641311965531115,0.6256595337790949,2.1813240975182486,0.8105590343475342,-0.5856320261955261,-0.005402561742812395,-2.519467353820801,-0.784091591835022,0.18514682352542877,1.0471222400665283,-0.2675173878669739,-0.3281087875366211
363,1.463909438939631,0.601417950025594,2.392399261870267,0.8198285698890686,-0.5658121705055237,-0.08796416968107224,-1.5700383186340332,0.22504037618637085,-0.6537171006202698,-0.1508985161781311,0.25311386585235596,0.011197216808795929
364,1.4106016007236322,0.5519425759948373,2.4733724619701825,0.8406050205230713,-0.5243423581123352,-0.13582435250282288,0.08373866975307465,0.6425046920776367,-0.3276826739311218,-0.8594649434089661,0.49931788444519043,0.401861310005188
365,1.542001637901037,0.5389877267722674,2.315061930291887,0.8578729629516602,-0.5132675170898438,-0.02470901422202587,2.729423999786377,2.155634880065918,0.6331730484962463,-0.14862918853759766,-0.44475555419921875,0.05716449022293091
366,1.662162394310916,0.6164526888340693,2.2010768018703604,0.8125311732292175,-0.5781444311141968,0.07444504648447037,-1.3530449867248535,0.08967243880033493,-0.6485235691070557,0.4841911792755127,-0.46046024560928345,0.24882769584655762
367,1.662295326015496,0.6007419486613556,2.0656514924985174,0.821465790271759,-0.5652546882629395,0.07537376135587692,1.8337342739105225,-1.979941964149475,0.2186773419380188,-0.5234463810920715,0.5402302742004395,-0.02691185474395752
368,1.599225801243055,0.6345466326564783,1.9962523871390854,0.8050151467323303,-0.5928124785423279,0.02289232425391674,-0.7251875996589661,0.29361650347709656,0.1812194585800171,-0.21964222192764282,0.5809105634689331,0.10746359825134277
369,1.625571563452474,0.5905553641807343,2.140922898441754,0.8293858170509338,-0.5568224191665649,0.04547529295086861,-1.6967171430587769,0.8977950811386108,0.055967919528484344,0.8417720198631287,-1.028458833694458,-0.3397104740142822
370,1.5261782109164812,0.5893387696827819,2.413180513186054,0.8304809927940369,-0.5558114647865295,-0.037079107016325,-1.8558779954910278,0.6422788500785828,-0.654143214225769,0.27170705795288086,-0.3288930654525757,0.0570528544485569
371,1.4561724775565834,0.5133703677150058,2.5952507500580135,0.8653779625892639,-0.491115927696228,-0.09962967038154602,-0.4049021303653717,0.017771076411008835,-0.6734211444854736,-0.5789858102798462,0.13326680660247803,0.31737256050109863
372,1.478047723856481,0.4858092062137362,2.5617325926839385,0.880496621131897,-0.46692410111427307,-0.08189981430768967,1.105163335800171,0.29068729281425476,-0.4657832384109497,-0.8749881982803345,0.26436370611190796,0.254308819770813
373,1.665112122824452,0.5616886949709218,2.3245045275001663,0.8425953984260559,-0.5326161980628967,0.07970654219388962,1.5942535400390625,0.8666565418243408,0.6249454021453857,1.3694560527801514,-0.8457560539245605,-0.3969062566757202
374,1.7949599967893262,0.5552363732827298,2.210666261813992,0.8285146951675415,-0.527144193649292,0.1888975352048874,2.294238805770874,-0.1149962991476059,-0.21898746490478516,0.03115016222000122,0.18440133333206177,-0.05428458750247955
375,1.7854084850927783,0.5320545712190063,2.0738426379538786,0.8419968485832214,-0.5073049664497375,0.18352913856506348,0.41656988859176636,-0.6669713258743286,-0.3565952777862549,-0.45959633588790894,0.5363882184028625,0.026935338973999023
376,1.793487041312842,0.49548952106199967,2.1570569941101283,0.8580122590065002,-0.4754623472690582,0.1942937821149826,-0.5991899967193604,1.5583977699279785,-0.6747797727584839,-0.33211833238601685,0.5571732521057129,0.16712579131126404
377,1.8898101243880352,0.4844608891286306,2.309922215568238,0.8402774930000305,-0.46573135256767273,0.2775396704673767,-2.2441751956939697,1.976832628250122,-1.0334676504135132,1.0943539142608643,-0.18967947363853455,0.2842126190662384
378,1.891224833700901,0.4084398173664915,2.5570465667345044,0.8710290193557739,-0.39717796444892883,0.28906407952308655,-1.4962091445922852,1.4436107873916626,-1.4187976121902466,-0.2851983904838562,0.14707118272781372,0.20721277594566345
379,1.9300117557314038,0.34169864096065855,2.6174604754866597,0.8820499181747437,-0.33508801460266113,0.3312162756919861,-0.05555889010429382,0.12220640480518341,-0.12408600002527237,-0.8390963077545166,0.042393893003463745,-0.20981737971305847
380,1.9850193014740058,0.39025516433294205,2.5680289226626845,0.8466001749038696,-0.3804244101047516,0.37221723794937134,0.8519935607910156,0.2352416068315506,1.1022534370422363,-0.4307827949523926,-0.1954423487186432,-0.2987767159938812
381,1.9720382695696226,0.5375264695265715,2.4083347442930774,0.790755033493042,-0.5120128393173218,0.3354840874671936,-0.567594051361084,-0.14150992035865784,-0.05324709415435791,0.847581148147583,-0.4328418970108032,0.47223997116088867
382,1.8817721556054328,0.5791377424385961,2.27995013993697,0.7967917323112488,-0.5473024845123291,0.2560918927192688,0.9420442581176758,-1.8083198070526123,0.3710840940475464,-0.12819743156433105,0.4359285831451416,0.08031868934631348
383,1.767327786552066,0.5735122045518529,2.223449042623135,0.823830246925354,-0.5425856709480286,0.16402582824230194,-0.021794309839606285,-1.175541877746582,-0.013388900086283684,-0.5654684901237488,0.6344130039215088,0.14482736587524414
384,1.7608684431298938,0.557678213428046,2.267757761830209,0.8332054615020752,-0.5292176008224487,0.1603042483329773,-0.494964599609375,1.4040766954421997,0.18487448990345,0.3379371166229248,-0.28847038745880127,-0.07372593879699707
385,1.7455070873096608,0.5850420620514903,2.444602512554627,0.8209974765777588,-0.5522344708442688,0.14491455256938934,-1.9358816146850586,0.35695844888687134,-0.4350374937057495,0.6709001064300537,-0.20072567462921143,0.070646271109581
386,1.6680424413870336,0.5003509563951103,2.678229384111397,0.8732687830924988,-0.47973349690437317,0.08519071340560913,-1.05351722240448,-0.10805769264698029,-1.5004856586456299,-0.45502543449401855,0.06870749592781067,0.036681175231933594
387,1.6570558192897806,0.40459907864077255,2.6036558219029153,0.9158425331115723,-0.39365023374557495,0.07919663935899734,1.7341426610946655,-0.09092505276203156,-0.36966726183891296,-0.9563241004943848,0.03232213854789734,-0.019366979598999023
388,1.8302393072225474,0.43512161647706143,2.2621085683089444,0.8764703273773193,-0.4215206801891327,0.23263730108737946,2.980987548828125,-0.5462395548820496,3.6760683059692383,1.0921423435211182,-1.416247844696045,-0.9478472471237183
389,1.7153172900670501,0.578995908982217,2.4247316708999755,0.8282865285873413,-0.5471837520599365,0.12054518610239029,0.6525999307632446,-0.11069156229496002,0.38082268834114075,0.046087801456451416,0.3229407072067261,1.0824882984161377
390,1.67909276614218,0.5960322033626022,2.153448388500847,0.8227211833000183,-0.5613632798194885,0.08944772928953171,0.7571262717247009,-1.0577877759933472,0.1622895747423172,-0.48679906129837036,0.6486741304397583,-0.0305945947766304
391,1.6755467476760049,0.5765048735049271,2.156735095713107,0.8337773680686951,-0.5450970530509949,0.08765938878059387,-0.40274885296821594,1.2766555547714233,-0.1324940174818039,-0.2427283525466919,0.38111090660095215,0.0014214292168617249
392,1.7205739661312287,0.6118734025318217,2.298380106230943,0.8094089031219482,-0.5744019746780396,0.1221461072564125,-2.5793910026550293,0.2583983242511749,-0.4263441264629364,1.0922482013702393,-0.06864917278289795,-0.0479884147644043
393,1.5656536374425445,0.5633124899303869,2.5693034955005762,0.8454796671867371,-0.5339897871017456,-0.0043480778113007545,-1.1027711629867554,-0.4351425766944885,-0.8514655232429504,-0.22356200218200684,0.20794004201889038,0.09658747911453247
394,1.5187000845817102,0.5005754612407424,2.5422117750222433,0.8761162757873535,-0.47993046045303345,-0.04568370059132576,1.4315730333328247,-0.6148332357406616,-0.3531222343444824,-0.8512749671936035,0.18394050002098083,0.13471871614456177
395,1.6214079828243118,0.5071426675141603,2.3621351009720795,0.8730164766311646,-0.48568153381347656,0.044222574681043625,2.912891387939453,0.8141862154006958,0.9856936931610107,-0.040420711040496826,-0.7279872894287109,-0.19766497611999512
396,1.6349448330062812,0.6291506335326432,2.2904940952746116,0.8068646192550659,-0.588458240032196,0.05183027312159538,-1.3165268898010254,-1.2659894227981567,0.023913156241178513,0.7279863953590393,-0.09228211641311646,0.2992897033691406
397,1.6081459089817964,0.6402500856403212,2.1762144166094983,0.8013870716094971,-0.5973960161209106,0.02994539774954319,1.743328332901001,-1.669498324394226,0.06393914669752121,-0.35758525133132935,0.5437003970146179,0.0192947369068861
398,1.555040621383469,0.6242105300508616,2.1503636714365895,0.8113241195678711,-0.5844568610191345,-0.01278404239565134,-1.0983067750930786,0.6456155776977539,-0.5041965842247009,-0.37457185983657837,0.544585645198822,0.22324854135513306
399,1.6534625885825638,0.6005629907828517,2.2724880863011023,0.8222001194953918,-0.5651070475578308,0.068123459815979,-1.841809868812561,2.004704236984253,-0.2572367191314697,0.9741255044937134,-0.5409719944000244,-0.1169973686337471
400,1.577377052061435,0.5800994597874161,2.519391137395854,0.8363900184631348,-0.5481071472167969,0.0055041322484612465,-1.883147954940796,0.26108041405677795,-0.55179363489151,0.15984106063842773,-0.06552499532699585,0.09279298782348633
401,1.5219641549851988,0.5028414927118022,2.5968876371498517,0.8751721978187561,-0.48191723227500916,-0.04277056083083153,0.7322710156440735,-0.5640861988067627,-0.6228541731834412,-0.6073499917984009,0.04145705699920654,0.11126726865768433
402,1.5611949953788116,0.4671501786948383,2.4999206031685595,0.8928142786026001,-0.45034363865852356,-0.008572468534111977,1.3623698949813843,0.27400684356689453,-0.19450636208057404,-0.8139110803604126,0.04677915573120117,0.08268439769744873
403,1.742512945235092,0.5372755633060442,2.1910805886866873,0.8464711308479309,-0.511797308921814,0.14679887890815735,-0.08213469386100769,-0.5809866189956665,2.0886013507843018,1.2982735633850098,-1.0267767906188965,-0.6012208461761475
404,1.6566105969266998,0.60988655889014,2.2060899286646203,0.8166967034339905,-0.5727744698524475,0.0702567771077156,2.3099539279937744,-0.9115346670150757,0.3245198726654053,-0.008698046207427979,0.6726585030555725,0.5257668495178223
405,1.6068420323396413,0.611139706392094,2.016942046928535,0.818462610244751,-0.5738012194633484,0.029514847323298454,0.04306253045797348,-0.9274253249168396,-0.052919402718544006,-0.5124475955963135,0.6747534275054932,0.07210862636566162
406,1.5984690375937287,0.585859238844114,2.0997812463278507,0.8329184055328369,-0.5529155135154724,0.023054996505379677,-0.7260199785232544,2.1805214881896973,-0.31018346548080444,-0.14195460081100464,0.2331065535545349,0.07463181018829346
407,1.6275564380937397,0.5899777669233274,2.324739100092512,0.8296148180961609,-0.5563425421714783,0.04713966324925423,-2.704237699508667,0.4200919270515442,-0.06554628908634186,0.8280541896820068,-0.13381242752075195,0.030207153409719467
408,1.5673681918121958,0.5461339076007249,2.55374712757457,0.854533851146698,-0.5193873643875122,-0.002929468872025609,-1.111534833908081,-0.27370309829711914,-0.7347245216369629,-0.3408162593841553,0.13759726285934448,-0.0047457218170166016
409,1.5371295087029493,0.478479166441128,2.5827281403824554,0.8871932029724121,-0.46042966842651367,-0.029880262911319733,-0.02994478866457939,0.3630329370498657,-0.6590198874473572,-0.9788222312927246,0.23728513717651367,0.20990341901779175
410,1.6885006748776317,0.47021596554624234,2.377644203139288,0.8853023052215576,-0.45307883620262146,0.10468783974647522,4.142981052398682,1.257669448852539,1.1817309856414795,0.5674107074737549,-1.4016575813293457,-0.6183291673660278
411,1.6762173621948588,0.6187814642032725,2.3184801343330115,0.8100634217262268,-0.5800430178642273,0.08571549504995346,-1.1675114631652832,-1.8868274688720703,0.37241998314857483,0.3557385206222534,0.30596476793289185,0.19495461881160736
412,1.651715965005065,0.6359266034301422,2.1556820841084967,0.801889181137085,-0.5939232707023621,0.06503058224916458,0.5812889337539673,-1.504260540008545,-0.14145693182945251,-0.13839125633239746,0.6036735773086548,0.034304141998291016
413,1.561570614313538,0.5943647343951303,2.2081427160574196,0.8284692168235779,-0.5599825382232666,-0.00764343561604619,-1.2458271980285645,0.8229531049728394,0.10993736982345581,-0.6374139189720154,0.6268618106842041,0.3612658977508545
414,1.706948291428271,0.6000092915164446,2.27231516379013,0.8176923990249634,-0.5646501183509827,0.1120234951376915,-3.19514536857605,0.7513628005981445,0.13959674537181854,1.4862321615219116,-0.24565255641937256,-0.5080348253250122
415,1.4957536683746147,0.5772523109302284,2.729381712105818,0.8356069326400757,-0.545723557472229,-0.06282413750886917,-2.363628625869751,-0.3697345554828644,-0.5264139175415039,-0.15237939357757568,-0.0983957052230835,0.4365729093551636
416,1.5055810750118266,0.47596682279885516,2.639797360062749,0.8869606256484985,-0.45819801092147827,-0.0579255037009716,2.0661542415618896,-1.1076933145523071,-0.6478199362754822,-0.976331353187561,-0.04209190607070923,-0.0695158839225769
417,1.540993555095245,0.501244596177408,2.526527253695689,0.876595675945282,-0.4805174171924591,-0.026132717728614807,1.9066144227981567,0.8754935264587402,0.6402008533477783,-0.37528347969055176,-0.387570321559906,0.1624699831008911
418,1.6782590317304746,0.6274426440517896,2.2647000093375977,0.8048616051673889,-0.5870764255523682,0.0868270993232727,-2.4305524826049805,-0.797860860824585,0.44407886266708374,0.8809446096420288,-0.19028252363204956,0.031092755496501923
419,1.6277248467753789,0.6289051019235131,2.1783280396753972,0.8073621392250061,-0.5882596969604492,0.04601164907217026,1.916780948638916,-1.6354495286941528,-0.2782798409461975,-0.3937574028968811,0.6971921920776367,0.027474641799926758
420,1.5918179955056277,0.5792641878534415,2.1291797275123194,0.8366808891296387,-0.5474082827568054,0.017591020092368126,-1.451063632965088,0.004966664128005505,-0.46948325634002686,-0.5671800374984741,0.6506797075271606,0.367464542388916
421,1.6125662259398204,0.5758529249729618,2.2753119842417378,0.8379964232444763,-0.544550359249115,0.03502339497208595,-0.7117529511451721,0.8892682790756226,0.5481815338134766,1.049088478088379,-1.1885428428649902,-0.16011500358581543
422,1.5466765950607135,0.5730095733707099,2.53850177634901,0.8400287628173828,-0.5421633720397949,-0.02026519924402237,-2.2736611366271973,0.08091121912002563,-0.7188374400138855,0.22123533487319946,-0.19512611627578735,0.02259981445968151
423,1.4710967715465213,0.48244011591277736,2.66461111736598,0.8814664483070374,-0.46394217014312744,-0.08817415684461594,0.11076783388853073,-0.4850941002368927,-0.5221902132034302,-0.5648617744445801,-0.05439889430999756,0.27727633714675903
424,1.468025736691208,0.46457677311894785,2.6256953783852217,0.8892942070960999,-0.44804447889328003,-0.09171641618013382,0.1451367437839508,0.12846088409423828,0.20630185306072235,-0.9111601114273071,0.08734199404716492,0.24956858158111572
425,1.6630212261568893,0.5569984746088857,2.311405156704158,0.845238447189331,-0.5286407470703125,0.07817379385232925,0.8306378126144409,-0.30344656109809875,1.3725714683532715,1.5096962451934814,-0.826995849609375,-0.8750487565994263
426,1.6281007379336476,0.6227197310970226,2.358948069638962,0.8109620213508606,-0.5832465291023254,0.04652263596653938,2.2325961589813232,-0.16533131897449493,0.04885923117399216,-0.08362120389938354,0.6246131062507629,0.4787611961364746
427,1.594125258223417,0.6089850494925956,2.1206631806095984,0.8200057744979858,-0.5720352530479431,0.019133329391479492,0.4424871504306793,-1.4058221578598022,-0.1208236962556839,-0.5438674688339233,0.6356949806213379,0.06369137763977051
428,1.5993009498801105,0.582063708405385,2.183088291129705,0.8349906206130981,-0.549748957157135,0.023807542398571968,-0.042801789939403534,2.342552900314331,-0.5976471900939941,0.00564652681350708,0.2511497139930725,0.14126205444335938
429,1.6479301065083682,0.59128716432144,2.3289935675213456,0.8277552127838135,-0.5574301481246948,0.06397481262683868,-3.1438534259796143,0.3744352161884308,-0.15375632047653198,0.842898964881897,-0.3271980881690979,-0.22559595108032227
430,1.5278145027631118,0.537669502299918,2.6154234635273,0.8581112623214722,-0.5121356844902039,-0.0369059182703495,-0.5186752676963806,-0.5352106094360352,-1.0432020425796509,-0.45631688833236694,0.04688000679016113,0.22114050388336182
431,1.5098342486777743,0.4568868599523908,2.5135034604891167,0.8957633376121521,-0.44115641713142395,-0.05467534065246582,0.5189325213432312,0.11031514406204224,-0.14945437014102936,-1.0909535884857178,-0.039968520402908325,0.15468144416809082
432,1.66260748578051,0.5157743601188116,2.3320376770930737,0.866247296333313,-0.4932086169719696,0.07975538820028305,3.2407162189483643,1.0544377565383911,1.193769931793213,0.8548983335494995,-0.9955151677131653,-0.6631141901016235
433,1.6594727911335811,0.5988429169030914,2.2973522732475775,0.8227430582046509,-0.5636870861053467,0.07314978539943695,0.8544744253158569,1.6532434225082397,0.5372384190559387,0.13245713710784912,0.03910517692565918,0.1964578628540039
434,1.7047346688312701,0.5912778852441231,2.084672955650006,0.8227933645248413,-0.557422399520874,0.11086733639240265,1.015917420387268,-2.1333518028259277,-0.16207459568977356,-0.5624326467514038,0.5836522579193115,-0.11063838005065918
435,1.6561160396847856,0.5875158007504714,2.1113196141001414,0.8292925953865051,-0.5542950630187988,0.070927195250988,-1.1566872596740723,2.0277867317199707,-0.5249555706977844,-0.4637073278427124,0.7808880805969238,0.28280210494995117
436,1.7641303438802687,0.586543214676322,2.1633105332911313,0.8173419833183289,-0.5534853339195251,0.16001872718334198,-2.547750473022461,1.6951518058776855,0.5201860666275024,1.4794414043426514,-0.6843228340148926,-0.2297208458185196
437,1.6453712146718125,0.5817292840413775,2.5020640588590743,0.8331912755966187,-0.5494695901870728,0.062250588089227676,-2.809274673461914,0.22447240352630615,-0.7376920580863953,0.1215205192565918,-0.1015007495880127,0.14949558675289154
438,1.5754972707243136,0.4957485249315935,2.6036202875728756,0.8796032071113586,-0.47569018602371216,0.004134995862841606,1.2284187078475952,-0.7505185008049011,-0.733162522315979,-0.7469585537910461,0.04491931200027466,-0.03216540813446045
439,1.5867052786763398,0.483362059572417,2.532612100470507,0.8853253126144409,-0.4647586941719055,0.014085786417126656,0.8907549977302551,0.28111088275909424,0.2523552179336548,-0.8234357237815857,-0.025094181299209595,0.013837813399732113
440,1.7213098395406035,0.5812539073244979,2.2536558341435775,0.8263255953788757,-0.5490723252296448,0.12532095611095428,-0.036002758890390396,-0.7795448899269104,1.4014970064163208,1.084425687789917,-0.5119932293891907,-0.2940983772277832
441,1.6939239801200545,0.6204028609790649,2.284080187774733,0.8074844479560852,-0.5813630223274231,0.09992916136980057,2.063930034637451,-1.3434206247329712,0.0647091493010521,-0.08023542165756226,0.4695160984992981,0.07270883023738861
442,1.6177952612203421,0.5945584888773853,2.1532984119131875,0.827481210231781,-0.5601430535316467,0.038919396698474884,-0.3799954354763031,-0.5751574039459229,-0.3974466323852539,-0.5503968596458435,0.5006948709487915,0.22392845153808594
443,1.6784881252929884,0.5861650802094814,2.189338518802913,0.8282421827316284,-0.5531703233718872,0.08954130858182907,-0.15703968703746796,1.922235369682312,0.023737216368317604,0.3273364305496216,-0.06758773326873779,-0.08601653575897217
444,1.7207829197102351,0.6066723240249094,2.360336963155371,0.8123263120651245,-0.5701367855072021,0.12275997549295425,-2.4451425075531006,1.212206244468689,-1.0901628732681274,0.5912228226661682,-0.22670769691467285,-0.09302056580781937
445,1.5953151486072348,0.49759033151695925,2.583773578571103,0.878471314907074,-0.4773094654083252,0.02154340036213398,-0.36985522508621216,-0.5422266721725464,-1.2229677438735962,-0.6817701458930969,0.03143233060836792,0.20466816425323486
446,1.5888346847143207,0.4795119934217465,2.584607709952207,0.887075662612915,-0.46134626865386963,0.01600312441587448,0.03958194702863693,0.21159863471984863,0.255620539188385,-0.8046936392784119,0.1940123736858368,0.12398099899291992
447,1.7121947694552777,0.5176218921264072,2.3655123225535792,0.8603258728981018,-0.4948149621486664,0.12246599793434143,3.826112747192383,0.021027132868766785,1.3851417303085327,0.9573927521705627,-1.2257356643676758,-0.694395899772644
448,1.6710041883448152,0.601802298384336,2.325598942311275,0.8201814889907837,-0.5661290287971497,0.08246484398841858,-0.024112094193696976,-0.9119687080383301,0.1847173124551773,0.19796133041381836,0.029675781726837158,0.31766629219055176
449,1.6488103501737086,0.5935804643358412,2.153537992384588,0.8264219760894775,-0.5593326091766357,0.06460361927747726,0.9260547161102295,-1.5091246366500854,-0.014557575806975365,-0.4074919819831848,0.482107937335968,0.09849762171506882
450,1.6042638210713198,0.5897440765980012,2.172708064644614,0.8306174874305725,-0.5561483502388,0.02780906856060028,-0.9863142967224121,0.9274193644523621,-0.060275010764598846,-0.16199272871017456,0.5988882780075073,0.2975999116897583
451,1.7203970530150414,0.5818065118462928,2.252675799580978,0.8261396288871765,-0.5495341420173645,0.12452142685651779,-2.060490131378174,0.9275549054145813,0.1412205696105957,1.5946061611175537,-0.4627034068107605,-0.5436955690383911
452,1.634206476502288,0.557804247955236,2.481738008073182,0.8467143774032593,-0.5293245315551758,0.05376236140727997,-1.8434427976608276,0.08322714269161224,-1.0517305135726929,-0.004871726036071777,-0.16525554656982422,0.11139881610870361
453,1.5482976427833373,0.472299819428723,2.5507980412300637,0.8902990221977234,-0.4549355208873749,-0.020033936947584152,0.4974658787250519,-0.12689091265201569,0.036894671618938446,-0.9184209704399109,0.06513449549674988,0.18031227588653564
454,1.5946201089538328,0.4676231603811992,2.42878239957139,0.8923888802528381,-0.4507659077644348,0.021264102309942245,2.5906615257263184,0.8660145998001099,0.3673888146877289,-0.5147033333778381,-0.2875306010246277,0.06648921966552734
455,1.6926453774252532,0.5679144946058303,2.230814171501603,0.8367738127708435,-0.5378751158714294,0.10246772319078445,-1.9228787422180176,-0.17793704569339752,0.2466670721769333,0.7216213941574097,-0.2504854202270508,0.17356370389461517
456,1.6909972828015996,0.5785856628692201,2.114383180196892,0.8311960697174072,-0.5468403697013855,0.10039453953504562,2.706559896469116,-2.6278936862945557,0.07341887801885605,-0.21292507648468018,0.47120243310928345,-0.07282184064388275
457,1.6221946607167572,0.5709530323828303,1.975839600600755,0.8402751088142395,-0.5404341816902161,0.04322681203484535,0.05764459818601608,0.01100168563425541,-0.3443983495235443,-0.6079906225204468,0.7443679571151733,0.19578683376312256
458,1.710204477388758,0.5381364775868996,1.9925134435027982,0.8503350615501404,-0.5125367641448975,0.11931760609149933,-0.022562118247151375,2.3176584243774414,-0.19718801975250244,0.28496474027633667,-0.3514312505722046,-0.058618053793907166
459,1.6460040295228313,0.585080372888667,2.19793558736894,0.8313112258911133,-0.5522663593292236,0.06263915449380875,-3.05871319770813,0.3506074547767639,-0.786598801612854,0.6138488054275513,-0.26359057426452637,0.13424503803253174
460,1.5404281539328986,0.49502804786631954,2.423094755650926,0.8795498013496399,-0.47505632042884827,-0.026718534529209137,-0.8303839564323425,0.005738832987844944,-1.0780432224273682,-0.5542322993278503,0.07133924961090088,0.2828220725059509
461,1.538189395524517,0.45308902400226714,2.3745154575313667,0.8986212611198425,-0.43774494528770447,-0.02931166999042034,0.6569229364395142,0.4977441430091858,-0.3136174976825714,-0.91539067029953,0.16915977001190186,0.0684809684753418
462,1.7340764719268524,0.5052935663564662,2.0346722883138746,0.8633938431739807,-0.48406434059143066,0.14224140346050262,3.1056976318359375,-0.5424388647079468,3.1217293739318848,1.3107545375823975,-1.4758203029632568,-0.9725483655929565
463,1.7145894536021973,0.5984660953423568,2.070271655301423,0.8176742792129517,-0.5633758306503296,0.11839304864406586,2.4428465366363525,-1.0757038593292236,0.31002938747406006,0.11578232049942017,0.8023894429206848,0.6795501708984375
464,1.638328643937144,0.5859412794937726,1.8237890343859704,0.8312928080558777,-0.5529838800430298,0.056224629282951355,-0.4688943326473236,-0.949919581413269,-0.31378331780433655,-0.4740539789199829,0.4853111505508423,0.08476662635803223
465,1.6511523638375931,0.5727697532865865,1.8433853579818766,0.8376913070678711,-0.5419618487358093,0.06745881587266922,0.11730918288230896,1.0715211629867554,0.22688670456409454,-0.022978782653808594,0.10086071491241455,-0.3425290584564209
466,1.6786833945851996,0.6125564913870206,1.947743183592421,0.8134236931800842,-0.5749610066413879,0.08809997886419296,-2.4872443675994873,0.2607753574848175,-0.3641913831233978,0.9019540548324585,-0.10168993473052979,-0.27195310592651367
467,1.5167315506245762,0.5617438457414616,2.2360371415171314,0.8450908660888672,-0.5326628684997559,-0.0457342155277729,-1.5976579189300537,-0.03126338869333267,-0.5671278834342957,-0.19653135538101196,-0.041525304317474365,0.3988072872161865
468,1.4923567912431503,0.5209796295456958,2.181726469568336,0.864665150642395,-0.4977300465106964,-0.0679633766412735,1.1937884092330933,0.0250437892973423,-0.6207258105278015,-0.8755141496658325,0.400195837020874,0.1528632640838623
469,1.6818304373275628,0.5121816151460408,1.955531908030866,0.8663095831871033,-0.4900800883769989,0.0965871661901474,4.266178607940674,1.3135545253753662,0.9009155631065369,0.728294849395752,-1.5763566493988037,-0.6284475326538086
470,1.6919895712578763,0.599939839777745,1.8624594224246764,0.8193154335021973,-0.5645928382873535,0.09978451579809189,-0.45685815811157227,1.966942310333252,0.1373901069164276,0.4233602285385132,0.1318231225013733,0.9418262243270874
471,1.7321340766290478,0.580016475358955,1.6598552730261977,0.8255909085273743,-0.5480377078056335,0.13436685502529144,1.172550916671753,-1.6748056411743164,0.06389166414737701,-0.5191181302070618,0.5574066042900085,-0.24990642070770264
472,1.6463824983187232,0.5664744677587177,1.6802670365719063,0.8413890600204468,-0.5366605520248413,0.0637187659740448,-0.5969998240470886,0.89475417137146,-0.31734105944633484,-0.6063426733016968,0.6670316457748413,0.1701679229736328
473,1.7943665755126814,0.5530595896733763,1.7278774703954902,0.8297438025474548,-0.5252931714057922,0.18865986168384552,-2.7755544185638428,0.8811129331588745,0.07568573206663132,1.7441699504852295,-0.38429856300354004,-0.4180605113506317
474,1.589978105564322,0.5872686757479224,2.1378245929537663,0.832304060459137,-0.554089367389679,0.015967030078172684,-3.021808385848999,1.0443229675292969,-0.7165887355804443,-0.14185911417007446,0.13341981172561646,0.3296293020248413
475,1.5193550767704473,0.48931958795879266,2.1857822419632003,0.8814853429794312,-0.4700254201889038,-0.04538474604487419,1.4640361070632935,-1.1316016912460327,-0.2500869333744049,-1.0417789220809937,0.2132200300693512,0.14398705959320068
476,1.6119095271018433,0.48914474273471703,2.0653896396292777,0.8819892406463623,-0.4698711037635803,0.03628184273838997,2.1531548500061035,1.2105003595352173,0.6923418045043945,-0.26319944858551025,-0.6410298347473145,-0.06065010651946068
477,1.723224771793405,0.6116869200918937,1.8818230109193659,0.8091882467269897,-0.5742493271827698,0.1243075430393219,-2.809687614440918,-2.1805880069732666,0.23848743736743927,0.8083198070526123,-0.09086602926254272,0.266271710395813
478,1.708578993603432,0.6014203648670171,1.7747647261710737,0.8167186975479126,-0.565814197063446,0.11324721574783325,3.132352352142334,-3.257103443145752,0.18202507495880127,-0.4913097620010376,0.7283355593681335,-0.17422127723693848
479,1.6327424577700917,0.5978006139899315,1.7323515415608886,0.8249900937080383,-0.5628258585929871,0.051170412451028824,-0.5996003746986389,0.32653167843818665,-0.4253937304019928,-0.43908005952835083,0.7119347453117371,0.12876129150390625
480,1.728423565784284,0.5630905893434206,1.785634946481345,0.8351260423660278,-0.5338021516799927,0.13273979723453522,-0.6492869257926941,1.9722695350646973,0.03052687644958496,0.9968746900558472,-0.7509115934371948,-0.4486119747161865
481,1.6343723182001753,0.5775368479021044,2.1138082995718364,0.8361172676086426,-0.5459619164466858,0.053228721022605896,-2.9876327514648438,0.8113126754760742,-0.8385368585586548,0.01999223232269287,-0.11059319972991943,0.1593414545059204
482,1.5186967981234627,0.49614247542756373,2.2552310202912897,0.8782321810722351,-0.4760366976261139,-0.04579692706465721,0.6721107363700867,-0.339489609003067,-0.6303126811981201,-0.9828159213066101,0.222756028175354,0.29111242294311523
483,1.5939678520073826,0.4744875388013875,2.1148612580288524,0.8892881274223328,-0.45688265562057495,0.02060985006392002,2.354848861694336,0.9079210758209229,0.48774611949920654,-0.51625657081604,-0.3547170162200928,0.004551885649561882
484,1.7217741139414562,0.6263762787589173,1.8886460180703266,0.8009413480758667,-0.5862128138542175,0.1218516007065773,-2.7784318923950195,-0.8065534830093384,0.45915573835372925,1.2122576236724854,-0.14619380235671997,0.12804163992404938
485,1.7379119642295193,0.6081106741174337,1.7754817575263322,0.8092948794364929,-0.5713178515434265,0.13651908934116364,2.4543371200561523,-2.2172672748565674,-0.1633182168006897,-0.2609245777130127,0.48960715532302856,-0.030195847153663635
486,1.6633457143051622,0.588677693315692,1.6553862757579398,0.8281164169311523,-0.5552617907524109,0.07686123996973038,-1.6697218418121338,-0.008398533798754215,0.1001196801662445,-0.5129919052124023,0.5486089587211609,0.10888397693634033
487,1.7105671931772006,0.5832169073906471,1.7610734138819928,0.8265553712844849,-0.5507119297981262,0.11628659814596176,-0.5357732176780701,1.874523401260376,0.19789153337478638,0.8415812253952026,-0.9959341883659363,0.011902570724487305
488,1.6854870171564933,0.6074052836418309,2.01653640110562,0.8157369494438171,-0.5707387924194336,0.09396982192993164,-2.919926166534424,0.5732302665710449,-0.47236329317092896,0.4602181315422058,-0.17938321828842163,-0.07166147977113724
489,1.5418284212728794,0.5323940724426707,2.259502030444236,0.8612327575683594,-0.5075975060462952,-0.024955090135335922,-0.5482145547866821,-0.2710506319999695,-0.571813702583313,-0.7600365281105042,0.15037405490875244,0.20793843269348145
490,1.5620105094642267,0.5147782885454412,2.191879241045586,0.8703684210777283,-0.49234187602996826,-0.0076470947824418545,1.5225253105163574,0.6143316626548767,0.10579046607017517,-0.7047188878059387,0.12344533205032349,0.022646427154541016
491,1.7719223884276267,0.5456465085326078,1.886367276905371,0.8375613689422607,-0.5189708471298218,0.17076422274112701,1.2559425830841064,0.021698392927646637,1.1915779113769531,1.0163967609405518,-0.9657703638076782,-0.3312103748321533
492,1.866128554397817,0.5557315630597308,1.8137716443003993,0.8127354979515076,-0.5275649428367615,0.24725784361362457,2.0995004177093506,-0.8628764748573303,0.04958382993936539,-0.030081629753112793,0.2420729398727417,-0.06032237410545349
493,1.7414625118308378,0.5540137535288232,1.6516552031481393,0.8380648493766785,-0.5261048078536987,0.1444343775510788,0.2704375386238098,-2.1267127990722656,0.29226964712142944,-0.4368501901626587,0.44060975313186646,-0.03243480622768402
494,1.7081287183755676,0.5210530295017038,1.6446271955486047,0.8591297268867493,-0.49779370427131653,0.1187337264418602,0.12370309233665466,1.3440587520599365,-0.7523632049560547,-0.208784818649292,0.5097260475158691,0.10788977146148682
495,1.8141714857940754,0.5039615280151333,1.773233347693633,0.8498703241348267,-0.4828983247280121,0.21102021634578705,-3.8122875690460205,-0.08029965311288834,-0.47033900022506714,1.1581556797027588,-0.12437090277671814,-0.35704684257507324
496,1.6391861413015918,0.5141511430878902,2.1364169376890088,0.8686751127243042,-0.49179592728614807,0.05950132757425308,-2.2205443382263184,-0.06964057683944702,-0.8267594575881958,-0.2919691801071167,0.18628442287445068,0.1520465612411499
497,1.5846991863028943,0.43535646170888215,2.166160665951403,0.9066319465637207,-0.42173364758491516,0.012605588883161545,1.2654170989990234,-0.25167936086654663,-0.47328925132751465,-1.0233924388885498,0.10959994792938232,0.08770561218261719
498,1.704774199816218,0.43545294771820453,2.001194990649405,0.8985536694526672,-0.42182111740112305,0.12111183255910873,3.299574136734009,1.2011260986328125,1.1904760599136353,0.3296719789505005,-1.525017261505127,-0.10606671869754791
499,1.7405737125854863,0.5765082559115954,1.8546920656090395,0.826317310333252,-0.5450999140739441,0.1416536420583725,-1.007326602935791,1.879797101020813,0.44241204857826233,0.8454050421714783,-0.04851275682449341,0.7246488332748413
500,1.749668982693447,0.6112233625526083,1.6269801613777233,0.8058801293373108,-0.5738697648048401,0.14570723474025726,1.5468858480453491,-1.3905872106552124,0.4063263535499573,-0.42273205518722534,0.7444782853126526,-0.09564317762851715
