,attitude.roll,attitude.pitch,attitude.yaw,gravity.x,gravity.y,gravity.z,rotationRate.x,rotationRate.y,rotationRate.z,userAcceleration.x,userAcceleration.y,userAcceleration.z
0,1.843647897944749,0.566251072946222,1.6799103131490776,0.8126986026763916,-0.5364720225334167,0.22741791605949402,-1.2747530937194824,1.0460491180419922,-0.5535350441932678,0.9947202801704407,-0.22796279191970825,-0.009232491254806519
1,-0.0853900251839929,0.6057399545881462,-2.951570422711313,-0.07011224329471588,-0.5693705081939697,-0.8190857768058777,-1.0642673969268799,-0.2512861490249634,0.045670997351408005,-0.2875537574291229,-0.2561299204826355,-0.3548644185066223
2,-0.06971852825111531,0.4883785490047276,-2.986553543783092,-0.06151820346713066,-0.469194620847702,-0.8809494376182556,-1.1512752771377563,1.0043509006500244,-0.3789873421192169,0.11109401285648346,0.08549708127975464,0.17347568273544312
3,0.029996019923613358,0.4989138345952714,-2.9512327218335037,0.026335638016462326,-0.4784720540046692,-0.8777077794075012,0.5414124727249146,2.450517416000366,0.9918438196182251,0.24516400694847107,0.3193839192390442,0.06374293565750122
4,0.16422363893094605,0.5744889040522433,-2.782640545767936,0.13724200427532196,-0.5434058308601379,-0.8281755447387695,-1.7966015338897705,1.5392680168151855,0.6667612195014954,0.38621073961257935,-0.39609307050704956,0.06070423126220703
5,0.28035968914388626,0.4525834101385397,-2.6263737820413895,0.24884314835071564,-0.4372903108596802,-0.8642073273658752,-0.12911102175712585,0.882159948348999,0.40909260511398315,-0.12167640030384064,-0.021739840507507324,0.061900198459625244
6,0.3648526713919994,0.42520467972178255,-2.5478200840754694,0.3250391483306885,-0.41250723600387573,-0.85099196434021,-1.8065438270568848,2.1679847240448,-0.30651596188545227,-0.463238000869751,0.2749492824077606,0.46546345949172974
7,0.4183720835790626,0.35156406976546967,-2.630760446759787,0.38142386078834534,-0.3443666398525238,-0.8578621745109558,-0.008249122649431229,-0.5932700634002686,-0.9290462732315063,-0.5799864530563354,0.019842684268951416,0.1872689127922058
8,0.3645772906024986,0.22880485571888226,-2.841592723604871,0.3472619354724884,-0.2268136888742447,-0.909925639629364,0.2795284390449524,-3.1760542392730713,-2.8525021076202393,-0.2735162377357483,-0.417122483253479,-0.587236225605011
9,0.16646603368064045,0.24212094623091468,-3.0585491000127853,0.16086512804031372,-0.23976224660873413,-0.9574113488197327,-3.1214685440063477,0.5066398978233337,-1.6069422960281372,-0.01793605089187622,-0.10957247018814087,0.47373825311660767
10,0.28079771598950337,0.2970330591225492,-3.1331938648075655,0.2649867832660675,-0.29268449544906616,-0.9187588691711426,-0.011373808607459068,1.5203056335449219,-0.2490440160036087,0.18000528216362,0.09505262970924377,0.5186581611633301
11,0.473265645135391,0.3356726225281747,-3.1312820474335967,0.4303570091724396,-0.3294043242931366,-0.8404080271720886,1.024929165840149,4.093055248260498,-0.4718989431858063,-0.016187667846679688,0.663541316986084,0.4393460154533386
12,1.016001110315098,0.18205540955240523,3.029205173501802,0.8359608054161072,-0.18105138838291168,-0.5180636644363403,2.114964246749878,6.852058410644531,-4.3396453857421875,0.026908516883850098,1.095403790473938,-0.5063503980636597
13,1.4190596761093106,-0.370466530044006,2.647025151075124,0.9214481711387634,0.3620503544807434,-0.14090047776699066,3.026987314224243,1.122368335723877,-6.237268924713135,0.8265376687049866,-0.2006734013557434,-0.7069998979568481
14,0.8685870909397304,-0.820381373114817,2.0043346737824823,0.5206064581871033,0.7314059734344482,-0.44047051668167114,3.726862907409668,-1.3582123517990112,-5.319246768951416,1.0717854499816895,-0.8384616374969482,0.4836987555027008
15,0.4105099836491622,-0.7381045258882121,1.4191760955590418,0.29521530866622925,0.6728869676589966,-0.6782853007316589,1.2658376693725586,-0.8504819273948669,-0.7245802879333496,1.0853235721588135,-0.35454291105270386,0.7152726650238037
16,0.502678100044826,-0.6811333551715897,1.3024819329523798,0.37427082657814026,0.6296738982200623,-0.680758535861969,0.3509634733200073,1.4543142318725586,0.7937434911727905,1.0074125528335571,0.21447283029556274,-0.15240180492401123
17,0.5308940326978512,-0.5646945526497298,1.3036359015946277,0.42770180106163025,0.5351577997207642,-0.7284759879112244,0.5193913578987122,-0.17191198468208313,0.8697595596313477,-0.34878334403038025,-0.37703096866607666,0.9461731314659119
18,0.5617632153568183,-0.5117843965006821,1.599128875508132,0.4644281268119812,0.4897337853908539,-0.737880289554596,-1.501585841178894,0.10166822373867035,2.9613325595855713,-0.514934778213501,-0.21776112914085388,0.6759448647499084
19,0.8362739235120332,-0.4398417480671857,2.0280671678843687,0.6715123057365417,0.4257962703704834,-0.6064394116401672,-2.6307995319366455,0.9887469410896301,4.29014253616333,0.47439223527908325,0.10151693224906921,-0.47482889890670776
20,1.1472044880854217,-0.32963299319916445,2.4956704551657327,0.8625380396842957,0.3236958086490631,-0.3889077305793762,-3.3912975788116455,-1.2781996726989746,1.0563528537750244,0.28681498765945435,-0.07935678958892822,-0.4329306483268738
21,1.0944071952192982,-0.39311564850978586,2.834470919563254,0.8208698630332947,0.3830682635307312,-0.4235933721065521,-3.128291368484497,-1.8422601222991943,0.5619350075721741,0.0024486184120178223,-0.3136865794658661,0.14777550101280212
22,0.832297681613657,-0.39970870069045783,3.0078458162674404,0.6811900734901428,0.3891500234603882,-0.6201147437095642,-0.0423685759305954,-1.164555549621582,1.1346311569213867,-0.7784343957901001,-0.31998196244239807,0.5548529624938965
23,1.117978660160374,-0.31058593385112765,2.8252598577298396,0.8561946153640747,0.3056165874004364,-0.4165686368942261,3.0878047943115234,2.561183452606201,-1.6645984649658203,1.1084966659545898,0.655565083026886,-1.894390344619751
24,1.2938758692985912,-0.4158764425988174,2.5263321682782296,0.8799119591712952,0.40399181842803955,-0.2500912845134735,2.9421019554138184,4.990095138549805,-2.349836826324463,-0.012449800968170166,0.22708117961883545,-0.2252810001373291
25,1.5085962609775203,-0.4877468786873493,2.215777190632915,0.8816826939582825,0.468636691570282,-0.05491155758500099,-0.8516907095909119,-0.8870044350624084,1.1360464096069336,0.13714665174484253,-0.619973361492157,0.2539319396018982
26,1.3221347224967568,-0.3119014838764688,2.4607189899437154,0.9224786162376404,0.30686894059181213,-0.23423276841640472,-3.160388708114624,-0.711021900177002,2.227454900741577,-0.591606855392456,0.7750402688980103,0.7097119092941284
27,1.391678218603247,-0.3216968965171165,2.6525053444959106,0.9335220456123352,0.3161768615245819,-0.16902217268943787,-0.04973529651761055,3.218952178955078,-0.04825029522180557,0.24703508615493774,0.5232090950012207,0.321716845035553
28,1.6441590010953935,-0.4428257206933842,2.6433241494255926,0.9011142253875732,0.42849433422088623,0.0662270039319992,1.0847610235214233,2.8026652336120605,-1.5411258935928345,-0.19852322340011597,-0.26952826976776123,-0.2544289827346802
29,1.6126549509136197,-0.5709645956130815,2.5295501612173785,0.8406431674957275,0.5404438972473145,0.03520873188972473,0.5652004480361938,-0.7263887524604797,0.3102916181087494,-0.059499919414520264,-0.915428638458252,0.07894229888916016
30,1.4299636177372719,-0.45906443871638275,2.610524428368947,0.887592077255249,0.4431096017360687,-0.12583503127098083,1.6922866106033325,1.6095134019851685,-1.2358301877975464,0.652309775352478,1.2189998626708984,-1.0316509008407593
31,1.3630358810611327,-0.5278685507740668,2.2718742393687674,0.8453050255775452,0.503693163394928,-0.17819221317768097,2.7398576736450195,0.5216104984283447,-0.43844348192214966,0.07336556911468506,0.10179078578948975,0.15924079716205597
32,1.2154451496832646,-0.5109435388826455,2.106184003647819,0.8177869915962219,0.48900049924850464,-0.3034845292568207,0.6812860369682312,-1.5264796018600464,0.23145923018455505,-0.4921797513961792,-0.4419881999492645,0.5289789438247681
33,1.274161182726774,-0.5253898542429101,2.245710795011025,0.8273444771766663,0.5015503168106079,-0.2528805136680603,-3.793238639831543,2.2543864250183105,0.5676943063735962,0.37387317419052124,0.6477721929550171,0.5065426230430603
34,1.4294788520115675,-0.6122310225256282,2.6069670753404286,0.8102098703384399,0.5746946930885315,-0.1152651458978653,-1.5498583316802979,-1.6768066883087158,-0.13214826583862305,0.2958844304084778,0.3649110198020935,-0.2545773983001709
35,1.4688926167718315,-0.6059167817306557,2.8410072340988926,0.8177161812782288,0.5695158839225769,-0.08361794799566269,-0.8299184441566467,-0.6927381157875061,0.27444279193878174,-0.25681835412979126,-0.5940214991569519,-0.3949282169342041
36,1.4630781420746066,-0.5854466974770872,2.7658965594642546,0.8286346793174744,0.5525717735290527,-0.08960586041212082,0.8793359398841858,1.0514870882034302,0.4363110065460205,-0.6561492681503296,-1.0971579551696777,0.4813905358314514
37,1.5947204335217366,-0.6074362324987826,2.6116442139449476,0.8208791613578796,0.5707641839981079,0.019642548635601997,2.055006504058838,0.4597994387149811,-0.12933877110481262,2.200315475463867,0.6681427359580994,-1.6396377086639404
38,1.3909593396577458,-0.592018570158947,2.2494901820365785,0.8164332509040833,0.5580372214317322,-0.14842848479747772,2.7880687713623047,-0.4980334937572479,0.15270942449569702,-0.1532711386680603,-0.08948564529418945,0.2405458241701126
39,1.159765027210543,-0.5776812871033408,2.1270352887343424,0.7679558992385864,0.5460829734802246,-0.33471962809562683,0.20638440549373627,-3.0378997325897217,-0.19991178810596466,-0.5861016511917114,-0.23687881231307983,0.20947551727294922
40,1.022214129133296,-0.5440190131141888,2.2432082234998343,0.7300835251808167,0.5175789594650269,-0.4461950361728668,-3.2413077354431152,4.826177597045898,1.5434844493865967,-0.006145596504211426,0.42599397897720337,1.0185827016830444
41,1.4955925261587149,-0.6155048363633971,2.580167626165811,0.8141743540763855,0.5773707628250122,-0.0613446980714798,-2.473982095718384,-0.30002036690711975,0.9511412382125854,0.897999107837677,0.1521214246749878,0.19809401035308838
42,1.558842420118182,-0.6009909325154871,2.788069671065988,0.8247167468070984,0.5654600262641907,-0.009859057143330574,0.32432329654693604,-0.5353772044181824,-0.47388869524002075,-0.45153260231018066,-0.6188352704048157,-0.4695568084716797
43,1.5209217034206552,-0.6255017031609038,2.664797146228242,0.8096616268157959,0.5855040550231934,-0.04041508212685585,0.6487910151481628,1.521768569946289,0.19771327078342438,-0.16451990604400635,-1.0657286643981934,0.6037542819976807
44,1.5585603853586862,-0.6365548811624137,2.4508982339269783,0.8040881752967834,0.5944285988807678,-0.00983926746994257,2.550804615020752,0.5840232372283936,-0.5483622550964355,1.5909160375595093,0.8533863425254822,-0.8795344829559326
45,1.4350717139401827,-0.6185204495181589,2.220149285139473,0.8072447180747986,0.5798303484916687,-0.11024072766304016,1.4049160480499268,-0.3155134320259094,0.30706796050071716,-0.24562960863113403,0.06677615642547607,-0.16542454063892365
46,1.287481752585466,-0.5736167173220035,2.087700692381106,0.806458592414856,0.5426734089851379,-0.23479753732681274,0.4874805808067322,-0.5753368735313416,0.06660635769367218,-0.6658031940460205,-0.12233960628509521,0.47597798705101013
47,1.3127791209036008,-0.5614905311150288,2.1681905962029195,0.818442702293396,0.5324484705924988,-0.21598665416240692,-1.9058829545974731,1.8210878372192383,0.6943028569221497,-0.2012094259262085,0.5403359532356262,0.6683029532432556
48,1.4828118673372486,-0.6202596275965018,2.425186333006342,0.8105799555778503,0.5812464356422424,-0.07150304317474365,-0.5291155576705933,-0.9236672520637512,-0.4872950613498688,0.6905949711799622,0.42357534170150757,-0.07086145877838135
49,1.5131764841641326,-0.6125076207383633,2.637647358988464,0.8168510794639587,0.5749210119247437,-0.04711898788809776,-0.9925188422203064,-0.7699861526489258,-0.15982931852340698,-0.41899335384368896,-0.4008182883262634,-0.4118501543998718
50,1.4971415778378134,-0.6300307277701744,2.5801902972059287,0.8058185577392578,0.5891695618629456,-0.05945992469787598,0.30429983139038086,2.519252061843872,0.31750819087028503,-0.4385395646095276,-1.1057407855987549,0.760357141494751
51,1.5466284950569604,-0.6273689800372863,2.5028472892349796,0.8093383312225342,0.587016761302948,-0.019563762471079826,2.573155164718628,0.946159839630127,-1.431705117225647,1.3413116931915283,0.9884836673736572,-1.0957010984420776
52,1.3397843381440036,-0.649505628152927,2.081663604848651,0.7752272486686707,0.6047927737236023,-0.1823420375585556,2.431372880935669,0.48752689361572266,0.04515737295150757,0.062190473079681396,-0.11614525318145752,0.0522303432226181
53,1.2170215168644873,-0.5645878630385445,1.917530742498939,0.792491614818573,0.5350676774978638,-0.2926768362522125,0.47611987590789795,-0.659582257270813,0.2407456785440445,-0.7655903697013855,-0.20268547534942627,0.36567485332489014
54,1.2567308537647401,-0.5507563955495829,2.01279012123951,0.8104473948478699,0.5233319401741028,-0.2632462978363037,-1.705482006072998,1.2282012701034546,0.7764416933059692,-0.47963690757751465,0.10711544752120972,0.4687821865081787
55,1.5104887843713843,-0.5896362307634533,2.3924643690649385,0.8296321034431458,0.5560587048530579,-0.050093818455934525,-0.6927870512008667,-1.9987633228302002,-0.3455210328102112,0.8437992334365845,0.5841695666313171,-0.6794441342353821
56,1.5716288126210272,-0.5803583881427858,2.660935050980046,0.8362658023834229,0.5483236908912659,0.0006961795734241605,-2.7269723415374756,-1.4696635007858276,-0.1864689290523529,-0.2984241247177124,-0.18952858448028564,-0.36176490783691406
57,1.5127566980218115,-0.6204145950639766,2.7105065099942562,0.8122674822807312,0.5813725590705872,-0.04719671234488487,0.9754659533500671,-0.6558734178543091,-0.584971010684967,-0.752575159072876,-0.7917760014533997,-0.16178768873214722
58,1.5592674144576375,-0.636194939667963,2.638790668703868,0.8043089509010315,0.5941390991210938,-0.009273217990994453,0.8367854356765747,1.2934695482254028,-0.13080909848213196,0.7443666458129883,0.19959259033203125,-0.607166588306427
59,1.4212391811110907,-0.6675764860046434,2.336805825882019,0.7765579223632812,0.6190845370292664,-0.11701351404190063,2.3009021282196045,0.6710915565490723,-0.14963874220848083,0.6173325181007385,0.26400256156921387,0.044656336307525635
60,1.2764768576905885,-0.6240969495947033,2.090361272191065,0.7765969038009644,0.5843647122383118,-0.2354043871164322,1.5258822441101074,-0.508962869644165,-0.0601598359644413,-0.5335091352462769,-0.22686654329299927,0.3004831075668335
61,1.2049877101327324,-0.6092246056799875,2.008379750231408,0.7658304572105408,0.5722317099571228,-0.29335060715675354,-0.39818882942199707,0.45211923122406006,-0.02241872437298298,-0.7138437628746033,-0.11323219537734985,0.6894992589950562
62,1.4704700729591718,-0.6312899003360314,2.3022549863100523,0.8032076358795166,0.5901865363121033,-0.08085426688194275,-3.3516883850097656,-0.5431807041168213,-0.310461163520813,1.1710965633392334,1.304192066192627,-1.070833444595337
63,1.5244091283127568,-0.6401322700983912,2.5721980151482833,0.8011541366577148,0.5973015427589417,-0.03718997538089752,-3.314718723297119,-1.158422589302063,0.3159252107143402,0.2325984239578247,0.014575958251953125,0.32687807083129883
64,1.5237302133977992,-0.6624891151830418,2.7695105979322934,0.787590503692627,0.6150813102722168,-0.03709622099995613,0.6440492868423462,-0.2644422948360443,-0.2989218235015869,-0.525688648223877,-0.5340876579284668,-0.022275686264038086
65,1.5056069405746204,-0.6761031420340495,2.7222878124310568,0.7783603072166443,0.625758171081543,-0.05081283301115036,0.08678170293569565,-0.691277801990509,0.060704126954078674,-0.07663911581039429,-0.7340803146362305,-0.26502883434295654
66,1.4880541335927808,-0.6872757829759322,2.5193032746328923,0.7703325748443604,0.6344338059425354,-0.06388486176729202,2.3833346366882324,0.6185990571975708,-0.5158842206001282,1.1808544397354126,0.8524893522262573,-0.5271490812301636
67,1.343965863735077,-0.6549815531259874,2.2466666501419175,0.772744357585907,0.6091446280479431,-0.17835134267807007,2.3465304374694824,0.0063979486003518105,0.07501235604286194,-0.49958139657974243,-0.07144010066986084,0.14264576137065887
68,1.2295921566732804,-0.627959645092734,2.063049080219994,0.7625777721405029,0.5874948501586914,-0.27078551054000854,0.7395784258842468,0.014065608382225037,-0.12734422087669373,-0.6274307370185852,-0.3998118042945862,0.44032594561576843
69,1.3481442674859714,-0.6249154219030242,2.2079268359126107,0.7909929752349854,0.5850287079811096,-0.1790853589773178,-3.3045246601104736,2.349613666534424,0.7348994016647339,-0.011955499649047852,0.5940027236938477,0.3745046854019165
70,1.4769337667162876,-0.6410871069003151,2.5498273181119617,0.7979182004928589,0.598067045211792,-0.07511536777019501,-1.4040753841400146,-1.9736846685409546,0.3140186667442322,0.14766889810562134,0.27562063932418823,0.1236078217625618
71,1.5144978736522203,-0.6421246874952407,2.804802845882969,0.799556314945221,0.5988982915878296,-0.04506140202283859,-0.5285779237747192,-1.1032178401947021,-0.13447336852550507,-0.32343631982803345,-0.3593200445175171,-0.4519631266593933
72,1.5155602785058346,-0.6543828931202407,2.6980331816865197,0.7922135591506958,0.6086697578430176,-0.04380330070853233,0.19697315990924835,0.8272250890731812,0.15036821365356445,-0.2889787554740906,-1.0729031562805176,1.00666344165802
73,1.517066172544922,-0.6467814873391473,2.5425846912256063,0.7968758344650269,0.6026210784912109,-0.04285751283168793,3.067169427871704,0.27085259556770325,-0.8967761993408203,1.6915427446365356,1.0208072662353516,-1.2757766246795654
74,1.3674228500231294,-0.6305039296655319,2.2021411535060924,0.7910838723182678,0.5895518660545349,-0.1631409227848053,1.8355884552001953,0.3711968660354614,0.2920103073120117,0.017540335655212402,-0.07688707113265991,0.08933413028717041
75,1.2521102808407416,-0.5468838896805638,2.0759670292361836,0.8111410140991211,0.5200281143188477,-0.2676211893558502,0.11830608546733856,-1.09700608253479,0.24819408357143402,-1.066161036491394,-0.07398319244384766,0.4881259500980377
76,1.341075906256925,-0.5429677931948779,2.206684640837636,0.833687424659729,0.5166792273521423,-0.19495652616024017,-2.3710200786590576,0.9866049885749817,0.9150785207748413,-0.48651933670043945,0.37040579319000244,0.23055526614189148
77,1.5736692412941395,-0.6054517466982414,2.5950131053793632,0.8222416639328003,0.5691335797309875,0.0023622363805770874,-0.9550749659538269,-2.298902750015259,-0.40788811445236206,0.9725886583328247,0.27504366636276245,-0.5502595901489258
78,1.5558859798726685,-0.5975810445727272,2.820874994321315,0.8266071081161499,0.562644362449646,-0.012325912714004517,-1.7802590131759644,-1.325352430343628,-0.1251620203256607,-0.15569347143173218,-0.4404977560043335,-0.36148393154144287
79,1.5579758392096767,-0.6157161825074744,2.812255258386306,0.8162930011749268,0.577543318271637,-0.010465847328305244,0.7529255747795105,2.8481807708740234,0.11538545787334442,-0.6879055500030518,-0.8984662294387817,0.7674391269683838
80,1.5871518373793625,-0.5933788589483657,2.7548852025166624,0.8289453387260437,0.5591654777526855,0.01355903409421444,0.714104413986206,2.306607246398926,-0.2906033396720886,0.8774604201316833,0.6594319939613342,-0.4285675287246704
81,1.4819766631220017,-0.637651414700412,2.4218689174232235,0.8003289699554443,0.5953100323677063,-0.07127247005701065,2.015180826187134,0.5571384429931641,0.30417829751968384,0.43651801347732544,0.022411584854125977,-0.02951180934906006
82,1.3619931700151757,-0.5737707721984058,2.2351510254858487,0.8216181993484497,0.5428028106689453,-0.17409396171569824,0.9884523749351501,0.20225681364536285,0.13267989456653595,-0.6912471055984497,-0.05105781555175781,0.26561617851257324
83,1.3156287447250936,-0.561411270081856,2.1699288886125845,0.8190956711769104,0.5323813557624817,-0.21366417407989502,0.4234728217124939,0.2328466773033142,0.5958825945854187,-0.7062264084815979,-0.2814810872077942,0.43934166431427
84,1.5118908710762962,-0.6009417672729477,2.358294363620031,0.823373019695282,0.5654194951057434,-0.0485573373734951,-0.5440730452537537,0.024184811860322952,-0.31058236956596375,1.2486636638641357,0.5088755488395691,-0.4722556471824646
85,1.6151824307262173,-0.5910361912189062,2.507130924763422,0.8295459151268005,0.5572217106819153,0.036844510585069656,-0.8880177140235901,-0.7565928101539612,-0.09272739291191101,-0.11688417196273804,-0.29063546657562256,-0.08080506324768066
86,1.5476116295630504,-0.6010403047640146,2.5287389929586586,0.8245260119438171,0.565500795841217,-0.019119812175631523,1.1587575674057007,-0.7617496252059937,-0.36382001638412476,-0.6933310627937317,-0.35566192865371704,-0.11509644985198975
87,1.5365156398711874,-0.5959006559122977,2.4335652500511475,0.8271573185920715,0.5612543821334839,-0.028366632759571075,-0.5500718951225281,1.6491042375564575,-0.05166078358888626,-0.05394858121871948,-0.02972966432571411,-0.23017823696136475
88,1.4696791650456649,-0.6142661370428545,2.279874920105989,0.8130223751068115,0.57635897397995,-0.08249185979366302,2.6992673873901367,0.08110357075929642,-0.41532769799232483,1.236644983291626,0.20217490196228027,-0.2574892044067383
89,1.3031304027210502,-0.5590100470953656,2.055810611966743,0.817591667175293,0.5303471684455872,-0.22422198951244354,1.354494571685791,-0.5912728309631348,0.2014291137456894,-0.5986586809158325,0.02430969476699829,0.35149553418159485
90,1.2346511890224339,-0.5363367698278743,1.9924470083268693,0.8114780783653259,0.510990560054779,-0.2835349440574646,-0.5213207006454468,0.027523696422576904,0.5365670323371887,-0.6452793478965759,-0.14586299657821655,0.6144065856933594
91,1.442723040165122,-0.5379926630723291,2.265244629894,0.85170578956604,0.5124132633209229,-0.10968110710382462,-3.754237413406372,0.7489131093025208,0.13878276944160461,0.7179811000823975,0.8974836468696594,-0.7939596176147461
92,1.5873331785986373,-0.5402337584578283,2.4889441342311236,0.857471227645874,0.5143364667892456,0.014181166887283325,-3.1806092262268066,-0.7028849720954895,0.5730164051055908,0.6307642459869385,-0.2013787031173706,0.45067787170410156
93,1.5635050251453158,-0.5414281775003094,2.7273184193653894,0.8569508194923401,0.515360414981842,-0.0062483977526426315,0.34704893827438354,-0.3213231563568115,-0.33262014389038086,-0.6550922989845276,-0.46309906244277954,-0.09703832864761353
94,1.541104553396492,-0.5457980607868218,2.640785357340816,0.8543365597724915,0.5191003680229187,-0.02537422440946102,0.8464549779891968,0.6326992511749268,8.936412632465363e-05,-0.43833619356155396,-0.7857934832572937,0.12620431184768677
95,1.5485976697841108,-0.5840084382331945,2.5404683060195725,0.834053635597229,0.5513724088668823,-0.018517913296818733,3.060798406600952,0.1968335509300232,-0.4311812222003937,1.216407060623169,0.2547493577003479,-0.6750398278236389
96,1.3885358429566128,-0.5646846347690726,2.241801949520468,0.8307652473449707,0.5351494550704956,-0.15311487019062042,1.8465853929519653,-0.30959898233413696,0.05748916417360306,-0.2779240608215332,-0.040490031242370605,-0.010062575340270996
97,1.299058703643343,-0.5628766737317566,2.1085567248271846,0.8146905303001404,0.5336212515830994,-0.2269970327615738,0.048405420035123825,-0.17685624957084656,-0.4058302938938141,-0.6671991348266602,-0.12535715103149414,0.5253368616104126
98,1.4646297152560461,-0.616800475656603,2.279017959697226,0.8111405968666077,0.5784281492233276,-0.08644106239080429,-2.9266445636749268,1.301875114440918,-0.4381544589996338,0.6313796639442444,0.7926198840141296,-0.2156829833984375
99,1.5807364409127804,-0.6092514388557959,2.5675206709650347,0.8200362324714661,0.5722537636756897,0.008151521906256676,-3.1578872203826904,-1.6110566854476929,0.47680532932281494,0.3381059765815735,0.5483670234680176,-0.03459501266479492
100,1.57663359418117,-0.6106145562072621,2.800213676589995,0.8192818760871887,0.5733710527420044,0.004782421514391899,-0.845454216003418,-0.8987765312194824,-0.2406553477048874,-0.3896554112434387,-0.35918349027633667,-0.04616427421569824
101,1.586538530743399,-0.6273190685390817,2.7684556462280345,0.8095037937164307,0.5869763493537903,0.012744426727294922,0.27228689193725586,-0.7828570604324341,-0.2041078507900238,-0.41204285621643066,-0.7628492116928101,-0.10071134567260742
102,1.5702361391508486,-0.6683941181343956,2.619546412771054,0.7848178148269653,0.6197264790534973,-0.00043964528595097363,2.429222583770752,0.30797266960144043,-0.1916595846414566,1.4670895338058472,0.9449402689933777,-0.4847898483276367
103,1.4631903527306451,-0.6428160759549862,2.423301618334272,0.7957811951637268,0.5994518399238586,-0.08596285432577133,1.091178059577942,-0.6915425062179565,0.15526911616325378,-0.06023132801055908,-0.09432494640350342,-0.08849089592695236
104,1.2920118700881826,-0.6002268758871036,2.319830636117272,0.7933467030525208,0.5648297071456909,-0.22708654403686523,0.5402636528015137,-0.7611225247383118,-0.10912461578845978,-0.9208797216415405,-0.1942090392112732,0.5124564170837402
105,1.330476768404049,-0.6173327796414347,2.3041046098360005,0.7919914722442627,0.5788623094558716,-0.19408181309700012,-0.6133062839508057,1.5577508211135864,-0.041296303272247314,-0.035476088523864746,0.019358456134796143,0.34024572372436523
106,1.5350363393707223,-0.6272303213386597,2.5264673817815058,0.8091383576393127,0.5869045257568359,-0.028947116807103157,-0.4814179539680481,-2.250892400741577,-0.41986384987831116,0.5517471432685852,0.535486102104187,-0.322584867477417
107,1.5600163780756,-0.6350208196615686,2.67418272751176,0.8050127029418945,0.5931942462921143,-0.008678331971168518,-1.5363647937774658,-0.7971723079681396,0.20087797939777374,-0.3842514753341675,-0.4501277804374695,-0.3275795578956604
108,1.492460109415051,-0.6317511596617222,2.62472771617026,0.8045196533203125,0.5905588269233704,-0.0631522610783577,1.3917282819747925,1.7949140071868896,0.1046418622136116,-0.6868287324905396,-0.9389628767967224,0.2615622878074646
109,1.66041469655517,-0.6391315578153227,2.604029328266335,0.7993931174278259,0.5964986681938171,0.07183271646499634,0.37170615792274475,-0.33220192790031433,-0.552605152130127,1.9069666862487793,1.167356252670288,-1.1439000368118286
110,1.5161210229918425,-0.6128205622570381,2.3637020385210916,0.8168066740036011,0.5751770734786987,-0.044703707098960876,1.3200794458389282,-1.0589063167572021,1.312543511390686,0.0431329607963562,0.21579283475875854,-0.07484889030456543
111,1.2777460864822014,-0.4701275609299949,2.2153629513021604,0.8535028696060181,0.453000009059906,-0.257533997297287,1.7482564449310303,-0.8063340783119202,0.8113486766815186,-0.7854945063591003,-0.0931825339794159,0.5056877136230469
112,1.2820860373059033,-0.4432650560229764,2.1704583937544952,0.8659679889678955,0.42889124155044556,-0.25720009207725525,-0.7977016568183899,0.9114367365837097,-0.2129555493593216,-0.4869701862335205,0.07684606313705444,0.48093968629837036
113,1.6019410664979592,-0.5698581761157986,2.466687107803553,0.8415692448616028,0.5395126342773438,0.02621893398463726,-2.3717198371887207,-1.1603819131851196,-2.2051165103912354,1.099684476852417,0.970344603061676,-1.1728863716125488
114,1.5565357634938828,-0.6019085159994061,2.555964114386948,0.8241726160049438,0.5662165880203247,-0.011753962375223637,-2.139497756958008,-1.5175886154174805,0.532844603061676,-0.15663117170333862,-0.4890376925468445,0.11885541677474976
115,1.5307662281708057,-0.594543093543756,2.774020918084752,0.8277409076690674,0.5601302981376648,-0.0331522598862648,0.1894613653421402,-1.3578852415084839,0.47889775037765503,-0.5509769916534424,-0.9398758411407471,-0.20726525783538818
116,1.6241577227279744,-0.5643217309012409,2.6400844602434166,0.843748927116394,0.534842848777771,0.04506640136241913,0.3572228252887726,2.01261043548584,-0.33244094252586365,0.930939793586731,0.502236008644104,-0.42063093185424805
117,1.526535026063125,-0.6019873047448637,2.304156903310834,0.8234047889709473,0.5662815570831299,-0.036468785256147385,3.2028656005859375,0.7128543853759766,0.10419684648513794,0.3206993341445923,0.09649926424026489,0.012863453477621078
118,1.341456289160013,-0.5281422980221944,2.0446292900408847,0.841128945350647,0.503929615020752,-0.1963593065738678,1.004998803138733,-1.2352449893951416,1.0590139627456665,-0.5451237559318542,-0.18624168634414673,0.4427124261856079
119,1.2982440600883647,-0.4615833295854593,2.0683158070490264,0.8622984290122986,0.4453662931919098,-0.24101917445659637,-0.10995026677846909,0.4907202124595642,0.9578310251235962,-0.6592650413513184,0.10498771071434021,0.46674245595932007
120,1.5933427702724554,-0.4932786405537327,2.3267697301905446,0.8805614113807678,0.47351619601249695,0.01985689252614975,-4.040598392486572,-1.017274022102356,-2.2185544967651367,0.9798208475112915,1.4898780584335327,-0.9774222373962402
121,1.5972566855855255,-0.5822884854277386,2.4899027638080726,0.8349138498306274,0.5499367117881775,0.022097276523709297,-0.8790382742881775,-0.5230610370635986,-0.9118670225143433,0.20408755540847778,-0.10936981439590454,-0.06489825248718262
122,1.545363848466022,-0.6277089633152262,2.6172491833526466,0.8091134428977966,0.5872920155525208,-0.020582199096679688,-0.2189367264509201,-1.0094329118728638,-0.12079979479312897,-0.35708707571029663,-0.794475793838501,-0.05359077453613281
123,1.551876723797795,-0.6049352883643003,2.5533657673190966,0.8223916888237,0.5687088370323181,-0.015561181120574474,0.36983898282051086,-0.0341065488755703,0.2152804732322693,-0.24087929725646973,-0.6452317237854004,-0.28613555431365967
124,1.5342431447834934,-0.6279861790674087,2.222537807884364,0.8086718916893005,0.5875163674354553,-0.029572702944278717,2.9127371311187744,1.564224362373352,-0.2283576875925064,1.5055980682373047,0.542931079864502,-0.26867562532424927
125,1.4846468828833375,-0.563257434135889,2.099972674014914,0.8423846364021301,0.533943235874176,-0.07275103777647018,0.36656561493873596,-0.8560935258865356,0.9346839785575867,-0.4747088551521301,0.09642785787582397,-0.22137737274169922
126,1.3743326688429671,-0.4684545550176217,2.0815177802069367,0.8751026391983032,0.4515078663825989,-0.1741725653409958,-0.03511357679963112,-0.8465176820755005,0.8911049962043762,-0.6684833765029907,0.011352241039276123,0.3995448350906372
127,1.485049365091612,-0.43183042555334544,2.229376419847142,0.9048644304275513,0.41853389143943787,-0.0777800977230072,-3.9908652305603027,1.3637497425079346,-0.47250017523765564,0.17573249340057373,1.1214900016784668,0.2588866949081421
128,1.59703968775124,-0.5071012612183997,2.50567156496005,0.87385493516922,0.4856453537940979,0.022938156500458717,-1.6553045511245728,-0.9566522240638733,-0.10372866690158844,0.64415043592453,0.1718253493309021,-0.08615529537200928
129,1.595944017067226,-0.5501324525347254,2.689332215940508,0.8521857261657715,0.5228001475334167,0.021435022354125977,-0.5962193608283997,-0.6687902808189392,-0.4746188819408417,-0.13345104455947876,-0.8090856075286865,-0.4194605350494385
130,1.511279213161408,-0.5481840367091863,2.60093663715808,0.8519611358642578,0.5211381912231445,-0.0507662259042263,1.5260202884674072,1.1994004249572754,0.5530344247817993,-0.5544910430908203,-0.994145393371582,0.5614778995513916
131,1.5865130444021225,-0.5567761321368955,2.4395031528419473,0.8488584756851196,0.5284519791603088,0.013342367485165596,3.5512709617614746,1.043541431427002,-0.7142624855041504,2.16725492477417,1.379964828491211,-1.0613465309143066
132,1.4595122113190475,-0.5429459697073796,2.1701745318049146,0.8508942723274231,0.5166605114936829,-0.09508385509252548,1.5251768827438354,-1.3610596656799316,0.2624281346797943,-0.3981660008430481,0.20895588397979736,-0.07006204128265381
133,1.3144053736747277,-0.49294772809521265,2.0227995403617687,0.8521450757980347,0.4732247292995453,-0.22339902818202972,0.08479932695627213,-0.731042742729187,0.10486728698015213,-0.6484555006027222,-0.2155953049659729,0.4283550977706909
134,1.3538005706256475,-0.48413105823290714,2.163706810350957,0.8643235564231873,0.46543943881988525,-0.19055487215518951,-2.268805742263794,0.47657427191734314,0.5117915272712708,-0.42656397819519043,0.33576908707618713,0.31231996417045593
135,1.528287003872603,-0.5492771548016868,2.4388192469678107,0.8521316051483154,0.5220708250999451,-0.03624537214636803,-0.47364693880081177,-1.3137519359588623,-0.4314209222793579,0.6849930286407471,0.31841373443603516,-0.2725161910057068
136,1.6056647608300996,-0.6024351160295637,2.6275606527960775,0.8234572410583496,0.5666505694389343,0.028724305331707,-2.325472593307495,-1.4636073112487793,-0.3041051924228668,0.13456571102142334,-0.6780245900154114,-0.2136150598526001
137,1.5097420572034532,-0.5210228756922974,2.9177579220505696,0.865694522857666,0.49776753783226013,-0.05292011797428131,-0.7267531752586365,-0.964268684387207,1.061892032623291,-1.0537896156311035,-0.678141713142395,-0.16012310981750488
138,1.60572154433951,-0.4379761797730648,2.785380732864238,0.9050596952438354,0.42410755157470703,0.031622264534235,2.5957860946655273,4.230841636657715,-0.2209828495979309,0.7776491045951843,1.2216901779174805,-0.6857055425643921
139,1.520968712514779,-0.5163120763661854,2.3523830238080965,0.8685664534568787,0.4936763048171997,-0.04331444576382637,3.730914354324341,-0.6219073534011841,-0.653627872467041,0.2082463502883911,0.2621525228023529,0.08004236221313477
140,1.2746074761584447,-0.4567559717432049,2.0146368075101693,0.8584075570106506,0.44103896617889404,-0.26195621490478516,1.1183476448059082,-1.5161948204040527,0.6524835228919983,-0.6690918207168579,-0.17777907848358154,0.6204004287719727
141,1.1960859270911617,-0.46406446200887325,2.0591437859264734,0.8321926593780518,0.44758638739585876,-0.32729485630989075,-1.3990870714187622,-0.02290726639330387,0.4225505590438843,-0.4869319796562195,-0.02468898892402649,0.7521452903747559
142,1.5279636044289182,-0.5456927202593004,2.499331957477391,0.853983998298645,0.5190103054046631,-0.03660084679722786,-2.387505292892456,-2.1037306785583496,-1.2632697820663452,0.97954261302948,0.7020742893218994,-1.4383442401885986
143,1.5443809558744641,-0.5864803051912041,2.6750986541664705,0.8326031565666199,0.5534329414367676,-0.021998638287186623,-3.094855546951294,-2.207902193069458,-0.23669245839118958,-0.16742682456970215,-0.36462074518203735,-0.24286341667175293
144,1.4203672538927465,-0.6219751335031243,2.7158414551240484,0.8035510182380676,0.5826415419578552,-0.12179753929376602,1.1808303594589233,-0.6504535675048828,0.11212316155433655,-0.5118334889411926,-1.13525390625,0.2687854766845703
145,1.4548478676093928,-0.5710138451848574,2.635549668452683,0.8357042670249939,0.5404853224754333,-0.09733521193265915,1.225400686264038,2.821708917617798,-0.09085844457149506,0.7362866997718811,0.44869619607925415,-0.6842962503433228
146,1.3956866185493513,-0.6014185977761325,2.2875527383713314,0.8119246363639832,0.5658127069473267,-0.14364713430404663,1.6881787776947021,-0.01354280486702919,0.024513039737939835,0.37238627672195435,0.05102384090423584,-0.06700044870376587
147,1.2905438983763275,-0.5196296621415137,2.127285887214702,0.8341384530067444,0.4965587258338928,-0.24008812010288239,0.7312454581260681,-0.25280970335006714,0.6570118069648743,-0.6556259989738464,-0.006141245365142822,0.2608247995376587
148,1.2611264412507055,-0.44595092484060367,2.143223820476282,0.8592869639396667,0.43131598830223083,-0.27494049072265625,-0.7787850499153137,0.3684682846069336,1.124192714691162,-0.6387364864349365,0.147144615650177,0.6267166137695312
149,1.5023467445646435,-0.5379398303820188,2.439362422129533,0.8567551374435425,0.5123679041862488,-0.05873629450798035,-1.476846694946289,0.8325346112251282,-2.3238513469696045,1.1640883684158325,1.184088945388794,-1.1745400428771973
150,1.5155831392330712,-0.602878242324068,2.577657495576359,0.8224518895149231,0.5670156478881836,-0.04545639082789421,-2.4605555534362793,-1.0950480699539185,0.01112345326691866,-0.005938827991485596,-0.4220266342163086,0.3344120383262634
151,1.5074402615729317,-0.620734251920222,2.7246605783497935,0.8118197917938232,0.5816326141357422,-0.05150263383984566,0.36369168758392334,0.47316774725914,0.1232469379901886,-0.6005769371986389,-0.8036326766014099,0.18791621923446655
152,1.5041395119148873,-0.5943936541704267,2.6694226819362163,0.826648473739624,0.5600064992904663,-0.05518350750207901,1.391214370727539,1.8241522312164307,0.27164730429649353,-0.14541971683502197,-0.5057767033576965,-0.050147898495197296
153,1.4815876148233844,-0.6275441307248103,2.4257343085980865,0.8062530159950256,0.5871585607528687,-0.0721161961555481,2.5906970500946045,0.6163222193717957,-0.15724465250968933,0.9399932622909546,0.4948725700378418,-0.2346617579460144
154,1.3652749857547535,-0.5910799013198177,2.2724067962831302,0.8128647208213806,0.5572580099105835,-0.16945365071296692,1.3016713857650757,-0.7897093892097473,0.48954957723617554,-0.4536117911338806,-0.1077646017074585,-0.0019025802612304688
155,1.2643114191580858,-0.5392128946262268,2.173845334635447,0.8181250691413879,0.5134606957435608,-0.25890064239501953,0.0554233156144619,0.00432606041431427,-0.013110246509313583,-0.6236975193023682,-0.26576483249664307,0.5110368728637695
156,1.4274447600572149,-0.543872087826702,2.3158860103424708,0.8469343185424805,0.5174532532691956,-0.12224789708852768,-3.446747303009033,2.2166967391967773,-0.40633195638656616,0.44064807891845703,1.1612730026245117,0.055643320083618164
157,1.491235610066144,-0.5825746936984123,2.55270408933285,0.8324074745178223,0.5501757264137268,-0.06636703014373779,-1.9067842960357666,-0.1430148184299469,0.8142574429512024,0.6706137657165527,0.03704351186752319,0.7258671522140503
158,1.5118579561695984,-0.601166109392063,2.786746152762127,0.8232447504997253,0.5656045079231262,-0.0485769622027874,0.16889356076717377,-0.9235721230506897,-0.5702254772186279,-0.30455273389816284,-0.6198342442512512,-0.6009286046028137
159,1.4624436469873006,-0.6057475941911158,2.6455856030168508,0.8172557353973389,0.5693768262863159,-0.08890002220869064,0.5688449740409851,1.7517589330673218,0.04009811207652092,-0.5336863994598389,-0.9748944044113159,0.6284965872764587
160,1.495693114939021,-0.5979969794842233,2.4786579815925323,0.8241351246833801,0.5629881620407104,-0.062011830508708954,1.4106388092041016,-0.18720650672912598,-0.2689930200576782,1.432715892791748,0.7222748398780823,-1.038101077079773
161,1.3619958218436772,-0.6157728711644679,2.319341096839019,0.7985968589782715,0.5775896310806274,-0.16921371221542358,3.0732359886169434,0.01351461187005043,-0.42972758412361145,0.301882266998291,0.04020822048187256,-0.18738418817520142
162,1.1921580818252508,-0.5022790774027849,2.195676166215722,0.814405083656311,0.48142436146736145,-0.32399851083755493,-0.01641950197517872,-1.115422248840332,0.18257349729537964,-1.0917030572891235,0.16650956869125366,0.6688166260719299
163,1.2942189241305986,-0.5058813321201364,2.2933983828975113,0.8415035009384155,0.48457857966423035,-0.23886273801326752,-2.3161568641662598,3.088526725769043,-0.18471397459506989,-0.2768062949180603,0.5268502235412598,0.4769151508808136
164,1.5365387333272602,-0.5831610317929036,2.6321904739002475,0.8342364430427551,0.5506652593612671,-0.028590118512511253,-2.0830464363098145,-1.2038302421569824,-0.21581022441387177,0.8740765452384949,0.8281646966934204,-0.6198778748512268
165,1.5376486452081009,-0.6254775414698883,2.8042286834062264,0.8102384209632874,0.5854844450950623,-0.026867365464568138,-1.2615033388137817,-0.7799364328384399,-0.0314842090010643,0.17923301458358765,-0.42923444509506226,-0.1667819619178772
166,1.4731161314479897,-0.6163111666920124,2.732901787496937,0.8121263980865479,0.5780289769172668,-0.07958193868398666,0.9500170350074768,0.8821689486503601,0.09682264924049377,-0.39128899574279785,-0.6619675159454346,0.15071845054626465
167,1.5261921819320927,-0.5726053718088865,2.610492911382535,0.8396563529968262,0.54182368516922,-0.03747700899839401,0.03786037117242813,2.215832471847534,-0.22958342730998993,0.7326246500015259,0.5564124584197998,-0.2583298683166504
168,1.456665878709875,-0.5727496205048945,2.495243927781956,0.8349465131759644,0.5419449210166931,-0.09570874273777008,2.2571818828582764,0.047349173575639725,-0.2420884221792221,0.47369301319122314,0.4088912606239319,0.04047191143035889
169,1.32729289261275,-0.5336551146239924,2.3098142688713996,0.8355547189712524,0.5086836218833923,-0.20757949352264404,-0.24075770378112793,-0.5702912211418152,-0.2079540193080902,-0.5364977717399597,-0.044801175594329834,0.33016860485076904
170,1.2736227068962662,-0.5442867783580675,2.347538959414214,0.8179986476898193,0.5178080797195435,-0.25050562620162964,-1.0288612842559814,-0.16836918890476227,0.14819900691509247,-0.7136742472648621,-0.27951157093048096,0.33607691526412964
171,1.4724036090192916,-0.6025298522851217,2.611622209843696,0.8199195265769958,0.5667286515235901,-0.08093546330928802,-0.16591306030750275,-0.20045453310012817,-0.8227020502090454,1.0182609558105469,0.7222728133201599,-0.8381624221801758
172,1.5197266401016731,-0.6224476299214419,2.8053317694039057,0.8113945722579956,0.5830255150794983,-0.04147372767329216,-1.863774061203003,-0.9512166380882263,-0.33801525831222534,-0.058754801750183105,-0.1747766137123108,0.004898428916931152
173,1.472149823614532,-0.6536137466268386,2.8378174793355817,0.7900320291519165,0.608059287071228,-0.07818768173456192,1.374488115310669,0.03189171478152275,-0.19859649240970612,-0.5483176112174988,-0.789028525352478,-0.020490944385528564
174,1.4879077511195127,-0.6283823218857191,2.6406922500229886,0.8062020540237427,0.5878368616104126,-0.06697840243577957,0.9822465181350708,-0.276226669549942,0.4938771724700928,-0.11348354816436768,-0.5228801965713501,-0.552986204624176
175,1.4913679864813507,-0.6311415047809287,2.4836295820200673,0.8048090934753418,0.5900667309761047,-0.06405942142009735,1.1493971347808838,-0.051854196935892105,0.02577255293726921,0.7429814338684082,0.28243082761764526,-0.43844300508499146
176,1.3498247952039382,-0.5973781419054893,2.2834251298643857,0.8067091107368469,0.562476634979248,-0.1812189370393753,1.9473865032196045,-0.2395227700471878,0.2736770212650299,-0.3362807035446167,0.015129506587982178,0.17424573004245758
177,1.2336730643613756,-0.5749218331874326,2.1830141000392698,0.7919943928718567,0.5437691807746887,-0.27759677171707153,-0.13437381386756897,-0.4392150640487671,-0.2561887204647064,-0.7431968450546265,-0.2730782628059387,0.4741910696029663
178,1.423699183793567,-0.6079298592306729,2.351527794450478,0.8119677901268005,0.5711694359779358,-0.12030711770057678,-4.1530656814575195,1.0540741682052612,-1.21437406539917,0.7310009002685547,1.412259578704834,-0.5515221357345581
179,1.4900002532443435,-0.6416264287524108,2.554786539375885,0.7985098361968994,0.5984991788864136,-0.06465721875429153,-2.0633630752563477,-0.7300297021865845,0.3840392231941223,0.47416460514068604,0.08175277709960938,0.38858604431152344
180,1.5286765859870348,-0.6478142697906232,2.7398322247690463,0.7966975569725037,0.6034449338912964,-0.03357655182480812,-0.1372910439968109,-0.6543267965316772,-0.07396681606769562,-0.2287806272506714,-0.4394587278366089,-0.3968281149864197
181,1.4621209395546109,-0.6492027029965084,2.6512998486108734,0.7918668985366821,0.6045514941215515,-0.08639683574438095,1.2616589069366455,1.2427645921707153,0.17303216457366943,-0.5657621622085571,-0.8112165331840515,0.20710909366607666
182,1.5145972199956736,-0.6237559038969875,2.5366053098163577,0.8104090094566345,0.5840879082679749,-0.04559227079153061,0.973639965057373,1.6620001792907715,-0.7061061859130859,1.1696476936340332,0.9347566962242126,-0.7169352173805237
183,1.4167550256252675,-0.6263943824693755,2.322544973872911,0.800553560256958,0.5862274765968323,-0.12430305778980255,2.6150214672088623,0.2692548334598541,-0.10089483857154846,0.11199826002120972,0.14738458395004272,-0.07427483797073364
184,1.2905784892344923,-0.5644633311129679,2.091517146920834,0.8119215965270996,0.5349624752998352,-0.23366306722164154,0.2368512600660324,-0.7462547421455383,0.0623842217028141,-0.6563582420349121,-0.1198623776435852,0.44667577743530273
185,1.2798726461989378,-0.5623755176582376,2.164142832193126,0.810441792011261,0.5331973433494568,-0.24266166985034943,-1.3048630952835083,0.02609238587319851,0.45867830514907837,-0.876176655292511,-0.13775062561035156,0.2675182819366455
186,1.5040982256366615,-0.6170713294991004,2.427017530593668,0.8137631416320801,0.57864910364151,-0.05435708537697792,-0.7667088508605957,-1.8909392356872559,-0.018797462806105614,1.177234172821045,0.49868243932724,-0.76839679479599
187,1.470678957836483,-0.6371810041234728,2.6309645850870713,0.7997511029243469,0.594931960105896,-0.08033757656812668,-2.1596953868865967,-1.159515142440796,-0.20667040348052979,0.061409175395965576,-0.3104623556137085,0.0690460205078125
188,1.4653429397141562,-0.6371499864242943,2.700145670732702,0.799329400062561,0.5949070453643799,-0.08460584282875061,0.5656580924987793,0.9084556698799133,0.19884443283081055,-0.6621986627578735,-0.7627537250518799,0.21512949466705322
189,1.4816551080172964,-0.5892135552691468,2.5884365119092605,0.8280771374702454,0.5557073354721069,-0.07401194423437119,1.2574974298477173,2.3388102054595947,0.17197929322719574,0.05616968870162964,0.12549078464508057,-0.08767014741897583
190,1.4767737586901812,-0.616826949088619,2.386540655428091,0.8121150135993958,0.5784497857093811,-0.07658294588327408,1.0380229949951172,0.23209889233112335,-0.011258451268076897,0.8515201210975647,0.5086015462875366,-0.1910867691040039
191,1.371556776872643,-0.5905397616027157,2.2796501758643264,0.8142079710960388,0.5568094253540039,-0.16440361738204956,1.5919997692108154,-0.2762523293495178,-0.09141173213720322,-0.4951314330101013,0.08367818593978882,0.08148735761642456
192,1.2770903750603124,-0.5729993342653983,2.2152744702575964,0.8042958378791809,0.5421547889709473,-0.24326187372207642,-0.5844522714614868,-0.7822408676147461,0.08595745265483856,-0.8051045536994934,-0.18958526849746704,0.4725862145423889
193,1.451548078717433,-0.6121777195934661,2.453100518273653,0.8125865459442139,0.5746510624885559,-0.09736146032810211,-4.026235103607178,0.6620215773582458,-0.8851341009140015,0.48509711027145386,1.0334117412567139,-0.4302721619606018
194,1.4989105154031224,-0.6504852114909075,2.647645857736865,0.7937347888946533,0.6055725812911987,-0.0571567565202713,-2.3897438049316406,-1.7864083051681519,0.38159123063087463,0.4339262843132019,0.0891905426979065,0.2631656527519226
195,1.4911166639291715,-0.6556319861580203,2.8162182302666525,0.7901479601860046,0.6096603274345398,-0.06309229880571365,0.002751159481704235,-0.7389910221099854,0.0008223075419664383,-0.28500574827194214,-0.5761062502861023,-0.17933928966522217
196,1.516654191168799,-0.6531243115579031,2.666058010746132,0.7930252552032471,0.6076706647872925,-0.042978085577487946,1.2285711765289307,0.4027155637741089,0.34990358352661133,-0.2521928548812866,-0.9466752409934998,0.36971449851989746
197,1.4886737604029452,-0.6207678483658161,2.472758660581459,0.810690701007843,0.5816599130630493,-0.06672607362270355,2.4936466217041016,1.4498324394226074,-0.7057305574417114,1.3507778644561768,0.8610891103744507,-0.8255621194839478
198,1.3867339170286024,-0.6060526806592922,2.2691015053835706,0.8080195188522339,0.569627583026886,-0.1504286676645279,1.924811601638794,-0.30842721462249756,0.010599043220281601,-0.13023942708969116,0.12714970111846924,-0.10100559890270233
199,1.2396082355995397,-0.5700689344049836,2.076086106109852,0.7961140871047974,0.5396900773048401,-0.273746132850647,0.6635344624519348,-0.7311282753944397,0.22065094113349915,-0.6440755724906921,-0.23318684101104736,0.49446454644203186
200,1.2310702664218423,-0.5677423851896973,2.1680100145313896,0.794929563999176,0.5377299785614014,-0.2809509038925171,-1.4665398597717285,0.3810083568096161,0.3681812882423401,-0.4877701997756958,-0.08577996492385864,0.395498663187027
201,1.4889654221114947,-0.6252192557780348,2.513478590602513,0.8081216216087341,0.5852750539779663,-0.06627732515335083,-1.4139994382858276,-1.2084754705429077,-0.05399138480424881,0.9010764360427856,0.5347506403923035,-0.6093513369560242
202,1.4925578857717547,-0.6248887048891448,2.7346717861307335,0.8085472583770752,0.5850070118904114,-0.0633888691663742,-1.5853790044784546,-0.9800606966018677,-0.08399643748998642,-0.1910393238067627,-0.23161345720291138,-0.2056846022605896
203,1.476108891383757,-0.6567698673825637,2.738609669441211,0.7884210348129272,0.6105619072914124,-0.07487747818231583,0.8732995390892029,1.8429217338562012,-0.3359737992286682,-0.6283714771270752,-0.7957119941711426,0.5452754497528076
204,1.4814836969802387,-0.6349476670549963,2.6337114186709156,0.8018937706947327,0.5931353569030762,-0.071810282766819,1.5649970769882202,2.741243600845337,0.3686518371105194,0.17790353298187256,0.06714284420013428,0.2689843773841858
205,1.4433320398855105,-0.6578033255284496,2.401846853034405,0.784917414188385,0.6113800406455994,-0.10059431940317154,1.2740870714187622,0.06537999212741852,0.30101341009140015,0.6485695242881775,0.26987606287002563,-0.19483107328414917
206,1.300624364440871,-0.5713527910964392,2.226748202709772,0.8106569051742554,0.5407704710960388,-0.2245059758424759,1.6340737342834473,-1.0306873321533203,0.4432750940322876,-0.7326691150665283,0.04757797718048096,0.19746741652488708
207,1.229954553313071,-0.5565013664781574,2.143301752578946,0.8002622127532959,0.5282187461853027,-0.2838404178619385,-0.24688038229942322,-0.15155397355556488,0.02075539156794548,-0.6814115643501282,-0.24144506454467773,0.37139537930488586
208,1.4396881489055986,-0.5920825663092417,2.4109463206614246,0.8226587176322937,0.558090329170227,-0.1084795594215393,-3.95894193649292,-0.6127925515174866,-0.4475649297237396,0.891162633895874,1.0051268339157104,-1.142588496208191
209,1.4825153206672248,-0.5878766018935295,2.63902827677508,0.8288795948028564,0.5545953512191772,-0.07336501777172089,-2.3261585235595703,-1.4392904043197632,0.46269726753234863,0.001274704933166504,0.17053276300430298,0.4087532162666321
210,1.4557713579835472,-0.6265118839395668,2.7443470259597404,0.8047244548797607,0.5863226652145386,-0.09297380596399307,0.6766629219055176,-0.5106590986251831,-0.5552791357040405,-0.3680943250656128,-0.5242652297019958,-0.1386851668357849
211,1.5212326952297273,-0.6431804274422798,2.6921867327436138,0.799209713935852,0.5997434258460999,-0.03964420408010483,-0.11412093788385391,-2.486922264099121,0.15582014620304108,0.19665515422821045,-1.0010952949523926,0.31550782918930054
212,1.5149619705614494,-0.6515523701676256,2.544491214210688,0.7939043641090393,0.6064214706420898,-0.04437325894832611,2.15303373336792,0.18775016069412231,-0.5758383274078369,1.281886100769043,0.9739007949829102,-0.9391472339630127
213,1.3954152778265738,-0.6544159842783441,2.367565949664675,0.7812328934669495,0.6086959838867188,-0.1384357213973999,1.8194912672042847,0.42651695013046265,0.04325911030173302,-0.25579649209976196,-0.06287384033203125,-0.0515209436416626
214,1.2778016357625988,-0.6015691853580702,2.21492966051194,0.7893132567405701,0.5659368634223938,-0.23811772465705872,0.17115139961242676,-1.00730562210083,0.5537207126617432,-0.6804571151733398,-0.3303259015083313,0.3915296196937561
215,1.3289450252510417,-0.6121270716060034,2.322373078457663,0.7946084141731262,0.574609637260437,-0.19601382315158844,-2.1087756156921387,1.6001988649368286,0.4993112087249756,-0.23853236436843872,0.032949626445770264,0.21646058559417725
216,1.5070922957803272,-0.6853170149220368,2.562818093829527,0.77264803647995,0.6329184770584106,-0.04928748682141304,0.08305229246616364,-0.8664413094520569,0.2791045308113098,1.1095082759857178,0.052506327629089355,-0.17857199907302856
217,1.4609057958713612,-0.6524292606522213,2.6623759073161066,0.7898181676864624,0.6071184873580933,-0.08714460581541061,-0.5220425128936768,-0.4221577048301697,0.17150522768497467,-0.32346391677856445,-0.4393024444580078,0.08146835118532181
218,1.4288375758805336,-0.6332637624350035,2.5271787925358575,0.7979916334152222,0.5917788147926331,-0.1140490397810936,2.1328437328338623,3.0605549812316895,0.0001314748078584671,-0.7281368970870972,-0.6649142503738403,0.6119890809059143
219,1.448919305293821,-0.5958962287642741,2.3743144395274762,0.8215064406394958,0.5612507462501526,-0.10062146186828613,0.8550256490707397,2.7081379890441895,-0.2693251669406891,0.6940116882324219,0.6267527341842651,0.07811475545167923
220,1.4027586545773414,-0.5990279049404057,2.2296409292835406,0.8142515420913696,0.5638399124145508,-0.13812747597694397,1.0423997640609741,-0.35404372215270996,0.37976667284965515,0.2732882499694824,0.2789183259010315,-0.15450556576251984
221,1.247394329102543,-0.5307329655263674,2.080168858977745,0.8177273273468018,0.506165623664856,-0.27407708764076233,1.3402296304702759,-0.3004070222377777,0.15267282724380493,-0.5635464787483215,-0.024567782878875732,0.48568597435951233
222,1.2418231179020374,-0.5177130762088046,2.127671805886367,0.8223552703857422,0.49489420652389526,-0.28073400259017944,-1.0953893661499023,0.35871437191963196,0.3227304220199585,-0.7107219696044922,-0.16568586230278015,0.3998899459838867
223,1.4646472239525488,-0.5684229850034518,2.4252301819752593,0.8380075693130493,0.5383036732673645,-0.08928936719894409,-1.1496626138687134,-1.1591092348098755,-0.8604885935783386,1.0891011953353882,0.953685462474823,-1.3247272968292236
224,1.417101911430614,-0.5794403206520932,2.574495969267728,0.8269056081771851,0.547555685043335,-0.12810103595256805,-1.8740721940994263,-1.2211172580718994,0.11481571197509766,0.015562653541564941,0.07868027687072754,0.40973252058029175
225,1.3838991023145748,-0.6042351691362251,2.741733186729926,0.8086058497428894,0.5681328177452087,-0.1529107689857483,-0.4603513777256012,-0.7436507940292358,-0.10854840278625488,-0.5783812403678894,-0.482973575592041,0.04182678461074829
226,1.3636835362954909,-0.607032454221976,2.735499860886622,0.8037912249565125,0.5704326033592224,-0.1688973754644394,0.07826194167137146,0.3900727927684784,0.009251734241843224,-0.30086153745651245,-0.5490855574607849,0.21517729759216309
227,1.430345769712778,-0.6399679320159204,2.712787962765384,0.7942163944244385,0.5971696972846985,-0.11228745430707932,1.9291704893112183,-0.3228108286857605,-0.7041812539100647,1.333820104598999,0.5014172792434692,-0.5928364396095276
228,1.2946016653671344,-0.6197756234988406,2.5853464144028933,0.783158004283905,0.5808525085449219,-0.2219773828983307,0.5881134271621704,-0.526207685470581,0.3679882884025574,-0.2754218578338623,-0.018520355224609375,0.3245927095413208
229,1.2492262632721325,-0.6195666249047577,2.610589551956828,0.772398054599762,0.5806823968887329,-0.2573111355304718,-0.2505814731121063,-0.6904070377349854,-0.1142445057630539,-0.6063520312309265,-0.4186035990715027,0.4643271863460541
230,1.4065167843317932,-0.6412085507652087,2.783332155038908,0.7905840277671814,0.5981643795967102,-0.13105788826942444,-3.2860028743743896,2.7498133182525635,0.13834045827388763,0.19690370559692383,0.3961745500564575,0.15194721519947052
231,1.4697771650165845,-0.6580835760582281,2.987541613225325,0.7871323823928833,0.6116017699241638,-0.07978704571723938,-0.7706167101860046,-1.3899906873703003,0.7187198400497437,0.5403212308883667,0.09240823984146118,0.307234525680542
232,1.4659741473898504,-0.6591045275048415,3.1158682642884803,0.7862018942832947,0.6124091744422913,-0.08271456509828568,-0.08061462640762329,-0.21001189947128296,-0.0830351933836937,-0.14034312963485718,-0.35886919498443604,0.06406831741333008
233,1.433669487440331,-0.6641872547642499,3.0004825628496246,0.7800264358520508,0.6164193749427795,-0.10763807594776154,1.4100013971328735,1.1878305673599243,-0.04489193484187126,-0.5041933059692383,-0.8131662011146545,0.48079174757003784
234,1.470054519405877,-0.6546714032603701,2.852018559774027,0.7892261743545532,0.6088986396789551,-0.07977814227342606,1.2267097234725952,2.58738112449646,-0.4679221212863922,0.9988139867782593,0.8285861015319824,-0.5049538612365723
235,1.4245147257196045,-0.673999714104971,2.6462868662379413,0.772986888885498,0.624116063117981,-0.1138872504234314,0.7066440582275391,-0.6242896318435669,0.3587070405483246,0.003990590572357178,0.11152535676956177,-0.4247937798500061
236,1.270939464398582,-0.6247247662761729,2.4614929867161317,0.7749306559562683,0.5848740339279175,-0.23959261178970337,1.64213228225708,-0.17377349734306335,-0.08317408710718155,-0.5130441188812256,0.01858043670654297,0.23394688963890076
237,1.187199040784347,-0.6121121147496079,2.300550747645739,0.7589559555053711,0.5745973587036133,-0.30630695819854736,0.3435550332069397,0.528818666934967,0.049954406917095184,-0.41865432262420654,-0.1934937834739685,0.6121693849563599
238,1.3505997904775857,-0.6593054921812666,2.4681864658732398,0.7713329195976257,0.6125680208206177,-0.17264419794082642,-0.7899138331413269,0.4091253876686096,-0.19200855493545532,1.017988920211792,0.6223105192184448,-0.3480619788169861
239,1.414670422267286,-0.6619837020914809,2.678359090437124,0.7791807055473328,0.6146827340126038,-0.1226484477519989,-1.4753719568252563,-0.8167985677719116,0.171707883477211,-0.09224528074264526,-0.05837780237197876,-0.03007674217224121
240,1.3971551169423724,-0.6673606477378964,2.750911385287921,0.773646354675293,0.6189150214195251,-0.13570351898670197,0.9125473499298096,0.03253021091222763,-0.1890522986650467,-0.6139631867408752,-0.5289187431335449,-0.011345446109771729
241,1.4210691857221611,-0.6440402201727633,2.6440442223107565,0.7907295227050781,0.6004312038421631,-0.11928640305995941,0.47557416558265686,-0.4306918680667877,0.13323424756526947,-0.3596992492675781,-0.7658517360687256,-0.1413184404373169
242,1.4469921846534677,-0.6537589507456425,2.5697983176607693,0.7877275943756104,0.6081745624542236,-0.09802527725696564,1.674838662147522,0.12461882829666138,-0.2695644497871399,1.1166303157806396,0.4417826533317566,-0.6744814515113831
243,1.3083611253374425,-0.6214651399953144,2.338490369844569,0.7851892113685608,0.5822269916534424,-0.21092598140239716,2.3428244590759277,0.15633495151996613,-0.08378100395202637,-0.2594170570373535,-0.04192852973937988,0.09210580587387085
244,1.1710217539590477,-0.5644623712043213,2.1708114456827006,0.7782567739486694,0.5349616408348083,-0.3288349211215973,0.029962938278913498,-0.8633026480674744,-0.02256704866886139,-0.7957128286361694,-0.2775154113769531,0.5912708640098572
245,1.3013186898500961,-0.5851585586740677,2.3304591488290645,0.8035391569137573,0.5523315668106079,-0.22193416953086853,-4.159541130065918,2.749988079071045,0.3042553961277008,0.21986782550811768,0.7400268316268921,0.40134698152542114
246,1.4382085774977522,-0.6319697306669568,2.6601652281599364,0.7997837066650391,0.5907351970672607,-0.10666730999946594,-1.6209733486175537,-1.838728666305542,0.3412148654460907,0.27026939392089844,0.21892666816711426,-0.14295125007629395
247,1.42040217397465,-0.658302065309705,2.8093652444418704,0.7821030616760254,0.6117746233940125,-0.1185186430811882,-0.283784955739975,-0.7782421112060547,-0.06363113224506378,-0.0005021095275878906,-0.753147304058075,-0.1954767107963562
248,1.50502405186942,-0.6521788485963933,2.7300972301456015,0.793044924736023,0.606919527053833,-0.052235715091228485,-0.4171452820301056,4.920912265777588,0.967126727104187,-0.629531741142273,-0.928605318069458,0.9270067811012268
249,1.5291471122559563,-0.6131698797030362,2.6519609324425826,0.8171186447143555,0.5754627585411072,-0.0340520404279232,3.506834030151367,0.8269660472869873,-1.2181107997894287,1.38127601146698,1.0501322746276855,-0.9268396496772766
250,1.3985211532531052,-0.6288570135843089,2.309239451617753,0.7967295050621033,0.5882208347320557,-0.13863089680671692,1.5374723672866821,0.2588553726673126,0.04428854584693909,0.002098679542541504,-0.005304574966430664,-0.1203717589378357
251,1.2678290583383427,-0.5730773676062716,2.1301879615392476,0.8019681572914124,0.5422203540802002,-0.2506875693798065,0.9541058540344238,-0.9917247891426086,0.19595423340797424,-0.6080136895179749,-0.1766960620880127,0.2966623306274414
252,1.2554198054344163,-0.5794610939259681,2.143621487328313,0.7954888343811035,0.5475730895996094,-0.25954094529151917,-1.1182907819747925,0.5243555903434753,0.12651216983795166,-0.594988226890564,-0.0684775710105896,0.37222710251808167
253,1.4864868233326942,-0.6328279435831883,2.456831263939908,0.8034940361976624,0.5914274454116821,-0.06790314614772797,-0.9407987594604492,-0.9816892147064209,-0.0177852101624012,1.3674806356430054,0.6389039158821106,-0.9300979375839233
254,1.4951106349769647,-0.6263018094489388,2.605769562834778,0.807881236076355,0.5861524939537048,-0.06126207113265991,-0.8797667026519775,-0.24798889458179474,0.022509880363941193,-0.07411664724349976,-0.2069869041442871,0.09434312582015991
255,1.441734801000915,-0.6347932648023438,2.6016350228817267,0.7984975576400757,0.5930110812187195,-0.10363134741783142,1.1705031394958496,-0.1477106362581253,0.023022398352622986,-0.633717954158783,-0.849526584148407,0.1344541311264038
256,1.536699638541512,-0.6129711937012338,2.5214224112480124,0.8174668550491333,0.5753002762794495,-0.02788371779024601,0.6156842112541199,3.2398123741149902,-0.6328059434890747,0.5262220501899719,0.48825252056121826,0.44444864988327026
257,1.4497239614854023,-0.6329528883205275,2.2293710174426407,0.8003821969032288,0.5915281772613525,-0.09738045185804367,1.9742131233215332,0.5330838561058044,-0.2784142792224884,0.7373986840248108,0.32398390769958496,-0.20752067863941193
258,1.3305048998805913,-0.581833169116327,2.051872193977226,0.8114528656005859,0.5495563745498657,-0.19882673025131226,1.3835101127624512,-0.8096255660057068,0.3464430570602417,-0.5158138275146484,0.070179283618927,0.041005074977874756
259,1.259160935053235,-0.5668825358697848,2.0103466873807383,0.8029468655586243,0.537004828453064,-0.2586545944213867,-0.5007601380348206,-0.11889450997114182,0.036601580679416656,-0.7241809368133545,-0.15938031673431396,0.4378232955932617
260,1.4519289314153658,-0.5749307825914419,2.2303292644745527,0.8333078622817993,0.5437766909599304,-0.09952231496572495,-3.6305859088897705,0.3182002902030945,-0.4418075978755951,0.5952045917510986,1.1901557445526123,-0.6945603489875793
261,1.4657807770155884,-0.6098941569404432,2.384794395370343,0.8151928186416626,0.5727807283401489,-0.08592401444911957,-0.944657564163208,0.03052261471748352,0.013493216596543789,0.4425891637802124,0.0575292706489563,0.18417537212371826
262,1.4638080220784653,-0.6117877451480545,2.5155752541028074,0.8139417171478271,0.5743318796157837,-0.08741603791713715,0.07662881165742874,-1.235771656036377,-0.2583974301815033,-0.4282606840133667,-0.550818145275116,-0.24134980142116547
263,1.4920243140507528,-0.5908974566279735,2.403449486895356,0.8278658390045166,0.5571065545082092,-0.06534788012504578,0.01993611827492714,1.6509902477264404,1.0936827659606934,0.14939850568771362,-0.9367300271987915,0.9485113024711609
264,1.44927395085244,-0.6115669817924165,2.272168696151296,0.812711238861084,0.5741511583328247,-0.0992516502737999,2.9630942344665527,0.598192572593689,-1.0456427335739136,1.163881778717041,0.6456669569015503,-0.5704108476638794
265,1.3222828836487608,-0.6021581935987409,2.003544426394592,0.798797607421875,0.5664224028587341,-0.2027021199464798,1.7567118406295776,-0.1479409784078598,0.037251800298690796,-0.0653533935546875,-0.14286887645721436,0.011189043521881104
266,1.1832236613541343,-0.537742360760539,1.8855424440251558,0.7951644062995911,0.512198269367218,-0.3246022164821625,0.20311707258224487,-0.8041749000549316,0.12459909915924072,-0.7253401875495911,-0.17337685823440552,0.5193654298782349
267,1.259340089776463,-0.5310875155653768,1.9908507496616574,0.8207721710205078,0.5064713358879089,-0.26423439383506775,-2.421133041381836,1.704246997833252,1.084038257598877,-0.12133979797363281,0.4953444004058838,0.39900004863739014
268,1.388426609752772,-0.5812164724950343,2.237540408446121,0.8219350576400757,0.5490410923957825,-0.15158025920391083,-0.020963259041309357,-0.018849685788154602,0.10145794600248337,0.951212465763092,0.42787235975265503,0.08930917084217072
269,1.4636482115469842,-0.5702770281630054,2.4162232733867004,0.8369240760803223,0.539865255355835,-0.0900195986032486,-1.1315863132476807,-0.9300635457038879,-0.008358554914593697,-0.32042938470840454,-0.45375996828079224,-0.3770824074745178
270,1.403459255874685,-0.5696018612769096,2.372549039050759,0.830352783203125,0.5392968058586121,-0.14026042819023132,1.455147385597229,0.9203392863273621,0.3462117612361908,-0.673751950263977,-0.8852593898773193,0.3144853115081787
271,1.5492352219724563,-0.5521567800263044,2.338957906176061,0.8511974215507507,0.5245247483253479,-0.018355602398514748,0.7698123455047607,0.14726534485816956,-0.7605113983154297,0.766051173210144,0.4644279479980469,-0.8473212718963623
272,1.405209976749491,-0.6187115086650468,2.053602742414589,0.8034838438034058,0.5799859762191772,-0.1342754364013672,1.5647683143615723,-0.31785082817077637,-0.12908831238746643,0.15374571084976196,-0.04980415105819702,-0.12581060826778412
273,1.284215313148951,-0.5482031617406634,2.0002918970034718,0.8186545372009277,0.521154522895813,-0.2412518560886383,0.16175182163715363,-1.215657353401184,0.48741549253463745,-0.5222069025039673,-0.05039048194885254,0.17702768743038177
274,1.269840325282961,-0.511806151626798,2.0258261447155785,0.8326743841171265,0.48975276947021484,-0.25844883918762207,-0.591091513633728,-0.21485409140586853,0.3778347969055176,-0.4236319065093994,-0.006049096584320068,0.4100448787212372
275,1.4793240619043941,-0.5442804865255209,2.2750218493761754,0.851923406124115,0.5178026556968689,-0.07814543694257736,-3.8352062702178955,0.04121045768260956,-1.2724541425704956,0.7713675498962402,1.4469647407531738,-0.7464547753334045
276,1.4408026794765132,-0.5877296056871364,2.296382937177222,0.8251802921295166,0.5544730424880981,-0.10787652432918549,0.050209932029247284,0.5242511034011841,0.34680601954460144,0.19070422649383545,-0.6002493500709534,0.4746978282928467
277,1.4574107288952498,-0.5547528491666197,2.433756237148562,0.8445723652839661,0.5267332196235657,-0.09617485105991364,-1.0381190776824951,-0.49952682852745056,0.21369633078575134,-0.7797835469245911,-0.619064211845398,-0.34947335720062256
278,1.6346417019730652,-0.6177282782460377,2.300808971146371,0.8135354518890381,0.5791847705841064,0.052011165767908096,2.2099506855010986,9.150569915771484,-0.32538899779319763,0.6931631565093994,-0.044959306716918945,0.7448028326034546
279,1.7226772155699412,-0.6035157850773603,2.2491191822375067,0.8138672709465027,0.56754070520401,0.12457022070884705,3.5900866985321045,2.8429970741271973,0.4556198716163635,0.3343260884284973,0.7180275917053223,0.17691302299499512
280,1.4864801065870898,-0.5572308852889932,1.9719634313642558,0.8457078337669373,0.528838038444519,-0.07147634774446487,0.3924165964126587,-0.30581918358802795,0.42973530292510986,0.277567982673645,0.20172226428985596,-0.015651345252990723
281,1.3896731017164492,-0.5022412995636789,2.0133271241054467,0.8621678352355957,0.4813912510871887,-0.1578889638185501,-0.46618542075157166,-1.1357760429382324,0.783676028251648,-0.509125292301178,-0.12255033850669861,-0.11596046388149261
282,1.309568650880435,-0.4508758915294579,2.048010357564147,0.8695298433303833,0.43575406074523926,-0.23245708644390106,0.4180033802986145,-0.671758234500885,-0.14813005924224854,-0.5209885835647583,0.22890356183052063,0.055211007595062256
283,1.2433846634656602,-0.4788371437238302,1.948530892320329,0.8403837084770203,0.4607474207878113,-0.2854240834712982,0.9032193422317505,0.04453321173787117,-0.9983405470848083,0.06490492820739746,0.2522500157356262,0.35912400484085083
284,1.2362369256470467,-0.5326944070669288,1.890577084562593,0.8136792182922363,0.5078562498092651,-0.2828570306301117,-0.4362665116786957,1.086700201034546,-0.35843923687934875,0.6562914848327637,0.13589680194854736,0.17754089832305908
285,1.349139918932259,-0.5417868438810736,1.9924464752389945,0.8358269929885864,0.515667736530304,-0.18836139142513275,-0.48422232270240784,-0.1882394254207611,0.10895165801048279,0.19408023357391357,0.16817015409469604,-0.528710126876831
286,1.343891343601322,-0.5363089128838662,2.0167384947860634,0.8375665545463562,0.5109665989875793,-0.19337822496891022,-0.47587546706199646,-0.3130256235599518,0.3196083605289459,-0.5338709950447083,-0.5157427191734314,0.022739186882972717
287,1.338835215283276,-0.5196237128631107,2.065636509962408,0.8447586297988892,0.49655354022979736,-0.19954292476177216,0.6146358847618103,-0.8240603804588318,-0.12270965427160263,-0.34571993350982666,0.10818275809288025,-0.27599722146987915
288,1.332423273824357,-0.5326943596908937,1.8486632250515456,0.8370832800865173,0.5078561902046204,-0.20340538024902344,1.5808308124542236,3.3041582107543945,-1.186657428741455,0.6847520470619202,0.6273214221000671,0.8832912445068359
289,1.5165575723732625,-0.4935363858876316,1.9877320209598865,0.8793679475784302,0.473743200302124,-0.04774264991283417,-4.529685020446777,-6.3139777183532715,0.9732962846755981,-0.34993380308151245,0.08753609657287598,-0.5558187961578369
290,1.4587867215235568,-0.5174542555573428,2.0989964374990815,0.8636350631713867,0.4946692883968353,-0.09714201092720032,1.3909531831741333,0.3552771210670471,-0.5389657616615295,0.6815155744552612,0.008962184190750122,-0.9460708498954773
291,1.3147650041834407,-0.5275345662143741,2.053199524682601,0.8358850479125977,0.5034046173095703,-0.21881502866744995,-0.8394700884819031,-1.4768028259277344,0.6961259245872498,-0.42875003814697266,-0.4436665177345276,0.13109226524829865
292,1.1815775682042784,-0.50522485801105,2.1848380276616393,0.8096157908439636,0.4840042293071747,-0.3320574164390564,-0.750276505947113,-1.356152057647705,-0.1498250514268875,-0.3891294002532959,0.03442835807800293,0.18429133296012878
293,1.0790303791204314,-0.5531876359317479,2.145283664070952,0.7500281929969788,0.5254021286964417,-0.4017591178417206,0.7762889266014099,-0.03116142749786377,-1.0421690940856934,0.26918262243270874,0.17015451192855835,0.4110822081565857
294,1.0950068881022552,-0.6014543471729927,2.1431185368650634,0.7329360842704773,0.5658422112464905,-0.37766051292419434,-0.8770067095756531,0.9921045899391174,0.1989051252603531,0.8071030378341675,0.08514350652694702,0.07367491722106934
295,1.285138563937009,-0.5972557349703767,2.280639808828164,0.7933738827705383,0.5623754262924194,-0.23300595581531525,-0.8169998526573181,0.5473374128341675,0.5815354585647583,0.1484900712966919,0.5225855708122253,-0.5061145424842834
296,1.291548957680414,-0.5691649792575944,2.379153949889613,0.8097212314605713,0.5389288663864136,-0.2321791648864746,-0.3709215223789215,-0.9199711680412292,0.5148175358772278,-0.5492385029792786,-0.2871283292770386,-0.0813431590795517
297,1.3292798202637508,-0.5399300898788952,2.4495850158692063,0.8328498005867004,0.5140760540962219,-0.20515140891075134,-0.6173301935195923,0.10675426572561264,0.28429338335990906,-0.5992224812507629,-0.20728284120559692,-0.03592216968536377
298,1.4737069928229967,-0.5720639290500865,2.33541632141966,0.8368257284164429,0.5413685441017151,-0.08150310069322586,2.3426051139831543,6.299324989318848,-0.2041037380695343,1.388195514678955,-0.1500111222267151,1.0379393100738525
299,1.6825936405522224,-0.4044306143929235,2.479556253267825,0.9135873317718506,0.3934953808784485,0.1025642678141594,0.2538658380508423,-1.7450190782546997,-0.6556949019432068,-0.41039830446243286,0.8853436708450317,-1.6710761785507202
300,1.511713822478509,-0.5387399491300366,2.4951574255143485,0.8568581342697144,0.5130548477172852,-0.05068431422114372,1.677126407623291,0.00583996344357729,-1.66714346408844,0.8002310991287231,0.5486364364624023,-0.8812767267227173
301,1.3274227920680262,-0.5781169457704809,2.281998830688712,0.8128127455711365,0.5464478731155396,-0.20181754231452942,0.9383910298347473,-1.4856666326522827,0.3175249397754669,-0.2824171781539917,-0.332916259765625,0.22087571024894714
302,1.2043344653565808,-0.5186915859301685,2.226465297229837,0.8108031749725342,0.4957442581653595,-0.3111848831176758,-0.4853587746620178,-0.6364317536354065,-0.19091883301734924,-0.6435819864273071,-0.23295733332633972,0.4522370994091034
303,1.1583265695759144,-0.6109461277150127,2.228384053665136,0.7504101991653442,0.5736426711082458,-0.3283574879169464,0.8051280379295349,-0.12665490806102753,-0.7623406648635864,0.3986223340034485,-0.11597061157226562,-0.020977258682250977
304,1.1145503564022545,-0.584157299991499,2.104762762414481,0.7488514184951782,0.5514966249465942,-0.3675227463245392,0.1289151906967163,1.945102334022522,0.029643652960658073,0.5964701771736145,0.036744892597198486,0.9289088249206543
305,1.3449562764425567,-0.6077261915509354,2.346607135859204,0.8001015782356262,0.5710022449493408,-0.18383100628852844,-2.3552193641662598,0.5646413564682007,0.8713367581367493,0.305641770362854,0.7545134425163269,-0.5752937197685242
306,1.3971560760899482,-0.5667366891723831,2.5892301900076453,0.830970823764801,0.5368818044662476,-0.14575783908367157,-1.1302534341812134,-1.3569011688232422,1.1043282747268677,-0.5591354966163635,-0.25007760524749756,-0.23102742433547974
307,1.4287049634780868,-0.49527476587539204,2.6988976211261564,0.870971143245697,0.4752734303474426,-0.12459714710712433,-1.2133287191390991,-0.10404341667890549,0.5221333503723145,-0.5358728766441345,-0.19612914323806763,0.00039064884185791016
308,1.4502107857665287,-0.524218580872513,2.6779237085717313,0.859428882598877,0.5005366802215576,-0.10413994640111923,1.4983775615692139,1.773959994316101,-0.9414768218994141,-0.04750871658325195,-0.05810809135437012,0.17367428541183472
309,1.6855809396094616,-0.4437528681963502,2.628111395812051,0.8972036242485046,0.42933186888694763,0.10343986004590988,-1.1291636228561401,2.5001776218414307,1.46522855758667,0.6655405163764954,0.22214213013648987,0.7027124166488647
310,1.537204337338278,-0.46143776287406774,2.609879615857424,0.8949081301689148,0.4452359676361084,-0.030073055997490883,-0.681494414806366,-2.160315990447998,-1.1089627742767334,0.014851391315460205,0.5648500919342041,-0.5975362062454224
311,1.432552800214713,-0.5409191539365912,2.5307803853542907,0.8490573763847351,0.514924168586731,-0.11813018471002579,1.2023158073425293,-0.7661580443382263,-0.3044203519821167,0.0021083950996398926,-0.15936380624771118,-0.19166898727416992
312,1.304474551485094,-0.5235341714662611,2.4538390837895334,0.8355252742767334,0.4999440610408783,-0.2279331237077713,0.21600735187530518,-0.6617888808250427,0.010136786848306656,-0.4681699275970459,-0.2548116147518158,0.3069126009941101
313,1.255858870028229,-0.5550054670485899,2.4807473786958973,0.8080961108207703,0.5269479751586914,-0.2632617652416229,-0.09171691536903381,-0.5674309730529785,-0.5538812875747681,-0.16667765378952026,-0.07524198293685913,0.0004290938377380371
314,1.1762700554118826,-0.5936821516998949,2.3918902434322162,0.7652105093002319,0.5594168901443481,-0.3185998797416687,1.1071178913116455,0.06305185705423355,-0.44625937938690186,0.3893764019012451,0.006684243679046631,-0.05131891369819641
315,1.2251381351796897,-0.5943411315271498,2.318424060395412,0.7795129418373108,0.5599629878997803,-0.2807150185108185,-2.125319004058838,-1.0781105756759644,-0.1956215649843216,0.6643652319908142,0.37160128355026245,0.1560964584350586
316,1.4009992059409424,-0.59637788538206,2.529639541746639,0.8154770731925964,0.5616493225097656,-0.13981188833713531,-1.8647383451461792,-0.1347695142030716,0.6296082735061646,-0.11088711023330688,0.40703970193862915,-0.3830763101577759
317,1.4273705190453416,-0.5409136437533987,2.6720948712306964,0.8484365344047546,0.5149194002151489,-0.1225290298461914,-0.5795124769210815,-0.6672342419624329,0.8627946972846985,-0.6344625949859619,-0.4363061785697937,-0.1337575912475586
318,1.4873774963953674,-0.4935928027618939,2.7650641465686903,0.8775740265846252,0.4737928807735443,-0.07337647676467896,-0.4931107461452484,0.23893901705741882,-0.01573609746992588,-0.46311479806900024,0.004890561103820801,-0.19336241483688354
319,1.7909027114231573,-0.5403175881613536,2.6531672456956157,0.8368565440177917,0.5144083499908447,0.18723085522651672,-1.4808671474456787,5.439802646636963,0.6515613794326782,1.540737509727478,-0.30131930112838745,1.4395544528961182
320,1.8849566608830512,-0.4637038546234564,2.770434958604896,0.8506264686584473,0.4472638964653015,0.2763862907886505,1.7895309925079346,-1.1645026206970215,-0.169049471616745,0.4826558828353882,0.24702617526054382,-1.3505744934082031
321,1.5609738688258479,-0.5150852711704893,2.6318444221720254,0.8702089190483093,0.49260905385017395,-0.00854786578565836,1.2854890823364258,-1.8769752979278564,-0.3658725619316101,0.5900877714157104,0.4391994774341583,-0.46516120433807373
322,1.4375275333539674,-0.5124245453260394,2.560006176885716,0.8638301491737366,0.4902918040752411,-0.11580802500247955,-0.48899775743484497,-1.749447226524353,0.6040287613868713,-0.4331660866737366,-0.19247078895568848,0.024957239627838135
323,1.2507324384268446,-0.471905234907194,2.6070795222293177,0.84546959400177,0.45458412170410156,-0.28023961186408997,-0.1970982551574707,-1.0799360275268555,-0.21588078141212463,-0.6889297962188721,0.09723466634750366,0.29642924666404724
324,1.124997222722929,-0.5768405154754309,2.464305556097635,0.7562706470489502,0.5453783869743347,-0.3614099323749542,1.379014492034912,-0.4394823908805847,-1.4915615320205688,0.3969123363494873,-0.011915862560272217,0.11871892213821411
325,1.070900000600278,-0.5785794526188419,2.2293091913785474,0.7347890734672546,0.5468351244926453,-0.40131819248199463,1.8527086973190308,4.708144664764404,0.23289209604263306,1.151792287826538,-0.45125412940979004,1.0889556407928467
326,1.1850266048912639,-0.5913878939415397,2.345032729583853,0.769157886505127,0.5575137734413147,-0.312369167804718,-1.3000907897949219,1.3708763122558594,0.48293188214302063,0.08257240056991577,0.3812679052352905,-0.1245357096195221
327,1.3648752648223403,-0.5605570085607142,2.541218280502989,0.8290653824806213,0.5316580533981323,-0.17317673563957214,-1.203073263168335,-0.5164702534675598,0.7632264494895935,-0.3922673463821411,-0.0955771803855896,-0.49659252166748047
328,1.339224571783891,-0.5098870433303484,2.6309681635978093,0.8495018482208252,0.48807865381240845,-0.20031414926052094,-0.8373077511787415,-0.4937572777271271,0.49202990531921387,-0.58833247423172,-0.20157963037490845,0.23666059970855713
329,1.3592007990290418,-0.5175525730687964,2.681034160242032,0.8496508598327637,0.49475473165512085,-0.18251436948776245,0.7186843156814575,1.2052913904190063,-0.9974471926689148,-0.14031541347503662,0.09466183185577393,0.13089387118816376
330,1.5405302886008156,-0.5005874510259696,2.629321800925016,0.8768990635871887,0.4799409806728363,-0.026548368856310844,-1.5730559825897217,0.38878899812698364,1.246867299079895,0.49150919914245605,-0.03790906071662903,0.6052531599998474
331,1.4764391413226727,-0.5053343044892896,2.6139548147893397,0.8711203932762146,0.48409998416900635,-0.08244127780199051,0.44464728236198425,-2.300569534301758,-0.041082724928855896,-0.1334800124168396,-0.050536781549453735,-0.2838764786720276
332,1.3555971810881466,-0.5564750563181993,2.4979163771007076,0.8295363187789917,0.528196394443512,-0.18132324516773224,2.131854772567749,-0.5081653594970703,-1.1233030557632446,0.281562864780426,0.22139161825180054,-0.655194103717804
333,1.1866639841468134,-0.5657265369122932,2.344600945934347,0.782677412033081,0.5360292792320251,-0.3163678050041199,0.10227972269058228,-0.8133060336112976,0.29444560408592224,-0.34911417961120605,-0.3087496757507324,0.4250409007072449
334,1.1685120759165137,-0.575443583164348,2.4025103473025196,0.7719768285751343,0.544206976890564,-0.3284671902656555,-0.6845893263816833,-0.17598067224025726,-0.33425307273864746,-0.2629283666610718,-0.08595502376556396,0.03272134065628052
335,1.1009672756653417,-0.6141776679005904,2.2939652879004644,0.728695273399353,0.5762866735458374,-0.369995653629303,0.6474283933639526,-0.2199193835258484,-0.6429924368858337,0.3825870156288147,0.019904673099517822,0.26899775862693787
336,1.1552200480284187,-0.6079983524561121,2.213162211703919,0.7509303092956543,0.571225643157959,-0.3313682973384857,-0.8252766132354736,0.6933246850967407,0.06797557324171066,0.7286686897277832,0.12420892715454102,0.1220940351486206
337,1.3268422501464943,-0.6120071571750362,2.336170080441659,0.7942613363265991,0.5745114684104919,-0.19770090281963348,-1.4678610563278198,0.5547369122505188,0.6239177584648132,0.11810749769210815,0.5183077454566956,-0.3741832375526428
338,1.386323483145304,-0.5598229597820591,2.4642655411510637,0.8329722881317139,0.5310361981391907,-0.15542785823345184,-0.034381575882434845,0.43373903632164,0.535347580909729,-0.6202647686004639,-0.16366565227508545,-0.07693295180797577
339,1.4540253452541605,-0.5430568096773342,2.4705060884509713,0.8503026366233826,0.5167554616928101,-0.09974443912506104,0.24677714705467224,0.4284174144268036,-0.3465441167354584,-0.3934394121170044,-0.17305129766464233,-0.19101177155971527
340,1.4480995524550848,-0.5845600609288045,2.35324065978517,0.8276852965354919,0.5518325567245483,-0.1020670235157013,1.7906075716018677,2.0426688194274902,-0.8397809863090515,0.2004212737083435,0.10400539636611938,0.2685557007789612
341,1.6685504042306696,-0.5146167245070399,2.366075889088362,0.8663257360458374,0.4922012388706207,0.08495765924453735,0.29433727264404297,-3.143707752227783,0.06725212931632996,-0.2129291296005249,0.3305068910121918,-1.305065631866455
342,1.5207868358572978,-0.5406714110434948,2.3105140692386135,0.8562912940979004,0.5147117376327515,-0.04285842925310135,-0.724735677242279,-0.7884615659713745,-0.42189282178878784,0.10231149196624756,0.30840831995010376,-0.34772080183029175
343,1.4230431649013449,-0.5651410153726354,2.274600374615008,0.8353115916252136,0.5355349183082581,-0.12432596832513809,0.22496002912521362,-0.9955310225486755,0.006514739245176315,-0.13790863752365112,-0.2600831985473633,-0.023562192916870117
344,1.298121892089193,-0.5392344096591879,2.2594407683693354,0.8263986110687256,0.5134791731834412,-0.23109374940395355,0.2895200550556183,-0.6615126729011536,-0.09401998668909073,-0.5835093259811401,-0.26991844177246094,0.18014469742774963
345,1.2519212901144947,-0.6135332267966911,2.2165582197471063,0.7764015793800354,0.5757598876953125,-0.25632229447364807,0.1951470673084259,-0.262078195810318,-0.9906616806983948,0.24016940593719482,-0.1499481201171875,0.09912624955177307
346,1.1994077418115479,-0.6267255431118298,2.1048906909959704,0.7547333836555481,0.5864957571029663,-0.29393959045410156,0.8214146494865417,0.11807283759117126,-0.22589825093746185,0.5174529552459717,0.05066549777984619,0.15166664123535156
347,1.2524183386597607,-0.6441655259717916,2.0923381310094196,0.7594166398048401,0.6005313992500305,-0.25029629468917847,-1.6672310829162598,0.5814112424850464,0.08576388657093048,0.31109410524368286,0.1888667345046997,0.12822601199150085
348,1.3760775933977736,-0.6583396784978114,2.247184374048571,0.7760607004165649,0.6118043661117554,-0.15305282175540924,-0.11835134774446487,0.24697871506214142,0.23423458635807037,0.10852175951004028,0.08196693658828735,-0.40633440017700195
349,1.3050028191178609,-0.6068853207366517,2.251049396195988,0.7925834655761719,0.5703117251396179,-0.2157687097787857,0.18840163946151733,-1.5206021070480347,0.4145422875881195,-0.4539756774902344,-0.21282881498336792,-0.08554661273956299
350,1.2241672416120934,-0.5683614639206288,2.2109198757111,0.7926580905914307,0.5382518172264099,-0.28631848096847534,1.7016314268112183,0.5864560008049011,-0.6615509390830994,-0.2641392946243286,0.023683607578277588,0.046099334955215454
351,1.2230409482613325,-0.5377342978072878,2.078717173807906,0.8074594736099243,0.5121913552284241,-0.29269343614578247,0.7637531757354736,2.299126148223877,-0.7165194153785706,0.09766143560409546,0.3456577658653259,0.23843318223953247
352,1.3796770367145286,-0.5168027084094178,2.005279903959677,0.8535735011100769,0.49410292506217957,-0.16515006124973297,0.6764650344848633,2.1483263969421387,-0.4606380760669708,0.07469487190246582,0.22032880783081055,-0.13401371240615845
353,1.474618791166636,-0.5478910091098346,1.9358177707196456,0.8496800661087036,0.520888090133667,-0.08197304606437683,0.47462886571884155,0.4257904589176178,-0.3951253890991211,0.0021723508834838867,0.09057736396789551,-0.39800745248794556
354,1.442792957819114,-0.5439322333272375,1.879599279605745,0.8486799001693726,0.5175046920776367,-0.1092311218380928,0.619587242603302,-0.8985419869422913,0.43917229771614075,-0.515366792678833,-0.22496318817138672,-0.07153971493244171
355,1.336794670936308,-0.4991264385137304,1.8002969540977658,0.8540722131729126,0.4786587357521057,-0.20358380675315857,1.2916524410247803,-0.5332057476043701,0.3721541166305542,-0.10561341047286987,-0.08280003070831299,-0.060240596532821655
356,1.270202559341268,-0.43902889136648043,1.7044788932593191,0.8645780682563782,0.4250606596469879,-0.26800793409347534,-0.33055979013442993,-1.101453185081482,0.9677436947822571,0.4111940264701843,0.03253519535064697,0.29393261671066284
357,1.2065509018635436,-0.4627920285066805,1.7231338713184674,0.8361034989356995,0.4464481770992279,-0.31877079606056213,-0.9093080759048462,0.03203536570072174,-0.4172719717025757,0.4273393750190735,0.3548213541507721,0.5134118795394897
358,1.1485052598243588,-0.5378286924844726,1.7573697837843067,0.7833774089813232,0.5122724175453186,-0.35198974609375,0.6513786911964417,-2.8661835193634033,-0.3301968276500702,0.009804904460906982,0.1677965521812439,-0.6683349609375
359,0.8141895675814699,-0.5330951038906491,1.716634236445716,0.6262661814689636,0.5082014203071594,-0.5912038087844849,-0.18013593554496765,-2.514859914779663,1.0924537181854248,0.3213045597076416,-0.4097974896430969,0.7220632433891296
360,0.8269809419752037,-0.403086619350278,2.1341286633862047,0.6769123077392578,0.3922594487667084,-0.6228340864181519,-1.7729960680007935,0.3713301122188568,5.489536762237549,0.6005229949951172,-0.840532124042511,0.34516990184783936
361,1.007949440843125,-0.020359708241996028,2.5717066719391433,0.8455641865730286,0.02035830169916153,-0.533485472202301,0.7367368340492249,2.1999473571777344,5.305562973022461,0.21501320600509644,-0.2776672840118408,-0.3522108793258667
362,0.9940256108721413,0.3937891135286423,2.813202595946102,0.7740715742111206,-0.3836902678012848,-0.5035821199417114,-0.7012324929237366,-2.6120336055755615,4.751720905303955,0.3004370927810669,0.1871112883090973,-0.7034949064254761
363,0.6099309651250252,0.6808057354506958,3.0371382271414014,0.44511178135871887,-0.6294193267822266,-0.6369512677192688,-0.16171890497207642,-2.258206367492676,1.7117964029312134,0.17320486903190613,0.38016700744628906,0.04549002647399902
364,0.2829430079562547,0.6780678569269417,-3.013749593748855,0.21742375195026398,-0.6272894740104675,-0.7478200793266296,-0.8938624858856201,-1.8831456899642944,1.2604749202728271,0.23402278125286102,0.35771244764328003,0.13948267698287964
365,0.04511777205701711,0.6313304125057556,-2.926935586622,0.03640865162014961,-0.590219259262085,-0.8064215183258057,-0.09518029540777206,-0.9331215023994446,0.5045002698898315,0.07969547808170319,0.25853896141052246,0.37694764137268066
366,0.001422950498652018,0.6452846169018884,-2.941410639979539,0.001136835548095405,-0.60142582654953,-0.7989278435707092,1.0755451917648315,0.5446903109550476,0.08140268921852112,0.05211633816361427,0.1583564281463623,0.17540788650512695
367,0.010913443875655047,0.6894699389766948,-2.9553046388585424,0.00842046458274126,-0.636128306388855,-0.7715373635292053,0.19242893159389496,0.30527836084365845,0.12261150777339935,0.09421014785766602,-0.05552208423614502,0.031119883060455322
368,0.039976266136729326,0.6804395782218857,-2.964352456266601,0.03106512501835823,-0.6291347742080688,-0.7766752243041992,-0.1559687852859497,0.2873150706291199,0.4198393225669861,0.31300532817840576,-0.21664464473724365,-0.16761493682861328
369,0.06658543847392716,0.6763451159492918,-2.94809023156412,0.051889337599277496,-0.6259468793869019,-0.7781375050544739,0.8580783605575562,0.740668535232544,0.2816718816757202,0.1870327740907669,-0.00974947214126587,-0.03297388553619385
370,0.14746779851961692,0.7497740049128977,-2.91745866305569,0.10753252357244492,-0.6814733743667603,-0.7238997220993042,0.7194187045097351,0.6742205023765564,-0.01933230832219124,-0.1567268669605255,0.36611998081207275,0.0834578275680542
371,0.19603176985471532,0.780640273695103,-2.8963503598757683,0.13838304579257965,-0.7037344574928284,-0.6968557834625244,-0.3695255517959595,0.11837224662303925,0.008603846654295921,-0.21997179090976715,0.26611238718032837,0.060060739517211914
372,0.1332787889348185,0.7232275485734031,-2.8615112134808354,0.09962005168199539,-0.6618077158927917,-0.7430251836776733,-0.9463846683502197,-0.9511241316795349,0.030470527708530426,-0.2228652983903885,-0.06840163469314575,-0.15492403507232666
373,0.0782395702406358,0.6916988516831406,-2.8719775032249073,0.06019580364227295,-0.6378464698791504,-0.7678074836730957,-0.012291349470615387,-0.8982754349708557,-0.3479946255683899,-0.19596850872039795,-0.1654829978942871,-0.3556056022644043
374,0.03222817562186363,0.673876947510208,-2.9478776029720124,0.025179002434015274,-0.6240201592445374,-0.7810024619102478,-0.44795286655426025,-0.6169326305389404,-0.301437109708786,0.08419599384069443,0.022427141666412354,0.0346035361289978
375,0.010899946129921371,0.6722206295247386,-3.0235961830401,0.008528393693268299,-0.6227250099182129,-0.782394289970398,0.15893539786338806,-0.4243815839290619,-0.47501862049102783,0.12204106152057648,0.15649276971817017,0.30021655559539795
376,0.04090081689111216,0.6987255890649442,-3.108820626794963,0.03130749240517616,-0.6432424187660217,-0.7650221586227417,0.09237994253635406,0.31219595670700073,0.12578000128269196,0.23373767733573914,-0.2264474630355835,0.2305830717086792
377,0.10736632760243289,0.720188368084629,3.1295015580728123,0.08055031299591064,-0.6595262885093689,-0.7473531365394592,0.5846490859985352,0.6519715189933777,-0.28068655729293823,0.22354209423065186,-0.1204267144203186,-0.17468971014022827
378,0.27427041266451774,0.7655590587517119,3.0631383107131698,0.19527769088745117,-0.6929401755332947,-0.6940464973449707,-0.4075513482093811,0.9130409955978394,-0.01223006471991539,0.35228395462036133,0.0024341940879821777,-0.2616877555847168
379,0.3081411602614981,0.7515626073336988,3.1263553843765353,0.22158904373645782,-0.6827812790870667,-0.696209728717804,-0.8945603370666504,0.7485010027885437,1.135128140449524,0.12278658151626587,-0.02089303731918335,-0.14685362577438354
380,0.34028337233222605,0.7725638153843165,-3.0505006749928674,0.239009290933609,-0.6979735493659973,-0.6750611662864685,0.5139212608337402,1.289887547492981,1.2245012521743774,0.08018931746482849,0.21323233842849731,0.050259530544281006
381,0.24907386701103046,0.8184108211593353,-2.8963221473758916,0.16845816373825073,-0.7300607562065125,-0.6622937917709351,-0.30990034341812134,0.00702633848413825,0.5403227210044861,-0.5973827242851257,0.33914583921432495,0.5583967566490173
382,0.20664235447889712,0.7576098025796784,-2.842007817916446,0.14905555546283722,-0.6871869564056396,-0.7110249996185303,-0.7667388916015625,-1.2769266366958618,0.02113122120499611,-0.23935706913471222,0.005378544330596924,0.07299399375915527
383,0.11529705881534304,0.6346539015235291,-2.8360437491114374,0.09264049679040909,-0.5928988456726074,-0.7999304533004761,-0.6905096173286438,-0.5531181693077087,-0.8741424679756165,-0.267765611410141,-0.07873201370239258,-0.3371545076370239
384,0.12719819511437455,0.5395115313780091,-2.88996871580178,0.10883688926696777,-0.513716995716095,-0.8510284423828125,-1.1602964401245117,-0.4866172671318054,-0.41711708903312683,0.011219270527362823,0.08418208360671997,-0.37738037109375
385,0.05787958359279461,0.4554405315356555,-2.8697156329710944,0.05195074528455734,-0.43985798954963684,-0.8965634703636169,0.278652548789978,-1.0352050065994263,0.14257735013961792,-0.010858830064535141,0.17914631962776184,-0.0017977356910705566
386,-0.00964934344816423,0.42834237164328254,-2.9183423571331586,-0.008777442388236523,-0.41536349058151245,-0.9096131920814514,-0.24486888945102692,-1.6594452857971191,-1.0787172317504883,-0.0644494891166687,0.12225744128227234,-0.00023788213729858398
387,-0.07374180140454371,0.44381905756301954,-3.0862359010714866,-0.06653723120689392,-0.42939165234565735,-0.9006639719009399,-0.5891158580780029,-1.103416919708252,-1.7061980962753296,0.05455908179283142,-0.04978010058403015,0.01916372776031494
388,-0.027650378723656662,0.4150435484710877,3.060608006009451,-0.02529960311949253,-0.4032297730445862,-0.9147489666938782,-1.4527673721313477,0.8099716901779175,-0.6486488580703735,0.438080370426178,-0.08567705750465393,-0.14433300495147705
389,-0.10296146820871643,0.31227654115015946,-3.1082946047578432,-0.09780887514352798,-0.30722588300704956,-0.9465969204902649,-0.9597046971321106,1.6135385036468506,1.1394233703613281,-0.2271270453929901,0.13638848066329956,0.3029201626777649
390,-0.01752246496273693,0.37123643570869813,-3.013026038430027,-0.016327990218997,-0.36276790499687195,-0.9317364692687988,0.4497511684894562,1.0385026931762695,0.8693584203720093,-0.05975233018398285,0.07855769991874695,0.7196850776672363
391,0.12484845082464226,0.41841190478854723,-2.9795624307328374,0.11378231644630432,-0.4063098728656769,-0.906623363494873,0.14949850738048553,0.439987450838089,0.24567484855651855,-0.16909542679786682,-0.12042352557182312,0.47260236740112305
392,0.31722049563781207,0.4216981371476697,-3.0497378788047764,0.2846006453037262,-0.40931040048599243,-0.866872251033783,1.454345941543579,1.5947209596633911,-1.6835579872131348,-0.0716947615146637,0.21439465880393982,-0.38314300775527954
393,0.4508452154881054,0.37670712347913454,3.1211190877693014,0.40517374873161316,-0.36786049604415894,-0.8369665145874023,0.23768621683120728,0.30090317130088806,-1.816064715385437,-0.05327555537223816,0.11146703362464905,-0.6114130020141602
394,0.5618971959286977,0.266265864092853,2.9976700787662884,0.5140171051025391,-0.26313072443008423,-0.8164242506027222,-1.2457093000411987,-0.14177058637142181,-1.888309359550476,-0.46842390298843384,0.4348531663417816,-0.25808435678482056
395,0.7485615404715473,0.12842548436389245,2.848352289121876,0.6749808192253113,-0.12807275354862213,-0.7266349196434021,-1.2636008262634277,-0.2987511157989502,-2.081913709640503,-0.2543570399284363,0.34050559997558594,0.16804122924804688
396,0.870261271800154,-0.06194900904830976,2.8443008650955646,0.7630308866500854,0.06190939247608185,-0.6433902978897095,-2.5041792392730713,0.570574164390564,-1.2285150289535522,-0.4277037978172302,0.27370768785476685,0.14209330081939697
397,0.9824803230719528,-0.27876935661039837,2.911632413555806,0.7997616529464722,0.27517271041870117,-0.5335365533828735,-1.9165418148040771,0.8260171413421631,-1.3201247453689575,0.5407077074050903,-0.37122678756713867,-0.41008222103118896
398,1.1597838174386437,-0.3959073054876002,2.793133953644706,0.8458060026168823,0.38564547896385193,-0.3686322867870331,-0.513147234916687,0.9362127184867859,-0.7024855017662048,0.7539559602737427,-0.14399206638336182,0.20289131999015808
399,1.2207997843599896,-0.4949529481791776,2.815918899691664,0.8266405463218689,0.47499024868011475,-0.30174410343170166,-0.7525861263275146,0.6500588059425354,-0.9968611598014832,-0.04809141159057617,0.19958552718162537,-0.010908395051956177
400,1.2015482809493603,-0.5836125289690938,2.812052151724075,0.778232753276825,0.5510420799255371,-0.3011747896671295,-0.6157529354095459,-0.0643361434340477,-0.5221396684646606,-0.273029625415802,-0.3880172371864319,0.3815581500530243
401,1.2107549029483469,-0.6906352337175319,2.8307861912443557,0.7214167714118958,0.6370269656181335,-0.2715774476528168,-0.6038405895233154,0.10813643783330917,-0.8915115594863892,-0.08683431148529053,-0.4184448719024658,0.20854339003562927
402,1.1989866287167956,-0.7485328667303977,2.7936221117007713,0.6826246380805969,0.6805645227432251,-0.2661871314048767,0.012803023681044579,-0.3458714485168457,0.05935063585639,0.4184953570365906,-0.2731701135635376,0.09052795171737671
403,1.1653336977900564,-0.7550252197797906,2.8106469394382634,0.6692073941230774,0.6853070259094238,-0.2872554659843445,-0.32347553968429565,-1.3545726537704468,0.39956414699554443,0.35256683826446533,0.16511106491088867,-0.21657449007034302
404,1.1657028936020986,-0.7391365826004969,2.8288696295664724,0.6792357563972473,0.6736500263214111,-0.2912631928920746,-0.5480884909629822,0.3010454773902893,0.1415870636701584,0.2426239252090454,0.2616831660270691,-0.019207388162612915
405,1.1719353642707302,-0.7380203841080837,2.805372654228058,0.681730329990387,0.6728246808052063,-0.28731608390808105,0.5705949068069458,0.6737477779388428,-0.6583178639411926,-0.41685307025909424,-0.06650155782699585,0.13533857464790344
406,1.1660132231600449,-0.7667833758794126,2.7036806959873725,0.6619496941566467,0.6938223838806152,-0.2836075723171234,0.4608892798423767,0.8397483229637146,-0.4073695242404938,-0.02994590997695923,-0.28125518560409546,0.1893082559108734
407,1.1733496557874714,-0.7610969507144022,2.6619413373572285,0.6676396131515503,0.6897161602973938,-0.28026625514030457,0.1894679218530655,0.2959018051624298,0.3346594274044037,0.3377162218093872,-0.3105199337005615,0.04430431127548218
408,1.220353956638979,-0.6646780168851599,2.633801343584743,0.739275336265564,0.6168057322502136,-0.27022722363471985,0.8194109201431274,1.1608352661132812,1.564391851425171,0.600446343421936,0.003174126148223877,0.056787312030792236
409,1.3594891984758717,-0.46591277183155544,2.596856464603656,0.8735401630401611,0.44923847913742065,-0.1873825192451477,1.7831075191497803,2.1919806003570557,1.4092875719070435,0.20922338962554932,0.32409214973449707,-0.3531143069267273
410,1.4662834072272948,-0.2739323279790258,2.5692479568116546,0.9574615359306335,0.2705192267894745,-0.10043304413557053,-0.0643911063671112,0.10098706930875778,1.3415433168411255,-0.12085264921188354,-0.0645102858543396,-0.07432585954666138
411,1.541915833686978,-0.19643045396124362,2.61482761644186,0.9803605675697327,0.19516967236995697,-0.028321171179413795,0.39361441135406494,0.474841445684433,-0.016923371702432632,-0.7836442589759827,-0.11545777320861816,0.09520047903060913
412,1.5885970415470265,-0.14328255740458334,2.579110644198272,0.9895957708358765,0.14279279112815857,0.017617372795939445,0.5579230189323425,0.478122353553772,3.3234262466430664,1.528439998626709,-1.277070164680481,0.2258976697921753
413,1.6118496571810508,-0.019225934665986318,2.5899988075208022,0.9989727735519409,0.019224749878048897,0.041034214198589325,-1.559706449508667,-0.8565871715545654,0.258424311876297,-0.06096929311752319,-0.24301016330718994,0.15334749221801758
414,1.574909464464269,-0.060846167899873245,2.6332966378140727,0.9981409311294556,0.06080862879753113,0.004105514381080866,-0.28377798199653625,-0.9523102641105652,-0.4495714604854584,0.19703418016433716,0.30747750401496887,-0.4602060317993164
415,1.5063572472091784,-0.17238560051650037,2.6326649853138178,0.983133852481842,0.17153307795524597,-0.06344007700681686,0.5505701303482056,-0.562039315700531,-1.8705074787139893,-0.12925177812576294,-0.0834287703037262,-0.10059191286563873
416,1.4227493362513388,-0.2935788868755288,2.5885341592630438,0.946743369102478,0.2893798351287842,-0.14119558036327362,-0.38599827885627747,-1.4507949352264404,-1.2231804132461548,-0.5221981406211853,-0.08886411786079407,0.10983879864215851
417,1.3666393682627094,-0.414472395414949,2.6036066825794744,0.896319568157196,0.402707040309906,-0.18557533621788025,0.08454413712024689,0.39087989926338196,-1.1700351238250732,0.19132685661315918,-0.3672456741333008,0.35015666484832764
418,1.3437423037071634,-0.551246603166578,2.6032545944606964,0.8300079703330994,0.523749589920044,-0.19176340103149414,-0.16998402774333954,-0.40473994612693787,-1.1311110258102417,0.47976070642471313,-0.22690510749816895,0.23862314224243164
419,1.4498349468271785,-0.5804814003036634,2.662923718462849,0.8300886750221252,0.5484265685081482,-0.10090126842260361,-0.3276011645793915,1.3165498971939087,-0.6180866956710815,0.48021405935287476,-0.2304791808128357,-0.3841756582260132
420,1.658619029021434,-0.7102625521366894,2.719775751022195,0.7552687525749207,0.6520328521728516,0.06650079786777496,-0.5814785957336426,0.2064015418291092,-1.4625335931777954,0.2557482123374939,0.08531761169433594,-0.18109440803527832
421,1.7859775538350697,-0.7656546627028008,2.82663871839476,0.7043024301528931,0.6930091381072998,0.15393592417240143,-0.16533495485782623,1.4809978008270264,-1.7750180959701538,-0.34730786085128784,-0.4460303783416748,-0.09192420542240143
422,1.8244058651888475,-0.8531439092833691,2.821262776770724,0.6365826725959778,0.753351628780365,0.16499608755111694,1.955348253250122,-0.056002844125032425,-0.7078053951263428,-0.18657052516937256,-0.5300545692443848,-0.39753997325897217
423,1.8202777449280292,-0.9405524711289338,2.6946370349360844,0.5710961818695068,0.8078837990760803,0.14550937712192535,-0.34361714124679565,1.8580470085144043,-2.2407164573669434,0.21633362770080566,0.05374950170516968,0.42838895320892334
424,2.6359571520793477,-1.086055410624937,-3.0495932595855733,0.22570344805717468,0.8847957253456116,0.40766996145248413,-1.8007605075836182,-1.7783063650131226,0.20747137069702148,0.1425216943025589,0.3191381096839905,-0.4195259213447571
425,1.796387452008684,-1.1827310022645272,2.823973751065356,0.36881062388420105,0.9256428480148315,0.08464113622903824,4.807921409606934,-4.420144557952881,-1.2285785675048828,-0.20253562927246094,0.06080734729766846,-0.36894285678863525
426,1.2168030000958339,-1.3103296457250562,2.05491146657496,0.24156324565410614,0.9662699103355408,-0.08927224576473236,0.7942415475845337,2.5611491203308105,-2.53845477104187,-0.11923353374004364,-0.31615400314331055,-0.011542551219463348
427,0.8066697965042264,-1.3767426386437702,1.6856250038646696,0.13922618329524994,0.981230616569519,-0.13342556357383728,1.5801664590835571,-5.6318511962890625,1.0753307342529297,-0.10226941108703613,-0.3183584213256836,0.16534700989723206
428,0.6975331781606476,-1.2139536461343494,1.7225841886783335,0.22437676787376404,0.9370043873786926,-0.2677270770072937,0.11204511672258377,-1.087356686592102,-0.7505676746368408,0.7615545988082886,0.6731640100479126,0.4515955150127411
429,0.44404685515243103,-1.3911761072543654,1.5148957714519684,0.07674999535083771,0.9839116334915161,-0.1613297164440155,-3.0020413398742676,-0.9772714972496033,0.3628000020980835,0.2704637348651886,0.3285577893257141,-0.3357253670692444
430,1.9804118074954742,-1.2383851396014185,-3.0803045303177132,0.29932764172554016,0.9452582597732544,0.1299603134393692,-1.3573553562164307,1.1466223001480103,1.6205161809921265,-0.15903836488723755,1.087059736251831,-0.0513928085565567
431,2.322036833521509,-1.0500574208101614,-2.801162048900289,0.3636101484298706,0.8674517869949341,0.3395814299583435,-1.474868893623352,-0.9059267640113831,-0.7911801934242249,-0.5681846141815186,-0.35265058279037476,-0.47366026043891907
432,2.546077677905196,-1.1297129782912656,-2.6882320676035487,0.23947396874427795,0.9042896628379822,0.3534291684627533,0.6864726543426514,2.9782137870788574,-1.021074891090393,-0.41615551710128784,-0.9180379509925842,-0.13405361771583557
433,3.0855203734773804,-1.0886249921819595,-2.5833871815322307,0.02598734200000763,0.8859901428222656,0.4629756510257721,-2.515502691268921,-4.54039192199707,0.4060736894607544,-0.027757372707128525,1.715358853340149,2.148993492126465
434,2.654268990089921,-1.1306677552786941,-2.8326968840793767,0.1995060294866562,0.9046968817710876,0.37645822763442993,3.0922584533691406,0.8884298801422119,1.0854209661483765,-0.3095371425151825,0.17840242385864258,-0.7251216173171997
435,2.8021545295020425,-1.1486202618854706,-2.8937518450121096,0.13642823696136475,0.9121994376182556,0.3863674998283386,2.468799114227295,0.1768249273300171,1.4621490240097046,0.5338293313980103,-0.055021464824676514,-0.49462857842445374
436,1.825299694900024,-1.188512142619688,2.628068006799672,0.36102455854415894,0.9278149604797363,0.09391853958368301,0.2949618995189667,-2.6045968532562256,1.5571701526641846,-0.19246071577072144,-0.36522340774536133,0.2487633228302002
437,1.4319720172310095,-1.0937650430743178,2.542929067915606,0.45472660660743713,0.888361930847168,-0.06353578716516495,0.5326745510101318,-1.7140495777130127,-0.029741039499640465,-0.12983646988868713,-0.42853832244873047,0.20637333393096924
438,1.1805577872343902,-1.106214678087943,2.495406314051226,0.4143638014793396,0.8940091133117676,-0.17044183611869812,-0.2252177745103836,-1.48582124710083,-0.4579439163208008,0.1167183518409729,0.23086881637573242,0.236191987991333
439,1.3771392651647651,-1.1363990055571185,2.8397993877994896,0.4129966199398041,0.907123863697052,-0.08099476993083954,-2.51771879196167,0.6285332441329956,0.7043076157569885,0.36214980483055115,0.489848792552948,0.05943412333726883
440,1.916343285376485,-1.0233270315012621,-2.9505012280669876,0.4897598624229431,0.8538445830345154,0.1763087809085846,-1.1497488021850586,3.7129547595977783,1.6056153774261475,0.16363674402236938,0.7243720293045044,-0.34740567207336426
441,2.1226451949843437,-0.7739645474519579,-2.85295812533511,0.6089866161346436,0.6989759802818298,0.37492382526397705,-1.3028444051742554,-1.0283514261245728,1.976849913597107,-0.48047715425491333,-0.07315200567245483,-0.36650100350379944
442,2.1157339094653964,-0.639327667072993,-2.857437140838808,0.6862632036209106,0.5966560244560242,0.41598623991012573,0.10996154695749283,0.4201810359954834,-0.13368913531303406,-0.5286246538162231,-0.39511793851852417,-0.412156343460083
443,2.1408470970841695,-0.7813917389380183,-2.925653868481303,0.5976748466491699,0.7042681574821472,0.38313359022140503,1.9434951543807983,1.9678934812545776,-0.21767990291118622,0.28197914361953735,-0.08196890354156494,0.353820264339447
444,2.068074111618156,-0.6538121770188726,-2.9081556601317953,0.6976330280303955,0.6082168221473694,0.37865644693374634,1.143229365348816,-2.6075031757354736,-0.6929973363876343,-0.4179394245147705,0.08985757827758789,-1.2794132232666016
445,2.288297220079528,-0.9379811988781607,-2.913142759722987,0.44560378789901733,0.8063657879829407,0.388858824968338,1.4702805280685425,0.4558628499507904,-2.1874239444732666,0.00997781753540039,0.512481689453125,-0.6608620285987854
446,1.9757496312551857,-1.1816373405197704,-3.089521360421274,0.34872400760650635,0.925228476524353,0.14947853982448578,0.8587992191314697,-1.162750482559204,-1.27200448513031,0.10726964473724365,-0.292049765586853,0.593471884727478
447,1.428389651667735,-1.3336178754833512,2.7041823540441117,0.2325829416513443,0.972004771232605,-0.03334708884358406,2.234360933303833,1.918433666229248,-0.9286039471626282,-0.3095482289791107,-0.1892898678779602,-0.029610637575387955
448,1.0052053054664085,-1.3138905745976868,2.281365933766493,0.21452027559280396,0.9671808481216431,-0.13617010414600372,1.0708028078079224,-1.1745622158050537,0.719987690448761,0.45602715015411377,-0.46969854831695557,-0.012328431010246277
449,1.0208800440349348,-1.267259374686566,2.392271358826864,0.25483039021492004,0.9542852640151978,-0.15620848536491394,-0.9217726588249207,1.1088573932647705,1.015244483947754,0.28560540080070496,-0.08076536655426025,0.7409863471984863
450,1.7706595837233094,-1.2454427661565195,3.079671025072408,0.3132806718349457,0.9475377798080444,0.06346053630113602,-2.728187084197998,-0.6487356424331665,0.1261042058467865,0.6040776968002319,0.7545800805091858,-0.5797722339630127
451,2.0431453469125618,-1.0709417727573303,-2.7550968322666614,0.42681562900543213,0.8776522874832153,0.2180705964565277,-0.7933759689331055,0.4598870277404785,1.1838998794555664,0.16582044959068298,0.2332332730293274,-0.1458050161600113
452,2.174087263165322,-0.9246766639604131,-2.930810280753921,0.4958069324493408,0.7984261512756348,0.34160053730010986,0.11744490265846252,4.862293243408203,1.641405701637268,-0.5266755223274231,-0.7037302255630493,-0.27945151925086975
453,2.343940880727196,-0.9140845184933881,-2.969597430043816,0.4369574785232544,0.7920039892196655,0.4263779819011688,1.4443095922470093,-0.6919710040092468,-1.0010648965835571,-0.37763121724128723,-0.4194300174713135,-0.11555629968643188
454,2.412226079074613,-0.9716805603820651,-2.8987593752508842,0.3757897615432739,0.8258345723152161,0.4204511344432831,-1.5857553482055664,-0.2565705478191376,0.009416620247066021,0.6942328214645386,0.5634323358535767,1.064213752746582
455,2.194722380810688,-1.005097574376761,-3.042363806284155,0.43501758575439453,0.8442142605781555,0.3131485879421234,-0.9728543162345886,0.6689555644989014,-1.8952417373657227,-0.39667221903800964,0.274300754070282,-0.5132066011428833
456,1.9513602341098586,-1.0640108747543433,-3.0422655524375144,0.45064347982406616,0.874309241771698,0.1802874654531479,1.315184235572815,-2.4116992950439453,-1.6689172983169556,-0.13623619079589844,0.02376192808151245,-0.3704119920730591
457,1.5579175834470482,-1.2337410517878593,2.774414906520346,0.33068177103996277,0.9437326192855835,-0.004259001463651657,0.3412065804004669,0.21018975973129272,-0.40685877203941345,-0.31261539459228516,-0.39043378829956055,1.1828173398971558
458,1.0869412218194607,-1.2591839977100894,2.4006612574569277,0.2713991701602936,0.9518404603004456,-0.1426258683204651,1.1211081743240356,-1.219419002532959,-0.8900136947631836,0.15555700659751892,-0.38467133045196533,0.24916279315948486
459,0.6605732431443114,-1.2824905798412554,2.019663660189599,0.1744551658630371,0.9587270021438599,-0.2245171219110489,0.20513901114463806,-2.174159288406372,-0.8780239820480347,0.3570695221424103,0.06394755840301514,0.0673973560333252
460,0.9935665140369322,-1.319220778004711,2.309726727312482,0.2085978090763092,0.9685214161872864,-0.13584229350090027,-2.155421018600464,0.13346520066261292,1.1277397871017456,0.23442582786083221,0.13671839237213135,0.006279900670051575
461,1.9208569733989216,-1.168513163841203,3.1151171592349027,0.3677753508090973,0.920169472694397,0.13427376747131348,-2.9196577072143555,0.9637633562088013,1.734613299369812,0.3367687165737152,0.9250606298446655,-0.3160059452056885
462,2.152612230858978,-0.949205005127928,-2.977966601917729,0.4865167737007141,0.8129528164863586,0.320014625787735,-0.7558534145355225,0.3453601002693176,1.3017007112503052,-0.3408105969429016,-0.30778002738952637,-0.3209301233291626
463,2.158990595771908,-0.8484355404609148,-3.073639967108788,0.5500460267066956,0.7502469420433044,0.3668496608734131,0.09444583207368851,2.5711817741394043,0.47063297033309937,-0.5646334886550903,-0.5477476716041565,-0.5021646022796631
464,2.286771892040516,-1.0011920139486585,-3.0818391534337364,0.40687569975852966,0.8421144485473633,0.3539707660675049,0.5838060975074768,0.492081880569458,-2.336428165435791,-0.06976333260536194,-0.28884607553482056,0.7108027935028076
465,2.371811931279241,-0.8801032449341994,-2.9835098265294175,0.4433876872062683,0.7708046436309814,0.4574577212333679,-0.06621503084897995,1.528672695159912,0.014987945556640625,-0.4141976535320282,-0.13080531358718872,0.9243324995040894
466,2.2168136291262592,-0.9995912399471283,-3.0728429880389045,0.431699275970459,0.8412500619888306,0.32547491788864136,2.3073971271514893,-3.45233416557312,-0.9526035785675049,-0.11250069737434387,0.7082799077033997,-0.419667512178421
467,1.8616700115004199,-1.1706850266437954,2.8654378091078123,0.37315863370895386,0.9210176467895508,0.11171045154333115,2.4676706790924072,1.6752426624298096,-1.1352778673171997,0.06417351961135864,-0.4949312210083008,0.40313637256622314
468,1.4809884404713212,-1.2366353822093346,2.4837500725520325,0.32665500044822693,0.9446858167648315,-0.029415320605039597,0.9727781414985657,-1.7333471775054932,-0.2340550273656845,-0.19254550337791443,-0.33946120738983154,-0.0216711163520813
469,0.998958259415024,-1.2705578207712558,2.0856720624156617,0.2486969381570816,0.955265998840332,-0.1600525975227356,0.42960822582244873,-0.8482717275619507,-0.9159175157546997,0.1935180127620697,-0.0007829666137695312,0.4083893895149231
470,0.9753263684986833,-1.311003172195501,2.122087434636085,0.21266768872737885,0.9664431214332581,-0.14408385753631592,-1.786712408065796,0.2874789237976074,0.5784772634506226,0.5859620571136475,0.19987761974334717,0.5675610303878784
471,1.8870568924083828,-1.228705872513155,2.933137369091128,0.31881994009017944,0.9420554637908936,0.10433205217123032,-1.359275460243225,1.6494436264038086,2.512255907058716,0.5982942581176758,0.5534431338310242,-0.5372086763381958
472,2.073472971682332,-0.9402451557516329,-3.0918496449783537,0.5166555643081665,0.8077026605606079,0.28404849767684937,-0.8960206508636475,-0.3132636249065399,1.5550473928451538,-0.4273611307144165,0.2187713384628296,-0.1719878911972046
473,2.123999095572606,-0.7850993262648889,3.10883009513682,0.6018189787864685,0.7068954110145569,0.3716356158256531,-0.42539462447166443,2.7627642154693604,0.9231672883033752,-0.6928833723068237,-0.6034560203552246,-0.4702225625514984
474,2.2693819112821623,-0.8228418312889204,3.106043739892263,0.5208194255828857,0.7330816388130188,0.43742239475250244,1.4582871198654175,0.24640952050685883,-1.4535362720489502,-0.3939273953437805,-0.3441199064254761,-0.21824517846107483
475,2.357416373118065,-0.9166497568691975,-3.1311187179699296,0.4297357499599457,0.7935675382614136,0.43078723549842834,-0.3320640027523041,-1.6195815801620483,0.891524076461792,1.203046202659607,0.6340600252151489,0.2666918933391571
476,2.142138901076726,-0.9525597996617863,2.946659089163312,0.48754459619522095,0.8149018287658691,0.3134250342845917,-1.717095136642456,-0.013165120966732502,-0.6144818663597107,-0.38894233107566833,0.6608518958091736,-0.3801364004611969
477,1.8226494221633587,-1.0490572629555497,2.812831824693659,0.48266562819480896,0.8669537901878357,0.12419796735048294,1.1683259010314941,1.4405261278152466,-1.692911982536316,-0.13262903690338135,-0.10016906261444092,-0.27605342864990234
478,1.593272921809627,-1.203507548235909,2.431650774352266,0.35899555683135986,0.9333043098449707,0.008070357143878937,0.6249680519104004,-0.6629267930984497,-0.6247837543487549,-0.17566123604774475,-0.355927050113678,-0.05201566219329834
479,1.0724338873072392,-1.2508565184451321,2.010957364209405,0.2762547731399536,0.9492543339729309,-0.15033181011676788,1.609276533126831,-0.3688109219074249,-0.9429510831832886,0.3011530935764313,-0.22234082221984863,0.1017172783613205
480,0.6849787198349072,-1.2872691197870954,1.675459498207562,0.17698197066783905,0.9600747227668762,-0.21664297580718994,0.3823592960834503,-0.08776196092367172,-0.6679549217224121,0.8209580779075623,-0.18611836433410645,-0.08482491970062256
481,1.3185355385066335,-1.301958199702294,2.239760835206706,0.2572052776813507,0.9640801548957825,-0.06629504263401031,-3.0941901206970215,0.8036671280860901,1.51610267162323,0.2293059229850769,0.3953864574432373,0.0788683295249939
482,1.9421421846621962,-1.0762946528375772,2.7981291577955054,0.4422445595264435,0.8802053332328796,0.17221547663211823,-2.654073476791382,-0.502883791923523,1.7448261976242065,0.011887431144714355,1.117734670639038,-0.20058156549930573
483,2.0786903727114256,-0.886310461448353,2.9341892198741806,0.5524632334709167,0.7747442126274109,0.30749940872192383,-0.23977653682231903,1.3518824577331543,1.2973747253417969,-0.48566025495529175,-0.44962525367736816,-0.43854188919067383
484,2.2795820959472604,-0.7747375687079813,2.93003015329689,0.5424942374229431,0.6995285749435425,0.46514520049095154,0.1647345870733261,1.6906296014785767,-0.1800108551979065,-0.5563338994979858,-0.47769618034362793,-0.47571951150894165
485,2.24641887250363,-0.9639375658938784,2.8877165900062747,0.4450072646141052,0.821443498134613,0.3566496968269348,1.3739768266677856,1.3513410091400146,-1.8033956289291382,0.0005798637866973877,-0.2694721221923828,0.8047730922698975
486,2.1066927074985853,-0.8549120557161733,2.8790178598161775,0.5642812848091125,0.7545132040977478,0.3351069688796997,3.07915997505188,-0.4119408428668976,0.08309055864810944,-0.2647817134857178,-0.6360134482383728,-1.1358729600906372
487,1.8918604800047087,-0.9585833133195911,2.757518534309672,0.5453140735626221,0.8183782696723938,0.1813555657863617,0.6010910272598267,-4.362112522125244,-0.5950515866279602,-0.4300643801689148,0.35116225481033325,-0.06265746057033539
488,1.6461965199824338,-1.1372177515909563,2.473463217478797,0.41892722249031067,0.9074681401252747,0.03164719045162201,3.1920971870422363,0.13876202702522278,-1.0462470054626465,0.15921300649642944,-0.23815661668777466,-0.4693303108215332
489,1.3337097650315688,-1.2106145162653945,2.2151573407734007,0.3425849974155426,0.9358327388763428,-0.08277915418148041,0.7151463031768799,-1.133772850036621,-0.7266564965248108,-0.0564216673374176,-0.3941916227340698,0.3240206241607666
490,0.8413993988393882,-1.2409313910032378,1.759051344351765,0.2415037900209427,0.9460861086845398,-0.21586383879184723,0.7068842649459839,0.669739305973053,-1.031899094581604,0.2545899748802185,0.01733863353729248,0.836438775062561
491,0.7606015258267166,-1.2707715135260296,1.7061316867713858,0.20373523235321045,0.955329179763794,-0.21409821510314941,-1.2864265441894531,0.9381492733955383,0.3008383512496948,0.5273133516311646,0.005669295787811279,0.4155142307281494
492,1.6835028309580053,-1.2605589624584337,2.58651496851575,0.30334803462028503,0.9522611498832703,0.03433480113744736,-1.5246517658233643,3.052262544631958,2.2031095027923584,0.6201292276382446,0.3095645308494568,-0.49383795261383057
493,2.033936190808497,-0.9797694156038498,2.9177370297194214,0.4985136091709137,0.8303689360618591,0.24894048273563385,-2.3654818534851074,-1.285653829574585,1.6419304609298706,-0.43390798568725586,0.7174672484397888,-0.006356284022331238
494,2.0678670642228525,-0.8319161646946567,2.9015474972388096,0.5919604301452637,0.7392231822013855,0.3211415410041809,-0.15598003566265106,2.205016613006592,1.456303596496582,-0.45229673385620117,-0.6056172251701355,-0.3971151113510132
495,2.2856812819383636,-0.8137593470071561,2.8974489836352872,0.5186277627944946,0.7268741130828857,0.4501991868019104,1.285495400428772,-0.3594869375228882,-0.6694222092628479,-0.6825224161148071,-0.38916659355163574,-0.3429604768753052
496,2.3704641942033127,-0.9187521887822412,2.9536332496560735,0.42291513085365295,0.7948450446128845,0.43516045808792114,-1.1618481874465942,-2.7521812915802,1.1702008247375488,1.7600836753845215,1.6794745922088623,0.7981923222541809
497,1.9999546820837513,-0.9664377495582813,2.826830932628969,0.5167046189308167,0.8228667378425598,0.23644545674324036,0.2955859303474426,1.5069118738174438,-0.9553543925285339,-0.23951351642608643,0.46854549646377563,-0.551630973815918
498,1.8190632294560525,-1.0117315962977882,2.739862710168647,0.5141317844390869,0.8477515578269958,0.13033068180084229,0.2418259233236313,0.5335708856582642,-1.347640872001648,-0.3131430149078369,-0.019031286239624023,-0.3449455499649048
499,1.5784075337314145,-1.1538316756052565,2.3685584159706976,0.4049749970436096,0.9143224358558655,0.0030824081040918827,1.136098861694336,-0.24221764504909515,-0.958601176738739,-0.1652137041091919,-0.25093144178390503,0.09715259075164795
500,1.1586686098298942,-1.2274236665453186,2.0560087804052523,0.3084760904312134,0.9416245818138123,-0.13485439121723175,1.0198761224746704,-0.7492318749427795,-1.0555822849273682,0.3012498915195465,-0.27365583181381226,0.5812197327613831
501,0.7343712381074368,-1.2672223707611987,1.664719825343072,0.20032086968421936,0.9542742371559143,-0.2218833714723587,0.042791470885276794,-0.541450023651123,-0.7231015563011169,0.5131495594978333,-0.0650377869606018,0.0998893529176712
