,attitude.roll,attitude.pitch,attitude.yaw,gravity.x,gravity.y,gravity.z,rotationRate.x,rotationRate.y,rotationRate.z,userAcceleration.x,userAcceleration.y,userAcceleration.z
0,2.226568546258614,-0.788130695569553,3.0522197282819343,0.5589032173156738,0.7090363502502441,0.42999371886253357,0.12692417204380035,1.4061049222946167,-0.6476377248764038,-0.6226087212562561,-0.5115419030189514,-0.3873300850391388
1,-0.05843237196981351,0.5572309924609247,2.7555364049873385,-0.0495646670460701,-0.5288380980491638,-0.8472742438316345,0.4845544993877411,0.3439701199531555,0.2166663110256195,-0.008815459907054901,-0.15042215585708618,-0.18421989679336548
2,0.049984402101043074,0.6368803522539522,2.747118041605269,0.04016847163438797,-0.5946902632713318,-0.8029507994651794,0.3765757083892822,1.1327012777328491,0.5253655314445496,0.18950681388378143,-0.18858909606933594,-0.19447046518325806
3,0.006882810761218436,0.6146870680367765,2.834427624598782,0.0056228949688375,-0.576702892780304,-0.8169346451759338,-0.8156973719596863,0.5767415761947632,0.890190839767456,-0.050285376608371735,-0.016345202922821045,0.09772682189941406
4,0.0031171837147818495,0.6035033885500295,2.899217040639248,0.002566536422818899,-0.5675304532051086,-0.8233484029769897,0.5028801560401917,0.822993278503418,0.6008978486061096,-0.008700571954250336,-0.001591801643371582,0.27165162563323975
5,0.03988453426793252,0.6648696261546889,2.943690478389802,0.03138069435954094,-0.6169565320014954,-0.7863713502883911,1.112388253211975,0.9979232549667358,-0.018680687993764877,0.08534903824329376,0.12632542848587036,0.2724858522415161
6,0.042876566062659986,0.7553852123547851,3.0046350559656188,0.03120489791035652,-0.685569167137146,-0.727338433265686,0.00410708412528038,-0.10350202769041061,0.3025624454021454,-0.03981085494160652,-0.059181809425354004,0.20579302310943604
7,0.05576560766075602,0.7354831992687302,2.9846164662302246,0.041329141706228256,-0.6709455251693726,-0.7403540015220642,0.18577684462070465,0.2465190440416336,-0.6030292510986328,-0.17679667472839355,-0.24893051385879517,-0.03433471918106079
8,0.08961462734157366,0.719667510325479,2.8954366071718867,0.06730226427316666,-0.6591346859931946,-0.7490072846412659,-0.6500439643859863,-0.5243393182754517,-0.46352165937423706,-0.059047259390354156,0.09684830904006958,0.10012727975845337
9,0.1955534210023436,0.6365751449830878,2.8229213990350623,0.15625128149986267,-0.5944448709487915,-0.7888097167015076,-1.6436705589294434,-0.014066366478800774,-0.9783613085746765,-0.12620672583580017,0.3328787088394165,0.18411922454833984
10,0.2893054765169016,0.4253209354181575,2.696303817053555,0.25986939668655396,-0.4126131534576416,-0.873051106929779,-1.422721266746521,0.37113600969314575,-1.8270643949508667,-0.17126163840293884,0.398514062166214,0.13902711868286133
11,0.3288609854346756,0.23269925431163957,2.5455163406516643,0.3142605423927307,-0.2306048572063446,-0.920902669429779,-1.0138908624649048,0.0029035157058387995,-2.152217388153076,0.05010408163070679,0.03192019462585449,-0.21110111474990845
12,0.38518755562222273,0.08325354663870317,2.3762172153111214,0.3744315803050995,-0.08315740525722504,-0.923518180847168,-0.6212055087089539,-0.18016916513442993,-1.831420660018921,0.5905647277832031,-0.23001398146152496,-0.686985969543457
13,0.35533495658769626,-0.022787913838661793,2.315054676844495,0.34781408309936523,0.022785941138863564,-0.9372866153717041,-0.23671919107437134,-0.4812549650669098,-0.43727901577949524,0.2915444076061249,0.08867952227592468,-0.5287320613861084
14,0.3579721978516771,-0.10424672040242383,2.2588870009755992,0.34847357869148254,0.10405800491571426,-0.9315246343612671,-0.695270836353302,0.02704538032412529,-0.5019780993461609,-0.025826483964920044,0.04305197298526764,-0.03266298770904541
15,0.3797780345539281,-0.18896898099225315,2.1765835128721096,0.36411502957344055,0.1878463327884674,-0.9122138023376465,-1.258811354637146,0.39684078097343445,-1.4459117650985718,-0.31815555691719055,0.007817119359970093,0.4510931968688965
16,0.37115625782303086,-0.4209941656788023,2.0850237961303186,0.3310239613056183,0.40866801142692566,-0.8505372405052185,-2.561614990234375,-0.06743235141038895,-1.6061441898345947,0.019104212522506714,-0.23018595576286316,0.2233704924583435
17,0.34865095040361727,-0.6139230558291622,2.0220367327380337,0.27924662828445435,0.5760785937309265,-0.7682153582572937,-1.5263726711273193,0.6031615138053894,-0.5811477303504944,0.29517048597335815,-0.31710636615753174,-0.1080511212348938
18,0.41976320394896516,-0.769064713556966,2.002537133678901,0.29284557700157166,0.6954634785652161,-0.6561799049377441,-0.738013505935669,1.1616984605789185,-0.3302801251411438,0.27369803190231323,0.021897971630096436,-0.5457701683044434
19,0.5677781237758779,-0.9417224416587751,1.9166885595961614,0.316415935754776,0.8085727691650391,-0.49607548117637634,-1.4077292680740356,2.528749465942383,-1.2438483238220215,0.14835146069526672,-0.011316359043121338,-0.3415251672267914
20,0.6357413894999492,-1.0245722152182717,1.8469015931485249,0.308444619178772,0.8544920682907104,-0.41797757148742676,-0.4160357713699341,2.301746368408203,-0.6762052774429321,-0.3217655420303345,-0.26528918743133545,0.36998867988586426
21,0.7211417838540938,-1.075010462387716,1.814150967591382,0.31409263610839844,0.8795951008796692,-0.35729292035102844,-0.3251623511314392,0.7564869523048401,-0.1616201251745224,0.0019016265869140625,-0.01716834306716919,0.19950181245803833
22,0.790485374731241,-1.0751148359535363,1.8334547854808196,0.3380286693572998,0.8796447515487671,-0.334606796503067,-0.07774357497692108,0.3258758783340454,0.2301071584224701,0.4571220874786377,-0.024633824825286865,0.1419036090373993
23,0.8996387949132383,-1.034800358464519,1.9480041178671588,0.39992839097976685,0.8597604036331177,-0.3175991177558899,-0.13049325346946716,0.6363629698753357,0.7229886054992676,0.32858720421791077,0.12130337953567505,0.12074550986289978
24,1.1434180111954626,-0.9841487407829238,2.18526323825879,0.5037815570831299,0.8328011631965637,-0.22944818437099457,-0.23762476444244385,0.4401523172855377,1.030074954032898,-0.18636822700500488,0.23525315523147583,-0.12954536080360413
25,1.2457338587405897,-0.9004047958943429,2.2464646574803884,0.5887561440467834,0.7835784554481506,-0.19842101633548737,0.12779361009597778,-0.5382375121116638,1.0350675582885742,-0.25173527002334595,-0.052392661571502686,-0.024845585227012634
26,1.1872078588308883,-0.8505962305811655,2.154736032945044,0.6116049885749817,0.7516737580299377,-0.24683134257793427,0.6316057443618774,0.22383061051368713,0.05094339698553085,-0.053072333335876465,-0.21232140064239502,0.18971772491931915
27,1.1623692565600494,-0.7624032270862426,2.0829747437871875,0.663694441318512,0.6906613707542419,-0.2872219979763031,0.6350647211074829,0.4871595501899719,1.144463062286377,0.29681581258773804,-0.08774083852767944,0.2558804750442505
28,1.2290725956964852,-0.6198844258569214,2.076386944861946,0.7668819427490234,0.5809410810470581,-0.272762656211853,-0.38770970702171326,0.7310822606086731,1.3868440389633179,0.1669101119041443,0.16632753610610962,0.4465755522251129
29,1.327857652796739,-0.5211808077362662,2.0022789289417706,0.8417657017707825,0.497904509305954,-0.20861783623695374,1.403298020362854,0.7190953493118286,0.6847130656242371,-0.17181342840194702,-0.014887630939483643,-0.43385347723960876
30,1.3148936505540636,-0.4583714744122311,1.8639211765976218,0.8675709962844849,0.44248828291893005,-0.22699041664600372,0.877065896987915,0.4125790596008301,0.28010958433151245,-0.12674158811569214,-0.20544299483299255,-0.1247551292181015
31,1.316440050064839,-0.40267582055403933,1.8118821499574354,0.8904145956039429,0.39188152551651,-0.23149658739566803,0.6870047450065613,0.7677116394042969,0.36322271823883057,-0.29587113857269287,-0.1769462525844574,0.057286977767944336
32,1.3325131608266507,-0.3811024048328243,1.8270236477808575,0.9020269513130188,0.37194401025772095,-0.21910038590431213,-0.8395702838897705,0.3038647770881653,0.19776426255702972,-0.0788152813911438,-0.07633551955223083,0.18940675258636475
33,1.3651720613647518,-0.391578496110459,1.9771727589549941,0.9048359990119934,0.38164791464805603,-0.1887235939502716,-2.0744781494140625,-0.038655683398246765,0.3002445697784424,0.054606080055236816,-0.05613216757774353,0.2554655075073242
34,1.476312596832313,-0.4074905211858421,2.1929015022177465,0.9140231609344482,0.396306574344635,-0.08661822229623795,-2.7701566219329834,0.2947005331516266,1.0730853080749512,0.5881893038749695,0.1241096556186676,0.09041769057512283
35,1.6350121275928384,-0.36628170241420144,2.304415153275713,0.9317411184310913,0.3581462800502777,0.059914879500865936,0.217733696103096,1.158406376838684,0.0034733498468995094,0.4432436227798462,0.12795299291610718,-0.07848477363586426
36,1.694681722270787,-0.25348758070565436,2.372279827236344,0.9606247544288635,0.2507815957069397,0.11961996555328369,-0.2824462056159973,0.3747352659702301,0.248738095164299,-0.906364381313324,0.1821713149547577,-0.3187471628189087
37,1.6887688308145712,-0.29058968958370746,2.31126842457488,0.9514157176017761,0.2865172326564789,0.11276451498270035,1.1390485763549805,1.046257734298706,-0.3659690320491791,-0.2681882977485657,-0.16926875710487366,0.18826089799404144
38,1.7104879432711237,-0.32350784652942094,2.21243231878336,0.9388903975486755,0.3178943991661072,0.1320149302482605,0.9112102389335632,0.9365062713623047,0.4291195869445801,0.514524519443512,-0.039070576429367065,0.3845865726470947
39,1.7240245991530798,-0.28862269162342646,2.2336615735518452,0.9474048614501953,0.28463214635849,0.14631611108779907,0.16532234847545624,0.6242372989654541,-0.544996976852417,0.18258464336395264,0.18720006942749023,-0.2904353141784668
40,1.8190112457254688,-0.49674325564964567,2.2671910600788645,0.8521957397460938,0.4765649437904358,0.2159816175699234,0.054170336574316025,2.9280834197998047,-5.399136543273926,-0.2750474214553833,-0.13737738132476807,-0.2095271646976471
41,2.299014836732949,-1.2117351377527539,2.3880618486659944,0.2622680366039276,0.9362271428108215,0.23386819660663605,5.327345848083496,5.796947956085205,-4.896797180175781,0.050994932651519775,-0.5148555636405945,-0.27343425154685974
42,1.4783827923621402,-1.405195751757875,1.5878484547030423,0.16414082050323486,0.9863195419311523,-0.01521216332912445,0.9417762756347656,-3.151092529296875,1.310346245765686,-0.03500570356845856,-0.3217688798904419,0.35412508249282837
43,0.8989576993683409,-1.3580629202807848,1.0235198082962749,0.1652492731809616,0.9774574637413025,-0.13141468167304993,0.6129940748214722,-0.766919732093811,-0.48672375082969666,-0.001247793436050415,0.02588433027267456,0.14830617606639862
44,1.022900496305495,-1.4328489584088364,1.2038853693115752,0.1173819899559021,0.9905003309249878,-0.07162810862064362,-2.35098934173584,0.783226490020752,-1.2444127798080444,0.0991402268409729,0.3899775743484497,0.5217929482460022
45,-2.9813978595985526,-1.3815467584286512,-2.879153331120144,-0.030007336288690567,0.9821456670761108,0.18571271002292633,-2.876901626586914,-3.1182312965393066,0.3814030587673187,0.29517456889152527,0.7383284568786621,-0.45138347148895264
46,2.5339043504569627,-1.1015355303308052,2.9447205842415873,0.258208692073822,0.8919028043746948,0.3712650239467621,-2.6624467372894287,0.5421561598777771,0.5811057686805725,-0.4745020270347595,-0.032619357109069824,0.250881552696228
47,2.6868013285887646,-1.0165211969360333,3.0169395336773293,0.2312021702528,0.8502821922302246,0.4728271961212158,0.21046893298625946,0.20716126263141632,-0.34899628162384033,-0.3622904419898987,-0.5890823602676392,-0.4706452488899231
48,2.6205885493129966,-1.149189520834474,2.882154225802741,0.20369349420070648,0.9124325513839722,0.354931116104126,1.667022466659546,0.755776584148407,0.8030866384506226,0.1366385668516159,-0.09266930818557739,0.7360875606536865
49,2.3208608067432865,-0.9453464809078912,2.736864774057654,0.4283504784107208,0.8106998205184937,0.3991013765335083,2.002007484436035,-0.776325523853302,0.36143773794174194,-0.43773454427719116,-0.15562468767166138,-0.8750229477882385
50,2.3530126097959285,-1.0494768029358557,2.73821349406477,0.3532753586769104,0.8671627640724182,0.35103434324264526,1.680652141571045,-1.3704071044921875,-0.3822580873966217,0.3844870626926422,0.14322835206985474,-0.4175931513309479
51,1.9812600525033048,-1.154454569760327,2.365397931350735,0.37082457542419434,0.9145745038986206,0.16137641668319702,2.2736687660217285,-2.5036938190460205,0.19829782843589783,0.030863016843795776,-0.03458505868911743,-0.08938553929328918
52,1.5368838069611277,-1.2192305287923888,2.063129130859365,0.3441702425479889,0.9388346672058105,-0.011676155962049961,1.0399837493896484,-1.0899624824523926,-0.4485299289226532,-0.303413987159729,-0.22278547286987305,-0.029370009899139404
53,1.141964748477461,-1.2625692570304707,1.8045748850450805,0.27590006589889526,0.9528729319572449,-0.12614360451698303,0.5193796753883362,-1.248200535774231,-0.7313104867935181,0.012643605470657349,-0.13643622398376465,0.08837808668613434
54,0.989924074761088,-1.3007166927127025,1.7596561581273098,0.22304749488830566,0.9637496471405029,-0.14641191065311432,-1.2462646961212158,-0.39311566948890686,0.05206591635942459,0.17279602587223053,0.03502964973449707,0.6287269592285156
55,1.7829895240755023,-1.282462103787277,2.5180414275809366,0.27797794342041016,0.9587188959121704,0.05988655611872673,-1.2281538248062134,1.4967237710952759,1.2499747276306152,0.37927913665771484,0.4884704351425171,-0.4554096460342407
56,2.298699958548553,-1.1426815326344946,2.891871373187536,0.30994391441345215,0.9097500443458557,0.27620628476142883,-2.808985471725464,-2.333575963973999,-0.3897775113582611,-0.09255191683769226,0.48258405923843384,-0.2313455045223236
57,2.2245611946235995,-1.0654532165434936,3.134095210333845,0.384284645318985,0.8750084042549133,0.2944243252277374,0.4517931342124939,1.0606058835983276,-0.3094511330127716,-0.3623577356338501,-0.26303941011428833,-0.20012497901916504
58,2.5268764472544194,-1.1190048267960977,3.1269144258353543,0.2517864406108856,0.899666428565979,0.35665714740753174,1.1460092067718506,5.505334854125977,-0.0019098315387964249,-0.21414300799369812,-0.6034932136535645,-0.08802613615989685
59,2.856726599809614,-1.1792329772593635,-3.017402879510472,0.10725012421607971,0.9243135452270508,0.36625367403030396,-0.8086931705474854,-0.39151731133461,-0.23199895024299622,0.1547127664089203,0.43292516469955444,0.9294158220291138
60,2.388358968649274,-1.1881914878465694,2.970528888682119,0.2553640604019165,0.9276952743530273,0.27234333753585815,-3.0172719955444336,1.661373496055603,0.8813264966011047,-0.030342668294906616,0.37979990243911743,2.0746874809265137
61,2.2775309551697704,-1.2172399305904191,2.7503076307042855,0.2633083462715149,0.9381473064422607,0.22483022511005402,1.9601824283599854,0.4073539078235626,-0.3339548707008362,0.3341037929058075,0.5127042531967163,-0.3318706452846527
62,1.6676128850891356,-1.308846403213671,2.239070183880776,0.2577516436576843,0.9658868312835693,0.02503289096057415,0.8108505010604858,-1.3327438831329346,-0.31247249245643616,-0.2321016490459442,-0.3448999524116516,0.5262976884841919
63,1.175435395399326,-1.3344413042506873,1.7771510024579489,0.21609683334827423,0.972197949886322,-0.09018489718437195,0.861153244972229,-2.433474063873291,-0.4533469080924988,0.10812191665172577,-0.21159309148788452,0.09381645917892456
64,0.6373120853288458,-1.3346717855342738,1.336212495555939,0.13920103013515472,0.9722518920898438,-0.188014417886734,0.24180111289024353,-1.5270193815231323,-0.8220716714859009,0.2759448289871216,-0.00571441650390625,0.18697679042816162
65,0.6547135656841875,-1.4001187733490488,1.5099373916246313,0.10342712700366974,0.9854699373245239,-0.1347288340330124,-2.5432469844818115,0.08001210540533066,0.33083871006965637,0.29919129610061646,0.24113833904266357,0.3577970862388611
66,1.9815900298807598,-1.2964596653172884,2.7940350841555412,0.24837028980255127,0.9626051187515259,0.10818392783403397,-2.1299314498901367,0.46451833844184875,1.9727479219436646,0.27030646800994873,0.5901292562484741,-0.07693397998809814
67,2.2056802862281204,-1.0714767145283246,2.9818615588521378,0.38552385568618774,0.8779085278511047,0.28398528695106506,-0.7373732924461365,0.5147091746330261,1.2243318557739258,-0.21973717212677002,-0.10022926330566406,-0.18564239144325256
68,2.2424124839093715,-0.9905374067533348,2.9379778011669053,0.4291720688343048,0.836320698261261,0.34114378690719604,0.1937670111656189,1.6898998022079468,0.3998720943927765,-0.3271975815296173,-0.4803484082221985,-0.35557854175567627
69,2.3633596294643184,-1.108764824769752,2.8910641480234345,0.3129388093948364,0.895148754119873,0.3174557685852051,1.7692433595657349,1.944139003753662,-1.5675517320632935,-0.010860532522201538,-0.2823861837387085,0.3277316391468048
70,2.3419141947685613,-1.0675418757785824,2.918042216791738,0.3458579480648041,0.8760176301002502,0.3361184597015381,0.037555985152721405,-1.3203506469726562,0.6709861159324646,-0.05388098955154419,0.02394580841064453,-0.027906149625778198
71,2.356880399840542,-1.1523571572832954,2.847019410087094,0.2871248126029968,0.9137242436408997,0.2875189781188965,-0.4761679470539093,2.3924951553344727,-0.2750035524368286,-0.0023653507232666016,0.8748498558998108,-0.05450204014778137
72,2.2410983749925877,-1.2469633390041677,2.777945691214592,0.24935470521450043,0.948022723197937,0.1976749300956726,1.333359956741333,0.9878801703453064,-0.27869123220443726,0.02016131579875946,0.29331040382385254,-0.5194218158721924
73,1.5562880564111272,-1.3704000782388883,2.093136361688756,0.19903743267059326,0.9799878001213074,-0.0028878916054964066,1.366329550743103,1.0614354610443115,-0.1132480725646019,-0.12263664603233337,-0.34488630294799805,-0.14748746156692505
74,0.9167601899218336,-1.3669316330256855,1.5431411896755516,0.1606755256652832,0.9792914390563965,-0.12317268550395966,0.7360662817955017,-0.18850025534629822,-0.6182484030723572,0.2064203917980194,-0.03106456995010376,0.44447702169418335
75,0.37109687801110736,-1.3480605831068928,1.0547622512816432,0.08010639250278473,0.9752967953681946,-0.20586255192756653,0.6207472085952759,-0.6852046847343445,-0.5328758358955383,0.5372947454452515,-0.13299626111984253,0.15061047673225403
76,0.7700279948600611,-1.3984981229543019,1.4926007473975023,0.11935388296842575,0.9851933717727661,-0.12308043241500854,-2.460047960281372,-0.5982839465141296,1.2124128341674805,0.21962013840675354,0.2901819944381714,0.15819090604782104
77,2.0077280533117374,-1.230660693291745,2.696752895732406,0.3022731840610504,0.9427094459533691,0.14117294549942017,-2.9502267837524414,-0.5686983466148376,1.5815554857254028,-0.048260122537612915,1.0748381614685059,0.13331735134124756
78,2.178311850506117,-1.0264940559636173,2.8971898119348,0.42516666650772095,0.8554887771606445,0.295587420463562,-0.5011371970176697,0.6811531782150269,1.1637327671051025,-0.2799946665763855,-0.34042853116989136,-0.3532351851463318
79,2.2884947126935753,-0.929225191763459,2.884950214188354,0.45082882046699524,0.8011565208435059,0.39357537031173706,-0.22599981725215912,1.3572125434875488,-0.019639024510979652,-0.3151171803474426,-0.39031368494033813,-0.4085136950016022
80,2.282519992212226,-1.0586903682981612,2.8661812434797285,0.37105709314346313,0.8717144727706909,0.3200479745864868,1.640885829925537,-0.12663158774375916,-2.0913350582122803,-0.22667843103408813,-0.28162652254104614,0.22079983353614807
81,2.2707059391796522,-1.0400611496094914,2.9162265771480054,0.38716793060302734,0.8624351620674133,0.32604724168777466,-0.10772599279880524,-1.9453132152557373,0.8639904856681824,0.32393747568130493,0.10063862800598145,0.20494344830513
82,2.211630167108635,-1.0654386966693483,2.8502102183769535,0.3880695700645447,0.8750013709068298,0.28943806886672974,1.4340567588806152,-1.0707108974456787,0.1228167861700058,-0.2577289938926697,0.8812088370323181,-0.598764181137085
83,1.8873855876951475,-1.194911396136948,2.6041570388585478,0.34885168075561523,0.9301831126213074,0.11428673565387726,2.5293283462524414,2.1758434772491455,-0.6988732218742371,0.0836128294467926,0.24294286966323853,-0.3737625181674957
84,1.4375189135142055,-1.279703262110022,2.134368040806465,0.2844543755054474,0.9579307436943054,-0.038137421011924744,1.2038577795028687,-0.7475772500038147,-0.9539225697517395,-0.16159063577651978,-0.15142744779586792,-0.24234962463378906
85,0.9065493457472041,-1.3017250238303726,1.6300710540528995,0.20931443572044373,0.9640181660652161,-0.16387908160686493,0.5611008405685425,0.013722509145736694,-0.4051530361175537,0.3489588499069214,-0.15399014949798584,0.5543209910392761
86,0.6267977393441688,-1.3001330156984243,1.4188901737276798,0.15682736039161682,0.9635937809944153,-0.21654611825942993,-0.04619719833135605,-0.974287211894989,-0.008013928309082985,0.5466485619544983,-0.08552676439285278,0.1741267591714859
87,1.4590690048637884,-1.3470861266063563,2.239959324849588,0.2204655259847641,0.9750810861587524,-0.02473503164947033,-3.056765556335449,0.7005584239959717,1.3530317544937134,0.2496425062417984,0.29258859157562256,0.11010795831680298
88,2.050073835079378,-1.1177477525528214,2.8136662674570823,0.38839149475097656,0.8991168737411499,0.20184428989887238,-2.161027431488037,-0.45938509702682495,1.7350751161575317,0.054159194231033325,1.0593945980072021,0.22961333394050598
89,2.1141316829652053,-0.9395115631666309,2.9504505899325038,0.5051895380020142,0.8072699308395386,0.305120587348938,-1.3114039897918701,0.12541602551937103,0.6855986714363098,-0.6105057597160339,-0.2735786437988281,-0.3390714228153229
90,2.165855053425785,-0.9156921153816227,3.0307619534552073,0.5045228600502014,0.7929844260215759,0.3415151536464691,0.6387012600898743,0.3873255252838135,-0.7109097242355347,-0.43434762954711914,-0.2830508351325989,-0.2910390794277191
91,2.3213179946649554,-1.0585403126439148,3.0287127885955663,0.3584592044353485,0.8716409802436829,0.3342888057231903,-1.9277434349060059,-0.25803473591804504,0.580685555934906,1.144073724746704,0.31334131956100464,1.5721137523651123
92,2.060294076504603,-1.0227640680093553,2.886092682410211,0.4598260223865509,0.8535513877868652,0.2449691742658615,3.149231433868408,-0.3350318968296051,-0.8589362502098083,-0.40733587741851807,-0.034062981605529785,-0.5463454723358154
93,1.9543605899703573,-1.084352028987154,2.8319959971511586,0.4335167407989502,0.8840006589889526,0.17494633793830872,0.5383912920951843,0.05030667781829834,-0.8904975056648254,-0.16630476713180542,-0.3909738063812256,-0.06503723561763763
94,1.7131209974926305,-1.2141942121816576,2.4528448222518713,0.3455626964569092,0.9370884299278259,0.049516890197992325,1.1363277435302734,-0.2547507882118225,-0.451009601354599,-0.07593986392021179,-0.24246245622634888,0.3684518337249756
95,1.3468685633577635,-1.2769383997306756,2.128307894183488,0.28241536021232605,0.9571335911750793,-0.06431932002305984,1.105975866317749,-0.27676284313201904,-0.8567307591438293,0.05538368225097656,-0.26237034797668457,-0.06055861711502075
96,0.8672259351336297,-1.2923435496432818,1.6842024692808486,0.20959758758544922,0.9614818692207336,-0.1778247356414795,1.0239627361297607,-0.4226885437965393,-0.7113397121429443,0.2948732376098633,-0.03621941804885864,0.250319242477417
97,0.7352761813276425,-1.3118516902189294,1.5630664851507974,0.17176349461078644,0.966660737991333,-0.1899062991142273,-1.0955772399902344,0.3731740117073059,0.4350379407405853,0.48224347829818726,0.04498171806335449,0.4367629885673523
98,1.7788653445840843,-1.2943111329106536,2.5315740228851435,0.26708850264549255,0.9620208144187927,0.05638894438743591,-1.9412741661071777,1.0149927139282227,1.6198980808258057,0.36148208379745483,0.4846039414405823,-0.4252549409866333
99,2.065200968950114,-1.068569153732097,2.8922709582255357,0.42373478412628174,0.8765126466751099,0.22841817140579224,-1.5893226861953735,-0.5715030431747437,0.9942620396614075,-0.4098949730396271,0.30439579486846924,-0.14165657758712769
100,2.155373398080206,-0.9553867548819708,2.9587404660620167,0.4814308285713196,0.816537082195282,0.31857720017433167,-0.3051839768886566,0.6933207511901855,0.5596838593482971,-0.38685691356658936,-0.46601223945617676,-0.42578545212745667
101,2.2976035738066667,-0.9928636175510488,3.0052943125148937,0.4082452952861786,0.8375937938690186,0.36300525069236755,1.3515325784683228,0.0797681137919426,-1.3877592086791992,-0.2183801233768463,-0.36653953790664673,-0.08976605534553528
102,2.2772490851396476,-1.0318825616807734,3.0253186436422563,0.39037856459617615,0.8582666516304016,0.3331410586833954,-0.2997869551181793,-3.1171140670776367,0.8644170761108398,0.755388617515564,0.2377569079399109,0.03426003456115723
103,2.115032426676278,-1.026449899503914,2.8769558209465513,0.4430405795574188,0.8554659485816956,0.26812928915023804,-0.47558924555778503,1.6118323802947998,0.21489572525024414,-0.36959999799728394,0.678500235080719,-0.2874316871166229
104,1.9627202908718777,-1.127057389377159,2.7899191168440014,0.3967663645744324,0.9031527638435364,0.16398581862449646,1.5966300964355469,1.5837432146072388,-1.1332893371582031,0.05016353726387024,0.14634662866592407,-0.4469294548034668
105,1.5386881680729363,-1.2453538563695896,2.343262455599318,0.3195631802082062,0.9475093483924866,-0.010264112614095211,1.2009055614471436,0.1333223134279251,-0.7768442630767822,-0.3163588047027588,-0.3109431862831116,0.008707761764526367
106,1.0318480501230027,-1.2962548822597257,1.871772137110547,0.23267608880996704,0.96254962682724,-0.1391405165195465,1.2014662027359009,-0.9596835970878601,-0.8546478748321533,0.29289761185646057,-0.335199773311615,0.22687853872776031
107,0.5584762110485542,-1.296306484272561,1.4239545667377629,0.14363114535808563,0.9625635743141174,-0.22987279295921326,0.3006923794746399,-0.9298789501190186,-0.5234570503234863,0.45922836661338806,0.03307241201400757,0.12736421823501587
108,0.9638711089172037,-1.3409953712646943,1.857470216877483,0.1871030330657959,0.9737117290496826,-0.12991534173488617,-3.1367852687835693,-0.46072226762771606,0.9577142000198364,0.177414208650589,0.4211398959159851,0.2900715470314026
109,1.9213833450572249,-1.2038346179505424,2.7968584120146485,0.3369569182395935,0.9334217309951782,0.12322308123111725,-2.7118184566497803,-0.8624507188796997,1.8333317041397095,0.1568022072315216,0.7208598852157593,-0.1068352460861206
110,2.0862621086639055,-1.015871927974852,3.008586272624909,0.4584180414676666,0.849940299987793,0.2597198188304901,-0.5103220343589783,0.7705683708190918,0.9898460507392883,-0.3130780756473541,-0.24991893768310547,-0.33636474609375
111,2.2040592392612792,-0.9060101072822261,3.061872329156144,0.49727654457092285,0.7870486974716187,0.3650627136230469,0.026805970817804337,0.9841006398200989,0.04588765650987625,-0.40192434191703796,-0.36929357051849365,-0.2923237085342407
112,2.211894797269368,-1.03999320801915,3.046474751341164,0.40570926666259766,0.8624007701873779,0.30276158452033997,1.5550017356872559,0.8159706592559814,-2.139237642288208,-0.14051154255867004,-0.37530988454818726,0.330767959356308
113,2.1703669566297457,-0.997522573518501,3.055430653554163,0.44778168201446533,0.8401298522949219,0.3060617446899414,0.42608678340911865,-2.0995731353759766,0.8071466684341431,0.09184545278549194,0.007526516914367676,0.09193328022956848
114,2.1028524729593854,-1.0462817074303263,2.972673009461998,0.4315659701824188,0.865567147731781,0.2540552616119385,1.7039250135421753,-1.6917755603790283,-0.5262035727500916,-0.291581928730011,0.8948850035667419,-0.5346949100494385
115,1.7997601521744542,-1.16702523347371,2.7226607665380964,0.3826356530189514,0.9195859432220459,0.08917348086833954,3.0498805046081543,-0.152553528547287,-1.0044554471969604,-0.07463690638542175,0.09780919551849365,-0.26838791370391846
116,1.4226728716183956,-1.2733306566171456,2.36998110714477,0.28988856077194214,0.9560823440551758,-0.043256115168333054,1.0058869123458862,-0.8133020401000977,-1.0034282207489014,-0.050432413816452026,-0.27431970834732056,-0.10766857862472534
117,0.8407610856473058,-1.2995496002968918,1.8235856450214287,0.19965066015720367,0.9634376168251038,-0.1786835491657257,1.0030028820037842,-0.18027439713478088,-0.7847184538841248,0.22495564818382263,-0.17173528671264648,0.3539307117462158
118,0.49796330274002426,-1.3070839865389052,1.5307548811887635,0.1245039775967598,0.9654289484024048,-0.22901037335395813,-0.445617139339447,-0.5570170283317566,0.1814088672399521,0.7429887056350708,0.13044202327728271,0.448386013507843
119,1.5793604745283019,-1.377379902715893,2.544326335567891,0.19220644235610962,0.9813532829284668,0.0016461246414110065,-3.0095865726470947,1.8933621644973755,1.4101890325546265,0.4094628691673279,0.5009771585464478,0.04223823547363281
120,2.2126505770189193,-1.1396435557189022,-3.1288542769718313,0.33474746346473694,0.9084845781326294,0.2502002716064453,-2.395009994506836,-0.4953634440898895,1.5773283243179321,-0.15144357085227966,0.6539850234985352,-0.039613693952560425
121,2.246482050132165,-0.9590065466701005,-3.1187289509907843,0.44813990592956543,0.8186213970184326,0.35920682549476624,-0.13544012606143951,1.0741435289382935,1.0513803958892822,-0.3705337345600128,-0.3448207974433899,-0.40667691826820374
122,2.310159486893554,-0.9246027324044812,3.0716815470959413,0.44492876529693604,0.7983816266059875,0.40574052929878235,0.9014446139335632,0.3377203047275543,-0.18656036257743835,-0.38358837366104126,-0.263744056224823,-0.3638245463371277
123,2.348690076641823,-1.0909851350444664,3.077277497935623,0.328849196434021,0.8870820999145508,0.32395023107528687,-1.8031153678894043,2.180238962173462,0.3791930675506592,0.7553945779800415,0.29594719409942627,1.6685577630996704
124,2.162191995804209,-1.0486855092062122,2.9809281001404675,0.4140113592147827,0.8667684197425842,0.278041273355484,2.751159429550171,0.038109950721263885,-0.7781171798706055,-0.0710701048374176,0.046256422996520996,-0.7203936576843262
125,1.944649543316876,-1.1077628773753896,2.831915333444648,0.4158114194869995,0.8947016596794128,0.1631239503622055,1.2075918912887573,-2.944248676300049,-0.9755939841270447,-0.41805458068847656,0.012433111667633057,-0.4963148236274719
126,1.6659738250780511,-1.2458574932446336,2.4627635480486982,0.3178059160709381,0.9476702809333801,0.030339641496539116,0.829703688621521,-0.1717182695865631,-0.860654354095459,-0.030833899974822998,-0.21140319108963013,0.8049417734146118
127,1.2253959518805888,-1.3138095291093594,2.0969301846041044,0.23915605247020721,0.9671602249145508,-0.0860542505979538,1.039910078048706,-0.9372638463973999,-0.6765536069869995,0.2252756655216217,-0.28522980213165283,0.05904615670442581
128,0.6932526762951986,-1.3036752853075433,1.5916799265596684,0.16867883503437042,0.9645348191261292,-0.2030271291732788,0.49622824788093567,-0.12297846376895905,-0.7047991156578064,0.11572973430156708,0.054370760917663574,0.4536832571029663
129,0.6139081485261368,-1.3346572345892131,1.5367019824648644,0.13477103412151337,0.9722484946250916,-0.1912318468093872,-1.4478657245635986,0.9926384687423706,0.6205325722694397,0.5110266804695129,0.05314213037490845,0.2877742052078247
130,1.7753920824384803,-1.2807725502710576,2.647795769382562,0.28001025319099426,0.9582370519638062,0.05810188502073288,-2.10968279838562,0.5043503046035767,1.9164979457855225,0.16759100556373596,0.5454859733581543,-0.322399377822876
131,2.0767008642370905,-1.041890456178575,3.0481452598755823,0.44138234853744507,0.8633596897125244,0.24452322721481323,-1.0776185989379883,0.18825022876262665,1.1671271324157715,-0.41023918986320496,0.07034081220626831,-0.1716473251581192
132,2.1827245189897164,-0.901496919059511,3.0902714534107045,0.5078532695770264,0.7842565178871155,0.3564077913761139,-0.9631993770599365,1.34493887424469,0.4339556396007538,-0.45994073152542114,-0.3697516918182373,-0.3375937044620514
133,2.222816906433944,-0.9566601798356017,3.122876353128056,0.45803970098495483,0.8172715306282043,0.34966641664505005,1.526747226715088,-0.4275604784488678,-1.6812347173690796,-0.3765120506286621,-0.5515704154968262,-0.15491846203804016
134,2.2697419001741066,-1.0090602644128457,-3.124576768742906,0.40775948762893677,0.8463316559791565,0.3427167534828186,0.19349375367164612,-5.0329365730285645,1.5745776891708374,0.9677898287773132,0.9471558332443237,-0.21551957726478577
135,2.279565285140621,-1.0272321014352666,-3.1026743427026937,0.3926316499710083,0.8558707237243652,0.33663859963417053,-0.01580630987882614,-0.3752741515636444,0.3472767770290375,-0.3940660357475281,1.0138801336288452,-0.9527732133865356
136,1.9258879509227,-1.1597516985349707,2.9656128566018163,0.3746402859687805,0.9167039394378662,0.1389201134443283,0.92397540807724,2.805767297744751,-1.0266329050064087,0.10370749235153198,0.21903830766677856,-0.3283122777938843
137,1.6128221876632665,-1.286259849524768,2.556622840501411,0.280464768409729,0.959791898727417,0.011793717741966248,0.765623927116394,0.2501175105571747,-0.7885343432426453,-0.1663137674331665,-0.16372555494308472,-0.08288443088531494
138,1.0622320921842183,-1.337463233383087,2.042287279825911,0.2019595205783844,0.9729011058807373,-0.11258742958307266,1.5659444332122803,-0.3675095736980438,-0.797061026096344,0.4232998788356781,-0.1244971752166748,0.15944713354110718
139,0.5609926702642886,-1.3328527742750076,1.5313827979248187,0.1254013478755951,0.9718247652053833,-0.19957776367664337,0.3063291013240814,-0.7691625952720642,-0.6728615760803223,0.2726394236087799,0.0639570951461792,0.18270152807235718
140,0.9991746580836905,-1.3929344905063432,1.9880303083334545,0.14879880845546722,0.984224259853363,-0.09571614861488342,-2.7983431816101074,-0.15918795764446259,0.863150417804718,0.2176257222890854,0.29179197549819946,0.22565996646881104
141,2.001904121431434,-1.235574319918287,2.896317701177953,0.2988782525062561,0.9443373084068298,0.13747279345989227,-2.353414535522461,-0.31571221351623535,1.6445547342300415,0.1283983588218689,0.8129105567932129,-0.08862949907779694
142,2.150811370816784,-1.024836020687748,3.0910353105875283,0.4343198239803314,0.8546290397644043,0.28456199169158936,-0.6859073638916016,1.135109305381775,1.178765058517456,-0.3714078664779663,-0.1737208366394043,-0.23794639110565186
143,2.221450739728013,-0.9425775440597204,3.073581444739149,0.46762940287590027,0.8090755939483643,0.35597705841064453,0.4544297158718109,0.684026837348938,0.05727360397577286,-0.3120659589767456,-0.3964015245437622,-0.41713425517082214
144,2.2192173761160086,-1.0522906735270334,3.0224185814992746,0.3949984610080719,0.8685607314109802,0.29929661750793457,0.7335555553436279,0.7394855618476868,-1.3609389066696167,0.0134182870388031,-0.2889862060546875,0.39598533511161804
145,2.176550095641037,-1.0019071847770364,3.0259184091600804,0.44284820556640625,0.8424999117851257,0.3067242205142975,0.3342887759208679,-0.5270571708679199,0.412728488445282,0.24860388040542603,-0.21586710214614868,0.1275257170200348
146,2.0736520928986777,-1.0528689333912253,2.923374318433079,0.43379443883895874,0.868847131729126,0.23859402537345886,1.7456341981887817,-2.980666399002075,0.14827954769134521,-0.49698108434677124,0.786853551864624,-0.49282073974609375
147,1.8145126510312302,-1.1663856516048525,2.7350724411344913,0.38184911012649536,0.9193344712257385,0.09495028853416443,2.9580001831054688,0.9035413265228271,-0.9331177473068237,0.05598658323287964,0.22303009033203125,-0.3957163095474243
148,1.3792228353782217,-1.2529562162039596,2.3368153719677878,0.30679866671562195,0.9499126076698303,-0.059504225850105286,0.9624730944633484,-1.0405843257904053,-0.9655919671058655,-0.17157530784606934,-0.19907337427139282,-0.2269032597541809
149,0.8769239045030229,-1.2841914220508517,1.9227041324734284,0.21733038127422333,0.9592092037200928,-0.1807900220155716,0.836368203163147,-0.40875324606895447,-0.8075379133224487,0.24365288019180298,-0.21400058269500732,0.2545967698097229
150,0.5124208701011925,-1.2811922696339317,1.6042381840058217,0.14001330733299255,0.958357036113739,-0.24889425933361053,0.21086928248405457,-1.0998629331588745,-0.24086183309555054,0.5369886755943298,-0.013670027256011963,0.14225056767463684
151,0.9802784236130547,-1.3710211158702883,2.1003648279778524,0.16484230756759644,0.9801112413406372,-0.11049478501081467,-2.9520881175994873,0.6870534420013428,0.7925815582275391,0.3888838589191437,0.2416752576828003,0.22102946043014526
152,1.995079834743816,-1.2280036677894157,3.035226809440854,0.30631616711616516,0.9418196678161621,0.13836920261383057,-2.603602170944214,-0.43186843395233154,1.6729851961135864,0.17988985776901245,0.7207931876182556,-0.17601265013217926
153,2.137930435295324,-1.022127904166624,-3.0628126336474013,0.4398995339870453,0.853219747543335,0.28018635511398315,-0.4251493513584137,0.8366327881813049,1.1055083274841309,-0.4075661301612854,-0.11918044090270996,-0.17203211784362793
154,2.2123029857257106,-0.945742736850357,-3.0824680387892167,0.4688118100166321,0.8109317421913147,0.35015007853507996,-0.1480461210012436,0.975130558013916,0.062405914068222046,-0.37086570262908936,-0.3945194482803345,-0.36655333638191223
155,2.279746516220154,-1.040893836728776,-3.059748492130744,0.3836592733860016,0.862856388092041,0.3290664553642273,0.7481641173362732,0.4160056710243225,-1.3592478036880493,0.10019701719284058,-0.33688580989837646,0.38962259888648987
156,2.2730806991458414,-1.0143047059390222,-3.0608603480394203,0.4032193422317505,0.8491135239601135,0.34120458364486694,0.15817977488040924,-1.485062599182129,0.9699827432632446,0.5850924253463745,-0.20236968994140625,0.015240669250488281
157,2.217752490173521,-1.045398500427732,3.1229571578434507,0.4002033770084381,0.8651244640350342,0.30231866240501404,1.9851562976837158,-1.97983980178833,0.5035858750343323,-0.585338294506073,0.3454618453979492,-0.6196861863136292
158,1.9845042544088265,-1.1624927708300952,2.9824206038450614,0.363555908203125,0.917795717716217,0.15961802005767822,2.0022668838500977,2.2861993312835693,-0.7684875130653381,0.004318177700042725,0.2334035038948059,-0.4653278589248657
159,1.5804044854749015,-1.2926865858356251,2.5634994948247702,0.27452534437179565,0.9615761041641235,0.0026377642061561346,0.6701831817626953,-0.7248117327690125,-0.8604364991188049,-0.08113545179367065,-0.19755339622497559,-0.22363078594207764
160,0.9952222941611464,-1.3241889429746634,2.0491716015275805,0.20478370785713196,0.9697461724281311,-0.13287614285945892,1.0410124063491821,-0.21508634090423584,-0.5776772499084473,0.26887959241867065,-0.0999341607093811,0.2571589946746826
161,0.5516419949534294,-1.3202778698644246,1.616491932740543,0.12992443144321442,0.9687840342521667,-0.21113334596157074,0.3897641897201538,-0.2901606261730194,-0.44461679458618164,0.5338481664657593,-0.06119120121002197,0.06152087450027466
162,1.0534608074557406,-1.3803140290866498,2.1352894981997985,0.16455678641796112,0.9819130301475525,-0.0936376228928566,-2.8728461265563965,0.34033021330833435,1.076613187789917,0.29813551902770996,0.1677146553993225,0.2177830934524536
163,2.0141536921091303,-1.1918638346759745,3.0135876211195214,0.33416327834129333,0.9290600419044495,0.15869030356407166,-2.9083261489868164,-0.800833523273468,1.6047471761703491,-0.04035526514053345,1.1636524200439453,-0.14366041123867035
164,2.13503242179532,-0.9808004809226046,-3.085520722125736,0.470120906829834,0.8309429883956909,0.29752376675605774,-0.7455670833587646,0.40803471207618713,1.160988688468933,-0.3849005103111267,-0.27894091606140137,-0.29785940051078796
165,2.197675076297887,-0.9000280321014037,-3.0928014860469286,0.5034005641937256,0.7833443284034729,0.3646356761455536,0.32353508472442627,1.0258938074111938,-0.13460461795330048,-0.38250523805618286,-0.5606424808502197,-0.36945757269859314
166,2.2114731164030856,-1.0674868127321986,-3.1006504591697945,0.38667771220207214,0.8759911060333252,0.28830549120903015,0.6367833614349365,1.5865612030029297,-1.6039572954177856,0.22268205881118774,0.012818098068237305,0.62320876121521
167,2.1810682503308887,-0.9729158279645526,-3.0562418532042357,0.4612855613231659,0.8265305161476135,0.3225879371166229,0.6432862877845764,0.05723888427019119,-0.19692032039165497,-0.2914094924926758,-0.7322922945022583,0.25898563861846924
168,2.136470021732954,-1.0567369951213794,-3.1103109494394148,0.41512027382850647,0.870755672454834,0.2635522484779358,2.0527007579803467,-2.8160088062286377,0.013243427500128746,-0.26924628019332886,0.407534122467041,-0.421907901763916
169,1.8356032502798267,-1.1869856926983362,2.8987985827024825,0.36140409111976624,0.9272444248199463,0.09800384938716888,1.8859269618988037,-0.021614130586385727,-0.6037413477897644,0.11590608954429626,0.032823264598846436,-0.07822847366333008
170,1.5113570874501674,-1.2651432329317434,2.6127210894001234,0.3003847002983093,0.9536506533622742,-0.01787569560110569,1.1090766191482544,-0.711326539516449,-0.9429343342781067,-0.15597549080848694,-0.14919203519821167,-0.14154815673828125
171,0.9804456947925158,-1.308970206622533,2.1545648404514073,0.21503442525863647,0.9659188985824585,-0.14408674836158752,0.9299447536468506,-0.21450963616371155,-0.6886187195777893,0.21192172169685364,-0.1811593770980835,0.29165446758270264
172,0.5956930939857751,-1.320400424075861,1.8140418446363125,0.1390293836593628,0.9688143730163574,-0.20510871708393097,0.15859399735927582,-0.46307608485221863,-0.461281955242157,0.5002070665359497,-0.009814679622650146,0.19764718413352966
173,1.05402046272275,-1.3766807622059047,2.2790964143133214,0.1677095741033554,0.9812186360359192,-0.09530743956565857,-2.6314120292663574,-0.069627545773983,1.0850484371185303,0.2794034481048584,0.23481523990631104,0.27278244495391846
174,2.029155343952207,-1.2168977594246073,-3.040610387243711,0.3107861280441284,0.9380287528038025,0.15334393084049225,-2.394178628921509,-0.6779391169548035,1.5632293224334717,0.26855963468551636,0.7716577053070068,-0.30072852969169617
175,2.1651956724066235,-1.0122653910627752,-2.8690594321882257,0.4390482008457184,0.8480345606803894,0.29677292704582214,-0.8697078227996826,0.25437793135643005,1.0577367544174194,-0.3715585768222809,-0.14919722080230713,-0.29410266876220703
176,2.2312408283865146,-0.9245156735550628,-2.8869590225814057,0.4755861461162567,0.7983291745185852,0.3694435954093933,0.16056914627552032,0.8496022820472717,0.19983023405075073,-0.2551271319389343,-0.37033528089523315,-0.3370492160320282
177,2.2079731974598307,-1.023366439438682,-2.93200958912146,0.4183622896671295,0.8538650870323181,0.30965709686279297,0.7840937972068787,-0.5439359545707703,-1.5554733276367188,-0.13610520958900452,-0.3272232413291931,0.26778125762939453
178,2.1910745529024718,-1.022817900063258,-2.954192330326567,0.4239163398742676,0.8535794019699097,0.3028157949447632,0.6200445294380188,-1.1404414176940918,0.8265059590339661,0.6215701699256897,0.009061098098754883,0.023066192865371704
179,2.1578534997754617,-1.0639220509985854,-3.04714246590759,0.40417030453681946,0.8742661476135254,0.2688952684402466,0.5033679008483887,-2.5773050785064697,0.13590264320373535,-0.5798600316047668,0.6705945134162903,-0.4159901738166809
180,1.9425082810244745,-1.174777620029599,-3.127139122483027,0.3594042658805847,0.9226040840148926,0.14010798931121826,1.9239128828048706,2.111785411834717,-1.0796107053756714,0.0779583752155304,0.17267179489135742,-0.42424190044403076
181,1.5235384773157703,-1.2871623233247815,2.7011650353777132,0.2795335352420807,0.960044801235199,-0.01321999728679657,1.0680975914001465,0.04098401963710785,-0.8425271511077881,-0.16979235410690308,-0.20618444681167603,-0.174341082572937
182,0.9446400228211623,-1.3370763347720023,2.1992138325538124,0.18766050040721893,0.9728115797042847,-0.13572435081005096,0.8691728115081787,-0.3666881322860718,-0.7602687478065491,0.4553143382072449,-0.13133519887924194,0.44881945848464966
183,0.5617912768966156,-1.345688443013562,1.810747282220172,0.11890530586242676,0.9747700095176697,-0.18890418112277985,0.26208290457725525,-0.10149609297513962,-0.5120983719825745,0.39491915702819824,-0.04320579767227173,0.020630255341529846
184,0.923122784022705,-1.4003869122021506,2.1707180803341126,0.1352429836988449,0.9855154156684875,-0.102316714823246,-2.331932544708252,0.14952467381954193,0.750297486782074,0.22890806198120117,0.11029452085494995,0.1958988904953003
185,1.9622880716105464,-1.245818302907496,-3.118940886898414,0.29513105750083923,0.9476577639579773,0.1218300387263298,-2.2790729999542236,-0.4808304011821747,2.0149426460266113,0.32977738976478577,0.9660537838935852,-0.15857315063476562
186,2.0866342697961904,-1.0321799982697326,-2.946954795551529,0.44620394706726074,0.8584192395210266,0.253019243478775,-0.7049402594566345,1.1668357849121094,1.1125808954238892,-0.3744417726993561,-0.18060851097106934,-0.21459755301475525
187,2.1795035071417366,-0.9308375479041083,-2.936255152727714,0.4899047911167145,0.8021203875541687,0.34146180748939514,0.012677690014243126,0.9208717346191406,0.24721024930477142,-0.3605407774448395,-0.3680993914604187,-0.4075172245502472
188,2.22790304162597,-1.0153677534885048,-2.9396420937339145,0.417502760887146,0.8496745228767395,0.32209470868110657,0.8780233860015869,-0.1089065670967102,-1.5077303647994995,-0.11754542589187622,-0.3941384553909302,0.12143245339393616
189,2.198853338269853,-1.0069997432283522,-2.925242863324648,0.4324202537536621,0.8452323079109192,0.3139989674091339,0.4752725660800934,-1.364580750465393,1.24928617477417,0.7836900353431702,-0.13626307249069214,0.017910152673721313
190,2.2137492953866627,-1.0422852155876392,-3.026305848419744,0.4035643935203552,0.8635587692260742,0.30232781171798706,0.8815866112709045,-3.000582218170166,0.8823955059051514,-0.558456301689148,1.0824708938598633,-0.6874749660491943
191,1.9616078614426828,-1.1498879173235543,-3.1376038020065264,0.37778228521347046,0.9127181768417358,0.15564776957035065,1.4926382303237915,3.455033540725708,-1.2310435771942139,0.06055697798728943,0.24192965030670166,-0.39652299880981445
192,1.5598030825045794,-1.2881341870309357,2.692231315800093,0.2788962125778198,0.9603163599967957,-0.003066097851842642,1.4230514764785767,-0.004670113790780306,-0.8699977993965149,-0.059764742851257324,-0.32719868421554565,-0.1020822525024414
193,1.003659390831037,-1.3260502085867143,2.148638983804994,0.20437462627887726,0.9701988697052002,-0.1301736831665039,0.9097902774810791,0.1815006136894226,-0.6237903833389282,0.26556557416915894,-0.2120201587677002,0.2784585952758789
194,0.6351695593689309,-1.3385321866802913,1.7961360066680516,0.13656960427761078,0.9731477499008179,-0.18528905510902405,0.16914302110671997,-0.7637008428573608,-0.39375895261764526,0.4893306493759155,0.06080293655395508,0.033174172043800354
195,1.1000915417000052,-1.3867524135935676,2.264023461967999,0.16310429573059082,0.9831116795539856,-0.08299608528614044,-2.5862224102020264,-0.058067597448825836,0.8904452919960022,0.18494866788387299,0.15746748447418213,0.32585495710372925
196,1.949278134762098,-1.2094120622474256,3.0667652581661002,0.32854577898979187,0.9354082942008972,0.13064734637737274,-2.272496461868286,-1.5056391954421997,1.9544398784637451,0.04759860038757324,0.9563609957695007,-0.06924594938755035
197,2.0628521491474183,-1.0096912288722804,-3.020501392269983,0.46899327635765076,0.8466675877571106,0.2513952851295471,-0.9759931564331055,0.9424203038215637,0.720217227935791,-0.4148550033569336,-0.22558897733688354,-0.1969519555568695
198,2.198892395326013,-0.9200643765197717,-2.9402351552281756,0.4901564121246338,0.7956406474113464,0.3559529185295105,-0.33655256032943726,0.802038311958313,-0.15325604379177094,-0.37336573004722595,-0.3672196865081787,-0.3141133189201355
199,2.1850467344318742,-1.0389960716560225,-2.9274830495782034,0.4143935441970825,0.8618955612182617,0.29225701093673706,1.025065541267395,-0.0020670401863753796,-1.3424935340881348,0.20404520630836487,-0.2571134567260742,0.26197266578674316
200,2.1337582233791323,-0.968180328497525,-2.9481809347404533,0.4793301820755005,0.8238556981086731,0.3024972975254059,-0.3360013961791992,-1.3064180612564087,1.2016578912734985,0.4310549199581146,-0.09797978401184082,0.5808340311050415
201,2.1452479520065113,-1.0199428477553283,-2.959135243936743,0.439401775598526,0.8520780801773071,0.2844103276729584,1.1604323387145996,-2.2712061405181885,-0.0948898196220398,-0.3845463693141937,1.09682035446167,-0.5171526670455933
202,1.9524953448361841,-1.1454258515259503,-3.063073038088667,0.3829604387283325,0.9108859300613403,0.15371423959732056,2.614309310913086,0.8042556643486023,-1.074038028717041,0.1981704831123352,0.3072231411933899,-0.4022798538208008
203,1.5936078347248255,-1.2673754750361654,2.833481645095265,0.2987087070941925,0.954319953918457,0.006815178319811821,1.05967116355896,0.06689311563968658,-0.918070912361145,-0.1747005581855774,-0.2969866394996643,-0.023859262466430664
204,1.0344088280888268,-1.3318693019265464,2.298900182833668,0.20342400670051575,0.9715924859046936,-0.12094161659479141,1.4448455572128296,-0.11749971657991409,-0.9216324687004089,0.25728461146354675,-0.24988222122192383,0.1687932014465332
205,0.47398430017854976,-1.334110225077954,1.7523811185705875,0.10702595859766006,0.9721203446388245,-0.20863230526447296,0.221821591258049,-0.3160783350467682,-0.5147785544395447,0.5446768999099731,-0.027570784091949463,0.10575753450393677
206,0.9018962198946765,-1.384960495842302,2.1726246215838874,0.14495167136192322,0.9827821850776672,-0.11457929015159607,-2.330024003982544,-0.35168924927711487,1.1275421380996704,0.32471388578414917,0.3001616597175598,0.11091719567775726
207,1.9295170604945142,-1.2203166878551317,-3.118290432798842,0.32149285078048706,0.9392081499099731,0.120541512966156,-2.665684700012207,-1.487249732017517,1.7337363958358765,-0.027410238981246948,0.9377296566963196,-0.28619086742401123
208,2.0775405222739605,-1.0220983361793314,-2.908002884548631,0.45602986216545105,0.8532043695449829,0.2531385123729706,-0.7211804389953613,0.9568440318107605,1.075176477432251,-0.39240071177482605,-0.2122436761856079,-0.30126476287841797
209,2.1744323168868065,-0.9222985572958237,-2.871581514418365,0.49725082516670227,0.7969920039176941,0.34284844994544983,-0.1846507340669632,0.09952472895383835,-0.11793921887874603,-0.43800103664398193,-0.3627117872238159,-0.36286798119544983
210,2.1694813558064134,-1.040765674777481,-2.8685108028203836,0.4176315367221832,0.8627915978431702,0.2849116325378418,0.8061971664428711,0.5738058686256409,-1.6667945384979248,0.11538845300674438,-0.3451981544494629,0.4519047737121582
211,2.1204616186675906,-0.9887358374459465,-2.8855945635621723,0.4687682092189789,0.8353316783905029,0.2871883809566498,0.7659955620765686,0.005809157621115446,0.45444148778915405,-0.07583916187286377,-0.1388443112373352,0.5144931077957153
212,2.1065866139125937,-1.0330141444202474,-2.942783622283989,0.4404507577419281,0.8588468432426453,0.2615051567554474,1.2968641519546509,-3.4644999504089355,-0.03930206596851349,-0.6298734545707703,1.1411073207855225,-0.23658770322799683
213,1.9181546364464253,-1.1580791957247158,-3.0804424462590707,0.3771445155143738,0.9160343408584595,0.13654053211212158,3.323681592941284,1.0605024099349976,-1.0773499011993408,0.14022007584571838,0.3270534873008728,-0.4946185350418091
214,1.5025211725281553,-1.265744007212894,2.7684002909686525,0.29964354634284973,0.9538312554359436,-0.02049005776643753,0.9714171290397644,-0.6976888179779053,-0.7206854224205017,-0.22515013813972473,-0.28355830907821655,-0.20405828952789307
215,0.9521259753033446,-1.3111161681026198,2.2866296362232643,0.20917898416519165,0.9664721488952637,-0.14891527593135834,1.23434317111969,-0.3089558780193329,-0.8524053692817688,0.44095227122306824,-0.17263364791870117,0.35094165802001953
216,0.5554112836318551,-1.3192214965203197,1.8894267572985233,0.13125886023044586,0.9685215950012207,-0.2115115225315094,0.2621733546257019,-0.7617597579956055,-0.5157344341278076,0.44952118396759033,0.1464228630065918,0.07120692729949951
217,0.9667371233831344,-1.3856751693143055,2.3147368753067643,0.15149244666099548,0.9829139709472656,-0.10454683005809784,-2.7444348335266113,0.3702962100505829,0.8348249197006226,0.25628340244293213,0.11640536785125732,0.27961087226867676
218,2.022872830854268,-1.2249535850491697,-2.922696674973449,0.3049352169036865,0.9407901167869568,0.14808224141597748,-2.744112730026245,-0.9179414510726929,1.6637979745864868,0.2644006609916687,0.9042415618896484,-0.19475890696048737
219,2.16891165939161,-1.0195383173943549,-2.7848307759819155,0.43283355236053467,0.8518663048744202,0.294921338558197,-0.7480037808418274,0.5089030265808105,1.178934931755066,-0.39515969157218933,-0.233748197555542,-0.2530970871448517
220,2.1944711827496013,-0.9473322927755886,-2.8338815933574786,0.47393378615379333,0.8118608593940735,0.3409818112850189,0.28114840388298035,0.3690224587917328,-0.07238398492336273,-0.2907826006412506,-0.42578303813934326,-0.3081907331943512
221,2.2106252363490198,-1.0708848838903928,-2.83783943732944,0.3845318853855133,0.8776249885559082,0.28619858622550964,0.6441458463668823,1.0026406049728394,-1.6449949741363525,0.06528198719024658,-0.1942753791809082,0.31481456756591797
222,2.11443529474658,-0.9892741466017899,-2.860825168208689,0.47010567784309387,0.8356274962425232,0.28412574529647827,1.2551913261413574,-0.3386326730251312,0.9239473342895508,0.23802423477172852,-0.5946149230003357,-0.3282235860824585
223,2.1553194001810154,-1.065565072046877,-2.930410370361891,0.4036523401737213,0.8750625848770142,0.2670775055885315,1.1328284740447998,-4.537112236022949,0.35541877150535583,-0.49821096658706665,0.4792008399963379,-0.6179381608963013
224,1.9142835278123513,-1.1992462094670495,3.123557063283199,0.34185269474983215,0.9317656755447388,0.12226884067058563,3.596173048019409,1.2587779760360718,-1.029469609260559,-0.018351107835769653,0.02239704132080078,-0.4087984561920166
225,1.4742096398709712,-1.3221001088001174,2.6620754623780436,0.2449927181005478,0.9692341685295105,-0.023736894130706787,1.4641385078430176,-0.3338087201118469,-0.9324339628219604,0.07742546498775482,-0.3083456754684448,-0.2106075882911682
226,0.8644592079067889,-1.3478575370141297,2.0784714047828703,0.16819827258586884,0.9752519130706787,-0.1435033529996872,1.2828353643417358,-0.4936566650867462,-0.8563176989555359,0.25549250841140747,-0.13582003116607666,0.21978197991847992
227,0.49464725055077435,-1.3601240864936601,1.7272912677003032,0.09927234798669815,0.9778905510902405,-0.18405158817768097,-0.4777768850326538,-1.0689167976379395,0.1387018859386444,0.6774762868881226,-0.038284897804260254,0.2570496201515198
228,1.7763841322012597,-1.3616050718360087,2.970488542492515,0.20329560339450836,0.9781991839408875,0.04239406809210777,-2.387025833129883,0.6920987367630005,1.8301631212234497,0.36018097400665283,0.41450101137161255,-0.3076833486557007
229,2.0542102190020506,-1.0991118851178012,-2.955454612363582,0.40232062339782715,0.8908041715621948,0.21120132505893707,-1.8604332208633423,-0.5399021506309509,1.558885931968689,-0.35405710339546204,0.7279396653175354,0.11051498353481293
230,2.15547258216196,-0.9613398363534816,-2.9362415357287976,0.4773373007774353,0.819959282875061,0.31593647599220276,-0.6807851791381836,1.0365382432937622,0.9666612148284912,-0.4520077109336853,-0.5234962701797485,-0.26874101161956787
231,2.21171795645962,-0.9521946608982274,-2.91767341985326,0.46481308341026306,0.814690113067627,0.3467400372028351,0.5359392762184143,-0.17938759922981262,-0.9639538526535034,-0.46408069133758545,-0.4609609842300415,-0.2647087872028351
232,2.378510864038568,-1.0561578272611876,-2.8592910237853766,0.34019890427589417,0.8704707026481628,0.35573214292526245,-0.8172510266304016,0.022806985303759575,0.8104062676429749,1.2384905815124512,0.4158908724784851,0.7327994108200073
233,2.1876582786540117,-1.0557385273217106,-2.9531758592873807,0.4018006920814514,0.8702642321586609,0.2849498689174652,1.3671183586120605,1.4616026878356934,-1.5417996644973755,-0.25433972477912903,0.022405385971069336,-0.6957775354385376
234,1.9917089573743896,-1.1085374487010613,-3.0167504617022876,0.4070451855659485,0.8950473666191101,0.1822209507226944,0.6215100288391113,-1.2469333410263062,-1.2323384284973145,-0.281907856464386,-0.1515476107597351,-0.3565526008605957
235,1.754114902839927,-1.253015771023982,2.94286048353491,0.3072236478328705,0.949931263923645,0.05695929005742073,1.1699928045272827,-0.4541134238243103,-0.6232630610466003,-0.08446061611175537,-0.19179832935333252,0.19886958599090576
236,1.2444436193006727,-1.3353354840634193,2.4499104432858556,0.22097747027873993,0.9724069237709045,-0.07479087263345718,1.3101630210876465,-1.1028997898101807,-0.792506992816925,0.10598783195018768,-0.24019873142242432,-0.07721715420484543
237,0.6363744907840101,-1.3429174409000584,1.8678034585388978,0.1342555284500122,0.9741477966308594,-0.18169066309928894,0.4967782199382782,-0.2931053638458252,-0.8196850419044495,0.3237828016281128,-0.12710189819335938,0.33467531204223633
238,0.6421296894857275,-1.3798934131593377,1.87471082830609,0.11363916099071503,0.9818333387374878,-0.1519525796175003,-1.672700047492981,0.23039859533309937,0.457101434469223,0.3045279383659363,0.1867915391921997,0.2671716809272766
239,1.8388888274361335,-1.3142046283823452,3.0630866878080143,0.2447199821472168,0.9672605991363525,0.06722595542669296,-1.8236160278320312,0.3412536084651947,2.008626699447632,0.324463427066803,0.3549593687057495,-0.23682737350463867
240,2.0940546715251553,-1.084153690737736,-2.9140069542318914,0.40508580207824707,0.8839079737663269,0.23369257152080536,-1.127173900604248,1.0553627014160156,1.164915680885315,-0.4625808894634247,0.1693146824836731,-0.14046144485473633
241,2.180377220567577,-0.9528155000017182,-2.875081953846633,0.47503530979156494,0.8150500059127808,0.3317148983478546,-0.48483070731163025,0.17542698979377747,0.41707372665405273,-0.3280779719352722,-0.3314533233642578,-0.2910044491291046
242,2.1725472713293743,-0.9815254232719458,-2.9449390384425063,0.4581340551376343,0.8313460946083069,0.31460538506507874,1.4980071783065796,0.2703301012516022,-0.9180864691734314,-0.23889586329460144,-0.43293917179107666,-0.11379987001419067
243,2.1482911272945935,-1.030359235411286,-2.947645765031469,0.4310741722583771,0.8574838638305664,0.280885249376297,-0.5548945665359497,-3.552821636199951,0.7826926112174988,0.6763019561767578,0.3392171859741211,0.3726639747619629
244,2.024429835133579,-1.0824244951651067,-3.071031865415173,0.4217354357242584,0.8830979466438293,0.20561471581459045,-3.0625250339508057,3.3278191089630127,-0.5782746076583862,-0.12655410170555115,0.8104599118232727,0.11596432328224182
245,1.679073781342124,-1.1019797387850192,3.136592308884654,0.44918522238731384,0.8921036124229431,0.04882759973406792,0.39886683225631714,1.792646884918213,-1.640295147895813,-0.4116179943084717,-0.08415061235427856,-0.23225343227386475
246,1.3979319779422656,-1.2554416643526867,2.7007122194701925,0.30553147196769714,0.9506864547729492,-0.05334794521331787,0.3542316257953644,-0.28624293208122253,-0.8847880363464355,-0.019215553998947144,-0.29672515392303467,-0.047772057354450226
247,1.0319250215510178,-1.2888930552491313,2.3794628824886757,0.23876242339611053,0.9605277180671692,-0.1427551954984665,0.9482991695404053,-0.5901389718055725,-0.6516780853271484,0.25495094060897827,-0.2924674153327942,0.0922027975320816
248,0.645375343034147,-1.2887129148793166,1.9866596011191713,0.1674315184354782,0.9604775905609131,-0.22237251698970795,0.28552865982055664,-0.1721445918083191,-0.7018086314201355,0.2553437650203705,-0.056913137435913086,0.08679813146591187
249,0.893077693906459,-1.344420497542086,2.2547828589191994,0.17484542727470398,0.974486231803894,-0.14073222875595093,-2.5478146076202393,0.21415014564990997,0.8619760870933533,0.2978413701057434,0.17241007089614868,0.2454991489648819
250,1.873863208994261,-1.2018757595284248,-3.040161789304588,0.3441743850708008,0.9327171444892883,0.10762326419353485,-2.743435859680176,-0.9195601344108582,1.761855959892273,0.04790017008781433,1.0596230030059814,0.01514899730682373
251,2.0977707462895583,-1.0150295701116396,-2.7560992941886795,0.4560174345970154,0.8494961261749268,0.265338271856308,-1.0779985189437866,0.3692781925201416,0.8863215446472168,-0.38419434428215027,-0.29076504707336426,-0.32292497158050537
252,2.19800092833089,-0.9036725165157368,-2.696697806918065,0.500967264175415,0.7856044769287109,0.3631221055984497,-0.2682475447654724,0.7701613903045654,-0.2796291708946228,-0.37819498777389526,-0.4369715452194214,-0.2979517877101898
253,2.211297717341508,-1.0125983275409578,-2.6748710316441184,0.42467811703681946,0.8482109308242798,0.3165225684642792,1.2532747983932495,0.4577007591724396,-1.8496031761169434,-0.09849101305007935,-0.24416130781173706,0.31905171275138855
254,2.136452217678385,-0.9719549954814513,-2.6886004708456577,0.47588473558425903,0.825989305973053,0.30211859941482544,-0.014993441291153431,-1.6012159585952759,0.5728187561035156,0.29228848218917847,-0.4215703010559082,0.41132140159606934
255,2.125668505410651,-1.0217240895647417,-2.7592329487926897,0.4435947835445404,0.8530091047286987,0.27495288848876953,0.9589895009994507,-2.8208463191986084,-0.2800683379173279,-0.4872349500656128,0.222750723361969,-0.4381151497364044
256,1.9593322938470965,-1.145957548399942,-2.8846178533527254,0.3814525902271271,0.911105215549469,0.15614552795886993,3.5860681533813477,1.1566885709762573,-0.9242570400238037,0.013124436140060425,0.13329792022705078,-0.4770379066467285
257,1.5587263356249468,-1.2778408683816127,2.975922238979633,0.2887619733810425,0.9573945999145508,-0.0034855238627642393,1.143329381942749,0.09847407042980194,-0.9761937260627747,-0.04100498557090759,-0.2510347366333008,-0.11533463001251221
258,1.0700021816742875,-1.3308160340298159,2.5000950905152335,0.20849616825580597,0.9713426828384399,-0.11411706358194351,0.7476587891578674,0.13660162687301636,-0.15267948806285858,0.24343864619731903,-0.14358395338058472,0.4169734716415405
259,0.7595119105509728,-1.3296571313663168,2.1943364228342452,0.16443634033203125,0.9710665345191956,-0.17317785322666168,-0.07228700071573257,-0.8449133634567261,-0.29705050587654114,0.43967437744140625,0.07194799184799194,0.284185528755188
260,1.4811113668354967,-1.381366164490623,2.9224737916824344,0.18754206597805023,0.9821116924285889,-0.016864944249391556,-2.9040274620056152,1.1488155126571655,1.0597012042999268,0.3284643888473511,0.09442633390426636,0.10544228553771973
261,2.0581277589346456,-1.15186703132299,-2.7717220514812753,0.3594271242618561,0.9135249853134155,0.19048388302326202,-2.338257312774658,-2.1984846591949463,1.5728145837783813,0.012963593006134033,1.14650297164917,-0.18488384783267975
262,2.138567557269453,-1.003475112474702,-2.665248020779482,0.45306146144866943,0.8433434963226318,0.2889755368232727,-0.4454554319381714,1.0169847011566162,1.1258870363235474,-0.3504613935947418,-0.4564112424850464,-0.28096476197242737
263,2.169974219536658,-0.9352664466764424,-2.7080760961528463,0.4901979863643646,0.804757297039032,0.33477121591567993,0.2610171139240265,0.9047792553901672,-0.18354234099388123,-0.411920428276062,-0.5315791368484497,-0.27906131744384766
264,2.2476074429580164,-1.077375002771319,-2.6858462876038867,0.3692390024662018,0.8807175159454346,0.2966468632221222,-1.2086453437805176,3.3895840644836426,-0.8123059868812561,0.5001152753829956,0.20215296745300293,0.9982903003692627
265,2.046763751686479,-1.0855792872051584,-2.824935685531498,0.4145597815513611,0.884573757648468,0.213703915476799,2.4281742572784424,4.254730224609375,-1.386339783668518,0.11119699478149414,-0.2885502576828003,-0.4440505802631378
266,1.8744591719191386,-1.0807465782510841,-2.932255930467233,0.4491356611251831,0.8823094367980957,0.14073853194713593,0.7586501240730286,-3.359975576400757,-1.1267880201339722,-0.6050804853439331,-0.1057133674621582,-0.5534429550170898
267,1.6679950515179238,-1.2439908618498527,2.9376657769508063,0.31950369477272034,0.9470726847648621,0.031153522431850433,0.6729729175567627,0.2400837391614914,-1.0230021476745605,-0.2213287055492401,-0.1700342297554016,1.2513477802276611
268,1.2308213788906028,-1.3146294015308828,2.5174506984074307,0.23887190222740173,0.9673683047294617,-0.084491066634655,1.0907362699508667,-0.7350467443466187,-0.708263099193573,0.05576004087924957,-0.28418660163879395,-0.09080194681882858
269,0.7561646205260111,-1.3430338488404676,2.0913016540082356,0.15492887794971466,0.9741740822792053,-0.16426263749599457,0.10635464638471603,-0.2383488416671753,-0.67865389585495,0.28061801195144653,-0.0740121603012085,0.29699885845184326
270,0.988897943147565,-1.3802173413363137,2.345544110258781,0.15825155377388,0.9818947315216064,-0.10411133617162704,-2.137514352798462,0.6307938694953918,0.7568942904472351,0.417035311460495,0.25640177726745605,0.43397581577301025
271,1.9465858676520662,-1.2202352889251025,-3.0470042292319857,0.3194599747657776,0.9391801953315735,0.12603934109210968,-2.021949052810669,-1.3745017051696777,2.447561740875244,0.2703074514865875,0.907575786113739,-0.1549089103937149
272,1.9851319704650263,-1.0064873655065367,-2.8821048160904326,0.4895767271518707,0.8449583649635315,0.21531370282173157,-0.6558804512023926,1.3655544519424438,1.1711578369140625,-0.5008834600448608,-0.02769768238067627,-0.15624690055847168
273,2.177406979087455,-0.9036116102931,-2.779121364881289,0.5083775520324707,0.7855668067932129,0.35275596380233765,-0.8150387406349182,-0.31976431608200073,-0.2181607484817505,-0.5000921487808228,-0.45725882053375244,-0.41476768255233765
274,2.20164618029116,-0.9908216824346869,-2.7263659613155227,0.44252684712409973,0.8364765644073486,0.32322922348976135,0.6039237976074219,0.6527674198150635,-1.7692573070526123,0.07640939950942993,-0.2574054002761841,0.21963265538215637
275,2.1696932455533484,-0.9450914015970447,-2.731857326144642,0.4837378263473511,0.8105504512786865,0.33016008138656616,-0.40131548047065735,-0.1899939328432083,1.0149520635604858,0.4808312952518463,-0.08487296104431152,0.6378421783447266
276,2.201200563905446,-1.0309281330532762,-2.744894194277603,0.41522207856178284,0.8577764630317688,0.3030017018318176,0.6229638457298279,-0.9610660076141357,0.11351531744003296,-0.2474975287914276,1.2047539949417114,0.02577933669090271
277,1.8980994505397277,-1.1372960587912848,-2.8871219254639073,0.39775046706199646,0.9075010418891907,0.1350419968366623,0.7331668734550476,2.28755259513855,-1.6930556297302246,0.05606117844581604,-0.07316577434539795,-0.2978990077972412
278,1.6019450021667112,-1.2666422325092652,3.0358817839322163,0.29934096336364746,0.9541006088256836,0.00932709127664566,1.0940967798233032,0.27726641297340393,-0.9073957800865173,-0.11432817578315735,-0.3369741439819336,-0.08136391639709473
279,1.0571205945138369,-1.3160713377157167,2.5054430205701714,0.21946017444133759,0.9677326083183289,-0.12381821870803833,1.2186791896820068,-0.7039594054222107,-0.7419868111610413,0.1338113248348236,-0.08876532316207886,0.2478264570236206
280,0.5497438232111498,-1.3395078819071793,2.031912925245317,0.1197662502527237,0.9733718633651733,-0.19545607268810272,0.23661039769649506,0.023792656138539314,-0.6443101763725281,0.5000457167625427,-0.07949686050415039,0.0636049211025238
281,0.9593885362947399,-1.3950245697759607,2.4666409396333937,0.1431887149810791,0.9845919013023376,-0.1003776416182518,-2.359276533126831,-0.3158552944660187,0.8507882952690125,0.24491854012012482,0.22942781448364258,0.19539417326450348
282,1.9743027373064357,-1.2410280730397307,-2.876751310865977,0.2978179156780243,0.9461174011230469,0.12714816629886627,-2.3399276733398438,-0.6205686330795288,2.0607075691223145,0.2643769383430481,0.9733620882034302,-0.23348663747310638
283,2.105502172710225,-1.016618834209483,-2.698882001113307,0.4527900218963623,0.850333571434021,0.26816755533218384,-0.6656714081764221,1.1214077472686768,1.3291044235229492,-0.4657905697822571,-0.31256818771362305,-0.27805522084236145
284,2.1943025819421313,-0.8999603526346474,-2.723409551775472,0.5046707987785339,0.7833022475242615,0.3629671037197113,0.2782300114631653,1.1047773361206055,0.4711976647377014,-0.33439797163009644,-0.4677656292915344,-0.4270845353603363
285,2.2159330601545215,-1.0074794342193336,-2.7525942185302927,0.42667028307914734,0.8454885482788086,0.32109448313713074,1.5324270725250244,-0.3980218470096588,-2.2859041690826416,-0.3197824954986572,-0.3022451400756836,0.20544052124023438
286,2.120301001400291,-0.9653328848591203,-2.6924453095159477,0.48535555601119995,0.8222384452819824,0.2972433269023895,0.37612807750701904,-4.3595685958862305,1.1306655406951904,0.6229207515716553,-0.518314003944397,-0.03485327959060669
287,2.192380502320412,-1.0451425810010604,-2.7641714454624724,0.4079245924949646,0.864996075630188,0.29219773411750793,2.0259459018707275,-1.8536268472671509,1.3033514022827148,-0.6487845182418823,1.548593521118164,-0.41399332880973816
288,1.867597966144158,-1.1489728837601796,-2.900627613342981,0.391523152589798,0.9123439192771912,0.11974159628152847,2.192383050918579,2.6551218032836914,-1.4999914169311523,0.12320151925086975,0.12461280822753906,-0.40662217140197754
289,1.4409184840922789,-1.2908256659911341,2.897067235000745,0.2739998400211334,0.9610635638237,-0.03578795865178108,1.3849937915802002,-0.2182014137506485,-0.990187406539917,-0.11297383904457092,-0.3469889163970947,-0.1893707513809204
290,0.8322832266902243,-1.323781785129718,2.349188204951789,0.18080809712409973,0.969646692276001,-0.164601668715477,0.9138784408569336,-0.4667032063007355,-0.9052190184593201,0.27808475494384766,-0.000835716724395752,0.4211782217025757
291,0.5092820066497353,-1.3492552997277267,2.0559718402333553,0.1071310043334961,0.9755600094795227,-0.19184786081314087,-0.37150833010673523,-0.9442809224128723,0.11777051538228989,0.6347970366477966,0.047496020793914795,0.19430454075336456
292,1.6228392082856131,-1.385561688538979,-3.1205288490822243,0.1839272677898407,0.9828930497169495,0.009580755606293678,-2.446410894393921,1.3218233585357666,1.6697392463684082,0.4348928928375244,0.286332905292511,-0.06010258197784424
293,2.03191870231105,-1.1171763338265739,-2.683689229432951,0.3924512565135956,0.8988666534423828,0.1949883997440338,-2.1333260536193848,-1.697107195854187,2.044262170791626,-0.18216991424560547,1.1077250242233276,0.034473150968551636
294,2.110731768008332,-0.9606289027718083,-2.6669038320925864,0.49149030447006226,0.8195521235466003,0.2945707142353058,-0.41561755537986755,1.3667030334472656,1.164839267730713,-0.44797220826148987,-0.541018009185791,-0.182632178068161
295,2.1978116044672267,-0.9361730569859951,-2.6540748983681106,0.4800989627838135,0.8052951097488403,0.347857266664505,0.4043360948562622,0.4134901463985443,-0.7604316473007202,-0.47007396817207336,-0.3698551058769226,-0.23277547955513
296,2.3533519889168772,-1.0351266376915895,-2.5849795514826788,0.36194393038749695,0.8599269986152649,0.3598921000957489,-1.1278784275054932,0.5174246430397034,0.5561579465866089,1.2672369480133057,0.5119296908378601,1.7641009092330933
297,2.1163740134970555,-1.027700648273165,-2.7414277790673864,0.44176530838012695,0.8561129570007324,0.2681678831577301,0.05207427591085434,2.195791482925415,-1.7689346075057983,-0.45423170924186707,-0.07820463180541992,-0.47654199600219727
298,1.9565100725719133,-1.0684405309458296,-2.748053006601509,0.4461164176464081,0.8764507174491882,0.1811470091342926,0.7761039137840271,-2.2434816360473633,-1.1738611459732056,-0.38944533467292786,-0.161240816116333,-0.3351844549179077
299,1.7241895788205146,-1.2503228065421492,-3.0841016216371666,0.3113171458244324,0.9490863680839539,0.04813205078244209,1.3390488624572754,-0.563673198223114,-0.8062295913696289,-0.09859436750411987,-0.20125311613082886,0.6000155210494995
300,1.2431398266829856,-1.3357761612539354,2.779180733272401,0.22047396004199982,0.9725096225738525,-0.07494097203016281,1.08966863155365,-1.283006191253662,-0.873132586479187,0.13046292960643768,-0.3054564595222473,0.050923652946949005
301,0.5718819264184284,-1.3471929248707737,2.1416994895463044,0.12001156806945801,0.9751047492027283,-0.18646140396595,0.5724551677703857,-0.0815947875380516,-1.1020896434783936,0.3331286609172821,-0.06948041915893555,0.2573842406272888
302,0.683957465951751,-1.399147926783075,2.271960366279108,0.10792719572782516,0.9853045344352722,-0.13238900899887085,-2.1940274238586426,0.49479997158050537,0.6188839673995972,0.34313786029815674,0.09741342067718506,0.5082739591598511
303,1.9363261587820424,-1.2877287213524613,-2.8933697696022413,0.2608505189418793,0.9602031707763672,0.09983514994382858,-1.447744369506836,0.7092792391777039,2.458958148956299,0.5788254737854004,0.8388386964797974,-0.4453094005584717
304,2.054269487980573,-1.02696050862466,-2.6816383741143337,0.4581182599067688,0.8557302355766296,0.24052737653255463,-0.4584445655345917,0.6559579372406006,1.3133795261383057,-0.5414770841598511,0.07249236106872559,-0.2921173572540283
305,2.1906180927051784,-0.9068786615176825,-2.69506178413919,0.5015813708305359,0.7875841856002808,0.35794851183891296,-0.2742912471294403,1.0531244277954102,0.32549455761909485,-0.46702027320861816,-0.543580949306488,-0.43053463101387024
306,2.192425378264664,-0.9797058937025181,-2.698611018526302,0.45301946997642517,0.8303335309028625,0.32453009486198425,1.766390323638916,-0.35542765259742737,-1.670455813407898,-0.417466402053833,-0.4417073130607605,0.03220513463020325
307,2.1933593281883104,-1.0041436715569836,-2.668941389516781,0.43609827756881714,0.8437026143074036,0.31302496790885925,0.28720200061798096,-5.287668704986572,1.3439838886260986,0.8024119138717651,0.31982600688934326,-0.19315192103385925
308,2.276358149983632,-1.0514845478717394,-2.626768549083491,0.3777939975261688,0.8681609630584717,0.32182037830352783,-0.43156152963638306,0.4048326015472412,-0.11753454804420471,-0.24482887983322144,1.4652893543243408,-0.8934603929519653
309,1.743244859076004,-1.1452335421537683,-2.89056866731758,0.4067097306251526,0.9108065366744995,0.07084012031555176,0.4369983375072479,2.7051432132720947,-1.5592302083969116,-0.16801658272743225,-0.17702680826187134,-0.15772368013858795
310,1.528637164645218,-1.2828699060848148,3.0119681703967043,0.2837121784687042,0.9588347673416138,-0.011968160048127174,0.4638092815876007,0.5354856848716736,-0.6359058022499084,0.1627752184867859,-0.30899351835250854,-0.178888738155365
311,0.9993694209389993,-1.3009727829856124,2.566795797720866,0.22421281039714813,0.9638179540634155,-0.14416514337062836,1.2874196767807007,-0.5684810280799866,-0.7179123759269714,0.23637375235557556,-0.03509175777435303,0.08934032917022705
312,0.6189155092470356,-1.319418531249801,2.21244033479738,0.14430613815784454,0.9685706496238708,-0.2025994509458542,-0.0041463011875748634,-1.8098938465118408,-0.5300381183624268,0.5065422058105469,0.12797164916992188,0.1968773901462555
313,1.0745363952333755,-1.3883871987287804,2.6872607002351145,0.1595171093940735,0.9834095239639282,-0.086371511220932,-2.6554434299468994,0.08661036193370819,0.7821747660636902,0.271894633769989,0.14154469966888428,0.2884436845779419
314,2.0029150392351305,-1.1964357008367699,-2.7326364388325857,0.3320644795894623,0.9307416081428528,0.15314410626888275,-2.8692498207092285,-1.4029083251953125,1.879679560661316,0.12766751646995544,1.2615801095962524,-0.11428000032901764
315,2.085737257294795,-0.9978048534075368,-2.576000996327988,0.4718433916568756,0.8402829170227051,0.2669990062713623,-0.29616686701774597,1.469459891319275,1.0317195653915405,-0.3858448266983032,-0.3891720771789551,-0.2613227367401123
316,2.1942761686733783,-0.9120169043168375,-2.5993747334387374,0.49697649478912354,0.7907400131225586,0.35741332173347473,0.1786881387233734,0.5193698406219482,-0.2843744158744812,-0.4538552165031433,-0.48809731006622314,-0.4011909067630768
317,2.2431562622999444,-1.071010332021188,-2.570655081538768,0.374933660030365,0.8776851296424866,0.2984856367111206,-0.11238346993923187,3.2556419372558594,-1.5033950805664062,0.348027765750885,0.08102458715438843,0.7714453935623169
318,2.172715979121716,-0.9852040283994504,-2.5939501159554452,0.45555737614631653,0.8333848714828491,0.3129490911960602,1.7039135694503784,0.9466391801834106,-0.0964171439409256,-0.16953140497207642,-0.6978715658187866,-0.3331364393234253
319,2.1221219899895405,-1.053436794084801,-2.6802205607051914,0.42130452394485474,0.8691281676292419,0.25907307863235474,1.0220859050750732,-3.4846913814544678,-0.05910732224583626,-0.38335591554641724,0.29694855213165283,-0.5401095151901245
320,1.904642090881082,-1.225124564002977,-2.9626252023978066,0.3201219141483307,0.9408480525016785,0.11102709174156189,3.411543130874634,0.23056355118751526,-1.1178133487701416,0.20157605409622192,0.009225249290466309,-0.2958720922470093
321,1.4226805746974003,-1.3307956332491335,2.803445186128153,0.23510101437568665,0.9713377952575684,-0.03507906571030617,1.254759430885315,-0.8960914611816406,-0.8289655447006226,-0.15674713253974915,-0.1822751760482788,-0.04190153256058693
322,0.7954209686896682,-1.3579087976707787,2.238803891521173,0.1508895456790924,0.9774249196052551,-0.14789478480815887,1.102125644683838,-0.13509885966777802,-0.8703601360321045,0.4062851369380951,-0.04645568132400513,0.08455556631088257
323,0.4626401763289225,-1.3701980717951208,1.9184770044269892,0.08893031626939774,0.979947566986084,-0.17830950021743774,-0.40951722860336304,-0.00940680131316185,0.13374841213226318,0.6462228298187256,-0.06304693222045898,0.15764904022216797
324,1.7030521455057965,-1.3770013310632465,3.0936480322024806,0.19090217351913452,0.9812804460525513,0.02539616823196411,-1.9560455083847046,1.3259066343307495,2.0878870487213135,0.2720189690589905,0.17310792207717896,-0.16876769065856934
325,2.0423895886041885,-1.1195611976689759,-2.7944045567143956,0.38847771286964417,0.8999091982841492,0.19811272621154785,-1.8283087015151978,-1.2429180145263672,1.5661240816116333,-0.2767528295516968,0.8671197295188904,0.07863596081733704
326,2.1566245652503957,-0.9707083743195437,-2.7692927192565477,0.4705515205860138,0.8252859711647034,0.31222525238990784,-0.6631981730461121,0.9522048234939575,1.0636922121047974,-0.37707608938217163,-0.32745254039764404,-0.2296752631664276
327,2.1975455577842395,-0.9447334708575349,-2.7923182454072046,0.47459086775779724,0.8103407621383667,0.34367382526397705,0.2550002336502075,0.7976526618003845,-0.7331224083900452,-0.4992947578430176,-0.5490643978118896,-0.21305856108665466
328,2.3329439981446463,-1.0446056550495268,-2.704416275494763,0.36330002546310425,0.8647265434265137,0.3467871844768524,-1.8775051832199097,0.45015737414360046,0.7126374244689941,1.2551997900009155,0.5995680093765259,2.4247887134552
329,2.034996771558164,-1.0624089133918277,-2.8849505968684217,0.43525928258895874,0.8735306262969971,0.21793051064014435,0.6694823503494263,2.2658169269561768,-2.6819331645965576,-0.30739063024520874,-0.12691807746887207,-0.31845545768737793
330,1.8137098417044704,-1.0846446451935354,-2.9635162138397506,0.4535098075866699,0.8841374516487122,0.11238286644220352,1.0459049940109253,-4.675583839416504,-0.886736273765564,-0.5143923759460449,-0.2934696674346924,-0.3399677276611328
331,1.636630825207272,-1.2316114298218523,3.011187887833057,0.33199793100357056,0.9430261850357056,0.021888550370931625,1.3053382635116577,0.014789985492825508,-0.9934527277946472,0.10211464762687683,-0.029131531715393066,0.07445549964904785
332,1.2861877937128847,-1.2994693713275198,2.649346578615626,0.2572286128997803,0.9634160995483398,-0.07525237649679184,0.7571950554847717,-1.0738717317581177,-0.7332803010940552,0.023700952529907227,-0.16149044036865234,0.13148105144500732
333,0.7416174651905262,-1.3205846535955799,2.1363648521921106,0.1672554910182953,0.9688600301742554,-0.18258139491081238,0.7047144174575806,-0.07478206604719162,-0.7937749028205872,0.3380697965621948,-0.12898576259613037,0.14165735244750977
334,0.6783080130376885,-1.3535936288737547,2.10250281140556,0.13522036373615265,0.9765040874481201,-0.16779494285583496,-1.6671781539916992,0.4874361753463745,0.61187744140625,0.5432463884353638,0.09641760587692261,0.50675368309021
335,1.8380736856140472,-1.2784992121707095,-3.081490279178205,0.2779220640659332,0.9575845003128052,0.07610315829515457,-1.8708966970443726,0.5311889052391052,2.018313407897949,0.29532015323638916,0.5230522155761719,-0.3641432523727417
336,2.1042121753121297,-1.0361118865933803,-2.7554264307486416,0.43877771496772766,0.8604294657707214,0.25910472869873047,-1.0984987020492554,0.5971133708953857,1.206518292427063,-0.47066858410835266,0.25578147172927856,-0.17110729217529297
337,2.2124940109824243,-0.9063310442123451,-2.7368639890590827,0.49397727847099304,0.7872466444969177,0.3690928816795349,-0.8262062668800354,0.8372371792793274,0.771809458732605,-0.5008131265640259,-0.4950712323188782,-0.33581337332725525
338,2.2572369203457407,-0.9287961434299601,-2.7078038347740203,0.4631747603416443,0.8008996248245239,0.3795113265514374,1.164574146270752,-0.5775954127311707,-1.4165593385696411,-0.3351840674877167,-0.3705407381057739,-0.22950220108032227
339,2.3247577287583274,-1.0072472697791248,-2.6722503451026025,0.3894152343273163,0.8453645706176758,0.36566996574401855,-0.22808875143527985,-4.520239353179932,1.367682933807373,0.9805341362953186,0.8925809860229492,-0.10680460929870605
340,2.2534678416658576,-1.0446206898128767,-2.7279695317436823,0.3896752595901489,0.8647341132164001,0.3168408274650574,-1.5889031887054443,0.7364661693572998,-0.5946004390716553,-0.09936153888702393,0.7874112725257874,0.08640313148498535
341,1.9034925508825509,-1.1287498505722955,-2.90029640764124,0.40433186292648315,0.9038780927658081,0.13971291482448578,0.5818424224853516,0.9249389171600342,-1.4050925970077515,-0.2237289547920227,-0.04132950305938721,-0.24191632866859436
342,1.6819965500678795,-1.2699464378298484,3.002142955104739,0.29450157284736633,0.9550849795341492,0.03288429602980614,0.699580192565918,-0.08576921373605728,-0.6111539602279663,-0.14635401964187622,-0.24928975105285645,-0.08194136619567871
343,1.1945283372804507,-1.3230487850533,2.593373302798149,0.22806619107723236,0.9694672226905823,-0.09010706841945648,1.3147189617156982,-0.600339949131012,-0.6779019832611084,0.3339760899543762,-0.20419305562973022,0.12237941473722458
344,0.6207104319237141,-1.3313790988989684,2.048490414669777,0.13792137801647186,0.9714763164520264,-0.1929018795490265,0.36153164505958557,-0.7170600891113281,-1.0033962726593018,0.27867406606674194,0.0898790955543518,0.285293847322464
345,0.6886281047597893,-1.3838826360044045,2.1576597883939437,0.11808907240629196,0.9825824499130249,-0.14348047971725464,-1.9165488481521606,0.5055682063102722,0.5614396929740906,0.41772332787513733,0.1983867883682251,0.26396387815475464
346,1.871592352946302,-1.2761008921018464,-3.0321821236012143,0.2774079144001007,0.9568906426429749,0.08605434000492096,-2.621020555496216,0.45958688855171204,1.8735549449920654,0.10671687126159668,0.7227512001991272,-0.07802819460630417
347,2.0762189641495628,-1.0415205559537966,-2.7215540486381937,0.4417797923088074,0.8631729483604431,0.24446524679660797,-0.47655749320983887,0.7059715986251831,1.2338287830352783,-0.3585430383682251,-0.15598905086517334,-0.2536815106868744
348,2.1892535498845076,-0.9280243417354883,-2.7673071577664508,0.48838910460472107,0.8004372715950012,0.3475291430950165,-0.22193996608257294,0.94610595703125,0.39516857266426086,-0.40397748351097107,-0.3639138340950012,-0.4192911386489868
349,2.225180774853389,-0.9854438549607029,-2.776480680609836,0.43836066126823425,0.8335173726081848,0.3362865746021271,1.1991451978683472,-0.10173225402832031,-1.7259654998779297,-0.38600772619247437,-0.4213775396347046,0.011293411254882812
350,2.2527435050658062,-0.9982552254822024,-2.732639003383067,0.4206010401248932,0.8405269980430603,0.3414804935455322,0.34668034315109253,-3.0109617710113525,1.3499706983566284,0.8572919368743896,0.20317405462265015,-0.022007286548614502
351,2.259860957786213,-1.0243932539383473,-2.7558522945302855,0.40106239914894104,0.8543990850448608,0.3303810954093933,1.0910208225250244,0.25221940875053406,0.9631784558296204,-0.5021365880966187,0.9833391308784485,-0.620175838470459
352,1.9544835975816979,-1.1391298052550547,-2.89649629962072,0.387964129447937,0.9082697629928589,0.15661901235580444,0.9897586703300476,2.6701090335845947,-1.10760498046875,-0.061029404401779175,0.2477816939353943,-0.3458280861377716
353,1.5727951596467948,-1.2730321161712799,2.9355438389015687,0.29338300228118896,0.9559948444366455,0.0005864243721589446,0.984135091304779,-0.046342480927705765,-0.8395955562591553,-0.11790695786476135,-0.270798921585083,-0.041739463806152344
354,1.043114473092821,-1.3329655069452229,2.412571043611908,0.2035483717918396,0.9718512892723083,-0.11862947046756744,1.384772777557373,-1.5597649812698364,-0.8254717588424683,0.3314400315284729,-0.1954231858253479,0.08975984156131744
355,0.5577941593566622,-1.337205467766057,1.9801943314097126,0.12252231687307358,0.9728415012359619,-0.19638735055923462,0.06490396708250046,-0.4731541574001312,-0.5868209600448608,0.3497830033302307,0.08949083089828491,0.3676367700099945
356,0.8783196951014137,-1.3963939792979063,2.3101366616376002,0.1335519552230835,0.9848304390907288,-0.1107824519276619,-2.3333640098571777,0.39604300260543823,0.9449135661125183,0.334938645362854,0.17689740657806396,0.1832769513130188
357,1.9810115722522237,-1.2431954688779803,-2.8982970819517733,0.29507648944854736,0.9468170404434204,0.1283249706029892,-2.532006025314331,-0.4330570697784424,1.7362533807754517,0.28777870535850525,0.9259245991706848,-0.18789531290531158
358,2.0883523877416224,-1.0322463129835724,-2.718202057667517,0.44571900367736816,0.8584532737731934,0.2537572979927063,-0.4046921133995056,1.5726592540740967,1.3995132446289062,-0.3547613024711609,-0.2505429983139038,-0.18609973788261414
359,2.191938683176849,-0.9197523321886453,-2.737538476912988,0.492821604013443,0.7954515814781189,0.35268038511276245,-0.08089549839496613,0.9158305525779724,0.3499046862125397,-0.42766669392585754,-0.47234678268432617,-0.43989962339401245
360,2.233557204745442,-1.0185237741301314,-2.751730025612042,0.4135587513446808,0.8513345122337341,0.3227984607219696,1.197978138923645,-0.38896292448043823,-1.9479936361312866,-0.14074689149856567,-0.22111600637435913,0.24403512477874756
361,2.1788696551195823,-0.9696285605724864,-2.736254507252502,0.46422114968299866,0.8246756792068481,0.32312339544296265,-0.11922024935483932,-2.0082907676696777,1.1149636507034302,0.721112072467804,-0.13452064990997314,0.2626004219055176
362,2.213476515664144,-1.0265199026451075,-2.801778179368301,0.4144940674304962,0.855502188205719,0.31033921241760254,2.1420211791992188,-1.2478020191192627,0.7613787651062012,-0.5938459634780884,1.2036406993865967,-0.4207365810871124
363,1.9156349439628602,-1.136525334354184,-2.920159944197105,0.3959798514842987,0.9071770310401917,0.14223212003707886,1.1139813661575317,3.660592794418335,-1.3653761148452759,0.056809455156326294,0.3477516174316406,-0.34412121772766113
364,1.5183830935805267,-1.2910858280747848,2.8313584718337936,0.27569809556007385,0.9611353874206543,-0.014463474974036217,1.103015661239624,0.43014612793922424,-0.8150831460952759,-0.08378833532333374,-0.21728473901748657,-0.12069892883300781
365,0.9542323838926307,-1.3243494715262392,2.3342010446314423,0.19903932511806488,0.9697853922843933,-0.14106601476669312,1.0731183290481567,-0.6574804782867432,-0.7287101745605469,0.27070245146751404,-0.037137746810913086,0.3782333731651306
366,0.5066583694251429,-1.3352524128573489,1.924379455653033,0.113245390355587,0.9723875522613525,-0.20405320823192596,0.04264410585165024,-1.2304052114486694,-0.32518893480300903,0.51035076379776,0.07473146915435791,0.18977102637290955
367,1.2244998245823837,-1.3960612103550523,2.6400832285646665,0.1635269969701767,0.9847726225852966,-0.05900661647319794,-2.8812460899353027,1.1118632555007935,1.6602439880371094,0.4108290672302246,0.20112520456314087,0.10078513622283936
368,2.0261537582276445,-1.1645940405747808,-2.867169833202839,0.35486194491386414,0.9186280369758606,0.17376874387264252,-2.900542974472046,-1.7185235023498535,1.9075599908828735,-0.07150623202323914,1.2571837902069092,-0.2279984951019287
369,2.1259977048316365,-0.9586731977903152,-2.7369963864496776,0.4882974326610565,0.8184298872947693,0.30288344621658325,-0.7552443742752075,1.383564829826355,1.4313756227493286,-0.38299643993377686,-0.474511981010437,-0.2289087474346161
370,2.2358397844187685,-0.8662726252400827,-2.708325565429667,0.5096461176872253,0.7619200944900513,0.399673730134964,-0.18228310346603394,0.6542971134185791,-0.2447281777858734,-0.5092645883560181,-0.37826818227767944,-0.44447341561317444
371,2.264916855745872,-1.0334814829721117,-2.676344995655073,0.3934016227722168,0.8590860962867737,0.327423095703125,-0.30008962750434875,4.181400299072266,-1.4944826364517212,0.6165928244590759,0.018828094005584717,1.0261688232421875
372,2.14696661983206,-0.9584931062358691,-2.737437479228223,0.48196274042129517,0.8183264136314392,0.3131352961063385,1.92597496509552,1.5486431121826172,-0.330424964427948,-0.28037890791893005,-0.506619930267334,-0.7375586032867432
373,2.0864435536159496,-1.0520078899755134,-2.8109115911260085,0.4313576817512512,0.8684205412864685,0.24449199438095093,1.3868515491485596,-4.201039791107178,-0.4076888859272003,-0.43472984433174133,0.2140989899635315,-0.6031041145324707
374,1.9037707837636593,-1.2213000615364893,-3.0278813282719264,0.3236170709133148,0.9395453333854675,0.11192350834608078,4.151667594909668,-0.7828431129455566,-1.2035340070724487,0.21124929189682007,-0.10197508335113525,-0.4118196964263916
375,1.3839091432668045,-1.328188015106672,2.6734992924960648,0.23605236411094666,0.9707146883010864,-0.044636040925979614,1.2396916151046753,-0.3369748890399933,-0.6870006918907166,-0.08276253938674927,-0.16459286212921143,0.001743614673614502
376,0.7538635954213305,-1.344700863008329,2.1070349681263183,0.15343841910362244,0.9745491147041321,-0.16343417763710022,0.6400082111358643,-0.42090874910354614,-0.8365556597709656,0.32007232308387756,0.03672713041305542,0.27451813220977783
377,0.6042451237101036,-1.3763848351247967,2.0109752416867503,0.1097588986158371,0.9811615347862244,-0.15898169577121735,-1.156226396560669,-0.3480028212070465,0.3903329372406006,0.6538519859313965,-0.08083194494247437,0.36048924922943115
378,1.8640059825945081,-1.3289899206768925,-3.0695790974153816,0.22923694550991058,0.9709070324897766,0.06920929998159409,-1.4763439893722534,1.522623062133789,2.0896689891815186,0.3917804956436157,0.4240209460258484,-0.37311863899230957
379,2.0733332274014002,-1.0563933492890158,-2.7780388703242247,0.43118414282798767,0.870586633682251,0.23697929084300995,-1.1766809225082397,-0.020791152492165565,1.6225342750549316,-0.49215826392173767,0.2993199825286865,0.06067395210266113
380,2.13134432267404,-0.9156244342015392,-2.7961741394221655,0.5160515308380127,0.7929431796073914,0.32393234968185425,-0.4639745354652405,0.6353150010108948,0.9312511682510376,-0.4261924624443054,-0.4229327440261841,-0.29214832186698914
381,2.1939895358317583,-0.9331472386561686,-2.8069644358484416,0.48340174555778503,0.8034974932670593,0.3474405109882355,1.30496084690094,-0.26842832565307617,-1.2085418701171875,-0.5335726141929626,-0.5248566269874573,-0.1163003146648407
382,2.3004896929351686,-1.0076447148574645,-2.740599804215592,0.3979235291481018,0.845576822757721,0.35588908195495605,-0.4035753011703491,-4.782336235046387,1.4149279594421387,1.039973258972168,0.8500562906265259,-0.27990028262138367
383,2.1179848558375585,-1.0402329590585317,-2.87070263905966,0.43213576078414917,0.8625221252441406,0.26327595114707947,-0.7745410203933716,0.46469631791114807,-0.8853898048400879,-0.20783159136772156,0.5081290602684021,-0.05435255169868469
384,1.9038816423692004,-1.0963343546162294,-2.9291437964439115,0.43175002932548523,0.8895386457443237,0.1493750810623169,0.3436853289604187,-1.7927892208099365,-1.091850757598877,-0.2744624614715576,-0.18648993968963623,-0.2916175127029419
385,1.6194946472725906,-1.2577112767920666,2.979445130788754,0.3076303005218506,0.9513879418373108,0.014992932789027691,1.2639468908309937,-0.7229156494140625,-0.7462818622589111,-0.011686086654663086,-0.26523059606552124,-0.0013668518513441086
386,1.1259911541889167,-1.308595033878684,2.51829713320799,0.2339847981929779,0.9658217430114746,-0.11153214424848557,1.2766574621200562,-1.4353573322296143,-0.8950883150100708,-0.0237644761800766,-0.2884841561317444,-0.02971845120191574
387,0.581823916437358,-1.3268314355858135,2.0292851600026296,0.1327447146177292,0.970387876033783,-0.2018076479434967,0.3553895056247711,-1.0972121953964233,-0.8650035858154297,0.4375220239162445,-0.06622833013534546,0.2520396113395691
388,0.7201920092894754,-1.3716123799102102,2.1570641802926662,0.13050077855587006,0.9802283644676208,-0.14873448014259338,-2.0596489906311035,0.5002748966217041,0.8206368088722229,0.37720492482185364,0.16320419311523438,0.2783578634262085
389,1.8861733072559277,-1.2645806275051124,-3.0322015579766988,0.2865844964981079,0.9534811973571777,0.09350291639566422,-2.6357903480529785,0.35296493768692017,1.8600428104400635,0.1839049756526947,0.810846745967865,-0.019833452999591827
390,2.1682792743340227,-1.035199754684288,-2.6876532329485827,0.4219374358654022,0.8599643111228943,0.2871064841747284,-0.995540976524353,0.6982771754264832,1.2648961544036865,-0.3219618499279022,-0.08211708068847656,-0.22088339924812317
391,2.237575897933186,-0.9165165206583796,-2.7047455104051386,0.4782390892505646,0.7934864163398743,0.37638646364212036,0.13789933919906616,1.550256371498108,0.5586275458335876,-0.3366527557373047,-0.49687087535858154,-0.4571511745452881
392,2.2837913902684637,-0.982855506478171,-2.7234131619246162,0.41953951120376587,0.8320845365524292,0.36279675364494324,2.034824848175049,-0.4517539441585541,-1.8732788562774658,-0.5808250308036804,-0.36214447021484375,0.0935935378074646
393,2.2670732084448715,-0.9883200703209649,-2.709484691497127,0.42205145955085754,0.8351030349731445,0.3528112769126892,0.404781699180603,-2.205200672149658,0.6989825367927551,0.28606319427490234,0.17565453052520752,-0.23891958594322205
394,2.231617800879608,-1.0353998309038954,-2.742179516197243,0.40278270840644836,0.8600664138793945,0.3131321668624878,0.9139588475227356,-1.593379020690918,-0.23280441761016846,-0.41386061906814575,1.0862836837768555,-0.2719334363937378
395,2.0347786521874514,-1.1384664805680218,-2.8359471429229304,0.37469086050987244,0.9079920649528503,0.18750222027301788,2.7711830139160156,1.5799983739852905,-1.1079915761947632,0.11494836211204529,0.3610050678253174,-0.39117658138275146
396,1.6043074813462064,-1.2801945835118393,2.992698777640332,0.28636834025382996,0.9580716490745544,0.009600128047168255,1.237633466720581,-0.10417810827493668,-0.8728473782539368,-0.12728023529052734,-0.35724151134490967,-0.19095087051391602
397,1.0495321108193332,-1.335929886698164,2.5039750157928427,0.20180687308311462,0.9725454449653625,-0.11588592082262039,1.0902798175811768,-0.06636310368776321,-0.956670880317688,0.46365946531295776,-0.16869711875915527,0.36226963996887207
398,0.6777122257075653,-1.361786932284176,2.1127482542033307,0.13009943068027496,0.9782369136810303,-0.16163738071918488,-0.3205713927745819,-0.041984137147665024,-0.20574909448623657,0.38683784008026123,0.13310641050338745,0.16638286411762238
399,1.7583597710736836,-1.3935412005629992,-3.109765491893307,0.17323529720306396,0.9843314290046692,0.03287907689809799,-2.9713938236236572,1.5632604360580444,1.1702519655227661,0.34208452701568604,-0.046144843101501465,-0.003582242876291275
400,2.150784398272731,-1.121403267874534,-2.7584390450355736,0.36337822675704956,0.900710940361023,0.23806776106357574,-2.538109540939331,-3.1781094074249268,2.006782293319702,-0.15341728925704956,1.2444307804107666,-0.13026437163352966
401,2.157551882716839,-0.9464401156993196,-2.767672447040687,0.4867997169494629,0.8113396167755127,0.32365700602531433,-0.24562950432300568,0.9110143780708313,1.3590246438980103,-0.43609482049942017,-0.5001214742660522,-0.3065824806690216
402,2.260158767066891,-0.90709610627771,-2.7987592446478295,0.4753651022911072,0.7877181768417358,0.3918267488479614,0.3262113630771637,0.7984130382537842,-0.6276422739028931,-0.4331898093223572,-0.37252652645111084,-0.3142052888870239
403,2.304402363573634,-1.0561907957534185,-2.742887387499989,0.3655827045440674,0.8704869151115417,0.3295481503009796,-1.5133576393127441,2.977180242538452,-0.55320143699646,0.6524074077606201,0.20078694820404053,1.1709400415420532
404,2.1299917861193878,-0.990099057164457,-2.8399000553075595,0.4650445282459259,0.8360803127288818,0.29103851318359375,3.209794044494629,1.1217917203903198,-0.905340313911438,-0.2723413109779358,-0.38081908226013184,-0.5440597534179688
405,2.03867481901245,-1.0622030931080926,-2.922665097657909,0.4346153438091278,0.8734303712844849,0.2196110635995865,1.4003065824508667,-5.0347418785095215,-0.10232695937156677,-0.4755241572856903,0.013028979301452637,-0.3783634901046753
406,1.8849500435499027,-1.2166893724947123,-3.1120325660478945,0.3297823667526245,0.9379565119743347,0.10715076327323914,4.187654495239258,-0.38432255387306213,-0.9744018316268921,0.2982999384403229,0.12991464138031006,-0.464191198348999
407,1.4412636240156327,-1.305387608376349,2.7447096033329377,0.26010602712631226,0.9649853706359863,-0.03388194739818573,1.0562175512313843,-0.48918473720550537,-0.7794557809829712,-0.14044660329818726,-0.2014966607093811,0.07366162538528442
408,0.8356197338784249,-1.3446232479874642,2.192541372387318,0.16632908582687378,0.9745317101478577,-0.15040862560272217,1.0250217914581299,-0.29942017793655396,-1.067826271057129,0.26534202694892883,-0.049299776554107666,0.13562285900115967
409,0.5145702521186237,-1.3732049632677228,1.8877050026602014,0.09661535173654556,0.9805422425270081,-0.17088741064071655,-0.7029356956481934,-0.42799901962280273,0.08589953184127808,0.5991701483726501,-0.05526447296142578,0.19766651093959808
410,1.7711756819520283,-1.3777098261305334,3.0637887996807565,0.18804872035980225,0.981416642665863,0.038193635642528534,-1.9284043312072754,2.896237373352051,2.0234172344207764,0.45890864729881287,0.21774089336395264,-0.2775735855102539
411,2.048769588286468,-1.0980572032557425,-2.8355727829147837,0.4042978882789612,0.8903244137763977,0.20944145321846008,-1.4004414081573486,-0.05682435259222984,1.5284849405288696,-0.3745889961719513,0.7461349368095398,0.2213447093963623
412,2.1693918079360115,-0.9650297011984144,-2.855649059685858,0.470391184091568,0.8220658302307129,0.3208429515361786,-0.42023077607154846,0.20711983740329742,1.2770510911941528,-0.3339775502681732,-0.47431790828704834,-0.3059808909893036
413,2.2498090759626788,-0.9272501009938856,-2.8880024143871585,0.4669440984725952,0.7999729514122009,0.376837819814682,0.3798828423023224,0.5018385648727417,-0.5056268572807312,-0.6186164617538452,-0.36639440059661865,-0.30144405364990234
414,2.286970558157832,-1.0568071725894113,-2.850127896380459,0.3708662688732147,0.8707901835441589,0.3227730095386505,-2.0103719234466553,3.0070512294769287,0.4615550637245178,0.9359421133995056,0.3108503222465515,1.7565116882324219
415,2.012417326405727,-1.0460151472090486,-2.989569279416584,0.4529552459716797,0.8654335737228394,0.2141401618719101,2.3386406898498535,1.9866973161697388,-1.6708627939224243,-0.08778196573257446,-0.047959327697753906,-0.5389082431793213
416,1.9310309064688365,-1.088152904549539,-3.032313246589083,0.4343324899673462,0.8857711553573608,0.16360031068325043,0.6289108991622925,-1.1929422616958618,-1.3284451961517334,-0.40936902165412903,-0.01714920997619629,-0.3914445638656616
417,1.5906251688019306,-1.2416347775534227,2.8967683803044073,0.32318589091300964,0.9463136792182922,0.006409241817891598,1.457672119140625,-0.8383069038391113,-1.1444518566131592,0.012721091508865356,-0.3093203902244568,0.19966065883636475
418,1.109345930018968,-1.3268125797048878,2.4338994628007837,0.2163035124540329,0.97038334608078,-0.10755832493305206,1.1212482452392578,-0.337205171585083,-0.8827276825904846,0.11235551536083221,-0.2986152768135071,0.09989847987890244
419,0.5463658318472892,-1.3254058697078297,1.8936886652037697,0.12622569501399994,0.9700425267219543,-0.20756842195987701,0.46939560770988464,-0.47562041878700256,-0.8326081037521362,0.21059684455394745,-0.06965184211730957,0.04053041338920593
420,0.7384736417619743,-1.3731848304469552,2.0957838462488096,0.13216014206409454,0.9805383086204529,-0.14518395066261292,-2.450777053833008,0.16289709508419037,1.0187028646469116,0.25564199686050415,0.09851747751235962,0.3133662939071655
421,1.9058836887414796,-1.2367230304398293,-3.0445074524357048,0.30965691804885864,0.9447145462036133,0.10782844573259354,-2.329296588897705,0.4796610176563263,2.237459897994995,0.35977664589881897,0.8409299254417419,-0.09092164784669876
422,2.0590644778163756,-1.002511310308335,-2.830536467786868,0.4752986431121826,0.842825174331665,0.2524622976779938,-0.6037191152572632,1.0712815523147583,1.2181228399276733,-0.49495187401771545,-0.1358548402786255,-0.183645099401474
423,2.2048381071950747,-0.8927694126888424,-2.741431375561685,0.505343496799469,0.7788118720054626,0.3715909421443939,-0.8225858211517334,0.5886196494102478,-0.03055715560913086,-0.535510241985321,-0.5811190605163574,-0.4597410261631012
424,2.2470854607621997,-1.0370487453385953,-2.730872658661119,0.3967849314212799,0.8609064817428589,0.3184366226196289,1.2025668621063232,0.5764015913009644,-1.8848146200180054,-0.07540428638458252,-0.2848871946334839,0.1769552230834961
425,2.183680706705273,-0.9539256496031571,-2.749234067546973,0.4731963574886322,0.8156927227973938,0.33276158571243286,0.43173423409461975,-0.4649832248687744,0.9163763523101807,-0.10869452357292175,-0.4335516691207886,0.6412525773048401
426,2.257763720200666,-1.0405785371706668,-2.777927914280679,0.3910098969936371,0.8626969456672668,0.32072603702545166,0.7594283223152161,0.42250415682792664,0.8071421384811401,-0.504214882850647,1.342259168624878,-0.3910539150238037
427,1.9753822759596926,-1.168975368856886,-2.9503709576313484,0.3595203161239624,0.9203503727912903,0.15395000576972961,2.1061394214630127,1.976702094078064,-1.0852118730545044,0.2061535120010376,0.18244826793670654,-0.2951090335845947
428,1.4946245397285514,-1.2905370439750892,2.937672577967201,0.27580276131629944,0.9609837532043457,-0.02104911394417286,1.1459898948669434,-0.5963863730430603,-1.0647993087768555,-0.2682496905326843,-0.20620781183242798,0.017112376168370247
429,0.9070943365459343,-1.3323511881321213,2.3822916970701824,0.18605199456214905,0.9717063903808594,-0.14550268650054932,0.5728018879890442,-1.1345341205596924,-0.8263072967529297,0.31585532426834106,-0.1050989031791687,0.4485880434513092
430,0.4643286011883732,-1.3369447972642559,1.9657605582112467,0.10377189517021179,0.9727811217308044,-0.20719093084335327,0.09460096061229706,0.23795203864574432,-0.35597118735313416,0.6425812840461731,0.055233895778656006,0.21974894404411316
431,1.399602444718813,-1.407908058247833,2.8749547742700847,0.15979790687561035,0.9867630004882812,-0.027626842260360718,-2.523484706878662,3.490997314453125,1.5996792316436768,0.3786999583244324,0.15523523092269897,0.18982774019241333
432,2.053995213115904,-1.1469071260990114,-2.808095280701498,0.3642188608646393,0.9114961624145508,0.1910996437072754,-2.193803071975708,-0.03712625056505203,1.9327187538146973,-0.048514604568481445,0.8602321743965149,0.3194136321544647
433,2.0345378733630097,-0.952333346119411,-2.6990124695876063,0.5185496807098389,0.8147705793380737,0.2593357264995575,-0.4162045121192932,-0.2766149044036865,1.2977545261383057,-0.45382195711135864,-0.296383798122406,-0.25254562497138977
434,2.1274026416819143,-0.9146615691064516,-2.7888760936606607,0.5179720520973206,0.7923561930656433,0.32229873538017273,1.1190325021743774,1.522467017173767,-0.6147297620773315,-0.45629608631134033,-0.4724709987640381,-0.1187465488910675
435,2.2657505055423677,-1.0218154548987957,-2.7612082651098877,0.4007996618747711,0.853056788444519,0.3341463506221771,-1.8785756826400757,0.45160597562789917,1.2266265153884888,1.3480559587478638,0.39273178577423096,1.439336895942688
436,2.0219257298063935,-0.9933401508085458,-2.903676019064306,0.4912804663181305,0.8378540277481079,0.23800021409988403,2.3167524337768555,1.9888113737106323,-2.7726967334747314,-0.4900445342063904,-0.10875862836837769,-0.38572049140930176
437,1.9745443008235575,-1.055008467029784,-2.8976481982363684,0.45356279611587524,0.8699043989181519,0.19377027451992035,0.5685250163078308,-1.281425952911377,-0.7620064616203308,-0.11159813404083252,-0.0921182632446289,-0.27422991394996643
438,1.7342080196823983,-1.1952547872571961,3.0925724862861577,0.3618900179862976,0.9303091168403625,0.059669129550457,1.459580421447754,-0.9564088582992554,-0.8382387757301331,-0.24989047646522522,-0.24998080730438232,0.2728809118270874
439,1.2890044475903857,-1.2701615354954123,2.685015253219557,0.2844468653202057,0.9551486968994141,-0.08234605193138123,0.9883975386619568,-0.9519118666648865,-0.8097997307777405,-0.011223047971725464,-0.18020063638687134,0.13854414224624634
440,0.7759675880436276,-1.313546279269098,2.1582106888607533,0.1781989485025406,0.967093288898468,-0.18159209191799164,0.4086337089538574,-1.734631061553955,-1.7636672258377075,0.31493455171585083,0.1541835069656372,-0.08641324937343597
441,0.6194346321784994,-1.3396671014280388,1.9860033704921851,0.1329961121082306,0.9734083414077759,-0.1865157037973404,-1.3873651027679443,1.549340009689331,0.8696236610412598,0.4024500250816345,0.25007182359695435,0.3718336820602417
442,1.8274098364251623,-1.2805562905025512,3.0933365733471936,0.2768116295337677,0.9581751823425293,0.0726349949836731,-1.8477650880813599,3.136706829071045,2.4035885334014893,0.3888988792896271,0.35888731479644775,-0.10104679316282272
443,2.241179149335521,-1.0575562399900256,-2.9148311039009007,0.3847416937351227,0.8711581826210022,0.3050530254840851,-1.5800755023956299,0.434818297624588,0.8030595183372498,-0.3186253607273102,-0.0583224892616272,-0.2278435230255127
444,2.1931371540187308,-0.9773911090738865,-2.922270839347894,0.45434877276420593,0.8290413618087769,0.3259719908237457,0.20307230949401855,-0.7032843232154846,0.01644723117351532,-0.3766357898712158,-0.31013572216033936,-0.41338956356048584
445,2.2909144999016284,-1.0451188749084395,-2.960627544663682,0.37721648812294006,0.8649842143058777,0.3309233486652374,1.6076579093933105,3.3578109741210938,-0.4192122220993042,-0.2911263108253479,-0.5339751839637756,-0.23279401659965515
446,2.4823500108754675,-0.978020025156314,-2.8664004058601775,0.3421928882598877,0.8293928503990173,0.4416007101535797,-1.3894078731536865,-3.671290159225464,0.505211353302002,0.34390324354171753,0.11393582820892334,-0.1262320876121521
447,2.330541970849225,-1.00332274551927,-2.924395531719911,0.3896960914134979,0.8432615995407104,0.3701986074447632,-0.837161660194397,2.047306537628174,0.9369101524353027,-0.18728819489479065,0.8509066104888916,0.2278544008731842
448,1.9989507064208436,-1.1219974997795725,3.1147402000831965,0.394718736410141,0.9009689092636108,0.18014533817768097,2.1336770057678223,0.40513089299201965,-1.064835548400879,0.13764521479606628,0.03482222557067871,-0.258087158203125
449,1.5406099342790265,-1.2908148304702278,2.6271391499659464,0.276212215423584,0.9610605239868164,-0.008340383879840374,0.9906742572784424,-3.3100922107696533,-1.0538828372955322,-0.10590887069702148,-0.43664640188217163,-0.33191531896591187
450,1.086233842267749,-1.2990701283670427,2.2089873420678843,0.23749679327011108,0.9633090496063232,-0.1250239610671997,0.6310329437255859,-1.1841893196105957,-1.3342422246932983,0.10234694182872772,-0.05002474784851074,0.3652583360671997
451,0.9925387290369769,-1.2840213875153494,2.1694521432740617,0.23687157034873962,0.959161102771759,-0.1546015739440918,-0.5610611438751221,-1.5741097927093506,2.5789828300476074,0.336340069770813,0.2738404870033264,0.3343043625354767
452,1.5373508517265662,-1.1162869404443045,2.91125558949005,0.4387759864330292,0.8984765410423279,-0.014680545777082443,-1.9460432529449463,0.43610116839408875,2.9385368824005127,0.6616725921630859,0.7101812958717346,-0.31115561723709106
453,1.9595623836480176,-0.8516551585147517,-3.0436989927553566,0.6095821261405945,0.7523717284202576,0.2496928870677948,-2.7109832763671875,0.564190685749054,0.558256208896637,0.1364201307296753,0.46883487701416016,-0.2935619354248047
454,2.006005440354656,-0.7444942311896348,-2.8872778786894053,0.6668751239776611,0.6775999665260315,0.31005755066871643,-0.8529495000839233,0.2980198264122009,0.7940565943717957,-0.3959553837776184,-0.062869131565094,-0.21794024109840393
455,2.151739748195747,-0.7425852199435923,-2.937382972663859,0.6158599257469177,0.6761947870254517,0.40432292222976685,1.4603500366210938,1.3662543296813965,-0.5626739263534546,-0.437744140625,-0.35695046186447144,-0.33614665269851685
456,2.1345405319550768,-0.866385824223849,-3.0049249528232322,0.5473777651786804,0.761993408203125,0.3460400402545929,-2.4886045455932617,-1.3868201971054077,0.7656377553939819,1.1042640209197998,0.27886962890625,1.3675525188446045
457,1.6796218432107195,-0.8779621182389541,3.0693986638546034,0.6349422335624695,0.7694388628005981,0.06937199085950851,1.0026477575302124,0.9952338337898254,-0.7534621357917786,-0.17170053720474243,0.2825479507446289,0.05048585683107376
458,1.4554260397410943,-0.9056932893847132,2.9073543947193223,0.6130375266075134,0.7868531942367554,-0.07104179263114929,1.694891333580017,-0.24877916276454926,-1.6377757787704468,-0.456848680973053,0.34394508600234985,-0.2883484959602356
459,1.159085772125075,-0.9744250563681852,2.576988320093577,0.5147113800048828,0.8273791074752808,-0.22475717961788177,1.6607463359832764,-0.4752371311187744,-0.69700026512146,-0.1350727677345276,-0.020479202270507812,0.01694771647453308
460,0.8614284386618342,-0.9948336510468258,2.2820236408456527,0.41326045989990234,0.8386684060096741,-0.3547552525997162,1.3345370292663574,0.27452850341796875,-0.8140971064567566,0.020577430725097656,-0.2719874382019043,0.11600100994110107
461,0.6840988108986211,-0.9515552354266098,2.0839679258318107,0.3668091893196106,0.8143191933631897,-0.449817031621933,0.5131966471672058,-0.8126121759414673,-0.31845152378082275,0.2602812945842743,0.025585651397705078,0.1303132176399231
462,0.6689354231219935,-0.880080113331539,2.109418774677491,0.395091712474823,0.7707899212837219,-0.49978533387184143,0.18192724883556366,-0.9770014882087708,1.161447525024414,0.3410837948322296,0.3469926118850708,0.24180498719215393
463,0.693281331112425,-0.8629468697865047,2.3079529351331365,0.41552066802978516,0.7597619295120239,-0.500104546546936,-1.4656221866607666,-1.74076247215271,1.9988925457000732,0.4630041718482971,0.13966751098632812,0.21473461389541626
464,0.970051256654152,-0.8066679859375598,2.722974846715256,0.5707650184631348,0.7219857573509216,-0.391105979681015,-1.3252949714660645,0.9029300808906555,2.7726073265075684,0.5797171592712402,-0.25625693798065186,-0.2504650354385376
465,1.1537140323978663,-0.47967938562063533,3.0864370541663235,0.8110924959182739,0.4614947736263275,-0.35937684774398804,-0.7181769609451294,-2.0728325843811035,5.273706436157227,0.22102731466293335,0.022437721490859985,-0.23629575967788696
466,1.0739078437045566,0.04752065607364933,-2.9640728965648746,0.8780776858329773,-0.04750277101993561,-0.47615447640419006,0.9484466314315796,-1.862468957901001,5.3200554847717285,-0.054133594036102295,0.5141928195953369,-0.17672336101531982
467,0.7682646306589016,0.4411500159715322,-2.800963809808767,0.6283605694770813,-0.426979660987854,-0.6502701640129089,0.89899742603302,-2.6536643505096436,2.7567198276519775,0.08437740802764893,0.3457571566104889,0.3749406337738037
468,0.44236504580211133,0.685556923257698,-2.6470236934625038,0.3313608765602112,-0.6331042051315308,-0.6995562314987183,1.5466890335083008,-0.8224268555641174,1.9648467302322388,0.21038711071014404,0.05833619832992554,0.21446412801742554
469,0.21607519166767247,0.6725970805576797,-2.565086209614657,0.1677032709121704,-0.6230195164680481,-0.7640172243118286,-1.1967360973358154,-0.5287323594093323,-0.07386627793312073,0.026586905121803284,0.1823456883430481,0.009164929389953613
470,0.12009743270056895,0.602166490241897,-2.5617459464433305,0.09873579442501068,-0.5664292573928833,-0.8181743025779724,-0.420042484998703,-0.2733953297138214,0.3919905126094818,0.01703263819217682,0.1943131685256958,0.1782206892967224
471,0.06624102518116293,0.6119908880476743,-2.5419424581579735,0.054179027676582336,-0.574498176574707,-0.8167107701301575,-0.3271108567714691,0.13970881700515747,0.9069311618804932,0.042531177401542664,0.12386029958724976,0.48516786098480225
472,-0.029022035776277433,0.5588497364586382,-2.446620445282996,-0.024603329598903656,-0.5302112698554993,-0.8475084900856018,0.16082614660263062,0.4100262522697449,0.7251700162887573,0.012716725468635559,-0.15995901823043823,0.019856512546539307
473,-0.08174669464400788,0.6011028169339973,-2.440109915167122,-0.06734245270490646,-0.565552294254303,-0.8219583630561829,-0.8365161418914795,0.45619815587997437,-0.07529652863740921,0.06772392988204956,-0.38937318325042725,-0.02331751585006714
474,-0.05918828725644271,0.5941601951840318,-2.45045371106132,-0.04901590570807457,-0.5598130822181702,-0.8271679282188416,-0.26722612977027893,0.24995361268520355,0.29245978593826294,0.08734598755836487,-0.13719314336776733,-0.21334415674209595
475,-0.14953338867141164,0.5343073157877197,-2.354541897152179,-0.1282126009464264,-0.5092450380325317,-0.8510176539421082,-0.9698511958122253,-0.5574986338615417,1.0892448425292969,-0.09059843420982361,-0.02966487407684326,0.26474446058273315
476,-0.15807516977898992,0.39926546911927724,-2.279717504289393,-0.1450362652540207,-0.38874170184135437,-0.9098595380783081,-1.8101106882095337,-0.17532099783420563,0.5593277215957642,-0.015028432011604309,0.06668969988822937,0.1873711347579956
477,-0.15572601779514986,0.45660972400052446,-2.2242741469601266,-0.13920803368091583,-0.44090768694877625,-0.8866913318634033,2.4821975231170654,0.5944143533706665,0.16938646137714386,-0.04971104860305786,0.020863771438598633,0.13833928108215332
478,-0.10877337967326109,0.5809112312881408,-2.259783715065235,-0.09075131267309189,-0.548785924911499,-0.8310223817825317,0.6384019255638123,0.4372611939907074,0.2833491265773773,0.08589902520179749,-0.437633752822876,-0.13765132427215576
479,-0.13444975770557002,0.5254040511419896,-2.2495302186274273,-0.11596523970365524,-0.5015625953674316,-0.8573138117790222,-0.27934688329696655,-0.971095085144043,-0.2603413462638855,-0.19087375700473785,0.02675485610961914,-0.4113171100616455
480,-0.13954912536221722,0.45765058614603743,-2.2939741745385565,-0.12478262931108475,-0.4418416917324066,-0.8883722424507141,-0.010518708266317844,-0.5701087713241577,-0.08116067945957184,0.042614057660102844,0.16030177474021912,-0.2014409899711609
481,-0.1486361816883166,0.43834408125845936,-2.3615413699670644,-0.13408848643302917,-0.4244406819343567,-0.8954721689224243,-0.5284267663955688,0.1440817415714264,-0.5888043642044067,0.032953232526779175,0.1257041096687317,0.3100229501724243
482,-0.10142225042541224,0.3969405694523062,-2.448393141714642,-0.09337619692087173,-0.3865986168384552,-0.9175088405609131,-0.14152483642101288,0.21799948811531067,-0.8900269865989685,0.02756504714488983,-0.0107249915599823,0.09275603294372559
483,-0.06861017271131956,0.34987236612124656,-2.4996098266011586,-0.06440296769142151,-0.34277790784835815,-0.9372062683105469,-1.5915273427963257,-0.2676701843738556,-0.258951336145401,0.06646290421485901,-0.22379618883132935,0.09164047241210938
484,-0.049530573805128104,0.2756512346643191,-2.4536355079216676,-0.047641217708587646,-0.2721736431121826,-0.9610680937767029,-0.1575884073972702,1.4363893270492554,1.3870139122009277,0.28491538763046265,-0.0795566737651825,-0.5979223847389221
485,-0.07593279464196478,0.33142361842072005,-2.359959986866468,-0.0717315599322319,-0.3253895044326782,-0.9428553581237793,0.08730718493461609,-0.8291829228401184,0.586995005607605,0.0206298828125,0.1533009111881256,-0.05580180883407593
486,-0.11613805207596987,0.40153003885884014,-2.3019557902932566,-0.10666075348854065,-0.39082714915275574,-0.9142634272575378,0.7519242167472839,0.019223205745220184,0.7218400835990906,-0.019788824021816254,0.008884400129318237,0.49794262647628784
487,-0.10798989321406928,0.4013513530412303,-2.2466422255672467,-0.09921526163816452,-0.39066267013549805,-0.9151715636253357,0.20986957848072052,0.38956311345100403,0.28431224822998047,0.006792768836021423,0.03206586837768555,0.1030072569847107
488,-0.09491852787567157,0.433138256006303,-2.269490831686863,-0.08602378517389297,-0.4197213053703308,-0.9035673141479492,-0.2315617948770523,0.06273442506790161,-0.4995097517967224,-0.03615334630012512,-0.1833975911140442,0.06570720672607422
489,-0.011028663352454766,0.4024792393834549,-2.3151220292840153,-0.010147186927497387,-0.3917006850242615,-0.9200367331504822,-0.6654087901115417,0.7673450708389282,-0.14343151450157166,-0.06428518891334534,-0.420478880405426,-0.4281688332557678
490,-0.013405851490288995,0.348960970209138,-2.2990586947662446,-0.012597482651472092,-0.3419215977191925,-0.9396440386772156,-0.8276679515838623,-0.09201820194721222,-0.16180385649204254,-0.1342988908290863,0.18332171440124512,-0.2537153363227844
491,-0.025311426305298777,0.43021871191670974,-2.347558873899737,-0.02300245501101017,-0.41706958413124084,-0.908583402633667,1.9262371063232422,-0.6644507646560669,-0.8610098958015442,0.025596454739570618,0.21177786588668823,0.367903470993042
492,-0.036612880952300836,0.5338852507548815,-2.4217966814574656,-0.03151066228747368,-0.5088817477226257,-0.8602595329284668,-0.10291610658168793,0.2106155902147293,-0.4992810785770416,-0.003676101565361023,0.06569021940231323,0.5730738639831543
493,0.015062034201406522,0.47945877402543474,-2.433223098514155,0.013363204896450043,-0.46129903197288513,-0.8871440887451172,-0.47139593958854675,0.4725683629512787,0.05011172592639923,-0.024700477719306946,-0.028324991464614868,-0.1487445831298828
494,0.03713711752983673,0.4664540656833669,-2.4608919123436896,0.033162083476781845,-0.4497219920158386,-0.8925527334213257,-0.7279900908470154,0.63499516248703,0.1982475221157074,0.14019303023815155,-0.3755648732185364,-0.07342016696929932
495,0.022144417055260802,0.4245595795202654,-2.3841653166075933,0.02017679251730442,-0.411919504404068,-0.9109967947006226,-0.41644030809402466,-0.7150236368179321,0.6493214964866638,0.09141072630882263,0.10895627737045288,-0.17735153436660767
496,-0.057246414026635335,0.3910642228090572,-2.285887464889898,-0.05289563164114952,-0.3811725080013275,-0.9229894876480103,0.3826640844345093,-0.215121790766716,0.9235692024230957,-0.07662096619606018,0.12104067206382751,0.27665770053863525
497,-0.07401464552833606,0.41401216567395893,-2.246144297096813,-0.0676996037364006,-0.40228575468063354,-0.9130076169967651,0.07143314927816391,0.3230825662612915,0.030221639201045036,-0.0702245831489563,0.10228270292282104,0.45713603496551514
498,-0.03396867832970354,0.38603581639610934,-2.2545256328713474,-0.031462833285331726,-0.37651893496513367,-0.9258744716644287,-0.25707903504371643,0.5222477912902832,-0.12793883681297302,0.009566474705934525,-0.09285664558410645,-0.189710795879364
499,0.023815236725049264,0.41512001588741576,-2.2855148700936345,0.02179049886763096,-0.4032997488975525,-0.914808452129364,0.5912530422210693,-0.37346169352531433,-0.45979148149490356,-0.0680093765258789,-0.41635662317276,-0.411027729511261
500,-0.0009512845959028308,0.49708250919891545,-2.290423041611974,-0.0008361576474271715,-0.47686317563056946,-0.8789771199226379,0.5586768388748169,-0.6105218529701233,0.022354792803525925,-0.18875429034233093,0.22227025032043457,-0.19872057437896729
