,attitude.roll,attitude.pitch,attitude.yaw,gravity.x,gravity.y,gravity.z,rotationRate.x,rotationRate.y,rotationRate.z,userAcceleration.x,userAcceleration.y,userAcceleration.z
0,-0.013589346551644224,0.4285831639729108,-2.388032301376039,-0.012359884567558765,-0.415582537651062,-0.9094715118408203,0.0054050409235060215,0.028413457795977592,0.1485951542854309,0.09603908658027649,0.15929588675498962,-0.027845382690429688
1,-0.15142823463127017,0.3566114504763055,-2.2101909548893706,-0.14135946333408356,-0.34910088777542114,-0.9263617396354675,2.0294816493988037,1.1333874464035034,0.3876021206378937,-0.019086703658103943,0.20756036043167114,0.39384526014328003
2,-0.06397179116371407,0.4961707306278247,-2.174544105995783,-0.0562191940844059,-0.47606152296066284,-0.8776131272315979,-0.006717219948768616,-0.19746427237987518,-0.1287364512681961,-0.0812930166721344,0.10150405764579773,0.3753548264503479
3,-0.058537270042049123,0.49144357630079566,-2.2181002336484137,-0.05158006399869919,-0.4718991219997406,-0.8801424503326416,0.21528778970241547,0.0051228683441877365,-0.4694325029850006,0.014974236488342285,-0.1384219229221344,-0.011428594589233398
4,-0.048766060317310685,0.4886331925305743,-2.2430303659659505,-0.04304216057062149,-0.4694194793701172,-0.8819255828857422,0.1392245590686798,-0.16633938252925873,-0.054274581372737885,-0.0813780128955841,-0.3426685333251953,-0.3510303497314453
5,-0.06664629240288261,0.5109746574970936,-2.244346026548401,-0.05809042230248451,-0.48902764916419983,-0.8703318238258362,-0.030913906171917915,0.2128467559814453,-0.19228972494602203,-0.2501676380634308,0.06512320041656494,-0.09573262929916382
6,-0.06090835183241643,0.4702042482243459,-2.2906805543358413,-0.05426475405693054,-0.4530683755874634,-0.8898226618766785,0.385304719209671,-0.39474907517433167,-0.4547610282897949,-0.02349403128027916,0.24437394738197327,-0.07071805000305176
7,-0.056115834355958946,0.5561031779493832,-2.362671492030494,-0.047635212540626526,-0.5278805494308472,-0.8479817509651184,0.2640433609485626,-0.4742136001586914,-0.5011311769485474,0.046460285782814026,0.10992711782455444,0.4846242070198059
8,-0.06801778996198718,0.5610212266518226,-2.3981620866270235,-0.05754709616303444,-0.532051146030426,-0.8447543382644653,-0.14943574368953705,-0.2271893471479416,-0.33329665660858154,-0.01018667221069336,-0.047645509243011475,0.19151031970977783
9,-0.019347930395129182,0.5423404663355871,-2.4213680904908546,-0.016570527106523514,-0.5161420106887817,-0.8563427329063416,-0.11451692134141922,0.7083149552345276,-0.13209694623947144,0.01548716425895691,-0.27536189556121826,-0.19459110498428345
10,0.022724291617041602,0.5049473052055402,-2.3865231599254746,0.01988658681511879,-0.4837613105773926,-0.8749740123748779,0.04122234135866165,-0.07529708743095398,1.0357650518417358,0.2082628309726715,0.032330065965652466,-0.5361893177032471
11,-0.019151292958303503,0.5147214396560644,-2.2937470158449726,-0.016668839380145073,-0.4922924041748047,-0.8702702522277832,0.42996689677238464,-0.10762732475996017,0.6837655305862427,0.10407118499279022,0.20182612538337708,0.02386528253555298
12,-0.07053667633475251,0.6019399788307277,-2.1947923476115774,-0.058090854436159134,-0.566242516040802,-0.8221890330314636,0.5285905599594116,0.25000014901161194,0.9953247308731079,-0.057265594601631165,0.16112172603607178,0.5903164744377136
13,-0.11326398867893372,0.5116563841158542,-2.114988066791776,-0.09854777902364731,-0.48962217569351196,-0.8663477897644043,-1.9663127660751343,-0.02012368105351925,0.41241493821144104,-0.0636989176273346,0.021925032138824463,0.3201441764831543
14,-0.08982254257078959,0.2730085904945204,-2.1054054277075296,-0.08637961745262146,-0.2696298062801361,-0.9590820074081421,-1.93305504322052,0.8121147155761719,0.4550988972187042,0.03993186354637146,-0.2280813753604889,-0.3335205316543579
15,-0.09115540000863882,0.1720092911525763,-2.053845521359563,-0.08968587964773178,-0.17116233706474304,-0.981152355670929,0.35890549421310425,-0.239501491189003,0.6898759603500366,-0.07098916918039322,-0.03550270199775696,-0.567065417766571
16,-0.07098254534508601,0.20518084735908848,-2.012050374491125,-0.06943528354167938,-0.20374421775341034,-0.9765587449073792,-0.6670295596122742,-0.2531965970993042,-0.5255706310272217,-0.02948743849992752,0.31508761644363403,-0.10727298259735107
17,-0.08373486311139326,0.29736874692639925,-2.0780674185489856,-0.07996628433465958,-0.29300546646118164,-0.9527608156204224,1.7324676513671875,-0.07083924114704132,-0.8075665235519409,0.03913377225399017,0.21498727798461914,0.49461573362350464
18,-0.08133006325671176,0.3861139160092332,-2.132986266407191,-0.07525946944952011,-0.3765912652015686,-0.9233173727989197,-0.33925071358680725,-0.01579079031944275,-0.19637301564216614,0.04324652999639511,-0.016337811946868896,0.5892720222473145
19,-0.0199553598407095,0.23484157080733495,-2.0756538152627897,-0.01940632052719593,-0.23268890380859375,-0.9723575711250305,-2.3803882598876953,0.9320037961006165,0.8196495771408081,-0.08809185028076172,-0.20690155029296875,-0.05808371305465698
20,0.04743372223430615,0.0807880259903818,-1.9912568489898852,0.04726128652691841,-0.08070017397403717,-0.9956173300743103,-0.30602386593818665,-0.23284633457660675,1.4895349740982056,0.4809369444847107,0.19060923159122467,-0.9579043984413147
21,-0.02386983633795082,0.20817210513809714,-1.880090226558478,-0.023352276533842087,-0.2066718190908432,-0.9781315922737122,1.6467938423156738,0.11732019484043121,1.0954976081848145,0.14446128904819489,0.1554633229970932,0.14817559719085693
22,-0.041231069322415104,0.2451721713913581,-1.7763873735579723,-0.0399867445230484,-0.24272334575653076,-0.9692710638046265,-0.29449671506881714,-0.040736474096775055,1.0343176126480103,-0.0653904527425766,0.09147824347019196,0.42866748571395874
23,-0.09447681194375107,0.2378477024133406,-1.7199626894316158,-0.09168050438165665,-0.2356114685535431,-0.9675132632255554,-0.3760828375816345,-0.2709614634513855,0.19357767701148987,-0.11760904639959335,-0.010024502873420715,0.4976646900177002
24,-0.11966255823391891,0.06869843260882452,-1.704648060277056,-0.11909559369087219,-0.06864441186189651,-0.9905070066452026,-2.9015402793884277,0.185480996966362,0.29636505246162415,-0.2010948359966278,-0.1315508931875229,0.1520060896873474
25,-0.09885171756891108,-0.23198730205046963,-1.7559960109315498,-0.09604702144861221,0.22991204261779785,-0.9684603214263916,-1.7519482374191284,-0.8802744746208191,-0.256233811378479,-0.05832614749670029,-0.29209160804748535,-1.194671392440796
26,-0.12232935341178817,-0.2112008309077589,-1.7383710704674709,-0.119313083589077,0.2096341997385025,-0.970473051071167,1.5685288906097412,0.18147991597652435,-0.34916096925735474,-0.2089034616947174,0.4621950387954712,-0.426530122756958
27,-0.14257835912424371,-0.07975132414713022,-1.773177190090811,-0.14164413511753082,0.07966680824756622,-0.9867067337036133,2.0120749473571777,-0.033399004489183426,-0.37918493151664734,0.04589523375034332,0.21705560386180878,0.13319110870361328
28,-0.10709484314770724,0.18923383705087993,-1.839332620609301,-0.10498210787773132,-0.1881064623594284,-0.9765217304229736,1.7822661399841309,0.1415816992521286,-1.394433617591858,-0.07514790445566177,0.1744498610496521,0.7408955097198486
29,-0.11028460439832798,0.15644756404739704,-1.945888030693132,-0.10871700942516327,-0.15581014752388,-0.9817860126495361,-1.298925518989563,0.11058028042316437,-0.42247274518013,0.04748348891735077,-0.1067173182964325,0.31682324409484863
30,-0.08476633597542929,-0.028200915737515476,-1.9808378742228523,-0.08463119715452194,0.02819717861711979,-0.9960132837295532,-1.8298155069351196,0.2824402153491974,0.07529910653829575,0.06296371668577194,-0.27619826793670654,-0.3887218236923218
31,-0.07408463491150062,-0.07784626130176209,-1.938677503750057,-0.0737927258014679,0.07776766270399094,-0.9942368268966675,1.4468495845794678,-0.1785527616739273,0.7428061962127686,0.0833599865436554,0.25632351636886597,-0.641581654548645
32,-0.09803262318923002,0.012391330170878012,-1.8706518555800689,-0.09786815941333771,-0.012391013093292713,-0.9951222538948059,1.612476110458374,-0.6807854771614075,0.7394972443580627,0.0036603957414627075,0.12292568385601044,-0.07854717969894409
33,-0.05567720631075878,0.26429984114048977,-1.839058105970819,-0.05371608957648277,-0.26123347878456116,-0.963779866695404,1.6930582523345947,0.3775836229324341,-0.429131418466568,-0.15319308638572693,0.14824214577674866,0.599766194820404
34,-0.05954366464088324,0.28532869800758465,-1.8926338119962636,-0.0571025088429451,-0.2814728617668152,-0.9578686356544495,-1.4766665697097778,0.2643178403377533,-0.3918290436267853,-0.0820576399564743,-0.03384998440742493,0.5719739198684692
35,-0.06686866381404971,0.07164627914558695,-1.923684480551639,-0.06664741784334183,-0.07158499956130981,-0.9952053427696228,-2.8393492698669434,-0.2701108157634735,0.07676916569471359,0.013852007687091827,-0.21158760786056519,-0.2540164589881897
36,-0.07938690982417138,0.0053697615907847655,-1.930767180058384,-0.07930240780115128,-0.005369735881686211,-0.9968361258506775,0.6766109466552734,-0.08312971144914627,0.34228140115737915,-0.11291255801916122,0.03455979749560356,-0.56564861536026
37,-0.07297395862042476,0.08083613735770255,-1.9451042517492863,-0.07267113029956818,-0.08074812591075897,-0.9940817952156067,0.6675171256065369,-0.28438982367515564,-0.2958882749080658,-0.05739479511976242,0.26234298944473267,-0.04853600263595581
38,-0.07203247627522442,0.2672305510037118,-2.0025123958446938,-0.06941568106412888,-0.26406130194664,-0.9620047211647034,2.137659788131714,-0.06818573921918869,-1.181980848312378,-0.14164388179779053,0.2879718244075775,0.5725088715553284
39,-0.07174290605718076,0.32549405795377256,-2.1181614641748903,-0.0679175928235054,-0.3197769522666931,-0.9450554847717285,-0.6752058267593384,0.3102249205112457,-0.6282374858856201,0.0968330055475235,0.0062088072299957275,0.5157952308654785
40,-0.0355121723177943,0.17017797433462087,-2.1167733258673502,-0.034991830587387085,-0.1693577617406845,-0.9849332571029663,-2.125335693359375,0.5644606947898865,0.39027541875839233,0.008319467306137085,-0.11338759958744049,0.06647622585296631
41,-0.03872824796908587,-0.06789824589487885,-2.040579106824094,-0.038629353046417236,0.06784608960151672,-0.996947705745697,-1.3818095922470093,-0.828363835811615,1.0728293657302856,0.13079243898391724,0.19639036059379578,-1.1419682502746582
42,-0.09775484042661951,0.017126371890647342,-1.9940313684387305,-0.09758491069078445,-0.017125533893704414,-0.9950798749923706,1.7253365516662598,-1.0012649297714233,0.623943030834198,0.16534918546676636,0.14276640117168427,-0.1567298173904419
43,-0.15173231149093766,0.2709037578879401,-1.9198555062275746,-0.14563821256160736,-0.2676023542881012,-0.9524592161178589,2.458704948425293,-0.20565839111804962,0.0030380897223949432,-0.10848166048526764,0.1611417829990387,0.7191828489303589
44,-0.2013721098321668,0.3263723349248871,-1.9222852857980868,-0.18945549428462982,-0.3206089735031128,-0.9280713796615601,-0.6692651510238647,-0.4671388864517212,-0.0764884278178215,-0.10200263559818268,0.06809127330780029,0.41922128200531006
45,-0.16895942776017817,0.2724685556975266,-1.9845306268993523,-0.16195330023765564,-0.2691097557544708,-0.9493951201438904,-0.2741050720214844,-0.49762967228889465,-0.8031069040298462,-0.10872235894203186,-0.027093887329101562,-0.6434088349342346
46,-0.18128910090965308,0.32343633896703156,-2.104989163771599,-0.1709490567445755,-0.31782659888267517,-0.9326106905937195,0.47145581245422363,-0.12390066683292389,-1.0367889404296875,-0.073023721575737,-0.40891900658607483,-0.2529972195625305
47,-0.16588293209157046,0.2704677603284512,-2.157902801611462,-0.1591203212738037,-0.26718223094940186,-0.9504179954528809,-1.233189582824707,-0.010358751751482487,0.24750123918056488,0.12463545799255371,0.10144126415252686,-0.39484262466430664
48,-0.15529855792233976,0.2784726759036028,-2.1450236251477683,-0.14871643483638763,-0.27488747239112854,-0.9499053955078125,1.581708312034607,0.28765180706977844,-0.7597634196281433,-0.07763244211673737,0.27340736985206604,0.40667724609375
49,-0.08237167254985124,0.37041435127842326,-2.2554329151801324,-0.07669821381568909,-0.3620017170906067,-0.9290167689323425,-0.8070028424263,0.5592286586761475,-0.4497063457965851,0.2007521688938141,-0.0067116618156433105,0.6507880091667175
50,-0.12315339085441934,0.1694243670866912,-2.2185537492249536,-0.12108346074819565,-0.16861498355865479,-0.9782166481018066,-2.5145139694213867,-0.3105654716491699,1.090116262435913,-0.032114773988723755,-0.08584058284759521,-0.10242605209350586
51,-0.1493385090145694,-0.04929214394525625,-2.1756645566042594,-0.14860332012176514,0.04927218705415726,-0.9876686334609985,-2.37471604347229,-0.24285297095775604,0.9566733241081238,0.22004497051239014,0.05540310963988304,-0.667162299156189
52,-0.18711801086776375,-0.017662299741392235,-2.124109592347948,-0.18599897623062134,0.017661381512880325,-0.9823911786079407,1.4076898097991943,-0.3153330385684967,0.5549511909484863,0.21009261906147003,0.06670445948839188,-0.11962902545928955
53,-0.2114328111085596,0.10599424166590718,-2.0288291978465782,-0.20868325233459473,-0.10579588264226913,-0.9722440838813782,1.507397174835205,-0.11146331578493118,0.2472972273826599,-0.0055196285247802734,0.08061888068914413,0.4640043377876282
54,-0.25339873473988805,0.18578560769086458,-1.9920042518371333,-0.2463814914226532,-0.18471868336200714,-0.9514069557189941,0.028717823326587677,-0.4810096025466919,0.2694206237792969,0.009687155485153198,0.004314005374908447,0.39894723892211914
55,-0.27394280695832557,0.19001944573976226,-1.9626859093702287,-0.2656599283218384,-0.18887798488140106,-0.9453834891319275,-0.6284839510917664,0.2757682204246521,0.052910976111888885,-0.19163072109222412,-0.09116657078266144,0.09745258092880249
56,-0.2437923746716157,0.18731278058070824,-2.012233699665544,-0.23716233670711517,-0.18621934950351715,-0.9534549713134766,-0.5748848915100098,-0.032119669020175934,-0.10765566676855087,-0.11627700924873352,-0.38662612438201904,-0.49600791931152344
57,-0.2578691909344706,0.22999727342463092,-2.0304999890323128,-0.2483053207397461,-0.22797486186027527,-0.9414732456207275,0.3446054756641388,0.31651434302330017,-0.5023318529129028,-0.10093782842159271,0.10955141484737396,-0.15253609418869019
58,-0.26287368964427316,0.29062542596601293,-2.065567981551883,-0.2489594668149948,-0.28655147552490234,-0.9251526594161987,1.0141162872314453,-0.2799568176269531,-1.0796133279800415,-0.05337817966938019,0.32782649993896484,0.30125129222869873
59,-0.17140849098324132,0.4054382746566676,-2.1929033594249625,-0.1567421704530716,-0.3944215476512909,-0.9054631590843201,0.0294265765696764,1.0905970335006714,-1.4522501230239868,0.026737287640571594,0.2199678122997284,0.8109502196311951
60,-0.04461457184388478,0.2345358173613733,-2.2699283944545217,-0.04337873309850693,-0.23239153623580933,-0.97165447473526,-3.349168300628662,0.10285775363445282,0.44347167015075684,0.08837690949440002,-0.07665996253490448,0.17732775211334229
61,-0.04904952916584974,-0.01820683750584851,-2.2183837249203795,-0.04902173578739166,0.018205830827355385,-0.9986317753791809,-1.2817190885543823,-0.2857853174209595,0.12970389425754547,-0.11185167729854584,0.051938820630311966,-0.6651713252067566
62,-0.10446302924765342,-0.060067439252739836,-2.1823897053063064,-0.10408508032560349,0.06003132462501526,-0.9927549958229065,1.3859682083129883,0.21585729718208313,-0.04866570979356766,-0.07734190672636032,0.14901408553123474,-0.49590766429901123
63,-0.1407405646109639,0.01994261011802132,-2.11868456820305,-0.14024850726127625,-0.019941288977861404,-0.9899154901504517,1.5133206844329834,-0.13829095661640167,0.6756926774978638,-0.03602100908756256,0.0569133386015892,0.18940895795822144
64,-0.1668211902189653,0.14941803084766742,-2.0739811481863697,-0.1641983836889267,-0.14886267483234406,-0.9751301407814026,-0.009126054123044014,-1.251674771308899,-0.008659712970256805,0.0003189891576766968,0.07125647366046906,0.5727863907814026
65,-0.22930934495916622,0.10226859643727253,-2.0492686828256934,-0.2261173576116562,-0.10209041833877563,-0.9687355160713196,-0.8554278612136841,-0.5396873354911804,0.23620983958244324,-0.1309840828180313,0.03838498145341873,0.17341691255569458
66,-0.2873361349007353,0.04663846970985658,-2.0937181729473155,-0.28309041261672974,-0.04662156477570534,-0.9579594135284424,0.40743592381477356,-0.7550417184829712,-0.4301707446575165,-0.12384623289108276,-0.24233412742614746,-0.8084437847137451
67,-0.3063934102445709,0.10456054515483482,-2.0889963933348006,-0.2999746799468994,-0.1043701246380806,-0.9482204914093018,0.6785420775413513,-0.33903318643569946,0.6185292601585388,0.15825104713439941,0.495635986328125,-0.37905001640319824
68,-0.26917615578805343,0.09651570737079203,-2.072832713393155,-0.26469966769218445,-0.09636592864990234,-0.9595038890838623,-1.512747883796692,0.023061050102114677,0.23795925080776215,-0.04590824246406555,0.20899105072021484,0.031815290451049805
69,-0.24889586761334687,0.14291287508222586,-2.162477722380619,-0.24382270872592926,-0.14242689311504364,-0.9593044519424438,0.9268014430999756,0.2585110664367676,-1.0525633096694946,0.16414131224155426,0.012772977352142334,0.3292538523674011
70,-0.25742875458184067,0.2105047495009846,-2.2157736972927746,-0.24897484481334686,-0.20895352959632874,-0.9457007646560669,0.17642755806446075,-0.0419325977563858,-0.015872487798333168,0.23119835555553436,-0.10900911688804626,0.3256446123123169
71,-0.21002602755892505,0.09823113169097361,-2.1684849302123204,-0.2074802815914154,-0.09807322919368744,-0.973310649394989,-2.4530465602874756,0.6552638411521912,1.1159876585006714,0.0369938462972641,-0.12606310844421387,0.1668683886528015
72,-0.1691637710033876,-0.10046129402976348,-2.0965572481142356,-0.1675092577934265,0.1002923920750618,-0.9807558655738831,0.6586277484893799,-0.4978269636631012,0.5208085179328918,-0.0011461377143859863,0.4509771466255188,-1.4325742721557617
73,-0.1665895463953915,0.04780220187804921,-2.0803510879460316,-0.16563066840171814,-0.047784000635147095,-0.9850295186042786,0.7246758937835693,-0.09569789469242096,0.29309120774269104,0.09023699164390564,-0.049536556005477905,0.19785910844802856
74,-0.19968904417705516,0.08758548420094281,-2.015929008465495,-0.1976041942834854,-0.0874735489487648,-0.9763713479042053,0.2832081615924835,0.11998376250267029,0.052504315972328186,-0.1973390281200409,0.023661285638809204,0.5442729592323303
75,-0.20276282883110314,0.10324667507647979,-2.048004309021614,-0.20030395686626434,-0.10306333750486374,-0.974297821521759,-0.1172558069229126,0.16900885105133057,-0.5894339084625244,-0.16738706827163696,-0.045755624771118164,0.3052304983139038
76,-0.205660407904081,0.15773045335168442,-2.144477475806491,-0.20167864859104156,-0.15707723796367645,-0.9667742848396301,-0.11926907300949097,0.10196705162525177,-0.9949399828910828,-0.06325967609882355,-0.13027626276016235,-0.001945197582244873
77,-0.2146420787807279,0.20751086712800124,-2.2386005162601976,-0.2084282487630844,-0.20602481067180634,-0.9560917615890503,-0.47372496128082275,0.27266815304756165,-0.7175595164299011,-0.10932078957557678,-0.21528562903404236,-0.1583796739578247
78,-0.18646690274326708,0.201025671134741,-2.273797137068323,-0.1816549152135849,-0.19967445731163025,-0.9628767371177673,-0.4625682830810547,0.2996310889720917,1.3142824172973633e-05,-0.0879221111536026,0.08971962332725525,0.08151382207870483
79,-0.19889672659416294,0.20699316300549406,-2.3181794171723307,-0.19337007403373718,-0.2055181860923767,-0.9593592882156372,0.902095377445221,0.1056535467505455,-1.343051552772522,0.040232881903648376,0.2521032691001892,0.4710628390312195
80,-0.1544353972166611,0.2858942767943433,-2.3828181849376353,-0.14757856726646423,-0.28201553225517273,-0.9479914903640747,-0.3754027485847473,-0.13666847348213196,0.2553200125694275,0.23253950476646423,-0.13012436032295227,0.4891902208328247
81,-0.1517195300698937,0.17860748197033638,-2.3360645041316466,-0.14873383939266205,-0.17765937745571136,-0.9727874398231506,-1.314636468887329,0.5108493566513062,0.8631197214126587,0.028235167264938354,-0.23927177488803864,-0.09198611974716187
82,-0.15354439310665202,0.11755604405339702,-2.27682698161158,-0.1518862098455429,-0.11728547513484955,-0.9814146161079407,0.5940619111061096,-0.19984619319438934,-0.1281987577676773,0.1135103851556778,0.14292022585868835,-0.892410397529602
83,-0.17615912779029863,0.23943800113106506,-2.229732181812374,-0.1702498197555542,-0.2371567040681839,-0.9564369916915894,0.44116342067718506,0.22570133209228516,0.6470075845718384,0.2097090482711792,0.1077469140291214,0.21026694774627686
84,-0.24498153726815916,0.1550245722359856,-2.1146843914827613,-0.2396298348903656,-0.15440437197685242,-0.9585075974464417,0.23910781741142273,-0.23925040662288666,0.5628345608711243,-0.2652529776096344,0.11550971865653992,0.33443838357925415
85,-0.2429524569072236,0.1325570590130754,-2.0970484000846543,-0.23845894634723663,-0.1321692019701004,-0.9621167778968811,-0.5756649374961853,-0.3939644992351532,-0.12634411454200745,-0.13849417865276337,0.010419324040412903,0.2914167046546936
86,-0.2342565486898569,0.08162328093994811,-2.1402126430393977,-0.23134709894657135,-0.08153267949819565,-0.9694488048553467,-0.5382214784622192,-0.47750887274742126,-0.12821432948112488,-0.0023107528686523438,-0.09513358026742935,-0.23718571662902832
87,-0.2568075047008883,0.06952980713961368,-2.1592646430404976,-0.25338035821914673,-0.06947379559278488,-0.9648687839508057,0.8389129638671875,0.2789202034473419,-0.5761042237281799,-0.34499305486679077,-0.19366401433944702,-0.29173821210861206
88,-0.2512778767813698,0.11758213201170557,-2.172393915388867,-0.24692508578300476,-0.11731138080358505,-0.9619075059890747,0.6069931983947754,0.3290128707885742,-0.3392486572265625,-0.02222469449043274,0.28691279888153076,-0.2672032117843628
89,-0.2550137335562912,0.15293743835968,-2.13103678247362,-0.2493142932653427,-0.15234193205833435,-0.956365168094635,0.8877652883529663,0.03805966675281525,0.021589819341897964,-0.012038245797157288,0.14034852385520935,0.262273371219635
90,-0.22110880473941052,0.19496483545626483,-2.122733234473378,-0.21515659987926483,-0.19373203814029694,-0.9571706056594849,-0.6308370232582092,0.2278207689523697,-0.3525361120700836,0.02222447097301483,0.036337628960609436,0.5492879152297974
91,-0.14184766734482382,0.05034756628569026,-2.128100478550031,-0.14119331538677216,-0.05032629892230034,-0.9887020587921143,-1.481887936592102,-0.01623498648405075,0.5584061145782471,0.17380134761333466,-0.04667382314801216,-0.18329501152038574
92,-0.09142518219978432,-0.07678028945179334,-2.092110700133738,-0.09102889150381088,0.07670487463474274,-0.9928897619247437,-0.4743588864803314,-0.02028139866888523,0.304889053106308,-0.07639053463935852,-0.13328447937965393,-0.6619411110877991
93,-0.10169313825069025,-0.09747081358386649,-2.0676761636514347,-0.10103609412908554,0.09731654822826385,-0.9901117086410522,1.407020926475525,-0.31241706013679504,0.40965884923934937,0.18251803517341614,0.15518589317798615,-0.6263433694839478
94,-0.12162079906934149,-0.01759900972130012,-1.9949870859183498,-0.12130240350961685,0.017598101869225502,-0.9924595952033997,0.7485657334327698,-0.9338943958282471,0.9472500085830688,0.08895377069711685,0.05118852108716965,0.04394274950027466
95,-0.15347289519108742,0.10404975631033682,-1.9332144997272642,-0.1520443558692932,-0.10386211425065994,-0.982901394367218,0.9757137894630432,-1.0641839504241943,0.09760614484548569,-0.03901094198226929,-0.004872024059295654,0.3157108426094055
96,-0.19183384058362232,0.15424393087774396,-1.9278422403998976,-0.1883959025144577,-0.15363304316997528,-0.9700019955635071,0.7159081697463989,0.05494479835033417,-0.11636751890182495,-0.022480562329292297,-0.059318602085113525,0.10607987642288208
97,-0.10970102210786634,0.166666412822373,-1.9294056315519228,-0.10796407610177994,-0.16589587926864624,-0.9802154302597046,0.7884555459022522,1.0130786895751953,0.11989149451255798,-0.05527444928884506,-0.07403330504894257,-0.5736938118934631
98,-0.08401868296607962,0.28630938119455135,-1.9352369554749014,-0.08050371706485748,-0.2824137806892395,-0.9559087753295898,0.9602951407432556,0.29950466752052307,0.7910159230232239,-0.05999921262264252,-0.067912757396698,-0.35170841217041016
99,-0.12041592622514317,0.3434368092924007,-1.943621314386,-0.11311017721891403,-0.3367251753807068,-0.9347845911979675,0.7125850319862366,-0.3390316665172577,-0.21964623034000397,0.09103071689605713,0.1627139449119568,0.11422795057296753
100,-0.15356874315124744,0.3896538677488602,-1.9843828954892062,-0.1414996087551117,-0.3798682391643524,-0.9141542315483093,-0.01360716950148344,-0.9232882857322693,-0.3689815402030945,0.055165380239486694,0.16246101260185242,0.5310975909233093
101,-0.24699019436948538,0.28664843552059255,-2.0518280506193807,-0.23451077938079834,-0.2827390134334564,-0.9300878047943115,-1.829463005065918,-0.39977335929870605,0.41414907574653625,0.12936246395111084,-0.18454614281654358,0.385577917098999
102,-0.20428527062738053,0.030591974746899224,-2.014202023605115,-0.20277242362499237,-0.030587203800678253,-0.978748083114624,-2.2246811389923096,0.06992064416408539,1.1388423442840576,-0.05644389986991882,-0.06859492510557175,-0.5004541873931885
103,-0.21657190282790273,-0.05265990012285282,-1.9988722032350468,-0.21458500623703003,0.052635565400123596,-0.9752860069274902,0.6900209784507751,-1.0566115379333496,0.274179071187973,0.18405216932296753,0.1995769590139389,-0.9289956092834473
104,-0.26120019152836604,0.070465198483472,-1.9643379415721247,-0.2575993537902832,-0.07040689885616302,-0.9636832475662231,1.282217264175415,-0.3060303032398224,0.35779619216918945,0.1148991584777832,0.04593179374933243,0.06793129444122314
105,-0.2447340398288219,0.1782609286797051,-1.8811737850424164,-0.23845872282981873,-0.17731833457946777,-0.9548275470733643,1.1573740243911743,-0.16460323333740234,-0.1609453558921814,-0.09329786896705627,0.10331320762634277,0.30768704414367676
106,-0.2529732430985479,0.2695539365949729,-1.913991819504962,-0.24124588072299957,-0.2663015127182007,-0.933211624622345,0.18396025896072388,-0.3429747521877289,-0.3487369418144226,0.04315628111362457,-0.020304322242736816,0.16859370470046997
107,-0.1783058435544801,0.2838499211206388,-1.9392960500622023,-0.17026525735855103,-0.28005358576774597,-0.9447643756866455,0.8527197241783142,1.8426355123519897,-0.5105343461036682,-0.06157676875591278,-0.01888135075569153,-0.4070422649383545
108,-0.12243892422395473,0.3692441089893248,-1.9662478109011066,-0.11390150338411331,-0.3609105944633484,-0.9256187081336975,0.2515903115272522,0.31983381509780884,0.5178971886634827,-0.0018974468111991882,-0.2022760510444641,-0.3831276297569275
109,-0.10999226156532413,0.39141219411124256,-1.9717901619167764,-0.10146879404783249,-0.3814941942691803,-0.9187852144241333,-0.4733996093273163,-0.08933263272047043,0.42145612835884094,0.12194608896970749,0.05118715763092041,-0.0441206693649292
110,-0.21205446518586166,0.3265049577279872,-2.0204003243936364,-0.1993495374917984,-0.32073459029197693,-0.9259530901908875,-0.5915065407752991,-1.3951882123947144,-0.16358137130737305,0.1821986585855484,0.001093536615371704,0.33200472593307495
111,-0.33496001878805626,0.2594479203309954,-2.0301797919391946,-0.3177293539047241,-0.2565469741821289,-0.912815272808075,-0.24863699078559875,-0.6222000122070312,1.0818712711334229,0.4432176351547241,-0.062087059020996094,0.16290682554244995
112,-0.2814030484323843,0.15778949884619903,-1.9723207147498307,-0.27425387501716614,-0.15713554620742798,-0.9487324357032776,-2.379138469696045,2.1079609394073486,1.0022552013397217,0.03861239552497864,-0.18092292547225952,0.2863636612892151
113,-0.13800598557017663,-0.0703184902788516,-1.9117561566905068,-0.1372283548116684,0.07026055455207825,-0.9880444407463074,0.3846004903316498,-0.7380891442298889,1.4718186855316162,0.3975738286972046,0.30945441126823425,-1.7830736637115479
114,-0.1963987771414094,0.06727467978696199,-1.8695467908213799,-0.19469718635082245,-0.0672239437699318,-0.9785570502281189,0.7763609886169434,-0.21282760798931122,-0.07916422188282013,0.14980585873126984,0.08963911980390549,0.09449338912963867
115,-0.20903932230460862,0.17161729942440282,-1.8453800147075965,-0.20447173714637756,-0.1707761138677597,-0.9638603925704956,0.5480977892875671,0.24224944412708282,0.0766109973192215,-0.0035055577754974365,-0.004135385155677795,0.6022881269454956
116,-0.23475458255242304,0.19317081548422294,-1.8508628332351158,-0.22827796638011932,-0.19197168946266174,-0.9544820785522461,-0.14125822484493256,0.2952156662940979,-0.05523411184549332,0.10047036409378052,-0.08438022434711456,0.4937276840209961
117,-0.23255519993124996,0.15604586907617102,-1.8651455575627693,-0.22766444087028503,-0.15541334450244904,-0.96125727891922,-0.951447069644928,-0.27931052446365356,0.1772802174091339,0.07034632563591003,-0.20957690477371216,-0.22175663709640503
118,-0.28091507083735057,0.1429863261884092,-1.8856633875664226,-0.27440574765205383,-0.14249959588050842,-0.9509970545768738,0.07165660709142685,-0.5432130098342896,-0.12328600883483887,-0.18805763125419617,-0.2519401013851166,-0.4923318028450012
119,-0.3288732621142712,0.19255353052180094,-1.9226035349059132,-0.3170078694820404,-0.19136585295200348,-0.9289160966873169,0.5780442357063293,0.05375808849930763,-0.4449198544025421,0.0634983479976654,0.2589012682437897,-0.2167137861251831
120,-0.3630126826742488,0.2604731399356805,-1.9546677706905686,-0.34311428666114807,-0.25753775238990784,-0.9032977819442749,0.6964644193649292,-0.12265831977128983,-0.8921681046485901,0.06113189458847046,0.16154471039772034,0.5626758337020874
121,-0.3183203945329788,0.26088878259221215,-2.0155191779985016,-0.30238115787506104,-0.2579393684864044,-0.9176235198974609,-0.8867311477661133,0.356629341840744,-0.3171432316303253,0.14397966861724854,0.005589514970779419,0.37644004821777344
122,-0.27870678694878714,0.17535718421708607,-2.019865914057878,-0.27089351415634155,-0.17445985972881317,-0.9466680884361267,-0.7867137789726257,-0.215508371591568,0.3818240463733673,0.03944820165634155,-0.09475097060203552,-0.3600183129310608
123,-0.28905807849762094,0.15705280687634762,-1.968958699559323,-0.28154125809669495,-0.15640796720981598,-0.9467159509658813,-0.9586900472640991,-0.20326818525791168,1.098971962928772,0.13011303544044495,-0.23026499152183533,-0.34735143184661865
124,-0.31968840735392945,0.10238584843468096,-1.833201125756535,-0.312624990940094,-0.10220705717802048,-0.9443618655204773,0.13338904082775116,0.37864264845848083,1.4414262771606445,0.052020132541656494,0.09134280681610107,-0.0753677487373352
125,-0.3571503592371687,0.10744507744217513,-1.7128871225254583,-0.34758976101875305,-0.10723846405744553,-0.9314941167831421,1.493499755859375,-0.220082089304924,0.13834841549396515,-0.16438835859298706,0.12750212848186493,0.3899291753768921
126,-0.38164534507770537,0.16829291291604234,-1.6725635182758756,-0.367186039686203,-0.1674996316432953,-0.914941668510437,-0.32742127776145935,-0.22933319211006165,0.16303083300590515,0.023924320936203003,0.06785973906517029,0.5456637144088745
127,-0.32664000321955033,0.04483549958205205,-1.668371498511329,-0.32054007053375244,-0.044820480048656464,-0.9461739659309387,-1.5964279174804688,-0.203322172164917,0.4064164459705353,-0.18919503688812256,0.05858390033245087,-0.3312155604362488
128,-0.3654340820757031,0.003784323616947361,-1.7202903291223703,-0.35735219717025757,-0.0037843144964426756,-0.9339620471000671,0.7364981770515442,-0.245074063539505,-0.9373244643211365,-0.43351083993911743,-0.12959276139736176,-0.48365575075149536
129,-0.38899203531657967,0.0771329643400363,-1.7789160931064276,-0.378128319978714,-0.07705650478601456,-0.9225406646728516,-0.01087589468806982,0.336195707321167,-0.3172990083694458,0.0495607852935791,0.13975486159324646,-0.16568565368652344
130,-0.4188765898098087,0.1743143924469999,-1.8108114706886695,-0.4005706310272217,-0.17343296110630035,-0.899702250957489,1.9575083255767822,-0.2578636705875397,-1.3973077535629272,0.07969355583190918,0.24257053434848785,0.307142436504364
131,-0.42300648672436053,0.3244791720812407,-1.8728477820644842,-0.3890824317932129,-0.3188151717185974,-0.8642752766609192,-0.025500213727355003,-0.06066238135099411,-0.8399391770362854,0.20506146550178528,0.0013560950756072998,0.5863211750984192
132,-0.39372002645410226,0.2623602371403522,-1.8746610039476592,-0.3704989552497864,-0.25936073064804077,-0.8918870687484741,-1.6517950296401978,0.6212148666381836,1.1952338218688965,0.08320647478103638,-0.20130211114883423,0.18633592128753662
133,-0.331663137071593,0.12540705786727185,-1.8224970369535882,-0.3230588734149933,-0.12507860362529755,-0.938076913356781,-1.763980507850647,0.955205500125885,1.3099583387374878,0.0051114559173583984,-0.26106029748916626,-0.2890501618385315
134,-0.3595498149029436,0.04355257845280764,-1.739431772688809,-0.35151922702789307,-0.043538812547922134,-0.935167670249939,0.9176129102706909,0.030997391790151596,0.5712071657180786,0.005541443824768066,0.11838318407535553,-0.28689348697662354
135,-0.4067712464181658,0.08251527150101313,-1.6299301319310293,-0.3942999243736267,-0.0824216678738594,-0.9152782559394836,1.8714559078216553,-0.44568389654159546,0.9096337556838989,0.04777282476425171,0.07494485378265381,0.22461968660354614
136,-0.442928128961413,0.14939272490050576,-1.5468370746115283,-0.4238131046295166,-0.14883765578269958,-0.8934370875358582,0.27748551964759827,-0.4842298626899719,0.3188526928424835,0.0830538272857666,0.035953134298324585,0.44641560316085815
137,-0.4695260815880165,0.11969868696853864,-1.532722611578486,-0.44922617077827454,-0.11941305547952652,-0.8854017853736877,-0.8033484220504761,-0.28710585832595825,-0.11300966143608093,-0.13986986875534058,-0.02934487909078598,0.14954674243927002
138,-0.4734382832446637,0.0799283991049998,-1.5633907223626935,-0.4544934332370758,-0.07984331995248795,-0.8871644735336304,-0.4803914427757263,-0.28314676880836487,-0.33402323722839355,-0.3281146287918091,-0.10199566185474396,-0.28724348545074463
139,-0.5002472789855125,0.0883716042686328,-1.612060030690335,-0.4777708649635315,-0.08825662732124329,-0.874039888381958,0.15069197118282318,-0.11762949824333191,-1.0021837949752808,-0.3986481726169586,0.2717893421649933,-0.3535143733024597
140,-0.5020753276007662,0.17690684432803117,-1.693393201132666,-0.47373485565185547,-0.17598554491996765,-0.8629046082496643,1.1699775457382202,-0.4478725492954254,-1.5489089488983154,0.05678844451904297,0.31537458300590515,-0.027720391750335693
141,-0.4885742103195382,0.36627950484896077,-1.761495041130265,-0.43823251128196716,-0.35814422369003296,-0.8244301080703735,0.3078046143054962,-0.20485760271549225,-1.2596241235733032,0.2994385361671448,0.18045562505722046,0.769574761390686
142,-0.41671203640295834,0.32866299498056967,-1.8373852905751078,-0.38309139013290405,-0.3227778673171997,-0.8654798865318298,-1.259993076324463,0.6454919576644897,0.13339106738567352,0.15950435400009155,-0.014746516942977905,0.11769241094589233
143,-0.35150161481312,0.20797286884743735,-1.863876538770581,-0.3368886709213257,-0.20647688210010529,-0.9186257719993591,-0.13648822903633118,0.3541267216205597,0.02891872264444828,-0.20046484470367432,-0.08218887448310852,-0.5309439301490784
144,-0.33044290181742186,0.1957997813107486,-1.8526144863351384,-0.3182623088359833,-0.19455109536647797,-0.927824854850769,0.5675704479217529,-0.4143935441970825,0.3758127689361572,0.07769224047660828,-0.054991140961647034,-0.49736130237579346
145,-0.35295314363427016,0.1977543611765261,-1.7682909910218456,-0.33893337845802307,-0.19646795094013214,-0.9200676679611206,0.6025011539459229,-0.6566764712333679,0.8548665642738342,0.14490261673927307,0.12908515334129333,-0.2093116044998169
146,-0.40808572059347625,0.2543453901053755,-1.6491599239480395,-0.3840855062007904,-0.2516119182109833,-0.8883522748947144,-0.07348911464214325,-0.6265769600868225,-0.09483783692121506,-0.1052333414554596,0.18049070239067078,0.5138252973556519
147,-0.41599131417682006,0.2521634126527777,-1.6483098921950055,-0.39131730794906616,-0.24949952960014343,-0.8857882022857666,-0.4046647250652313,-0.14709597826004028,-0.06132606789469719,-0.023233473300933838,0.06412050127983093,0.3074343204498291
148,-0.397346539810876,0.13480605849254168,-1.6753313489394104,-0.383462131023407,-0.13439813256263733,-0.9137253165245056,-1.693825125694275,-0.6422390937805176,0.30827513337135315,-0.16681557893753052,-0.03411993384361267,-0.4505477547645569
149,-0.40967540600950564,0.07864457704824498,-1.7201814229351562,-0.3970804810523987,-0.07856353372335434,-0.9144150614738464,-0.027497995644807816,-0.673021137714386,-0.4205208420753479,-0.3944234251976013,-0.15416350960731506,-0.7454512715339661
150,-0.4548625596828798,0.1671431097329936,-1.7411289341550296,-0.43321624398231506,-0.16636595129966736,-0.8858024477958679,0.893150806427002,-0.4850228428840637,-0.32541483640670776,0.11664220690727234,0.15096986293792725,-0.2404944896697998
151,-0.5044135376482027,0.29642321741290734,-1.7028104738530896,-0.4622163772583008,-0.29210129380226135,-0.8372770547866821,1.1861915588378906,-0.48158255219459534,-0.7765100002288818,0.22301959991455078,0.30563580989837646,0.49586164951324463
152,-0.5067427153156987,0.36955695305263603,-1.7189222591178839,-0.45256590843200684,-0.36120232939720154,-0.815301775932312,-0.17782767117023468,0.5404590964317322,-0.1466130018234253,0.2941797077655792,0.06379327178001404,0.6663150191307068
153,-0.45840705132819154,0.1915057615486247,-1.6947921611717596,-0.4344303607940674,-0.19033734500408173,-0.8803646564483643,-2.470212936401367,0.10358377546072006,1.5284359455108643,-0.14987444877624512,-0.04338151216506958,-0.08620333671569824
154,-0.42421238056255844,0.10814683346476207,-1.694451171795994,-0.40919843316078186,-0.10793614387512207,-0.9060388803482056,-0.29150399565696716,0.47112300992012024,0.7018839716911316,0.08371320366859436,-0.26103663444519043,-0.6787694692611694
155,-0.47351134325991157,0.16078373374371963,-1.6140816477871984,-0.45013248920440674,-0.16009187698364258,-0.8784937858581543,1.2176727056503296,0.04784116894006729,0.6471115350723267,0.16337406635284424,-0.024707302451133728,0.026671886444091797
156,-0.5033632323974597,0.14383593172912534,-1.5112069265116979,-0.4773930609226227,-0.14334048330783844,-0.8669194579124451,0.854569137096405,0.26702016592025757,0.5467848181724548,0.01171007752418518,0.13687074184417725,0.31593984365463257
157,-0.4936297673412524,0.14139221882183348,-1.451871545903075,-0.4690970182418823,-0.14092157781124115,-0.8718308806419373,-0.02516886591911316,-0.1529179960489273,0.32705190777778625,0.028240084648132324,0.03345392644405365,0.34877485036849976
158,-0.49927149259415055,0.09452429249203283,-1.4480077510107903,-0.47664874792099,-0.0943835973739624,-0.8740124106407166,-0.5850169062614441,-0.24218112230300903,0.06564214825630188,-0.150518000125885,-0.0812298059463501,-0.023005962371826172
159,-0.49140493115006406,0.051674539156505266,-1.4883313129591278,-0.4712351858615875,-0.051651544868946075,-0.8804939389228821,-0.2851806581020355,-0.652627170085907,-0.31345272064208984,-0.3925801217556,-0.17854253947734833,-0.6000358462333679
160,-0.5055886429840597,0.08112000927208313,-1.5177740117191407,-0.48272985219955444,-0.08103106915950775,-0.8720125555992126,0.15895141661167145,0.3806920647621155,-0.5634003281593323,-0.13155841827392578,0.18788838386535645,-0.35616737604141235
161,-0.5197584890806337,0.19537402660137737,-1.5516705931828016,-0.48722144961357117,-0.194133460521698,-0.8514267206192017,1.697086215019226,0.03494497388601303,-1.0805408954620361,0.14516514539718628,0.2212483435869217,0.21133577823638916
162,-0.5356914560092957,0.31278349784960563,-1.5949415415767183,-0.4856697916984558,-0.3077082633972168,-0.8181934356689453,0.06982076168060303,0.15258534252643585,-0.37334731221199036,0.3462502360343933,0.0447993278503418,0.7528400421142578
163,-0.5112167822521724,0.21880185374097555,-1.6134415181662343,-0.47757449746131897,-0.21706019341945648,-0.8513562679290771,-2.2170639038085938,-0.04041658341884613,1.1341230869293213,0.03569525480270386,-0.07474888861179352,0.17649054527282715
164,-0.5062327862814312,0.11493286938314924,-1.6331979972005337,-0.48168694972991943,-0.11467999964952469,-0.8688073754310608,0.3084805905818939,0.9874415397644043,-0.12741704285144806,-0.08601629734039307,-0.1915028691291809,-0.2437719702720642
165,-0.500880950941626,0.10703178828497802,-1.6041598588126087,-0.47745054960250854,-0.10682754963636398,-0.8721404075622559,0.25564736127853394,-0.07895854860544205,0.4458424746990204,-0.10293275117874146,0.07928544282913208,-0.34133005142211914
166,-0.5106263649144914,0.10347056483024482,-1.5489783774729513,-0.48610997200012207,-0.10328603535890579,-0.8677724599838257,0.04656310752034187,-0.023694084957242012,0.5168312788009644,0.07090306282043457,0.1417229324579239,0.048390746116638184
167,-0.5226709611652126,0.11023282498564989,-1.525303623432346,-0.4961664080619812,-0.11000971496105194,-0.8612297773361206,0.1409919708967209,-0.20678545534610748,0.019263599067926407,0.0730401873588562,0.0028930306434631348,0.3811119794845581
168,-0.537008987449981,0.12386371026690085,-1.5132406046756024,-0.5076490044593811,-0.12354722619056702,-0.8526597023010254,-0.5647889971733093,-0.4174984395503998,0.16080275177955627,0.0849042534828186,-0.09416516125202179,0.3007950782775879
169,-0.5188074032291881,0.060719220148612564,-1.5187918851019888,-0.49493104219436646,-0.060681916773319244,-0.8668107986450195,-1.2029414176940918,-0.22709830105304718,0.338047057390213,-0.16763609647750854,-0.08236923813819885,-0.30259227752685547
170,-0.5270743576005815,-0.0005096584256509622,-1.5389679115278974,-0.5030068755149841,0.0005096584209240973,-0.8642822504043579,-0.684502899646759,-0.6719038486480713,-0.055307965725660324,-0.37293916940689087,0.09995421767234802,-0.6999114155769348
171,-0.5283002463677098,0.09363447577517717,-1.5517556985953171,-0.5018579959869385,-0.09349771589040756,-0.8598818182945251,0.7447676062583923,-0.059038981795310974,-0.5191051959991455,0.08935189247131348,0.14069314301013947,-0.022854387760162354
172,-0.5382908626941161,0.20022829491461702,-1.5561483300370749,-0.50242680311203,-0.19889307022094727,-0.8414326310157776,0.7631708383560181,-0.06380036473274231,-1.0485316514968872,0.15078794956207275,0.21012353897094727,0.4506245255470276
173,-0.521819854296253,0.2650240553453754,-1.5997075272542474,-0.48105552792549133,-0.26193249225616455,-0.8366462588310242,-0.10724470764398575,-0.10785186290740967,-0.32890942692756653,0.2590401768684387,0.004699826240539551,0.35028761625289917
174,-0.4937565309746937,0.1671129101550684,-1.6231486514938742,-0.46733468770980835,-0.16633617877960205,-0.8682917356491089,-0.861686110496521,-0.014048292301595211,0.31423917412757874,-0.12134936451911926,0.05065929889678955,-0.29290205240249634
175,-0.4775991353861485,0.11495139639750913,-1.6200469097334185,-0.45661479234695435,-0.11469840258359909,-0.8822398781776428,-0.5980225205421448,-0.6783366799354553,0.3977608382701874,-0.19319599866867065,-0.086580291390419,-0.6699909567832947
176,-0.5118572293910304,0.17831583205951482,-1.5700124122381334,-0.482030987739563,-0.17737236618995667,-0.8580123782157898,0.8235729336738586,-0.028215469792485237,0.2492738962173462,0.132604718208313,-0.06647834181785583,0.056956470012664795
177,-0.5408704281427285,0.15322253717513915,-1.498819420976043,-0.5088502168655396,-0.15262369811534882,-0.8472175002098083,0.46586593985557556,-0.1823786497116089,0.41816145181655884,0.07688915729522705,0.10240703821182251,0.33713144063949585
178,-0.5576093237383584,0.1534713217554014,-1.4611365845236444,-0.5229396224021912,-0.1528695672750473,-0.8385493755340576,-0.17279425263404846,-0.01608935371041298,0.08715011924505234,0.029500901699066162,0.0459054559469223,0.4903438091278076
179,-0.5172145880948773,0.09228740375619679,-1.4702592932722756,-0.4923568069934845,-0.09215645492076874,-0.8655009865760803,-1.4274026155471802,0.18019677698612213,0.26385951042175293,-0.118406742811203,-0.04267020523548126,0.024909555912017822
180,-0.5006183745073,0.021062748861226558,-1.5005328365972324,-0.47986167669296265,-0.021061191335320473,-0.8770913481712341,-0.4299182593822479,-0.25632011890411377,0.09255407750606537,-0.42721229791641235,-0.24048970639705658,-0.38905245065689087
181,-0.5277485452518497,0.035460538534906307,-1.53640444173103,-0.5032728910446167,-0.035453107208013535,-0.8633999228477478,0.9306894540786743,0.42058706283569336,-0.6973761320114136,-0.058219969272613525,0.19370199739933014,-0.4005007743835449
182,-0.5167001698107964,0.15721886262395943,-1.5558801166838025,-0.4879209101200104,-0.15657198429107666,-0.8587307333946228,1.5147976875305176,0.2021639496088028,-0.8308677077293396,0.19225135445594788,0.17263947427272797,0.2510189414024353
183,-0.5279099863581205,0.2181260374878039,-1.5926109566542082,-0.4917929470539093,-0.21640044450759888,-0.8433923125267029,-0.0440109446644783,0.09834051877260208,-0.46134495735168457,0.2005789875984192,0.11357146501541138,0.4969262480735779
184,-0.5480663155047315,0.1375762553790536,-1.6068779734089431,-0.5161145925521851,-0.13714267313480377,-0.8454688191413879,-1.9351725578308105,-0.16512168943881989,0.5140998363494873,-0.15923941135406494,0.06963780522346497,0.20205152034759521
185,-0.5089024739820298,0.08764345497367547,-1.6107742385280226,-0.48534902930259705,-0.08753129094839096,-0.8699279427528381,-0.6517897844314575,0.5933438539505005,0.35478606820106506,-0.07651007175445557,-0.19869306683540344,-0.18091440200805664
186,-0.501139985646913,0.07258369294529604,-1.572281337385435,-0.4791606664657593,-0.07251997292041779,-0.8747261762619019,1.035762906074524,0.18873074650764465,0.14736193418502808,-0.0029712915420532227,0.060084059834480286,-0.44738686084747314
187,-0.5081610197623262,0.1396511888696332,-1.4720398810015858,-0.4818345010280609,-0.1391977071762085,-0.8651355504989624,1.4785327911376953,-0.09462951868772507,0.6773869395256042,0.1532517671585083,0.04314364492893219,0.1445087194442749
188,-0.5282241420483148,0.18585213463225134,-1.3698056515259418,-0.49532100558280945,-0.18478405475616455,-0.8488297462463379,0.1979128122329712,0.1740698218345642,0.7332146167755127,0.0026299655437469482,0.09442152082920074,0.7237839698791504
189,-0.488599895856639,0.10320234069735575,-1.348976481414273,-0.46689262986183167,-0.10301924496889114,-0.8782928586006165,-1.16138756275177,-0.19160860776901245,0.36233097314834595,-0.17840158939361572,0.19153548777103424,-0.031634509563446045
190,-0.4804457818710732,0.014874337330818542,-1.4465362079237072,-0.46212342381477356,-0.014873788692057133,-0.8866909146308899,-0.5298351645469666,-0.22838431596755981,-1.2073315382003784,-0.34886598587036133,0.04836682975292206,-0.5706607699394226
191,-0.48945910267613013,0.01427106122113168,-1.5511761860849385,-0.4701007008552551,-0.014270576648414135,-0.8824974298477173,-0.41919684410095215,0.08868325501680374,-0.8220750093460083,-0.21898621320724487,-0.001354411244392395,-0.3777107000350952
192,-0.469939835843124,0.0896801148966006,-1.6133113309081701,-0.45101290941238403,-0.08955995738506317,-0.8880125880241394,1.7893904447555542,-0.13690897822380066,-1.0455853939056396,0.17727023363113403,0.22504274547100067,-0.2411835789680481
193,-0.48219757636037375,0.29933766755485297,-1.6397238003661443,-0.4431062638759613,-0.29488739371299744,-0.8465803265571594,0.6615947484970093,-0.3614637851715088,-0.8552654385566711,0.3510652482509613,0.08240878582000732,0.6602552533149719
194,-0.45390479894734453,0.32420621438238373,-1.6414578730320768,-0.41563525795936584,-0.31855645775794983,-0.8519208431243896,-1.3038169145584106,0.6239800453186035,0.6816394925117493,0.18948477506637573,-0.04269537329673767,0.6078412532806396
195,-0.3532321976451426,0.09500993111589134,-1.607358328256979,-0.34437206387519836,-0.09486705809831619,-0.934027910232544,-1.9972643852233887,1.0624772310256958,1.226893424987793,-0.07600754499435425,0.039691269397735596,-0.29483866691589355
196,-0.29005345705479385,-0.01499684628994263,-1.5383547097957075,-0.2859712839126587,0.014996283687651157,-0.9581208229064941,-0.42588886618614197,-0.27783212065696716,0.6586678624153137,-0.1973508596420288,0.08798529207706451,-0.7527861595153809
197,-0.33680034322205776,0.022637254102483247,-1.506246422748582,-0.330384224653244,-0.02263532020151615,-0.9435750842094421,0.37916240096092224,-0.330911785364151,0.59586101770401,0.272400826215744,0.0194309800863266,-0.21070653200149536
198,-0.3896186567401579,0.13285962529468853,-1.446317027595415,-0.37648823857307434,-0.13246910274028778,-0.9169015884399414,1.6061911582946777,-0.08371109515428543,-0.3497101366519928,0.04428917169570923,0.04386131465435028,0.5901651382446289
199,-0.40570491544603227,0.1877664557812467,-1.4236966564891145,-0.3877297341823578,-0.18666507303714752,-0.9026747941970825,-0.8553669452667236,-0.0022277627140283585,0.3405894339084625,-0.001750856637954712,-0.015025600790977478,0.54633629322052
200,-0.38042466325163227,0.13488526998286615,-1.4333086699496913,-0.36794206500053406,-0.13447661697864532,-0.9200732111930847,-1.0839612483978271,0.6328727006912231,0.15581484138965607,-0.055626630783081055,-0.10867215692996979,0.08460873365402222
201,-0.3508015033940747,0.06694710624468875,-1.4630370351117208,-0.3428807854652405,-0.06689710915088654,-0.9369938969612122,-0.17028239369392395,0.4406898319721222,-0.3437308073043823,-0.405272901058197,-0.18731431663036346,-0.43074291944503784
202,-0.36346203517787445,0.11071790771961149,-1.5208753968464437,-0.353335440158844,-0.11049184203147888,-0.9289486408233643,0.6606071591377258,-0.1881031095981598,-1.1604950428009033,-0.07806101441383362,0.20418080687522888,-0.39467495679855347
203,-0.4104832502565332,0.23406779706309314,-1.590122841908314,-0.3881707191467285,-0.23193630576133728,-0.8919243216514587,1.198203206062317,-0.8482142090797424,-1.3359016180038452,0.14468619227409363,0.2549618184566498,0.279726505279541
204,-0.4664804855190521,0.3609041090019544,-1.6672246438501135,-0.42077207565307617,-0.35312023758888245,-0.83561772108078,0.07575615495443344,-0.3534909188747406,-0.6759644150733948,0.31110715866088867,0.13853588700294495,0.6943060755729675
205,-0.38109080740659934,0.29908601131643087,-1.6990184448964196,-0.3554217219352722,-0.2946469187736511,-0.8870505094528198,-1.6196110248565674,1.3319920301437378,1.2429412603378296,0.19204583764076233,-0.16564971208572388,0.16309726238250732
206,-0.29457470628289795,0.037476436805674106,-1.623559986004474,-0.29012903571128845,-0.03746766597032547,-0.9562537670135498,-1.4117698669433594,0.8232463002204895,1.028599500656128,-0.22593840956687927,-0.11049681901931763,-0.5425865054130554
207,-0.28336558444526233,-0.04789539408203617,-1.5508619252686047,-0.27926796674728394,0.04787708446383476,-0.959018886089325,0.7525526881217957,-0.8893911838531494,0.45357421040534973,-0.027006447315216064,0.15724681317806244,-0.49991971254348755
208,-0.3602709573916437,0.021632428028981476,-1.4804044304391248,-0.3524453341960907,-0.02163074165582657,-0.9355823993682861,2.1413583755493164,-0.7564963698387146,0.14730723202228546,0.03051537275314331,0.12319323420524597,0.20619702339172363
209,-0.41277945440454666,0.20756798797176101,-1.415503759229077,-0.39254605770111084,-0.20608070492744446,-0.8963472247123718,0.5759779214859009,-0.7718732357025146,-0.18140128254890442,0.09025418758392334,0.10137487947940826,0.7199251055717468
210,-0.3822608930220838,0.16077424331500842,-1.4155900028198074,-0.36820852756500244,-0.16008251905441284,-0.9158580899238586,-1.4934730529785156,1.2521363496780396,0.6833145022392273,0.06089654564857483,-0.0034459084272384644,0.4203442335128784
211,-0.2412424986596972,-0.012634947618046859,-1.4299796765417487,-0.23889026045799255,0.012634611688554287,-0.9709643721580505,-0.8980110287666321,0.7296757102012634,0.22495077550411224,-0.16833630204200745,-0.012604087591171265,-0.6871472001075745
212,-0.24272953286170904,-0.030944532863753066,-1.4679887985695668,-0.24023796617984772,0.03093959391117096,-0.9702208042144775,0.7704936265945435,-0.5002843737602234,-0.7538101673126221,-0.2234918773174286,0.14528414607048035,-0.7005097270011902
213,-0.2970189409481275,0.07635426810283724,-1.5551596151012048,-0.2918182611465454,-0.07628010213375092,-0.9534271955490112,0.8883025050163269,-0.9693817496299744,-1.0342062711715698,0.1813446581363678,0.1994185447692871,-0.1862364411354065
214,-0.3889766772172282,0.2756738234619082,-1.631507473757452,-0.36492234468460083,-0.27219536900520325,-0.8903602361679077,1.5278136730194092,-0.9500759840011597,-1.4374173879623413,0.26363447308540344,0.22214654088020325,0.5565742254257202
215,-0.4383162117201711,0.33762056967283344,-1.6965047467765872,-0.4004552960395813,-0.3312429189682007,-0.8543498516082764,-1.0155298709869385,-0.42533624172210693,-0.016627486795186996,0.2017248272895813,-0.059961915016174316,0.5026805400848389
216,-0.38575858465289076,0.24118398010019612,-1.6997178404368085,-0.3653714954853058,-0.23885250091552734,-0.8996961116790771,-1.2404427528381348,1.1939753293991089,0.6277890801429749,0.057266056537628174,-0.13036440312862396,-0.015709102153778076
217,-0.3228506827495035,0.10724983742572498,-1.6539560055316642,-0.3154482841491699,-0.10704434663057327,-0.9428859353065491,-0.33981770277023315,0.156238853931427,0.8460703492164612,0.0008730888366699219,-0.04293428361415863,-0.8156589865684509
218,-0.3649530632887354,0.15691845726549156,-1.5936321893885304,-0.3525203466415405,-0.15627527236938477,-0.9226632118225098,0.4399280250072479,-0.31247130036354065,0.598563015460968,0.21455040574073792,-0.06773899495601654,-0.07268279790878296
219,-0.4374780715257811,0.2126950671306645,-1.490161278741781,-0.4141095280647278,-0.21109500527381897,-0.8854107856750488,1.2681325674057007,-0.5653800964355469,0.39592811465263367,0.12873965501785278,0.13152042031288147,0.5016980171203613
220,-0.46049627989323916,0.2368343819757708,-1.4208738467370092,-0.43198779225349426,-0.23462656140327454,-0.8708254098892212,-0.41012129187583923,0.908184289932251,0.8627490997314453,0.05341723561286926,-0.05080433189868927,0.687964141368866
221,-0.3358225141052096,0.03494089188389071,-1.3804011141324357,-0.3293447196483612,-0.03493378311395645,-0.9435632824897766,-1.701645851135254,0.8316864371299744,0.41557401418685913,-0.3182535469532013,0.09772370755672455,-0.3579198122024536
222,-0.28914758581008365,-0.00976540346542545,-1.4000022533942427,-0.28512170910835266,0.00976524781435728,-0.9584415555000305,0.410410076379776,-0.2583911716938019,-0.6079870462417603,-0.49342745542526245,-0.09837304055690765,-0.6012355089187622
223,-0.3125024024676885,0.061830656705078764,-1.4502178027838857,-0.306853324174881,-0.06179126724600792,-0.9497488737106323,-0.2787739336490631,0.20515279471874237,-0.7213889956474304,-0.051911354064941406,0.19411548972129822,-0.2695962190628052
224,-0.35643059254429643,0.17083655168399067,-1.51447115356239,-0.3438519835472107,-0.17000678181648254,-0.9235060811042786,2.098377227783203,-0.49385955929756165,-1.5866833925247192,0.0658368170261383,0.30758002400398254,0.30019986629486084
225,-0.3765262549606631,0.359081325490917,-1.6310725608828902,-0.3442409038543701,-0.351414293050766,-0.8706355094909668,0.12453322857618332,-0.2682749927043915,-1.4362196922302246,0.20028948783874512,0.1393934190273285,0.7149043083190918
226,-0.2756651923495539,0.3074709163674213,-1.699478367108604,-0.25942206382751465,-0.3026491403579712,-0.9171170592308044,-1.3854315280914307,1.2932744026184082,0.7145463228225708,0.22368597984313965,-0.09592568874359131,-0.06814295053482056
227,-0.23500311822486325,0.1753203763571146,-1.648382358286381,-0.2292766571044922,-0.17442360520362854,-0.9576056599617004,-0.6374209523200989,0.7166972160339355,0.4330631196498871,-0.19029425084590912,-0.08598285913467407,-0.3824974298477173
228,-0.2347513191062409,0.13965806824224597,-1.6333398264790355,-0.23033644258975983,-0.13920451700687408,-0.9631029367446899,0.4609081447124481,-0.38886648416519165,0.10255376249551773,0.03493240475654602,-0.08087298274040222,-0.30513131618499756
229,-0.2882780750564636,0.14090258676059425,-1.5793472489448102,-0.2814842462539673,-0.1404368132352829,-0.9492334127426147,0.626961886882782,-0.8501549363136292,0.783464789390564,0.15036550164222717,0.05272930860519409,0.05497688055038452
230,-0.3658417739574488,0.227834497694999,-1.5045089848606215,-0.34849080443382263,-0.22586850821971893,-0.9096909165382385,0.7875410914421082,-0.34709861874580383,0.24293206632137299,0.10879051685333252,0.07071714103221893,0.664070188999176
231,-0.3359680400919159,0.1691662369722126,-1.46661739087662,-0.32497718930244446,-0.16836054623126984,-0.9306151270866394,-1.238417625427246,0.9154130816459656,0.7981417179107666,-0.01749110221862793,-0.05904117226600647,0.21807551383972168
232,-0.27159335924184047,0.016176019607304287,-1.4588887324874524,-0.2682316303253174,-0.016175314784049988,-0.963218629360199,-0.5164221525192261,0.37785017490386963,0.07834060490131378,-0.19284316897392273,-0.030806494876742363,-0.5815200805664062
233,-0.29601419553925296,0.02313851918838141,-1.4660646746438744,-0.2916319966316223,-0.023136453703045845,-0.9562507271766663,0.6088135838508606,-0.44201287627220154,-0.40432244539260864,-0.2909333109855652,0.042911842465400696,-0.49640125036239624
234,-0.3390325680500926,0.0893744599824348,-1.5017331351261334,-0.3312475085258484,-0.08925552666187286,-0.9393128156661987,0.6036902666091919,-0.7307188510894775,-0.4245166778564453,0.1507512927055359,0.20044632256031036,-0.23732292652130127
235,-0.41469703052916235,0.2613462477983811,-1.5365410676180435,-0.38923096656799316,-0.25838130712509155,-0.8841596841812134,1.7684754133224487,-0.5728477835655212,-1.4798604249954224,0.22754883766174316,0.23415035009384155,0.5862165689468384
236,-0.41453976615020904,0.3920054252022675,-1.5882268132143162,-0.3722166121006012,-0.3820424973964691,-0.8458713293075562,-0.13284984230995178,0.7632249593734741,-0.1584814339876175,0.1785368025302887,-0.009284406900405884,0.7198184728622437
237,-0.304471648634644,0.276644338150789,-1.562152795617251,-0.2883903980255127,-0.2731291353702545,-0.9177317023277283,-1.6591249704360962,1.6430385112762451,0.9381366968154907,-0.0955665111541748,-0.04558119177818298,-0.05147606134414673
238,-0.23728550480020885,0.14864380652438183,-1.5278583862355564,-0.2324729561805725,-0.14809702336788177,-0.9612614512443542,-1.2991101741790771,0.18318048119544983,0.5503084063529968,-0.1597999930381775,-0.11139392852783203,-0.6868861317634583
239,-0.26849572126741444,0.135970394309896,-1.5431101961351723,-0.2628328800201416,-0.1355518102645874,-0.9552720189094543,0.3021618127822876,-0.3665849268436432,-0.3349427282810211,0.1976778507232666,-0.0503154993057251,-0.14253681898117065
240,-0.31088824239714,0.1941437582084776,-1.5081936588032978,-0.30015745759010315,-0.19292645156383514,-0.9341760277748108,0.9605996012687683,-0.1160334125161171,0.3141738772392273,0.06198304891586304,0.08103375136852264,0.4350610375404358
241,-0.3376217232519913,0.21308331432083588,-1.4750650792230202,-0.32375243306159973,-0.2114744782447815,-0.9222054481506348,-0.09011304378509521,0.026041854172945023,0.35062363743782043,0.01816466450691223,0.009112417697906494,0.5257363319396973
242,-0.2961456356609779,0.13062312461313966,-1.4663178204701808,-0.28934964537620544,-0.13025198876857758,-0.948320209980011,-1.0978240966796875,0.6628285646438599,-0.07849603146314621,-0.21325963735580444,0.00018605589866638184,-0.10005015134811401
243,-0.2709162383799376,0.1384663269168079,-1.5166602283938948,-0.26505300402641296,-0.13802428543567657,-0.954304039478302,-0.14480555057525635,-0.22200413048267365,-0.4442310929298401,-0.3300397992134094,-0.3182745575904846,-0.2050129771232605
244,-0.31243725097540276,0.17733582413448992,-1.558885939956944,-0.3025582432746887,-0.1764078140258789,-0.9366636276245117,0.5275775194168091,-0.6151708364486694,-0.7477260231971741,-0.16651219129562378,0.1318063735961914,-0.4070100784301758
245,-0.3632824062776677,0.22351790695216353,-1.5922233173632963,-0.34650465846061707,-0.22166138887405396,-0.9114826917648315,0.8140699863433838,-1.0902235507965088,-0.5332430005073547,0.18880507349967957,0.29205018281936646,0.003981471061706543
246,-0.42509984031770964,0.37009216144338564,-1.626334049927516,-0.3844889998435974,-0.3617013692855835,-0.8493175506591797,0.4793718159198761,-0.16826538741588593,-0.9788481593132019,0.2190226912498474,0.2613595724105835,0.7357463836669922
247,-0.3541791719257474,0.3384696686059246,-1.6749831531910828,-0.3271433711051941,-0.33204397559165955,-0.8847169280052185,-1.378696084022522,0.920268177986145,0.8669335842132568,0.1597696840763092,-0.05908459424972534,0.290951669216156
248,-0.29383518313238316,0.24803479821446006,-1.6735553615232575,-0.2807616889476776,-0.2454993724822998,-0.9278485774993896,-0.2773488759994507,0.30488845705986023,0.05864813178777695,-0.11573794484138489,-0.1647636890411377,-0.36411309242248535
249,-0.2703362122616868,0.22821730253595837,-1.6731488788264708,-0.26013103127479553,-0.22624140977859497,-0.9386941194534302,0.3064700961112976,-0.46232590079307556,0.05140221118927002,0.04026716947555542,-0.09678715467453003,-0.6189230680465698
250,-0.314602473205945,0.23141425054193038,-1.6398230092764958,-0.3011897802352905,-0.22935430705547333,-0.9255707859992981,0.5682470798492432,-0.9321245551109314,0.5403820276260376,0.19056355953216553,0.08346503973007202,-0.10633528232574463
251,-0.391416183285561,0.32400495375451327,-1.5828627400928477,-0.3616477847099304,-0.3183656632900238,-0.8762729167938232,0.39746958017349243,-0.22425244748592377,0.27056199312210083,0.14541545510292053,0.1089082658290863,0.7394015789031982
252,-0.35538935340943245,0.21611151565918088,-1.533215257559007,-0.33986151218414307,-0.2144332230091095,-0.915703296661377,-2.0847561359405518,1.8184767961502075,1.396649718284607,-0.010724425315856934,-0.0536331832408905,0.5443501472473145
253,-0.24846798533080372,-0.0029398614009719048,-1.531274650511011,-0.24591821432113647,0.0029398570768535137,-0.9692861437797546,-0.4215593636035919,0.2142244428396225,-0.490742951631546,-0.20030981302261353,0.0709889754652977,-0.8511026501655579
254,-0.2815553949396346,0.06074910559354462,-1.5635072489205697,-0.27733758091926575,-0.06071174889802933,-0.9588524103164673,0.9431387186050415,-0.37793445587158203,-0.33693259954452515,-0.16306155920028687,-0.10472404211759567,-0.24941480159759521
255,-0.2882976581042623,0.11677238980562456,-1.5964615056154143,-0.2823842763900757,-0.11650718748569489,-0.952200174331665,0.5433438420295715,-0.6370629668235779,-0.3588963449001312,0.17578637599945068,0.18006004393100739,-0.34205031394958496
256,-0.35134662720471227,0.2697931303369611,-1.6136008544615252,-0.3317127525806427,-0.2665320634841919,-0.9049460291862488,1.6802245378494263,-0.3297399580478668,-1.0049065351486206,0.1406727135181427,0.2688513994216919,0.5374228358268738
257,-0.3500733999609004,0.33471913957649607,-1.6620573930854015,-0.3239330053329468,-0.32850390672683716,-0.8872162103652954,-0.7475956678390503,0.43326568603515625,0.28972145915031433,0.14943349361419678,-0.07480114698410034,0.5636841058731079
258,-0.2834045861484586,0.21887325725495493,-1.6486562499799193,-0.27295491099357605,-0.2171299010515213,-0.9372034072875977,-0.9118101000785828,0.7636006474494934,0.05622788518667221,-0.07387736439704895,-0.08272057771682739,-0.11859798431396484
259,-0.2094140701134849,0.18033130116138324,-1.6421657158112282,-0.20451578497886658,-0.17935551702976227,-0.9622914791107178,-0.6224038600921631,0.5773402452468872,0.3552910089492798,0.03639444708824158,-0.17779169976711273,-0.6195871829986572
260,-0.2591878695294061,0.16462601232025678,-1.5848779565694444,-0.252830445766449,-0.16388341784477234,-0.9535297751426697,0.6225219964981079,-0.5243201851844788,0.4311375319957733,0.08249658346176147,-0.000758931040763855,-0.05921131372451782
261,-0.30857393469076166,0.1999863386918954,-1.4975329618623459,-0.29764726758003235,-0.19865594804286957,-0.9337782859802246,0.7767982482910156,-0.454026997089386,0.7648083567619324,0.028482288122177124,0.12141595780849457,0.4831405282020569
262,-0.30189523017428177,0.17651609646848673,-1.4540726461032167,-0.29271018505096436,-0.17560087144374847,-0.9399388432502747,-1.0450295209884644,0.830304741859436,0.34752988815307617,-0.06994545459747314,0.018771052360534668,0.5278905630111694
263,-0.21191266890930904,0.008800687989028335,-1.4496350350859992,-0.21032202243804932,-0.008800574578344822,-0.9775925278663635,-0.9685743451118469,0.1923089325428009,-0.28144869208335876,-0.2414907068014145,0.08233268558979034,-0.4997786283493042
264,-0.21732212528183403,0.021092844439073787,-1.5058750653100323,-0.21556754410266876,-0.02109128050506115,-0.9762611389160156,0.27021580934524536,-0.2579576373100281,-0.6130285263061523,-0.30353647470474243,-0.2526056170463562,-0.3298912048339844
265,-0.22808256559477938,0.05911070388552572,-1.5408286988455304,-0.2257152497768402,-0.05907628685235977,-0.972400426864624,1.0843688249588013,-0.31213846802711487,-0.8598548173904419,-0.1400074064731598,0.20096775889396667,-0.328045129776001
266,-0.27922851878056293,0.1614518142100895,-1.5798254486108485,-0.2720297574996948,-0.1607513129711151,-0.9487670063972473,1.4176775217056274,-0.7713497877120972,-0.6688624620437622,0.09989535808563232,0.2463378608226776,0.23532706499099731
267,-0.35444508328036967,0.3276629489514466,-1.6294445465267828,-0.3286048471927643,-0.32183119654655457,-0.8879434466362,0.8598271608352661,-0.8428547382354736,-0.9651901125907898,0.14354625344276428,0.21151015162467957,0.6396524310112
268,-0.30219033436631576,0.28756935986759014,-1.6740990289290345,-0.2853908836841583,-0.28362223505973816,-0.9154837131500244,-1.9978663921356201,0.7717458009719849,1.0104100704193115,0.16820338368415833,-0.09346821904182434,0.10055756568908691
269,-0.24725203240814758,0.09403619130123812,-1.6436514127547786,-0.24365918338298798,-0.09389766305685043,-0.9653048515319824,-0.39049461483955383,0.5208254456520081,0.3848731517791748,-0.16327744722366333,-0.07394900918006897,-0.5687527656555176
270,-0.22879331576645723,0.05891289913883492,-1.6048347839583121,-0.2264089733362198,-0.0588788278400898,-0.9722511172294617,0.783286988735199,-0.8115096092224121,0.15469971299171448,0.0010366737842559814,0.1033887267112732,-0.624230146408081
271,-0.28672353711721743,0.15142487221212822,-1.5619965770502025,-0.2795748710632324,-0.15084685385227203,-0.9481999278068542,0.7837188839912415,-0.46697068214416504,0.43072667717933655,0.12880277633666992,0.05935516953468323,0.21959275007247925
272,-0.35346839906965616,0.24022912795220705,-1.505307051503753,-0.33621352910995483,-0.237925186753273,-0.911236584186554,0.4935159683227539,-0.16058668494224548,0.0850294679403305,0.031602323055267334,0.13178503513336182,0.751904308795929
273,-0.2922987282637748,0.1445531760564443,-1.4991391005839094,-0.28514885902404785,-0.14405028522014618,-0.9475967884063721,-2.4370596408843994,1.4743423461914062,1.0738239288330078,0.03185296058654785,-0.08727297186851501,0.41453099250793457
274,-0.21931177016883277,-0.06526910254071172,-1.516905078497223,-0.21709468960762024,0.06522276997566223,-0.9739691615104675,-0.015209672041237354,0.21048986911773682,-0.8768162727355957,-0.28614017367362976,0.06583496928215027,-0.62287837266922
275,-0.23415569758901256,-0.044390880048181376,-1.5792150919865027,-0.23179323971271515,0.044376302510499954,-0.9717523455619812,1.616416573524475,-0.669309139251709,-1.0056244134902954,-0.18989863991737366,0.041103437542915344,-0.6134374737739563
276,-0.2593354656554426,0.057860662087507266,-1.6197890768676466,-0.25600916147232056,-0.0578283816576004,-0.9649431109428406,-0.32924917340278625,-0.5502679944038391,-0.47162365913391113,0.11443811655044556,0.1505865603685379,-0.051597416400909424
277,-0.3304298088420009,0.2158146279168946,-1.6781324135178626,-0.3169231116771698,-0.21414323151111603,-0.9239602088928223,2.408870220184326,-0.7005879878997803,-1.3012360334396362,0.1938457489013672,0.2823500335216522,0.5069222450256348
278,-0.30832452505723223,0.28644735478465033,-1.7330124794875486,-0.29109761118888855,-0.28254613280296326,-0.9140185117721558,-1.590120792388916,0.4510059654712677,0.1145712360739708,0.14450645446777344,0.023070424795150757,0.49028193950653076
279,-0.2454421020690883,0.08476147935634551,-1.744049023776108,-0.24211286008358002,-0.08466002345085144,-0.9665474891662598,-0.6459349393844604,0.7256208062171936,-0.34541741013526917,-0.3083479404449463,0.06430479884147644,-0.26288366317749023
280,-0.1279874176554241,-0.007935458896074289,-1.7916666792376719,-0.12763425707817078,0.007935375906527042,-0.9917895793914795,-0.706456184387207,0.06069616228342056,-0.32302966713905334,0.07032224535942078,-0.03982624411582947,-0.996293306350708
281,-0.16393141820582277,0.053651102799291944,-1.80474075315004,-0.16296334564685822,-0.05362536758184433,-0.9851737022399902,0.5409033298492432,-0.5825827121734619,-0.2893748879432678,0.06103464961051941,-0.020791739225387573,-0.07671588659286499
282,-0.22370127830639858,0.15114496372275787,-1.7827397163076837,-0.21931105852127075,-0.15057013928890228,-0.963966429233551,1.2364598512649536,-0.3285210132598877,0.05295224487781525,0.007213890552520752,0.13534188270568848,0.4584885239601135
283,-0.2363366394454031,0.15090450110123954,-1.7921580903832675,-0.23148176074028015,-0.15033242106437683,-0.9611536860466003,-1.064947247505188,0.23239023983478546,-0.105112224817276,0.006017893552780151,0.05987831950187683,0.44981640577316284
284,-0.20203514375080495,0.058957888860106694,-1.8569632632099273,-0.20031483471393585,-0.058923739939928055,-0.977958083152771,-0.16499504446983337,0.4607695937156677,-0.7089874744415283,-0.08293405175209045,-0.03812215477228165,-0.288094162940979
285,-0.16679152721068236,0.030283909065455927,-1.9412600788629641,-0.16594314575195312,-0.030279280617833138,-0.9856703281402588,0.10168053209781647,-0.1081889271736145,-1.150423526763916,-0.008663162589073181,-0.017984261736273766,-0.6021592020988464
286,-0.16626113856432664,0.1537153376944769,-1.9889255437300362,-0.16354484856128693,-0.15311071276664734,-0.9745820760726929,-0.3791465163230896,0.9206264615058899,-0.04158928990364075,-0.054793164134025574,-0.14100244641304016,0.39735734462738037
287,-0.17140146924462143,0.08406558450971999,-1.983700930227038,-0.1699611097574234,-0.08396660536527634,-0.9818670153617859,0.6734921932220459,-0.42953187227249146,-0.10795553773641586,0.007195621728897095,0.20202386379241943,0.06804865598678589
288,-0.19070520160220075,0.17245865651236572,-1.9898714463346192,-0.18673951923847198,-0.17160505056381226,-0.9673055410385132,-0.32965606451034546,0.18637874722480774,-0.34206724166870117,0.07177980244159698,0.056706368923187256,0.5667775869369507
289,-0.10316871485046779,0.06561226634468759,-1.963516154328687,-0.10276419669389725,-0.06556519865989685,-0.992542564868927,-2.054016590118408,1.24786376953125,0.9578953981399536,-0.053531572222709656,-0.09198179841041565,0.1741374135017395
290,0.023574045205323087,-0.1768638651410024,-1.8596140045179854,0.023204147815704346,0.17594322562217712,-0.9841268062591553,-2.1334304809570312,1.1119682788848877,1.412946343421936,-0.041926681995391846,0.10689368844032288,-0.7705576419830322
291,-0.01304798159817935,-0.18514790766011144,-1.812628879464121,-0.012824615463614464,0.18409191071987152,-0.9828253388404846,2.4772400856018066,-1.4230538606643677,-0.19330236315727234,-0.015297330915927887,0.08414232730865479,-0.2934960722923279
292,-0.12869805377242374,0.025705425880909422,-1.8138531298601663,-0.12830066680908203,-0.025702595710754395,-0.9914022088050842,1.3683794736862183,-0.826502799987793,0.3343820869922638,0.18137073516845703,0.014777306467294693,0.46888023614883423
293,-0.20419868576289074,0.12274654176369468,-1.7744732060555777,-0.20125684142112732,-0.12243854254484177,-0.9718562364578247,-0.12786272168159485,-0.3377367854118347,0.011419326066970825,-0.0027226507663726807,0.04864703118801117,0.7173854112625122
294,-0.13726297030271234,-0.03406529740441035,-1.7585952958665565,-0.13675296306610107,0.03405870869755745,-0.9900195002555847,-2.3842267990112305,0.9128543138504028,0.4110991060733795,-0.11986933648586273,-0.020432613790035248,0.011503934860229492
295,-0.04691256502488233,-0.15644190858046444,-1.7819687828649862,-0.046322669833898544,0.1558045595884323,-0.9867011308670044,-0.46251046657562256,0.15097178518772125,-0.392068088054657,-0.08381953835487366,-0.033444344997406006,-0.5139396786689758
296,-0.09983718898452618,-0.09330793102433739,-1.8571864048847364,-0.0992378443479538,0.0931725949048996,-0.9906920194625854,1.510735273361206,-1.1778877973556519,-0.8610307574272156,-0.026555612683296204,-0.024340197443962097,-0.28512585163116455
297,-0.12701122787309682,-0.025795577330898663,-1.906648367304127,-0.1266278773546219,0.025792716071009636,-0.9916148781776428,-0.6987101435661316,-0.5739737153053284,0.06470107287168503,0.3539075255393982,0.07462537288665771,-0.20282787084579468
298,-0.22296142169277725,0.0876764897707382,-1.9094156980008545,-0.2202693670988083,-0.08756420016288757,-0.9715008735656738,1.7384448051452637,-0.9992866516113281,-0.8077864646911621,0.1211635172367096,0.15760204195976257,0.5544629096984863
299,-0.23663020961848868,0.13910470899199046,-1.9553493944637375,-0.23216362297534943,-0.13865652680397034,-0.9627431631088257,-0.9609737992286682,0.7510437965393066,0.2978192865848541,0.18769952654838562,-0.17494210600852966,0.4802297353744507
300,-0.10167352823647148,-0.048523366474682486,-1.8879357669404269,-0.10137897729873657,0.04850432649254799,-0.9936647415161133,-1.8659615516662598,1.4152504205703735,1.4935494661331177,0.11224324256181717,-0.1504482924938202,-0.28029149770736694
301,0.03626778519656624,-0.2195676191021474,-1.7106393934125708,0.03538929671049118,0.21780765056610107,-0.9753499031066895,1.0637359619140625,-1.2627848386764526,1.1085400581359863,0.14814341068267822,0.3660851716995239,-1.456794261932373
302,-0.09747783629895017,0.005606407375425343,-1.5914449618450128,-0.0973220095038414,-0.005606377962976694,-0.9952371716499329,1.8014873266220093,-0.8359491229057312,1.5530967712402344,0.2209945023059845,0.051550593227148056,0.39916783571243286
303,-0.14427689714372968,0.13864654556938077,-1.4128236429312029,-0.1423971951007843,-0.13820277154445648,-0.9801138043403625,1.14828622341156,-0.07033934444189072,1.4859726428985596,-0.1465127170085907,0.18170559406280518,0.71111661195755
304,-0.11061944792677887,0.07517192692667074,-1.2984796080704495,-0.1100822240114212,-0.07510115206241608,-0.9910810589790344,-2.1300456523895264,1.554813027381897,1.085015058517456,-0.2795509397983551,0.12513472139835358,0.4716414213180542
305,-0.0008713937688340707,-0.14498880363973046,-1.2849272132727856,-0.0008622505702078342,0.1444813460111618,-0.9895071387290955,0.09189005941152573,0.2686060965061188,-0.8498888611793518,-0.3068922758102417,0.2477458268404007,-0.6864877343177795
306,-0.024545859928432202,-0.1491302316792786,-1.3631219001763093,-0.024270979687571526,0.14857807755470276,-0.9886028170585632,0.8008599877357483,-0.17724104225635529,-1.0293501615524292,-0.3606319725513458,0.04769572615623474,-0.40362435579299927
307,-0.07124539088908986,-0.08047434787065735,-1.5091947213526484,-0.07095475494861603,0.08038751780986786,-0.9942350387573242,1.7017300128936768,-0.8323858380317688,-1.3190850019454956,0.26495498418807983,0.18105658888816833,-0.5948915481567383
308,-0.163880563073451,0.3201202747338357,-1.619441972803952,-0.15485967695713043,-0.31468072533607483,-0.9364798665046692,4.699120998382568,-0.9792678356170654,-1.875583529472351,0.19233527779579163,0.41334405541419983,0.6671622395515442
309,-0.09472289479684061,0.6947896671517936,-1.7532675453681745,-0.07265626639127731,-0.6402238607406616,-0.7647446990013123,2.288862466812134,1.4806034564971924,-1.7434966564178467,0.11110842227935791,0.3727525472640991,1.012516975402832
310,0.35452010780856535,0.7249192957011305,-1.9657293304197814,0.25985294580459595,-0.6630750298500061,-0.7020028233528137,-0.7325375080108643,3.7177109718322754,-3.152906894683838,0.04344600439071655,0.5227704644203186,0.6032174229621887
311,1.0723241328493416,0.4746004008067515,-2.2683708545357915,0.7812386751174927,-0.4569830596446991,-0.42524412274360657,-1.5056158304214478,4.364634037017822,-4.545805931091309,0.7371023297309875,0.790402889251709,0.16068723797798157
312,1.4826409375793177,-0.07645927601660146,-2.107873211500342,0.9932067394256592,0.07638479769229889,-0.087784044444561,-4.795597076416016,2.872403621673584,-5.17077112197876,1.3530458211898804,1.1704413890838623,-0.5194089412689209
313,1.7867646112069913,-0.426324169544366,-1.6023542915391278,0.8893405795097351,0.4135268032550812,0.19511233270168304,-2.9799411296844482,0.20144324004650116,-2.1403872966766357,0.4928157329559326,-0.3504011631011963,-1.3031598329544067
314,1.8039019110893875,-0.52936070209625,-1.4541773634926778,0.839785635471344,0.5049816370010376,0.19938325881958008,-0.5950896739959717,-0.21967539191246033,-0.7154040336608887,0.11069965362548828,-0.5675426721572876,-0.5252346992492676
315,1.8828302409943278,-0.5955923578476573,-1.387577031863155,0.7878418564796448,0.5609992146492004,0.254135400056839,-0.06654569506645203,0.47827935218811035,-0.79055255651474,0.4187772870063782,-0.27932208776474,-0.7658236622810364
316,1.8230980137259392,-0.653244668038123,-1.5228592848409457,0.7689746618270874,0.6077662706375122,0.19823791086673737,2.413914442062378,0.1109733134508133,0.5710408687591553,0.6497265100479126,-0.2323695421218872,-0.6516070365905762
317,1.6926197187333885,-0.5781208562255711,-1.8892716238513705,0.8312840461730957,0.5464511513710022,0.10177382081747055,3.2580747604370117,0.8769835829734802,3.0071589946746826,1.0454859733581543,0.24477803707122803,-0.6398292779922485
318,1.4565588864009191,-0.12825167874934282,-2.235674908759047,0.9853224754333496,0.1279003769159317,-0.11305293440818787,2.94771409034729,-1.9924824237823486,4.633251667022705,0.09875333309173584,0.7419116497039795,0.04025329649448395
319,1.404392104672647,0.3137536327553632,-2.4671822149221905,0.9380428194999695,-0.30863118171691895,-0.15755119919776917,2.4225244522094727,-0.09653279930353165,3.414607286453247,-0.27929043769836426,1.013831377029419,0.3834117650985718
320,1.4539226257069326,0.5243300023281318,-2.5594564344911674,0.8597539663314819,-0.5006331205368042,-0.10094265639781952,-0.04648314043879509,0.6709772348403931,-0.07775802910327911,-0.5801215171813965,1.1173629760742188,0.5498714447021484
321,1.480989717785173,0.3745414726790369,-2.4359547972279754,0.9269249439239502,-0.36584582924842834,-0.08346850425004959,-2.361304521560669,0.8719526529312134,-2.761641025543213,-0.2450096607208252,1.102509617805481,0.2933836579322815
322,1.545034761682298,-0.1015300871858988,-2.099507823320028,0.9945200085639954,0.10135573893785477,-0.025626061484217644,-4.322220325469971,0.8992663621902466,-5.155599117279053,1.1349048614501953,1.3209617137908936,-0.4750453233718872
323,1.725120411191649,-0.5587676607763926,-1.6854271742328235,0.8378320932388306,0.5301417112350464,0.13033398985862732,-3.032378911972046,0.19299590587615967,-2.7495198249816895,0.6967442035675049,-0.5469874739646912,-0.8187495470046997
324,1.7218980005640923,-0.6428024388739108,-1.5232065352301087,0.7912988662719727,0.5994409322738647,0.12048494070768356,-0.9766794443130493,-1.1054654121398926,-0.5337192416191101,0.19325917959213257,-0.5674280524253845,-0.20555269718170166
325,1.7905898276697751,-0.6756378230799942,-1.4201267656642504,0.7615359425544739,0.6253951191902161,0.17012910544872284,-0.1047477275133133,0.5045503973960876,-0.2584884762763977,0.3680874705314636,-0.6268905401229858,-0.6064695119857788
326,1.760651879999833,-0.6401185455173376,-1.5194430332847937,0.7876138091087341,0.5972905158996582,0.1513557881116867,1.0312210321426392,-0.16610229015350342,1.2131985425949097,0.5809164047241211,-0.2972722053527832,-0.4883155822753906
327,1.6794688251284189,-0.5573021120074891,-1.7159949722221108,0.8436786532402039,0.5288984775543213,0.0920473039150238,2.255338668823242,1.527734637260437,0.4254027307033539,0.5291240215301514,0.09207320213317871,-0.4090944528579712
328,1.6129153079480596,-0.3858509848439186,-2.0936203886287323,0.9256568551063538,0.37634769082069397,0.03901079669594765,3.0483877658843994,0.2528042197227478,4.2421464920043945,0.6072868704795837,0.25243648886680603,-0.36548781394958496
329,1.5250795492723979,0.1247092797217524,-2.3302094475697914,0.9911972880363464,-0.1243862733244896,-0.04534594342112541,2.020573854446411,-0.902005136013031,5.344997406005859,0.058821141719818115,1.0568203926086426,-0.09192216396331787
330,1.5609615139698483,0.5194633130210816,-2.5034403104088883,0.8680437803268433,-0.49641433358192444,-0.008537323214113712,1.7426817417144775,0.4556174874305725,2.4658021926879883,-0.528718888759613,1.110458493232727,0.17792516946792603
331,1.6650538319218349,0.5642042268231081,-2.5906159397359247,0.8412634134292603,-0.5347435474395752,0.07953105866909027,-0.5935449600219727,0.8796697854995728,-1.671798825263977,-0.6497961282730103,1.0685265064239502,0.38505327701568604
332,1.7003347791913908,0.2618309115120751,-2.4457542062265647,0.9578249454498291,-0.25884950160980225,0.12477385252714157,-1.7910248041152954,1.1001099348068237,-4.607425212860107,0.18144214153289795,1.0157006978988647,0.19193758070468903
333,1.725968888602069,-0.25262330146088985,-2.0711686807358207,0.9566262364387512,0.24994485080242157,0.1496451497077942,-2.540361166000366,-0.07639952003955841,-5.8695478439331055,1.3674551248550415,0.7282808423042297,-0.35215985774993896
334,1.8477910508437845,-0.5280406446354945,-1.7248930434364962,0.8308694958686829,0.5038418173789978,0.23621897399425507,-1.7360453605651855,-1.4347463846206665,-0.7977539300918579,0.5480520129203796,-1.0252957344055176,-0.783750057220459
335,1.8132807358650525,-0.5331849526315902,-1.6065110551959556,0.835997998714447,0.5082787871360779,0.20678535103797913,-0.7030518054962158,0.09297427535057068,-0.6197993159294128,0.12791502475738525,-0.6149377226829529,-0.23545658588409424
336,1.86290775399246,-0.5322923042478911,-1.5675787568027149,0.82514488697052,0.5075098276138306,0.2481323629617691,0.47603774070739746,0.21170449256896973,0.4603893756866455,0.5563706159591675,-0.46907293796539307,-0.5639282464981079
337,1.7917088324890633,-0.4498126725740244,-1.6551863540493892,0.878643810749054,0.43479683995246887,0.19732384383678436,0.8107226490974426,-0.30559930205345154,1.4369564056396484,0.5576659440994263,-0.11753615736961365,-0.28541281819343567
338,1.7515440857169031,-0.3767133138552582,-1.86226862609563,0.9147304892539978,0.36786624789237976,0.1671598255634308,2.8609981536865234,0.8770720362663269,0.9633157253265381,0.5351595282554626,0.11968258023262024,-0.4293210506439209
339,1.670929936175443,-0.19451502170943052,-2.1365930307651118,0.9762270450592041,0.19329072535037994,0.09808117151260376,2.051687717437744,-0.3847181499004364,2.7999191284179688,-0.0265960693359375,0.16040803492069244,-0.2357916533946991
340,1.6446117538896876,0.08545984005104446,-2.377670049974975,0.9936372637748718,-0.08535585552453995,0.07347926497459412,1.9934720993041992,-0.20350691676139832,2.8914272785186768,-0.20335417985916138,0.5771924257278442,-0.138191819190979
341,1.6765111364158745,0.28297716024541986,-2.561411690297815,0.9548678398132324,-0.27921563386917114,0.10132139176130295,1.4716280698776245,-0.043679866939783096,1.3355180025100708,-0.2788424491882324,0.8588513135910034,0.014218203723430634
342,1.7032473292423655,0.2699600793664037,-2.6788713133890756,0.9553400278091431,-0.26669296622276306,0.12728092074394226,0.9377875924110413,-1.0428284406661987,-0.9166769981384277,-0.31674444675445557,0.7116698026657104,0.14493584632873535
343,1.6464068851545517,0.012749140933963657,-2.5339022944430503,0.9970619678497314,-0.012748795561492443,0.07553240656852722,-2.950127363204956,-0.9601198434829712,-3.6707587242126465,0.2683342695236206,0.7546311020851135,0.024244792759418488
344,1.6164094540166636,-0.3823448813653286,-2.216900348567138,0.9268273115158081,0.3730970621109009,0.042304836213588715,-2.312371253967285,-0.8294728994369507,-3.5922906398773193,0.6393499970436096,0.001231551170349121,-0.3738478422164917
345,1.6349402904865076,-0.5294440613423266,-1.970721964318391,0.861312985420227,0.5050535798072815,0.055323924869298935,-1.4982006549835205,-0.6937777400016785,-0.8028200268745422,-0.061203181743621826,-0.5236693620681763,-0.24181687831878662
346,1.7409378907508701,-0.6276757216423192,-1.8046603667793437,0.7977076172828674,0.5872650742530823,0.13704821467399597,-0.9444973468780518,0.9979894161224365,-1.5732817649841309,0.3119267225265503,-0.40620434284210205,-0.42569875717163086
347,1.801184184469494,-0.7029118746587983,-1.8327914096930449,0.7428039312362671,0.6464420557022095,0.1742265373468399,1.0137420892715454,-0.8492308259010315,1.2134336233139038,0.9591308236122131,-0.49039047956466675,-0.5833756923675537
348,1.6362900589262162,-0.6061716981537244,-2.02167292513514,0.8200731873512268,0.5697253942489624,0.05378657951951027,2.1403491497039795,1.3386503458023071,1.0105714797973633,0.5253857970237732,-0.13636058568954468,-0.1820213794708252
349,1.6218349597740773,-0.44256294798174983,-2.335360058443167,0.9024803638458252,0.42825689911842346,0.0461014024913311,2.826051950454712,0.09285113960504532,3.9422285556793213,0.9455573558807373,0.18072137236595154,-0.5846909284591675
350,1.4861317203799809,0.10392251243857598,-2.576660045897055,0.99104243516922,-0.10373555123806,-0.08410727232694626,2.9253275394439697,-0.7935793399810791,5.1544508934021,0.12648087739944458,1.1554628610610962,-0.02151406556367874
351,1.5565927088597071,0.5388980605385226,-2.788078734066616,0.8581882119178772,-0.513190507888794,-0.012190197594463825,1.8315131664276123,0.11325959861278534,2.843932628631592,-0.5170778632164001,1.234503984451294,0.20268088579177856
352,1.62480143626166,0.6394060064979052,-2.884086100386026,0.8012802600860596,-0.5967189073562622,0.0433153472840786,-0.5035155415534973,0.4228757619857788,-1.5251178741455078,-1.0065568685531616,1.2604916095733643,0.6418194770812988
353,1.597166614980035,0.26214491699461256,-2.7387971599719316,0.96550053358078,-0.2591527998447418,0.025466429069638252,-1.75418221950531,0.14741550385951996,-5.524576663970947,-0.00988835096359253,1.1793493032455444,0.25006163120269775
354,1.6117338726642234,-0.3726477524884997,-2.3124771470054153,0.9305863380432129,0.3640827238559723,0.038117218762636185,-4.1082234382629395,-0.46430912613868713,-5.876425743103027,1.714555263519287,0.9597698450088501,-0.7728278636932373
355,1.665257504004517,-0.5729671031652689,-2.0013732747864648,0.8365501761436462,0.5421276688575745,0.07925739139318466,-0.6107670664787292,-3.5104007720947266,1.1406874656677246,0.2911202311515808,-0.5843029022216797,-0.5787233114242554
356,1.6137480113331455,-0.5838053548960004,-1.8034818545599103,0.833601713180542,0.5512030124664307,0.035826630890369415,-2.1575636863708496,1.0894347429275513,-1.0639668703079224,-0.10739016532897949,-0.42162537574768066,-0.09507644176483154
357,1.8420831343554822,-0.71521085088613,-1.6321152056843782,0.7273439764976501,0.6557766199111938,0.2023063749074936,0.2240532636642456,1.1033611297607422,-0.8868431448936462,0.8124204277992249,-0.6359707117080688,-0.6832329034805298
358,1.7798062553472964,-0.6608402270056053,-1.7123422116709512,0.7722952365875244,0.6137803792953491,0.16380970180034637,0.49266767501831055,-0.7909491062164307,1.5436971187591553,0.6707131862640381,-0.1980089545249939,-0.42578792572021484
359,1.6988548381978834,-0.5324692308584478,-1.9040926335220245,0.8545015454292297,0.507662296295166,0.11002831161022186,1.8852169513702393,0.8527103066444397,1.5403119325637817,0.6229002475738525,0.08041149377822876,-0.4459810256958008
360,1.6124636458570127,-0.2929598420058312,-2.1223377806912658,0.9565623998641968,0.28878721594810486,0.03988047316670418,1.6403963565826416,-0.8987590074539185,3.3639914989471436,0.10128366947174072,0.21772828698158264,-0.37830519676208496
361,1.5119253797424872,0.03617204486553421,-2.3348822572713477,0.9976145625114441,-0.03616415709257126,-0.05879845842719078,2.5638349056243896,-0.3289530277252197,3.3599865436553955,-0.05678820610046387,0.6148232221603394,-0.05100381001830101
362,1.530260087337277,0.29359029631091826,-2.5483648024693766,0.9564247727394104,-0.2893907427787781,-0.03879111260175705,1.9902359247207642,0.1588134467601776,1.1680409908294678,-0.2894020676612854,0.9162065386772156,0.21260398626327515
363,1.5693037156937568,0.28154971193467254,-2.6622771661035354,0.9606248140335083,-0.2778446674346924,-0.0014338403707370162,-0.10899687558412552,0.17614765465259552,-1.8209885358810425,-0.3125079274177551,0.9604008793830872,0.5314326286315918
364,1.5372273298428574,-0.02329067918124703,-2.514797350344004,0.9991655349731445,0.023288574069738388,-0.0335535891354084,-2.4634742736816406,-0.215077206492424,-4.167413711547852,0.28719615936279297,0.7774926424026489,0.1176447868347168
365,1.561095779576784,-0.443953147619007,-2.264558614306714,0.9030182361602783,0.42951273918151855,-0.00876004621386528,-2.5421688556671143,-0.6521180868148804,-2.7189548015594482,0.6022306680679321,-0.15041428804397583,-0.2820267081260681
366,1.618473749554921,-0.5482242000777329,-1.9880816575428095,0.852481484413147,0.5211724638938904,0.04067494720220566,-1.7059962749481201,-0.2699526846408844,-0.4583333134651184,-0.027957618236541748,-0.5087212920188904,-0.18529772758483887
367,1.749266152472002,-0.6080423222893823,-1.8229533071320603,0.8077312707901001,0.5712617635726929,0.1457059383392334,-0.736711323261261,0.544392466545105,-0.8875470161437988,0.3156512975692749,-0.42714250087738037,-0.5230405330657959
368,1.7838368786179133,-0.6122979582342545,-1.7972197549112037,0.7998290657997131,0.5747494697570801,0.1730215847492218,0.20631107687950134,-0.7675187587738037,1.087389349937439,0.7175049185752869,-0.40642982721328735,-0.6113455295562744
369,1.684072577549231,-0.5042103942667244,-1.9235059252065931,0.8699450492858887,0.4831162393093109,0.0989677757024765,1.7616984844207764,0.5032583475112915,0.9810845851898193,0.4406934976577759,0.09108734130859375,-0.2905418872833252
370,1.6111856849596369,-0.3926587677971094,-2.2013362123032687,0.923141360282898,0.3826461732387543,0.037305377423763275,2.144047260284424,0.3820880353450775,2.083864688873291,0.3479766845703125,0.007963478565216064,-0.14458990097045898
371,1.5561168037688409,-0.10725783212976803,-2.3995617287644113,0.9941464066505432,0.10705229640007019,-0.014594643376767635,1.8135664463043213,0.18538951873779297,3.1030325889587402,-0.25505638122558594,0.2374301254749298,-0.03469127416610718
372,1.595999445797382,0.15788569651193923,-2.5821406000120097,0.9872481226921082,-0.15723055601119995,0.024887003004550934,1.3169186115264893,0.313234806060791,1.939535140991211,-0.19099891185760498,0.8409464359283447,0.06346142292022705
373,1.6243228456085208,0.2512663459072167,-2.649318102959678,0.9672110676765442,-0.24863073229789734,0.051820941269397736,0.45913583040237427,-0.0645204484462738,-0.4845404326915741,-0.49725568294525146,0.8766214847564697,0.11832975596189499
374,1.6284090283664236,0.05894875169383036,-2.5766333042672054,0.9966067671775818,-0.05891461670398712,0.0574808195233345,-1.707348108291626,0.03614188730716705,-3.255852699279785,-0.11779212951660156,0.7187961935997009,0.1797475814819336
375,1.6365694381502127,-0.31731616387491773,-2.3186051120116686,0.9480219483375549,0.3120178282260895,0.062444426119327545,-2.807579278945923,-0.8366649150848389,-4.127062797546387,0.9123296141624451,0.5665526986122131,-0.29135680198669434
376,1.6529756081712108,-0.5621824517151642,-2.05619183661657,0.8432386517524719,0.5330340266227722,0.069453164935112,-1.5515683889389038,-0.8564766645431519,-1.4360694885253906,0.12271910905838013,-0.6065050363540649,-0.3704022169113159
377,1.6668461792227882,-0.6359509112873482,-1.9194726848864154,0.8007991909980774,0.5939428210258484,0.07715405523777008,-1.142174243927002,0.003371609840542078,-0.747724711894989,0.018750369548797607,-0.4959356188774109,-0.08670604228973389
378,1.7466391583634693,-0.713411113659873,-1.8180381634201175,0.7444739937782288,0.6544168591499329,0.13227659463882446,0.13096731901168823,0.2561458647251129,-0.5225753784179688,0.5820945501327515,-0.5970438122749329,-0.4977397918701172
379,1.685914184211999,-0.6602573953366749,-1.903211015247101,0.7846068143844604,0.6133201718330383,0.09072337299585342,0.658916175365448,-0.5097054243087769,1.399633765220642,0.7763063907623291,-0.045494794845581055,-0.2659553289413452
380,1.5885425341532347,-0.5332483111103414,-2.067260807806047,0.8610248565673828,0.5083333253860474,0.01528153009712696,1.9129356145858765,0.8012771606445312,1.7805267572402954,0.7331371307373047,0.04914647340774536,-0.17574286460876465
381,1.5356093440770013,-0.2588144475318776,-2.2860500873923653,0.9660957455635071,0.2559346556663513,-0.03400802984833717,1.9651254415512085,-0.07704052329063416,3.370306968688965,0.1416161060333252,0.2739725410938263,-0.21609878540039062
382,1.5047091989715733,0.0920547066113145,-2.4681315811138917,0.9935923218727112,-0.091924749314785,-0.06575942784547806,1.598154067993164,0.06631746143102646,3.2321836948394775,-0.2915659546852112,0.5387325882911682,0.03537917137145996
383,1.5420699490000929,0.3375155972576492,-2.6027485105404904,0.9431911110877991,-0.33114388585090637,-0.027101919054985046,1.1405997276306152,0.30037549138069153,1.4439693689346313,-0.383269727230072,0.8295416831970215,0.12037891149520874
384,1.5880677781176005,0.3294401285086378,-2.674827072523184,0.9460824131965637,-0.32351332902908325,0.016341840848326683,0.3316865563392639,-0.1856139600276947,-1.9665682315826416,-0.5066751837730408,0.8639644384384155,0.22454869747161865
385,1.5652475711739506,0.0008808959048664379,-2.5745281690301605,0.9999843239784241,-0.000880895764566958,-0.005548725835978985,-1.9101160764694214,0.08051031082868576,-4.881094455718994,0.19242912530899048,0.921977698802948,0.08881592750549316
386,1.627434030255906,-0.5080369563332958,-2.2954887793057277,0.8723001480102539,0.4864630699157715,0.04945797473192215,-2.284189462661743,-0.5323796272277832,-4.375041961669922,1.2640371322631836,0.16017389297485352,-0.46637392044067383
387,1.629629281177076,-0.6152704149131092,-2.0409378644469913,0.8152046203613281,0.5771793723106384,0.04801630973815918,-1.3956513404846191,-2.0664052963256836,0.6944975852966309,0.10728073120117188,-0.6373905539512634,-0.14194941520690918
388,1.6905515371373159,-0.5863010674343928,-1.8231571769679,0.8270270824432373,0.5532836318016052,0.09951699525117874,-1.6178193092346191,0.4458734691143036,-0.45953842997550964,-0.017197251319885254,-0.23899829387664795,-0.37101662158966064
389,1.758635698020254,-0.6632745759503877,-1.7530813504774516,0.7741197347640991,0.6157004237174988,0.1471448540687561,0.8139649629592896,0.10146442800760269,-0.8043379187583923,0.4673506021499634,-0.4896475672721863,-0.4514204263687134
390,1.6983878448420893,-0.6749193995553547,-1.9000258084100683,0.7744106650352478,0.624834418296814,0.09934793412685394,0.9783706068992615,-0.7752175331115723,1.6909687519073486,0.9248080253601074,-0.21766889095306396,-0.38029277324676514
391,1.617523595140792,-0.5100759371214241,-2.092529040185619,0.8717547059059143,0.4882435202598572,0.04076438769698143,2.101447105407715,1.9200243949890137,2.148979902267456,0.7143657207489014,0.19625043869018555,-0.45383501052856445
392,1.5428672678072983,-0.177208735084322,-2.3462461642207817,0.9839555621147156,0.17628270387649536,-0.0274881012737751,2.1434576511383057,-1.2479218244552612,4.064027786254883,0.03633850812911987,0.46788227558135986,-0.255135178565979
393,1.4692993564780175,0.19755088069008944,-2.583239105620973,0.9755040407180786,-0.19626843929290771,-0.09935209900140762,2.4383645057678223,0.1062982827425003,2.973411798477173,-0.36103248596191406,0.7070716619491577,0.19749663770198822
394,1.5171406207585054,0.41414595385182296,-2.7484603630226196,0.9141427874565125,-0.402408242225647,-0.04909610003232956,0.9620994925498962,0.09660285711288452,0.5385963320732117,-0.541767418384552,1.0267826318740845,0.28191471099853516
395,1.5240275102576408,0.31192126370376944,-2.764044480973751,0.9507049918174744,-0.30688774585723877,-0.04449579492211342,-0.9902599453926086,-0.3141745328903198,-2.2499172687530518,-0.35951846837997437,0.8383055925369263,0.3647778034210205
396,1.5059345148811365,-0.09631530588325843,-2.5393375979184136,0.9932723045349121,0.0961664617061615,-0.06451594084501266,-3.9972376823425293,0.27820509672164917,-5.022753715515137,0.5568071007728577,0.9509069323539734,-0.007276661694049835
397,1.6209606901015268,-0.5923176232821538,-2.171367456621488,0.8286053538322449,0.5582853555679321,0.041601359844207764,-2.8906002044677734,-0.14399059116840363,-3.764995813369751,1.0058062076568604,-0.03983747959136963,-0.55519700050354
398,1.611435623378248,-0.656937899310724,-1.97534986085889,0.7912119626998901,0.610694944858551,0.03217201307415962,-0.7331922054290771,-1.9613207578659058,0.5211988687515259,0.026002883911132812,-0.6222153902053833,-0.06561923772096634
399,1.717526889092595,-0.6620410431550885,-1.7584976530103265,0.7802637219429016,0.6147279739379883,0.11531730741262436,-1.4564204216003418,0.23051531612873077,-0.46302559971809387,0.2126714587211609,-0.34342676401138306,-0.46964168548583984
400,1.7335868398307437,-0.6986365535545456,-1.7388393681601433,0.7555961608886719,0.6431742906570435,0.12410209327936172,0.8097228407859802,0.466715008020401,0.13213512301445007,0.6299781799316406,-0.553773045539856,-0.353426456451416
401,1.6526189004502976,-0.6129117804227674,-1.854549870297641,0.8152399659156799,0.5752516388893127,0.06685429066419601,1.638061285018921,-0.09826360642910004,1.1571670770645142,0.5759649872779846,-0.09591203927993774,-0.35764098167419434
402,1.576184213004065,-0.4136112880339878,-2.1033708682971826,0.9156618714332581,0.4019187092781067,0.004933529533445835,2.1113946437835693,0.20712992548942566,3.029298782348633,0.5865046977996826,0.29713213443756104,-0.30559277534484863
403,1.5099294465503121,-0.06376446323906046,-2.3216730903242553,0.9961195588111877,0.06372126191854477,-0.060705676674842834,2.3805692195892334,-0.2780791223049164,3.5276293754577637,-0.1224014163017273,0.44697514176368713,-0.05889272317290306
404,1.5250765106857946,0.25069460180436837,-2.485333368116893,0.9677280783653259,-0.2480769008398056,-0.044275205582380295,1.4003185033798218,-0.08700808137655258,2.332249879837036,-0.3702701926231384,0.8271937370300293,-0.011465191841125488
405,1.5570462638173146,0.3540202462617368,-2.571539565531979,0.9378980398178101,-0.34667152166366577,-0.01289696991443634,0.49743732810020447,0.22840839624404907,-0.37238404154777527,-0.490037202835083,0.893943190574646,0.18811368942260742
406,1.5561331650558508,0.17272663152636292,-2.5039138041426408,0.9850139021873474,-0.17186903953552246,-0.014444452710449696,-2.0742454528808594,-0.19024720788002014,-3.2155263423919678,-0.1973246932029724,0.97165846824646,0.2364140748977661
407,1.5746072989571602,-0.3107425703078456,-2.2412446084992803,0.9520998001098633,0.30576571822166443,0.0036284434609115124,-2.7229936122894287,-0.21295170485973358,-5.165552616119385,1.1015806198120117,0.8025258779525757,-0.3259704113006592
408,1.61501894543588,-0.5547923225463244,-1.9787317502486181,0.8491788506507874,0.5267667770385742,0.03757741302251816,-1.360140323638916,-2.063138484954834,0.38262075185775757,0.36468827724456787,-0.7731504440307617,-0.6198680400848389
409,1.535621277479898,-0.5063653610796245,-1.7913489648341392,0.8739722371101379,0.48500192165374756,-0.030754702165722847,-2.56443452835083,0.02618386037647724,-0.052690066397190094,-0.22977668046951294,-0.28448617458343506,0.248207688331604
410,1.7120552323634748,-0.565705452144928,-1.521049453257517,0.8358020782470703,0.5360115170478821,0.11885609477758408,-1.0636197328567505,0.20357316732406616,-1.1281901597976685,0.2527141571044922,-0.3220984935760498,-0.6351982355117798
411,1.7186807093570033,-0.6125499966831286,-1.5409010767193738,0.8092542290687561,0.5749557018280029,0.12055619060993195,0.5188907980918884,-0.45368674397468567,0.836252748966217,0.6800952553749084,-0.36516255140304565,-0.375149130821228
412,1.6441982661383228,-0.5412743861865327,-1.6040550850699182,0.8547449111938477,0.5152286291122437,0.06285285204648972,1.110819935798645,1.0804667472839355,0.5434477925300598,0.44345754384994507,-0.17810100317001343,-0.1779041290283203
413,1.622824335461782,-0.4220976008923797,-1.8120680607200974,0.910997211933136,0.40967485308647156,0.04744018614292145,2.087510347366333,-0.2544391453266144,2.4201202392578125,0.32333195209503174,-0.06246110796928406,-0.38569700717926025
414,1.5328085156661564,-0.1161713726457414,-2.0439330305902845,0.9925430417060852,0.11591024696826935,-0.03772268444299698,2.0072896480560303,-0.11639565974473953,3.465153694152832,-0.12041175365447998,0.27288368344306946,0.05261528864502907
415,1.5561222757946782,0.172954006040815,-2.1753947249820125,0.9849746227264404,-0.17209303379058838,-0.014454605989158154,1.1873559951782227,0.01166134886443615,1.9526487588882446,-0.3131759762763977,0.7238813638687134,-0.08594822883605957
416,1.6109751900726348,0.24824773133888667,-2.255332094725759,0.9685621857643127,-0.24570578336715698,0.03893668204545975,0.41601791977882385,0.21487563848495483,-0.5167338848114014,-0.38941478729248047,0.7462245225906372,0.04391849413514137
417,1.6063922626655887,0.07617884975531299,-2.1813164904463784,0.9964680671691895,-0.07610519230365753,0.035485200583934784,-1.5269837379455566,-0.017378736287355423,-2.9011192321777344,0.006949782371520996,0.6843205094337463,0.09494686126708984
418,1.5903990834820014,-0.2809133478421394,-2.0000188311519937,0.9606180787086487,0.2772333025932312,0.01883317530155182,-1.3436816930770874,-0.12251242995262146,-4.046967029571533,0.5920705795288086,0.3165014386177063,-0.10455703735351562
419,1.62291629421776,-0.5470035438279058,-1.8116998759797114,0.8529273271560669,0.5201303362846375,0.04449484124779701,-1.822067379951477,-0.6385796666145325,-1.3038748502731323,0.18930912017822266,-0.7066384553909302,-0.2559969425201416
420,1.6406857213061818,-0.5808823245112007,-1.6911451498718233,0.8339378833770752,0.5487617254257202,0.058378495275974274,-0.9035357236862183,-0.2629261910915375,-0.10728196799755096,0.08985960483551025,-0.426569402217865,-0.1820967197418213
421,1.6496198190157594,-0.6146418200381608,-1.637893423817216,0.8144433498382568,0.5766659379005432,0.0643305554986,0.27702704071998596,0.18596923351287842,-0.7175889015197754,0.2510930895805359,-0.3974667191505432,-0.2166590690612793
422,1.628572478589942,-0.6161972190658919,-1.6942551886377057,0.8147202730178833,0.5779359936714172,0.04712384566664696,0.5012540817260742,-0.7109368443489075,1.101914882659912,0.6587140560150146,-0.23749715089797974,-0.33580493927001953
423,1.5609589359835632,-0.5285007408938197,-1.81629267777783,0.863522469997406,0.5042392015457153,-0.008495082147419453,1.6573619842529297,1.025815486907959,1.047699213027954,0.7671539783477783,-0.04945093393325806,-0.24025368690490723
424,1.5086132197635136,-0.29216191724188123,-2.0615386976710695,0.9557726383209229,0.2880232036113739,-0.059509631246328354,2.6318042278289795,0.24628640711307526,3.0280537605285645,0.10797858238220215,0.0694444477558136,-0.10450708866119385
425,1.488104668495658,0.06701610402568553,-2.2134210215467904,0.994346022605896,-0.06696595251560211,-0.08241204917430878,0.9471161365509033,0.07112010568380356,3.2726733684539795,-0.208762526512146,0.5502575635910034,0.06677180528640747
426,1.5037563576831405,0.3134480256342598,-2.2726632938751354,0.9491390585899353,-0.30834048986434937,-0.06372574716806412,0.7202069759368896,0.04769318923354149,1.4095488786697388,-0.47120338678359985,0.8375915884971619,0.07724500447511673
427,1.5422246236481245,0.3261682372883374,-2.3028435473793203,0.9468903541564941,-0.3204156458377838,-0.02706163376569748,-0.16005825996398926,0.2059294432401657,-1.2902319431304932,-0.5286775827407837,0.7789881229400635,0.20574206113815308
428,1.5401464659082067,0.03882161228755293,-2.1599355127801028,0.9987772703170776,-0.03881186246871948,-0.030621973797678947,-2.626844644546509,0.0010210340842604637,-4.329368591308594,0.27176105976104736,0.986336886882782,0.041821956634521484
429,1.5573131677141736,-0.3961746748580174,-1.8946709277093867,0.9224600195884705,0.3858921527862549,-0.012438428588211536,-2.823593854904175,-0.6171152591705322,-3.907503128051758,0.9953560829162598,0.38435623049736023,-0.25275933742523193
430,1.5566029509607482,-0.548637811554788,-1.5636384863990347,0.8531497120857239,0.5215254426002502,-0.012109887786209583,-2.1252756118774414,-1.7971605062484741,-0.6322221755981445,-0.07524144649505615,-0.50794517993927,-0.1918848752975464
431,1.6885609039779947,-0.6082425168504535,-1.3022915314660408,0.814969539642334,0.5714260339736938,0.09642069041728973,-2.2238316535949707,0.40156251192092896,-0.7760578989982605,0.08067560195922852,-0.36708033084869385,-0.41876256465911865
432,1.8541132047352313,-0.6756767101207708,-1.1421425877998492,0.7491766214370728,0.6254254579544067,0.2181219458580017,0.2446964532136917,0.6131856441497803,-0.1421201080083847,0.7374871373176575,-0.5888350009918213,-0.7505162954330444
433,1.7932191353901696,-0.6292863773336335,-1.2350656008589431,0.7885322570800781,0.5885679721832275,0.1783382147550583,0.7271711826324463,-0.05846612900495529,1.059037446975708,0.6814231276512146,-0.15840750932693481,-0.3184138536453247
434,1.724125229589847,-0.5419223436100445,-1.435028540200045,0.8466678261756897,0.5157838463783264,0.13084565103054047,2.5510034561157227,0.4900483787059784,2.105140209197998,0.8888667821884155,-0.01698935031890869,-0.5020157098770142
435,1.5990025730583288,-0.2304917402729823,-1.7355737167242165,0.9731670022010803,0.2284562885761261,0.027456670999526978,2.080731153488159,-0.33557263016700745,4.083863735198975,0.21126604080200195,0.3393690884113312,-0.10263669490814209
436,1.5624029373141328,0.1715907171202598,-1.9214137842008234,0.9852796792984009,-0.17074991762638092,-0.008270030841231346,1.763550043106079,0.0830453634262085,3.4667768478393555,-0.16295307874679565,0.8342783451080322,0.0240476131439209
437,1.6234818514403084,0.43495735723110346,-2.0895648361442016,0.9056297540664673,-0.421371728181839,0.04775777459144592,0.9913108944892883,0.17938371002674103,1.4639512300491333,-0.5022940635681152,0.9828341007232666,0.18179547786712646
438,1.6528626710185539,0.4418935745298498,-2.120435143514178,0.9009012579917908,-0.42765191197395325,0.07410009950399399,-0.36853423714637756,0.34087657928466797,-1.6858861446380615,-0.7056955695152283,0.9341368675231934,0.3338284492492676
439,1.631713720408495,0.1273227730548374,-1.951039643504402,0.9900653958320618,-0.1269790381193161,0.06038691848516464,-3.158005475997925,-0.03692735731601715,-4.999756813049316,0.1468515396118164,1.2245590686798096,0.19220709800720215
440,1.6783899447494686,-0.4754718236570206,-1.5377931682234893,0.883935809135437,0.45775797963142395,0.09547454863786697,-3.1131412982940674,0.3573172688484192,-6.494547367095947,1.66109299659729,0.8219051361083984,-0.5274813175201416
441,1.6670213359843968,-0.5905204748018084,-1.3676705133319567,0.8268082737922668,0.5567934513092041,0.07980609685182571,-0.9799606800079346,-3.7253127098083496,1.2676069736480713,-0.009303450584411621,-0.4425967335700989,-0.01993061602115631
442,1.7232843367440427,-0.6037857135546114,-1.1418626144269712,0.8136399984359741,0.5677629113197327,0.12504102289676666,-1.622903823852539,0.5209771394729614,-0.6057629585266113,0.07983839511871338,-0.3940873146057129,-0.43036937713623047
443,1.8310472421285329,-0.6459579928364635,-1.05906258853516,0.771633505821228,0.6019636988639832,0.2054784595966339,0.39437055587768555,-0.06939361989498138,0.7457015514373779,0.797275185585022,-0.44676655530929565,-0.7134131193161011
444,1.728058384496153,-0.5515467977790709,-1.1433247536635165,0.8412045240402222,0.5240052938461304,0.13339102268218994,1.3914380073547363,-0.7060728073120117,1.1592352390289307,0.6624574661254883,0.10702186822891235,-0.5147081613540649
445,1.6024681093306237,-0.4168403516079334,-1.4157214194906649,0.913914144039154,0.4048733711242676,0.028954971581697464,3.0503885746002197,0.23724456131458282,2.2893624305725098,0.49413633346557617,0.19540736079216003,-0.19205617904663086
446,1.5357604568772867,-0.16875703337162978,-1.69797140924407,0.9851893782615662,0.16795717179775238,-0.03453109785914421,2.0004754066467285,0.043431419879198074,2.6646509170532227,-0.07608598470687866,0.2228051722049713,0.1486515998840332
447,1.5454747334739307,0.1063154025139852,-1.8327276293634338,0.9940351843833923,-0.10611523687839508,-0.02517593465745449,0.9261431694030762,0.37948739528656006,2.5481975078582764,-0.3205273747444153,0.5919092893600464,0.13310134410858154
448,1.5939215820585604,0.25913571644469297,-1.888453909750156,0.9663533568382263,-0.2562452256679535,0.022351153194904327,-0.04537360370159149,0.4123896360397339,0.40658819675445557,-0.4712972640991211,0.7884413003921509,0.13785088062286377
449,1.605632322602886,0.16038927146721088,-1.8472742714898565,0.9865663051605225,-0.15970249474048615,0.0343819297850132,-1.502508282661438,0.25201284885406494,-1.958385944366455,-0.19523024559020996,0.7442820072174072,0.3430594205856323
450,1.6161678939991908,-0.1479340902522907,-1.5452725567876553,0.9880598783493042,0.14739510416984558,0.044860612601041794,-3.4648053646087646,0.025310473516583443,-4.236297130584717,0.4856950044631958,0.7684526443481445,-0.2944028377532959
451,1.6909366893894664,-0.5017488495800484,-1.2610855815998687,0.8704230785369873,0.48095956444740295,0.10507899522781372,-2.7026546001434326,-0.6342558860778809,-2.057849407196045,0.5227806568145752,-0.5175349116325378,-0.3440316915512085
452,1.6774299405451394,-0.5481584637911493,-1.031221426773151,0.8486378192901611,0.5211163759231567,0.09083787351846695,-1.5846413373947144,-0.6455731391906738,-0.3742499351501465,-0.06459552049636841,-0.5074445605278015,-0.04922712594270706
453,1.778091755414675,-0.577222579903608,-0.8630259917971101,0.8200412392616272,0.5456986427307129,0.17246830463409424,-0.6076164841651917,-0.09938883781433105,-0.4664669632911682,0.2608303427696228,-0.46240097284317017,-0.6161481142044067
454,1.7324285053456427,-0.5513912224842251,-0.8781454127806627,0.8406942486763,0.5238727927207947,0.13707906007766724,0.3612857460975647,-0.42062726616859436,0.7795937657356262,0.5003550052642822,-0.1523669958114624,-0.28592848777770996
455,1.6457119088863421,-0.4868977173412805,-0.9349078811543681,0.8813096284866333,0.46788638830184937,0.06614761799573898,0.5652639269828796,-0.5577311515808105,0.4882716238498688,0.39739203453063965,-0.05409860610961914,-0.12794578075408936
456,1.5852531721715557,-0.38491825393111845,-1.1028073477951108,0.9267323017120361,0.37548336386680603,0.013398558832705021,1.6958346366882324,-0.4575534760951996,3.1449759006500244,1.0341441631317139,0.11792480945587158,-0.09018087387084961
457,1.4723158133614176,-0.011812743851019917,-1.209041951573388,0.9950851798057556,0.011812468990683556,-0.09831453859806061,1.316573143005371,-0.4758150577545166,3.3574514389038086,-0.08375412225723267,0.5580728054046631,0.2820608615875244
458,1.4929503110268905,0.2669630992618382,-1.2986133213864335,0.9616552591323853,-0.2638033330440521,-0.07501261681318283,0.5649752020835876,0.4480878710746765,1.92544424533844,-0.46145695447921753,0.7110384702682495,0.42352330684661865
459,1.5379826983164193,0.3267516799068279,-1.2432462441126733,0.946580171585083,-0.32096827030181885,-0.03107188269495964,-1.7075767517089844,0.8148259520530701,-0.5436444282531738,-0.5964062213897705,0.7636562585830688,0.33601880073547363
460,1.542642848948998,0.10986142662586679,-1.0047081233115192,0.9935774207115173,-0.10964056104421616,-0.027980051934719086,-2.6656885147094727,0.8312949538230896,-3.189444065093994,-0.13713210821151733,0.7329163551330566,0.003001391887664795
461,1.6761657768734868,-0.28453233041344456,-0.6189137371024691,0.9544697999954224,0.2807086110115051,0.10094583034515381,-4.491373538970947,0.28656667470932007,-4.170197486877441,0.8075540661811829,0.6668469309806824,-0.5939115285873413
462,1.8243644578322216,-0.5685646962145685,-0.30743811187321596,0.8157286643981934,0.5384231209754944,0.21139296889305115,0.41958367824554443,-0.4560534358024597,-0.8980230093002319,1.0912078619003296,-0.9028183817863464,-0.8169228434562683
463,1.7541260712178308,-0.5781385601440716,-0.20300455299928677,0.8234469294548035,0.5464659929275513,0.15267662703990936,-1.9164787530899048,-0.051236703991889954,-0.6406503319740295,0.08611422777175903,-0.5795623064041138,-0.03463459014892578
464,1.8323671304738534,-0.5841541316354643,-0.1266749919901849,0.8058043122291565,0.5514940023422241,0.21571721136569977,0.7049754858016968,0.11237035691738129,0.5397842526435852,0.3090943694114685,-0.7067063450813293,-0.5881384611129761
465,1.7919203305236282,-0.50638130394884,-0.22070761016472099,0.8532124757766724,0.485015869140625,0.19180211424827576,0.8696430921554565,0.2972293198108673,0.9784272909164429,0.30819493532180786,-0.166717529296875,-0.42475807666778564
466,1.7312079886747975,-0.41323433008598326,-0.37791987076141803,0.9040690064430237,0.40157350897789,0.14628006517887115,1.7978373765945435,0.006842346861958504,1.5904730558395386,0.664519190788269,0.2801738977432251,-0.41791701316833496
467,1.6393110824129078,-0.2711351414917292,-0.6416523310561851,0.96120685338974,0.26782527565956116,0.06596009433269501,2.8822662830352783,0.10528501868247986,2.0064518451690674,0.4840902090072632,0.44822388887405396,-0.19079220294952393
468,1.5776557209301718,-0.05423278825652038,-0.9501176493163411,0.9985063672065735,0.054206207394599915,0.006849256344139576,2.445557117462158,0.025479111820459366,2.5630862712860107,-0.22274941205978394,0.2528311610221863,0.07518196105957031
469,1.6020468910637455,0.17537942371721477,-1.1636037040326044,0.9841796159744263,-0.17448174953460693,0.030766185373067856,1.6438167095184326,0.18393120169639587,1.9243688583374023,-0.34773558378219604,0.5871709585189819,0.04720616340637207
470,1.6372671829393344,0.30142172480778895,-1.2679335832688041,0.9528066515922546,-0.2968781292438507,0.06342732161283493,0.24690042436122894,0.009417576715350151,0.2494928240776062,-0.49261683225631714,0.8415710926055908,0.0021396875381469727
471,1.6721645460490724,0.16823054456976008,-1.3233103292955828,0.9808217287063599,-0.16743813455104828,0.09976610541343689,0.048630766570568085,0.2432902753353119,-2.3105921745300293,-0.21190083026885986,0.645267128944397,0.3263967037200928
472,1.6579311626755138,-0.10035200780563766,-1.0990927473935088,0.9911942481994629,0.10018365830183029,0.08658679574728012,-2.6807100772857666,-0.7062323093414307,-3.654702663421631,0.4190840721130371,0.6985834836959839,-0.2423485517501831
473,1.6583471787001327,-0.4784916069005799,-0.955232822211605,0.8842905759811401,0.4604407250881195,0.07761881500482559,-0.44796237349510193,-0.4757491946220398,-2.9054243564605713,0.6072714328765869,-0.36524108052253723,-0.047742120921611786
474,1.6851083852489523,-0.6053141810133924,-0.8143715008243734,0.8169564008712769,0.5690204501152039,0.09379687905311584,-0.9518697261810303,-0.19310009479522705,-0.32729727029800415,0.1994009017944336,-0.6193592548370361,-0.12521469593048096
475,1.753071091628682,-0.63150502998646,-0.751170166110788,0.7937687635421753,0.5903602242469788,0.14630793035030365,0.23055784404277802,0.587609589099884,-0.11644584685564041,0.3077784776687622,-0.6108832955360413,-0.38967037200927734
476,1.75682490204395,-0.583815236821477,-0.8180554237943606,0.8199700117111206,0.5512112379074097,0.15432216227054596,0.5581602454185486,0.17143520712852478,0.9823266267776489,0.4963141679763794,-0.23451507091522217,-0.30732202529907227
477,1.7007187075407817,-0.4609688553640786,-0.9128395328270138,0.8880735039710999,0.44481605291366577,0.11603423953056335,0.8028085231781006,-0.12187109887599945,1.3091167211532593,0.3830140233039856,0.11501359939575195,-0.22176243364810944
478,1.6527847535251652,-0.3325891526053823,-1.101104354028331,0.9420250058174133,0.3264913856983185,0.07740867882966995,2.0004045963287354,0.14362215995788574,2.2489352226257324,0.4904547929763794,0.13295072317123413,-0.14181602001190186
479,1.5852754498223782,-0.06777602776764743,-1.265183081560635,0.9975995421409607,0.06772415339946747,0.014445376582443714,1.2587865591049194,-0.5689363479614258,2.8049230575561523,-0.08132445812225342,0.38212019205093384,0.01289844699203968
480,1.5776588766324022,0.1763307014415289,-1.3941634905443943,0.9844706058502197,-0.17541836202144623,0.006756084971129894,1.1205790042877197,0.0793658047914505,2.0318918228149414,-0.38093990087509155,0.5804934501647949,0.14470267295837402
481,1.6109346467725434,0.2923554792927595,-1.4624070100255078,0.9567963480949402,-0.288208544254303,0.03842483460903168,0.5137295126914978,0.4049836993217468,0.16934174299240112,-0.49309706687927246,0.7700659036636353,0.18130171298980713
482,1.6341304287157432,0.16531110722332268,-1.4330952427032837,0.9843896627426147,-0.16455920040607452,0.062428928911685944,-0.7560239434242249,0.39831873774528503,-2.459745168685913,-0.22373902797698975,0.7522057294845581,0.27137231826782227
483,1.642261000234007,-0.1662341665334227,-1.1845810643851642,0.9836975932121277,0.16546961665153503,0.0704195499420166,-3.0373599529266357,-0.7072080373764038,-3.7744016647338867,0.5005858540534973,0.5715756416320801,-0.2019045352935791
484,1.7172932160760925,-0.5268954806769679,-0.9387712363835601,0.855113685131073,0.5028523206710815,0.1261754184961319,-1.7633501291275024,-0.2023460417985916,-2.7120094299316406,0.5947611927986145,-0.5432423949241638,-0.2606816291809082
485,1.7636996652648176,-0.6063660916708932,-0.7454839478319192,0.80648273229599,0.5698851346969604,0.15753208100795746,-1.4156302213668823,-0.4428340494632721,-0.12433993816375732,0.13573211431503296,-0.6859435439109802,-0.1172030121088028
486,1.8306821449175155,-0.5881898803741136,-0.6200414434856607,0.804009199142456,0.55485600233078,0.21378546953201294,-0.11132632195949554,0.19233833253383636,0.20672626793384552,0.2939980626106262,-0.5141608119010925,-0.4728034734725952
487,1.80447383827345,-0.5291555267817092,-0.6634674867836042,0.8397724032402039,0.5048045516014099,0.19988754391670227,0.4979569613933563,-0.43078407645225525,1.0396727323532104,0.4114026427268982,-0.15435582399368286,-0.3947422206401825
488,1.7259558977871072,-0.447017337003603,-0.7754934546641593,0.8909078240394592,0.4322778582572937,0.139352947473526,1.0548732280731201,-0.09578979760408401,0.7018696069717407,0.34329938888549805,0.1200750470161438,-0.20057129859924316
489,1.6545943483074126,-0.360943986815117,-0.994427091739573,0.9322808980941772,0.35315755009651184,0.07830667495727539,2.3957762718200684,0.03686646744608879,1.7564420700073242,0.400970995426178,0.13614597916603088,-0.10441447049379349
490,1.5833742960723847,-0.15153005556292745,-1.2113351425429066,0.9884630441665649,0.1509508341550827,0.012433513067662716,1.7360814809799194,-0.0014206217601895332,2.5187201499938965,-0.19668453931808472,0.1275068074464798,0.07530450820922852
491,1.5993871234050268,0.06928079545659448,-1.3639801976725379,0.9971932172775269,-0.06922538578510284,0.028518319129943848,1.3473081588745117,0.17800620198249817,1.6834982633590698,-0.3415384292602539,0.5640527009963989,0.0006107054650783539
492,1.6274914921992945,0.15191152581149742,-1.4421125553098895,0.9868955016136169,-0.1513279229402542,0.05601222813129425,0.33983829617500305,0.0969969630241394,-0.11065182089805603,-0.4017055630683899,0.675284206867218,0.06441021710634232
