,attitude.roll,attitude.pitch,attitude.yaw,gravity.x,gravity.y,gravity.z,rotationRate.x,rotationRate.y,rotationRate.z,userAcceleration.x,userAcceleration.y,userAcceleration.z
0,1.1928601819072246,0.1098316881490832,-0.7404267725279611,0.9238279461860657,-0.10961100459098816,-0.366779625415802,-5.115322589874268,3.120701551437378,-4.4834113121032715,1.1980440616607666,1.515296459197998,-0.03303113579750061
1,0.004890964677643545,0.6494305790686155,-0.54679686631048,0.0038952871691435575,-0.6047329902648926,-0.7964187860488892,0.448873907327652,0.5333209037780762,0.21230800449848175,0.11120176315307617,0.18789345026016235,0.41853487491607666
2,0.0794128464287516,0.6322052999945179,-0.551610535286176,0.06399711966514587,-0.5909252762794495,-0.804183840751648,-0.5949746966362,-0.29982754588127136,0.005685990676283836,0.028425365686416626,0.03487974405288696,0.20576465129852295
3,0.06603893857481812,0.5842627398692944,-0.5340847635491478,0.055044300854206085,-0.5515845417976379,-0.8323007822036743,-0.6285525560379028,0.6006038188934326,0.030644472688436508,-0.043157704174518585,-0.24422228336334229,0.06292212009429932
4,0.13047433425682786,0.5580020570965412,-0.540836339404917,0.11036952584981918,-0.5294923782348633,-0.84110426902771,-0.6010414361953735,-0.06881289184093475,0.28777000308036804,0.3289462924003601,-0.19943523406982422,-0.20067429542541504
5,0.16321537464441777,0.525198949266857,-0.461628914711457,0.14059174060821533,-0.5013851523399353,-0.8537253141403198,-0.31793978810310364,2.31881046295166,0.4568841755390167,0.21884429454803467,0.2870144248008728,0.4063223600387573
6,0.40254582628664753,0.48891796697674356,-0.4190611681702694,0.3458637297153473,-0.4696708917617798,-0.8122730255126953,-1.5956411361694336,1.929107904434204,0.3038484752178192,0.09123954176902771,0.4282127916812897,0.7500935196876526
7,0.5529588764266196,0.21718374265376308,-0.23016255008086325,0.5128693580627441,-0.21548038721084595,-0.8309832811355591,-4.949491500854492,1.5827059745788574,-0.2468382567167282,-0.09680795669555664,0.6985889077186584,0.5664874315261841
8,0.7573652993257514,-0.25808602299751054,0.013441312874873627,0.6642557382583618,0.2552304267883301,-0.7025821805000305,-6.6573896408081055,1.4820075035095215,-1.3569293022155762,0.19016015529632568,0.7016024589538574,0.06343728303909302
9,1.2985696889461071,-0.6556499672703965,0.4131436304904464,0.7634621858596802,0.6096745729446411,-0.21312567591667175,-6.572530746459961,3.8795318603515625,-1.3939002752304077,1.3234214782714844,1.600057601928711,-0.7079710960388184
10,1.9044740622289318,-0.7000355281492193,0.8612924042749722,0.7226349711418152,0.6442448496818542,0.2504936754703522,3.8315813541412354,0.8159136176109314,0.7421016693115234,0.776113748550415,0.3223536014556885,-2.6537530422210693
11,1.6627091409665296,-0.6819180157459663,0.4482498066820028,0.7730882167816162,0.6302832365036011,0.07125748693943024,3.2592954635620117,0.7937489151954651,1.225733995437622,0.07232499122619629,-0.20685189962387085,-0.5022419691085815
12,1.546167672055466,-0.5022778863179332,0.015485587262556628,0.8762223124504089,0.4814233183860779,-0.021584540605545044,3.705260992050171,1.5543818473815918,2.4213123321533203,-0.11155873537063599,0.22232726216316223,-0.23769277334213257
13,1.4795539737192251,-0.21162058095980046,-0.33275986680432657,0.9736248254776001,0.21004460752010345,-0.08908316493034363,2.7233011722564697,-0.32276400923728943,2.5881941318511963,-0.22086304426193237,0.6464464664459229,0.15173578262329102
14,1.4627822853690484,-0.005757062906489851,-0.49323487655083376,0.994155764579773,0.0057570310309529305,-0.10780235379934311,0.8412890434265137,0.3290922939777374,0.5590353608131409,-0.591903567314148,0.8114579319953918,0.4347066879272461
15,1.4456792544157169,-0.11321641006030989,-0.43317749242623993,0.9858308434486389,0.11297469586133957,-0.1239919513463974,-3.5441744327545166,-0.5463022589683533,-2.3188371658325195,-0.28777194023132324,0.7661756873130798,0.5034322738647461
16,1.4950156642640036,-0.4889307275665327,-0.09076531959927983,0.8803019523620605,0.46968215703964233,-0.0668378546833992,-2.973006010055542,-0.12608632445335388,-3.9076178073883057,0.32941484451293945,0.7296586632728577,-0.2259935736656189
17,1.6699575057346276,-0.8110020958708474,0.2765487143674829,0.6853887438774109,0.7249777317047119,0.06818759441375732,-2.3677093982696533,-0.6807326674461365,-2.0846638679504395,0.2392023205757141,-0.3799002766609192,-0.4901999235153198
18,1.8659553321172337,-0.9403421054602262,0.5956513611922541,0.5640190243721008,0.8077598214149475,0.17148429155349731,-1.2871577739715576,0.4033973217010498,-1.3837647438049316,0.42970961332321167,-0.5676779747009277,-0.50862717628479
19,2.02798217868596,-0.9407897429417541,0.7835289096454914,0.5286434888839722,0.8080236315727234,0.2600654661655426,-0.3435888886451721,-0.3928660452365875,0.9543206095695496,0.8894015550613403,-0.2468816637992859,-0.7644141912460327
20,1.835994025327457,-0.8215740333451662,0.6375338824861676,0.6572596430778503,0.7322187423706055,0.17850832641124725,1.2489643096923828,-0.25077199935913086,1.6903624534606934,0.6277896761894226,0.31755530834198,-0.42779114842414856
21,1.7610761388132683,-0.6489554913035785,0.3607977489843128,0.7823359966278076,0.6043545603752136,0.15068574249744415,3.275491952896118,0.6571300625801086,3.044804811477661,0.6238225698471069,0.6807559728622437,-0.8858999013900757
22,1.5026313294654825,-0.26690480661945454,-0.16559800491968515,0.9623516798019409,0.26374709606170654,-0.06570049375295639,4.689208984375,-0.5348905920982361,4.502131462097168,0.0032244324684143066,0.9052287340164185,-0.049427032470703125
23,1.4602501407777067,0.17235533438587694,-0.507670792671763,0.9791700839996338,-0.17150326073169708,-0.10868661105632782,3.130763053894043,0.38288813829421997,3.418194532394409,-0.4386732578277588,0.9939977526664734,0.192274272441864
24,1.5488953270775763,0.4259592914120949,-0.776688204163733,0.9104244112968445,-0.41319453716278076,-0.0199423935264349,1.9210946559906006,0.34841859340667725,0.7348588705062866,-0.9056026339530945,1.0754107236862183,0.48805153369903564
25,1.6049137991496356,0.2629704727022802,-0.8703484650657501,0.9650602340698242,-0.25995004177093506,0.03293819725513458,-0.35197216272354126,0.3811458647251129,-3.4144396781921387,-0.5767086744308472,0.9352887868881226,0.6097924709320068
26,1.5699314381786935,-0.24373454920788065,-0.48215343453457643,0.9704432487487793,0.24132846295833588,-0.000839325541164726,-5.865930080413818,-1.3795957565307617,-6.686086654663086,0.6762548685073853,1.9513137340545654,-0.4369048476219177
27,1.838988835272422,-0.8987986372753873,0.078611858382617,0.60029536485672,0.7825795412063599,0.1649690717458725,-2.3736836910247803,1.6744673252105713,-6.413219451904297,1.4712378978729248,0.38917338848114014,-0.8335787057876587
28,1.901302670803348,-1.09179014615679,0.1761122112149472,0.4359528124332428,0.8874534368515015,0.14957135915756226,0.19222858548164368,-2.205974578857422,-0.5929824113845825,0.5440582036972046,-0.5767844915390015,-0.16934680938720703
29,2.0391686805858105,-1.082295921566822,0.3863913316457583,0.41876041889190674,0.8830376267433167,0.21185925602912903,-1.371412992477417,0.4892280697822571,0.7193590998649597,0.8387011289596558,-0.6927757263183594,-0.39299631118774414
30,1.9603662855898762,-0.873197291661367,0.36003582173602416,0.5942475199699402,0.7663867473602295,0.24396967887878418,0.7036532759666443,-1.7747817039489746,2.720755100250244,0.6346800327301025,0.16371268033981323,-0.6814391613006592
31,1.657159127692037,-0.6817055199840786,0.0240350057650009,0.7736052870750427,0.6301182508468628,0.06697732210159302,2.187652111053467,1.2331050634384155,1.3741499185562134,0.34812939167022705,0.6045619249343872,0.030419468879699707
32,1.5934338694614347,-0.5131524121576595,-0.26197037541362034,0.8709778785705566,0.490926057100296,0.01972016878426075,2.4726011753082275,0.5504670739173889,2.2969462871551514,0.13334017992019653,0.23173007369041443,-0.199895977973938
33,1.5473042585614578,-0.1930521619330371,-0.5186594662795486,0.9811524748802185,0.19185525178909302,-0.023053541779518127,1.4782589673995972,-0.9680142402648926,4.424955368041992,0.263735830783844,0.4431392550468445,-0.1443658471107483
34,1.1852987761444203,0.20612484381237525,-0.47249110387489446,0.9069963693618774,-0.204668328166008,-0.3680603802204132,-0.41925135254859924,-5.447465896606445,3.637380361557007,0.24110537767410278,0.6728842854499817,0.08290413022041321
35,0.6163831264450091,0.42446062642349314,-0.3160970687634629,0.5267887711524963,-0.4118293225765228,-0.7435658574104309,0.32041236758232117,-3.917874336242676,1.6006393432617188,0.11968040466308594,0.4654181897640228,0.4967092275619507
36,0.3769479131356179,0.5156307700711434,-0.24222900194248087,0.3202267289161682,-0.4930837154388428,-0.8089025020599365,-0.2971872091293335,-1.0220422744750977,0.45293447375297546,0.08468049764633179,0.19834494590759277,0.2996861934661865
37,0.15755033722659298,0.4074227880490995,-0.1502326941385034,0.14405636489391327,-0.3962444067001343,-0.9067735075950623,-0.28019922971725464,-0.4955888092517853,0.027768846601247787,-0.03632932901382446,0.10216176509857178,0.09119123220443726
38,0.05667892351898979,0.4423384804693074,-0.12635572485221702,0.05119633302092552,-0.4280540347099304,-0.9023018479347229,0.30841323733329773,-1.1180381774902344,0.6053770184516907,-0.03291630372405052,-0.015961438417434692,0.3483163118362427
39,0.011606509152934928,0.5105084349208678,-0.09681684864139457,0.010126408189535141,-0.48862090706825256,-0.8724374175071716,0.4099074602127075,-0.38594892621040344,-0.013251427561044693,-0.07361823320388794,-0.0015676915645599365,0.20848172903060913
40,0.030483478203069778,0.567564248603713,-0.16904867918079958,0.025700081139802933,-0.5375797748565674,-0.8428211212158203,0.27641594409942627,0.4990845322608948,-0.3866078555583954,0.028789052739739418,-0.16200512647628784,0.07588392496109009
41,0.033341510881802004,0.5913205882780632,-0.23362319364064746,0.027675168588757515,-0.5574578642845154,-0.8297438025474548,-0.624668300151825,0.5291223526000977,0.03858472779393196,0.008671268820762634,-0.2776709198951721,0.036866605281829834
42,0.11519298198036933,0.555141640558785,-0.26538007291542387,0.09767761081457138,-0.5270636677742004,-0.844193696975708,-0.18527095019817352,1.2402688264846802,-0.028883283957839012,0.07817993313074112,0.18802869319915771,-0.029555082321166992
43,0.12413693731040998,0.49590431997304735,-0.28787961474092333,0.10890305042266846,-0.4758272171020508,-0.8727706670761108,-0.5328887104988098,-0.5524575114250183,-0.07391168922185898,-0.05787765979766846,0.15649130940437317,0.19045865535736084
44,0.10339084596888055,0.5283458517228917,-0.2759231530587031,0.08913368731737137,-0.5041054487228394,-0.8590302467346191,0.23946060240268707,-0.29667332768440247,0.038603901863098145,-0.10369057953357697,0.17161643505096436,0.34815073013305664
45,0.1958304020722185,0.5351449197226906,-0.29314444638703635,0.16737766563892365,-0.509965717792511,-0.8437533378601074,-0.4457937180995941,1.7542369365692139,-0.8405604958534241,-0.12726230919361115,0.1893938183784485,0.3573489189147949
46,0.22039114501115878,0.5012606145127118,-0.5084851739533406,0.1917172074317932,-0.4805314540863037,-0.855765163898468,-1.433000087738037,-1.0550462007522583,-2.6396164894104004,-0.09975248575210571,0.2773454189300537,-0.015023410320281982
47,0.2813866642300054,0.22006960253929145,-0.7155888063786483,0.27099084854125977,-0.21829754114151,-0.9375020861625671,-1.6008186340332031,0.2333151400089264,-3.289515256881714,0.11456826329231262,0.255864679813385,-0.30903416872024536
48,0.3170993681009327,0.007946453267631484,-0.9532242235920526,0.3118020296096802,-0.007946369238197803,-0.9501138925552368,0.2550160884857178,0.9296737313270569,-2.025153160095215,0.5003165006637573,-0.3451725244522095,-0.10118615627288818
49,0.39792765180487727,-0.029476948937941228,-1.205960349799386,0.3873404264450073,0.029472680762410164,-0.9214655756950378,0.39326268434524536,1.2029160261154175,-2.315403699874878,0.3586007356643677,0.18828549981117249,0.6337305903434753
50,0.53862495083848,-0.16091668846197268,-1.279948208749274,0.5063291192054749,0.160223126411438,-0.847324788570404,-1.6257107257843018,2.080289363861084,-1.043990969657898,-0.035046160221099854,0.248193621635437,0.08069276809692383
51,0.6599543511150278,-0.34970903885444343,-1.2387204328535313,0.5759724974632263,0.3426244854927063,-0.7422022223472595,-1.7823071479797363,1.4366309642791748,-1.115479826927185,-0.08573812246322632,-0.0699194073677063,-0.5226598381996155
52,0.7747007074410414,-0.5914680366818228,-1.2260408734376251,0.5806729197502136,0.557580292224884,-0.5932311415672302,-2.152878522872925,2.459408760070801,-2.129674196243286,-0.09281891584396362,0.15630215406417847,-0.242218017578125
53,0.8738655335068224,-0.8417837753890541,-1.2581089973745816,0.5108017325401306,0.7458325624465942,-0.42756927013397217,-1.1204661130905151,1.2900334596633911,-2.3793859481811523,-0.2999252676963806,-0.37289249897003174,-0.10961636900901794
54,0.8533724123520264,-0.9995973973514675,-1.4522274221295344,0.4073740243911743,0.841253399848938,-0.3554421365261078,-0.06271955370903015,1.771790862083435,-1.6347267627716064,0.3249257802963257,-0.267675518989563,0.19618618488311768
55,0.822677002218865,-1.058171422633766,-1.4512939334532309,0.35949698090553284,0.8714600801467896,-0.33364546298980713,-1.3332513570785522,-1.4832124710083008,0.81878262758255,0.7972718477249146,-0.09796154499053955,0.27422773838043213
56,0.9721869770566537,-1.03312511037731,-1.0519533949695992,0.42308682203292847,0.8589036464691162,-0.2885863482952118,-0.751295268535614,-0.5423251986503601,1.8573176860809326,0.6491178274154663,0.183271586894989,0.059338271617889404
57,1.2543048401447605,-0.8037731165523665,-0.7772461474303856,0.6595266461372375,0.7199797630310059,-0.21599504351615906,-0.03060389682650566,0.8317861557006836,3.5312514305114746,0.14049166440963745,0.6676545739173889,-0.9952934384346008
58,1.3552056896696643,-0.5183229164325821,-0.9722773233706812,0.8485422134399414,0.4954240322113037,-0.18582573533058167,1.1516563892364502,1.7874302864074707,1.9330129623413086,-0.2929849624633789,0.2650434970855713,0.16774404048919678
59,1.468749896205655,-0.37853578643462626,-1.1188263507046443,0.9243729114532471,0.3695603013038635,-0.09465775638818741,1.8974733352661133,1.2080672979354858,0.8736584782600403,-0.77765953540802,-0.34053805470466614,-0.1590196043252945
60,1.5504725737464673,-0.3098348718297228,-1.3006039938588654,0.9521872997283936,0.3049013614654541,-0.01935468427836895,1.685221791267395,2.000009536743164,0.8289888501167297,-0.19142985343933105,-0.04077175259590149,0.3424137830734253
61,1.6977752494640945,-0.21526440243084694,-1.427829157586722,0.9690546989440918,0.21360573172569275,0.12371514737606049,-0.5296260118484497,1.1047427654266357,1.3625133037567139,0.7915043234825134,-0.30009257793426514,0.2761871814727783
62,1.731625927571291,-0.14703590516697848,-1.4154000424368507,0.9764436483383179,0.146506667137146,0.1584092229604721,0.19603551924228668,-0.8957827687263489,0.6449187994003296,0.35084205865859985,0.305489182472229,-0.5297776460647583
63,1.6271195370863545,-0.2239784555137013,-1.4594104278093338,0.9734753370285034,0.22211045026779175,0.054887305945158005,0.31627875566482544,-1.3380743265151978,-1.3874413967132568,0.0627184510231018,0.17165784537792206,-0.2522597312927246
64,1.50210861839353,-0.32431815926782154,-1.528637138674586,0.9456331133842468,0.31866255402565,-0.065055713057518,1.2121526002883911,-0.36490413546562195,-0.5344758033752441,-0.36299145221710205,-0.048475176095962524,-0.016029484570026398
65,1.3910193264908255,-0.3790580606803053,-1.5740993501745701,0.9140412211418152,0.37004557251930237,-0.16611707210540771,-0.4923684298992157,-1.2958325147628784,-0.1196131482720375,0.0059416890144348145,-0.47528547048568726,0.1706336885690689
66,1.3456318818071669,-0.3798055762908149,-1.520837792863272,0.9052929282188416,0.3707399070262909,-0.20735593140125275,-0.07608970254659653,0.31104719638824463,0.19849440455436707,0.45222043991088867,-0.3911561667919159,0.4343915283679962
67,1.3934962201118302,-0.3563113330312931,-1.5468714515611233,0.9224980473518372,0.34881964325904846,-0.16529467701911926,0.1385013312101364,1.0129648447036743,0.3239004909992218,0.4341762065887451,-0.10336670279502869,-0.17302323877811432
68,1.6223476119500544,-0.2896292489946391,-1.6100280826748559,0.9570768475532532,0.28559693694114685,0.0493822917342186,0.4164821207523346,2.2729604244232178,1.0581715106964111,0.6333162784576416,-0.02006348967552185,-0.6777238845825195
69,1.8080496034794162,-0.15879857420666893,-1.6191982181636664,0.9597576856613159,0.15813201665878296,0.23207655549049377,-0.2912641763687134,0.6390489339828491,0.5525335669517517,-0.7746227979660034,0.43746429681777954,-0.3347986936569214
70,1.8145163389537051,-0.16114330862599968,-1.6382163455056444,0.9578743577003479,0.16044680774211884,0.2381879985332489,-0.29627230763435364,-0.8801271319389343,-0.24746404588222504,-0.6314430832862854,0.36683589220046997,-0.09800554811954498
71,1.7406160598308136,-0.21069679830360533,-1.6350671901727738,0.9638187289237976,0.209141343832016,0.1652671992778778,-0.8269155621528625,-0.2132265418767929,0.12567585706710815,0.24705767631530762,-0.19282972812652588,0.5589759349822998
72,1.6578878977592268,-0.206087149420958,-1.4954668670974025,0.975129246711731,0.20463141798973083,0.0851409062743187,-0.06817703694105148,-0.2865067720413208,0.23042729496955872,0.22178542613983154,-0.32125434279441833,0.09472966194152832
73,1.6268794834160993,-0.23858635434213263,-1.630754581371906,0.9701452851295471,0.23632925748825073,0.054465923458337784,1.4525068998336792,0.462918221950531,-0.34505170583724976,0.5262840986251831,-0.24145624041557312,-0.020393021404743195
74,1.5885346263489721,-0.2528005487908769,-1.7439778977162699,0.968063473701477,0.2501164674758911,0.01717360131442547,1.4174693822860718,0.22065989673137665,-0.3941301703453064,-0.45715343952178955,0.0869196355342865,-0.11290717124938965
75,1.5373908861833732,-0.2608293361262026,-1.8803545145918206,0.9656373262405396,0.25788193941116333,-0.032269544899463654,-0.165191188454628,-0.8917676210403442,-0.06265892088413239,-0.1635744571685791,-0.29399949312210083,0.19863611459732056
76,1.4783647577659038,-0.2210164432898562,-1.7535471748818803,0.9715102910995483,0.21922145783901215,-0.09005483239889145,-1.4908920526504517,-1.1475634574890137,0.1118377298116684,-0.11683499813079834,0.08857882022857666,0.5907414555549622
77,1.488780484095507,-0.21006709995678113,-1.6443412297244606,0.9747293591499329,0.20852552354335785,-0.08012298494577408,-0.4652740955352783,0.058629605919122696,-0.06260316073894501,0.5344258546829224,-0.04012957215309143,-0.2061471939086914
78,1.5440545640589893,-0.24552646583480114,-1.6135286344246924,0.969662606716156,0.24306704103946686,-0.02593667060136795,-0.6078028678894043,1.202536940574646,-1.0742274522781372,0.32971471548080444,0.9226281642913818,-0.058078229427337646
79,1.5770426490496092,-0.31490948048312384,-1.4326025401744693,0.9508058428764343,0.3097304105758667,0.0059391167014837265,-0.01254956517368555,0.5824788808822632,-1.299194097518921,-0.3738252520561218,-0.1570967733860016,-0.4662662744522095
80,1.589422230480251,-0.4329513536362563,-1.409059337595391,0.907573938369751,0.41955167055130005,0.016906339675188065,0.6745996475219727,-0.22229115664958954,-1.3619484901428223,-0.412899374961853,-0.27401337027549744,-0.48602259159088135
81,1.5377489097973251,-0.48683384739041147,-1.4855268488559177,0.8833359479904175,0.46782994270324707,-0.029202604666352272,0.1325240582227707,-0.045715440064668655,0.3681274354457855,0.40647417306900024,-0.14060521125793457,0.45031464099884033
82,1.5907190024165954,-0.38363412765687754,-1.4250137577994686,0.9271263480186462,0.37429291009902954,0.01847328059375286,-0.8602699041366577,0.4005531668663025,0.7381291389465332,0.17825067043304443,0.1180623471736908,0.4340871572494507
83,1.7067948123292345,-0.27372795374824105,-1.4998867095389967,0.9538800120353699,0.2703224718570709,0.13053198158740997,1.8966665267944336,1.1359050273895264,1.0342767238616943,0.17144036293029785,-0.20293965935707092,-0.36853861808776855
84,1.7155771549513612,-0.19069972782604655,-1.678841502585876,0.9715990424156189,0.18954598903656006,0.14166009426116943,0.5881356000900269,-0.15363729000091553,1.396834135055542,0.1512342095375061,-0.20337046682834625,-0.05946101248264313
85,1.666562969719803,-0.2137885310899303,-1.7113340510997923,0.9727562665939331,0.21216370165348053,0.09344344586133957,-0.2358323186635971,-0.12438803166151047,-1.4421887397766113,-0.46401309967041016,0.3386632800102234,0.07916402071714401
86,1.6203360454918658,-0.3768397312655487,-1.6211172841157624,0.9286915063858032,0.36798378825187683,0.046044789254665375,-1.2356410026550293,-1.9115489721298218,-1.6454700231552124,0.18863332271575928,-0.48662084341049194,0.19225168228149414
87,1.5588201849733128,-0.49922254684308914,-1.4218536959006267,0.8778920769691467,0.4787431061267853,-0.010514263063669205,-1.2106847763061523,-1.792497158050537,0.36119696497917175,0.7328714728355408,-0.5496811866760254,0.3036813735961914
88,1.5390766268765501,-0.4765895285369491,-1.2183873499543136,0.8881177306175232,0.4587514102458954,-0.028180278837680817,-1.0780572891235352,-0.22394701838493347,0.7917487621307373,0.5801592469215393,0.23486733436584473,0.04963415861129761
89,1.6158395656950548,-0.44491142085651436,-1.154474480412115,0.9017333984375,0.43037793040275574,0.040644485503435135,-0.6130083799362183,0.43475115299224854,-1.5604920387268066,0.17465221881866455,0.22597891092300415,-0.2687634229660034
90,1.6446375691945239,-0.39164512166205057,-1.0523203143597248,0.9217636585235596,0.381709486246109,0.0681881532073021,-0.04753147438168526,0.2712969183921814,0.8072065114974976,-0.5262405872344971,0.01846751570701599,-0.06654012948274612
91,1.665955903052155,-0.3884560873101487,-1.0696695887709242,0.9213078022003174,0.3787599802017212,0.08793684840202332,-0.028287552297115326,0.5656964778900146,-0.5459427833557129,-0.4651615619659424,-0.3221651017665863,-0.021011829376220703
92,1.658491569759184,-0.6454060617992334,-1.1213562856534764,0.7957858443260193,0.6015228629112244,0.06996608525514603,1.355018973350525,0.20322676002979279,-3.61356258392334,0.0035153627395629883,-0.1512511968612671,0.32682347297668457
93,1.7561928423916602,-1.0802132146071166,-1.1839712479347868,0.46306684613227844,0.8820582628250122,0.08684831112623215,1.6484230756759644,1.5416100025177002,-4.704256534576416,0.48514488339424133,0.013602256774902344,-0.30459117889404297
94,1.685302719457692,-1.233554235773251,-1.210968752609934,0.32871896028518677,0.9436708092689514,0.03780579939484596,0.4320869445800781,-4.638431072235107,0.15830391645431519,-0.5335529446601868,0.3891996741294861,-1.2807409763336182
95,1.0696165430235753,-1.2555216226118087,-1.8239270613922642,0.27194297313690186,0.9507112503051758,-0.14897997677326202,1.9058420658111572,6.259127140045166,-0.6052249670028687,-0.32742395997047424,-0.30103784799575806,0.3238762617111206
96,0.9783380391379652,-1.2782059093702136,-2.2577021966749706,0.2392759770154953,0.9574999213218689,-0.16106188297271729,1.0891766548156738,-7.527998924255371,1.0457172393798828,-0.2837400734424591,-0.021251142024993896,0.7402549982070923
97,0.4710921132666459,-1.3599118578850324,-2.238920815977681,0.09500399231910706,0.9778461456298828,-0.18652351200580597,0.9757370352745056,-2.4189693927764893,-1.4213701486587524,0.40868860483169556,0.08778184652328491,0.18531812727451324
98,1.184593516859195,-1.3554998888117817,-1.6231085220324726,0.19790181517601013,0.9769130945205688,-0.08047143369913101,-1.716281771659851,4.782659530639648,2.928454637527466,0.13548746705055237,-0.020736396312713623,0.3391994833946228
99,2.0859041312251665,-1.1346153636085816,-0.9030261659207423,0.36765992641448975,0.9063717126846313,0.20812638103961945,-2.6710071563720703,-0.19913250207901,1.957629919052124,0.42425599694252014,0.7986759543418884,-0.15285906195640564
100,2.162985852431603,-0.8925605344616035,-0.6752366016777788,0.5205836892127991,0.7786808013916016,0.3502129912376404,-1.7433310747146606,-2.2282233238220215,0.8110076189041138,-0.4695277214050293,-0.2295016646385193,-0.3031853139400482
101,2.176853638813381,-0.871250060002455,-0.5476795384865317,0.529197633266449,0.7651343941688538,0.36676904559135437,0.6241683959960938,1.7370822429656982,-0.3883800506591797,-0.4983595609664917,-0.5164465308189392,-0.2574549615383148
102,2.355368165613338,-1.0186087838349074,-0.6672495326226885,0.37121978402137756,0.8513790965080261,0.37060680985450745,-0.2687291204929352,5.747429847717285,0.8539552688598633,0.7172812223434448,0.3596346974372864,1.2700791358947754
103,1.991988620515332,-0.9284395681477922,-0.7597483093559065,0.5467254519462585,0.8006860613822937,0.24493485689163208,0.7557334899902344,2.2547054290771484,-2.287713050842285,-0.4109375476837158,-0.20841622352600098,-1.0178687572479248
104,2.0346034702990603,-1.0395780379975859,-0.7496221844872865,0.45306655764579773,0.8621905446052551,0.22662363946437836,1.6097710132598877,-2.4307141304016113,0.1596067249774933,0.33611801266670227,0.10671204328536987,-0.2533111572265625
105,1.6993025665242425,-1.137846392066465,-1.1635130296523457,0.41609087586402893,0.9077320694923401,0.05376656353473663,1.1655768156051636,-1.7076034545898438,-0.657287061214447,-0.37223711609840393,-0.1328755021095276,0.22087633609771729
106,1.2843820035976956,-1.2407877445760274,-1.3799001530531836,0.31085023283958435,0.9460395574569702,-0.0915491133928299,0.9030547142028809,-1.7754783630371094,-0.8068649768829346,0.24720942974090576,-0.23668897151947021,0.09611153602600098
107,0.9477747046574253,-1.279318323423215,-1.6138097972551617,0.233377605676651,0.9578201770782471,-0.16767726838588715,-0.5025473833084106,-1.5081766843795776,-0.08302736282348633,0.4281824827194214,-0.16265404224395752,0.36601102352142334
108,1.3487470548215368,-1.3193879666180917,-1.1461513447537068,0.24266088008880615,0.9685630202293396,-0.0547860711812973,-2.785377264022827,-0.10057151317596436,0.8605984449386597,0.38507044315338135,0.43423861265182495,0.2107003927230835
109,1.9818213798664168,-1.1229761405422354,-0.6634850392475803,0.3969380855560303,0.9013931155204773,0.17300564050674438,-1.7446281909942627,1.9896706342697144,1.7225569486618042,0.1810649335384369,0.8324937224388123,0.06370402872562408
110,2.2058749901531067,-0.9263443172220069,-0.5690834786629854,0.48362720012664795,0.7994291186332703,0.3563956320285797,-0.5654643177986145,1.5947741270065308,1.0826168060302734,-0.31582629680633545,-0.08608072996139526,-0.1993521749973297
111,2.3532320675875757,-0.8807848022022732,-0.6102555143557152,0.4514375627040863,0.7712386846542358,0.44877076148986816,0.37160271406173706,0.1973666399717331,0.09036090970039368,-0.3754487931728363,-0.49766385555267334,-0.42267823219299316
112,2.341037685614623,-1.018272762264215,-0.6684581108770971,0.37669795751571655,0.8512027859687805,0.3654485046863556,0.7832709550857544,-0.22065852582454681,-0.7080219984054565,0.19221079349517822,0.08463412523269653,0.6198266744613647
113,2.1633518695910254,-0.9309880972400192,-0.6897525578185474,0.49525585770606995,0.80221027135849,0.3334375321865082,3.376563310623169,-2.505718946456909,-0.2859586477279663,-0.25763067603111267,-0.30538398027420044,-1.0584436655044556
114,2.4024932089359994,-1.139765418973718,-0.5368695772884277,0.2814447283744812,0.9085355401039124,0.30879145860671997,2.074183464050293,0.20639152824878693,-1.8008211851119995,0.2847936749458313,0.20854514837265015,-0.056304216384887695
115,2.4323524454221426,-1.431572081879628,-0.4149467909605391,0.0903777927160263,0.9903239607810974,0.10530984401702881,2.387098550796509,1.53101646900177,-1.3832460641860962,-0.093353271484375,-0.1688823699951172,-0.1703733205795288
116,0.4725412004485627,-1.5130621123261823,-2.3972056500082206,0.026263780891895294,0.9983338713645935,-0.05138004571199417,1.1303901672363281,0.633819580078125,1.8152803182601929,0.1759914755821228,-0.48185425996780396,0.3409308195114136
117,0.9115760584410579,-1.2784212323189426,-1.861674692585698,0.22783532738685608,0.9575620293617249,-0.17653962969779968,0.8988674283027649,-2.326258659362793,0.010605399496853352,0.14582189917564392,0.27673667669296265,0.8256637454032898
118,0.7002661712268283,-1.380990158275495,-1.8117512700466627,0.12158189713954926,0.9820408225059509,-0.1442691534757614,-1.9426941871643066,-0.5700443387031555,0.2154528647661209,0.48641982674598694,-0.0939793586730957,0.4182712435722351
119,2.046982795025759,-1.3977474348400203,-0.4760863413386284,0.1530301421880722,0.9850643873214722,0.0789288654923439,-1.5741878747940063,0.840613842010498,0.9599011540412903,0.4769899845123291,0.35412317514419556,0.019673459231853485
120,2.25693658480754,-1.172614397676094,-0.403658322707122,0.2999958097934723,0.9217674732208252,0.24565689265727997,-0.8957661986351013,2.0373833179473877,1.8580858707427979,-0.1802906095981598,0.1836097240447998,-0.2029017210006714
121,2.4468693333325318,-1.0314251513544945,-0.4628411363349033,0.32879069447517395,0.8580318093299866,0.394560843706131,-0.8176867365837097,2.200848340988159,0.44564974308013916,-0.5213565826416016,-0.6770625710487366,-0.4453573226928711
122,2.517239850945329,-1.0556239219205228,-0.4236858235635021,0.288009911775589,0.8702077865600586,0.3997357487678528,2.134507417678833,-2.06670880317688,-1.6723130941390991,-0.2452090084552765,-0.3184652328491211,-0.18946969509124756
123,2.4601842472352224,-1.0334045798499625,-0.3977178720202138,0.3224375545978546,0.8590467572212219,0.3975834250450134,-0.12897077202796936,-2.8739466667175293,1.2422866821289062,0.5821797251701355,0.9547348618507385,0.15638694167137146
124,2.2777844605029736,-1.1427556810810606,-0.457638677149516,0.31560108065605164,0.9097808003425598,0.2696196138858795,-0.8210809826850891,-2.429591178894043,-1.4892520904541016,-0.3429601192474365,0.7191863656044006,0.0035432279109954834
125,1.9772993811513455,-1.2819612940935776,-0.658175746386277,0.26162418723106384,0.9585763216018677,0.11262397468090057,1.3688875436782837,0.4664710462093353,-1.4056270122528076,0.0019255578517913818,-0.21527498960494995,-0.302199125289917
126,1.2831755787638353,-1.3889552735454223,-1.3330288271146302,0.1734122633934021,0.9835124015808105,-0.05129942297935486,1.0372049808502197,-1.078359603881836,-0.4232238233089447,0.0654640793800354,-0.04863691329956055,-0.056686997413635254
127,0.4812308473648926,-1.3664269446712534,-2.066562355841036,0.09393972903490067,0.9791891574859619,-0.1799004077911377,0.8975098729133606,0.14855316281318665,-0.78522127866745,0.46642404794692993,-0.05623066425323486,0.4230492115020752
128,0.4173720442132568,-1.4169404220064528,-2.081865925362894,0.06212149187922478,0.9881874918937683,-0.14009495079517365,-2.1303579807281494,0.20628663897514343,0.5267556309700012,0.512143075466156,-0.08608776330947876,0.5915719866752625
129,2.0996580287530118,-1.299950585255959,-0.48704223681516723,0.23099486529827118,0.9635449647903442,0.134990856051445,-1.7499958276748657,0.2088271826505661,2.7238972187042236,0.3936083912849426,1.0175036191940308,-0.5728265047073364
130,2.148741768076459,-1.0573242651303478,-0.32870064364215507,0.4114268720149994,0.8710442781448364,0.2683473825454712,0.2500891387462616,-0.44662296772003174,1.0322531461715698,-0.3416025638580322,-0.3096885085105896,-0.3830628991127014
131,2.292354217076985,-1.0167689665765498,-0.40789514688481704,0.3949962258338928,0.8504125475883484,0.34752872586250305,-0.5261226892471313,1.7478744983673096,-0.8465638160705566,-0.5680309534072876,-0.8468879461288452,-0.5185034275054932
132,2.3797250282878832,-1.194393618442515,-0.31444926974260495,0.25372907519340515,0.9299929141998291,0.2659599184989929,-0.590065062046051,3.2258903980255127,-1.7052974700927734,0.02553725242614746,0.13664215803146362,0.6630867719650269
133,2.196886781021785,-1.1469225158968406,-0.3589553492957607,0.3332825005054474,0.911502480506897,0.24101118743419647,1.6707983016967773,-0.9244704842567444,-0.36215993762016296,0.1528472602367401,-0.23498868942260742,-0.456388920545578
134,2.0761384017684623,-1.2142084587186905,-0.5302517041687674,0.30544713139533997,0.9370933771133423,0.16899146139621735,1.1626173257827759,-1.5897905826568604,-1.0118368864059448,-0.36822181940078735,0.3185371160507202,-0.5041354894638062
135,1.4960339863294778,-1.3767865045806533,-1.2145221158119976,0.19225642085075378,0.9812390804290771,-0.014400379732251167,1.6325838565826416,1.3675535917282104,-0.9715418815612793,0.3630719482898712,-0.02396368980407715,0.4602774381637573
136,0.970558764840318,-1.3812555924979137,-1.7119816905809098,0.1554744392633438,0.9820908904075623,-0.10642002522945404,0.23490439355373383,-1.8379178047180176,-0.3592585027217865,0.013669222593307495,-0.058827340602874756,0.41905736923217773
137,1.5423308142784509,-1.3828090538892541,-1.059060858597332,0.18680621683597565,0.9823823571205139,-0.00531897135078907,-2.417936086654663,0.8326959013938904,1.1898220777511597,0.09412331879138947,-0.9287172555923462,0.03609597682952881
138,2.149175748261088,-1.1368590161043532,-0.42670583894236697,0.3520607054233551,0.9073173403739929,0.22984448075294495,-2.64581036567688,-6.62788724899292,0.06563809514045715,-0.4446052610874176,2.1460883617401123,-0.46188485622406006
139,1.960211369760345,-1.0983849666373078,-0.384658015669848,0.42096707224845886,0.8904736042022705,0.17275279760360718,1.3309273719787598,2.4642109870910645,0.8389251232147217,0.2366715371608734,-0.6016094088554382,-0.23960159718990326
140,1.9484636904087667,-1.227774819718374,-0.45796358634548207,0.3126316964626312,0.9417427182197571,0.12402426451444626,-0.5444265604019165,2.3459644317626953,-1.5542417764663696,-0.07599842548370361,-1.4036568403244019,0.8053275346755981
141,2.0025500088549473,-1.2509443320134712,-0.3163906950088643,0.2855722904205322,0.9492819905281067,0.1315760761499405,-1.4396334886550903,-1.5316368341445923,0.5651847720146179,-0.07390236854553223,1.830442190170288,-0.5032343864440918
142,1.2339366112485413,-1.3803201823403366,-1.309054851022654,0.1786854863166809,0.981914222240448,-0.0625770092010498,2.7456068992614746,2.5666654109954834,-1.3006970882415771,0.2633005976676941,0.3381540775299072,1.8162086009979248
143,0.5106067606536475,-1.427466445475765,-1.9684999583873954,0.0698065236210823,0.9897458553314209,-0.12461988627910614,-0.882378339767456,-1.19504714012146,-0.050707072019577026,0.3946405053138733,-0.4400632977485657,0.7069715857505798
144,1.5136385661998215,-1.4139728925731088,-0.899458688411015,0.155926913022995,0.9877283573150635,-0.00892215222120285,-2.5000951290130615,-0.4077215790748596,1.1967750787734985,-0.026105165481567383,-1.3683435916900635,0.18275028467178345
145,2.3521551407184935,-1.1806170237296507,-0.10917187809748914,0.2700355648994446,0.9248408675193787,0.26786279678344727,-1.8660812377929688,-6.626350402832031,-0.21100617945194244,-0.3692786991596222,3.947031259536743,-0.4808144271373749
146,1.873816692991234,-1.0791572202070332,-0.20884884189665295,0.45056357979774475,0.8815602660179138,0.14086812734603882,0.04056693986058235,3.0874664783477783,0.6447628736495972,-0.05818384885787964,-0.6609488129615784,-0.05642594397068024
147,2.18839060329097,-1.3155559379282962,0.10520721337520125,0.2058390974998474,0.9676026105880737,0.14620409905910492,-0.8667894601821899,1.2949497699737549,-2.6502108573913574,0.1686421036720276,-1.3557709455490112,0.2185724973678589
148,2.2250275548766583,-1.3140755008077492,0.016622685661508974,0.20148245990276337,0.9672278165817261,0.15451739728450775,-1.4577624797821045,1.9623793363571167,0.4164009988307953,0.02524787187576294,0.6644099354743958,-0.527625322341919
149,1.5061399923560408,-1.4592055701595648,-0.9090079184758793,0.11112591624259949,0.9937801957130432,-0.007195023354142904,4.091807842254639,2.661146402359009,-0.8552818298339844,-0.036251045763492584,0.5083711743354797,-0.23378700017929077
150,-0.2776226703980385,-1.4474828627275511,-2.7009898992074204,-0.03371116891503334,0.9924065470695496,-0.1182921975851059,-0.2894538938999176,-2.5479183197021484,-0.971961498260498,0.38481590151786804,-0.3897300362586975,0.2850555181503296
151,0.012037536828641325,-1.4652589345324938,-2.3520042220291186,0.0012680285144597292,0.9944360852241516,-0.10533444583415985,-1.5511236190795898,-1.595213770866394,0.9460493326187134,0.36642301082611084,-1.4054467678070068,0.17042839527130127
152,2.569928642126722,-1.340577119225639,0.1241098715110601,0.12345891445875168,0.9736164212226868,0.19190941751003265,-1.8071562051773071,1.6453317403793335,1.9924001693725586,0.044113099575042725,2.3149120807647705,1.3851169347763062
153,1.9445946276910717,-1.2235872260271627,-0.1820117716286317,0.31677794456481934,0.9403260350227356,0.12425277382135391,0.051011573523283005,1.1933109760284424,3.244858503341675,0.5204718112945557,-0.22307133674621582,0.04577590525150299
154,2.157104553722216,-1.2255596474192942,-0.1121627563229471,0.2818993330001831,0.9409953951835632,0.1872437298297882,0.04191029444336891,0.6058691143989563,-1.5002349615097046,-0.3976220488548279,-1.2614758014678955,-0.2058441936969757
155,2.093618853090002,-1.3253785751913976,-0.22955883930551826,0.21050527691841125,0.9700359106063843,0.12131750583648682,3.2779369354248047,-0.6936368942260742,0.39628347754478455,0.23322030901908875,-0.7584422826766968,-0.6138254404067993
156,2.487678038414919,-1.4041738350591166,0.07713150885217225,0.1008874848484993,0.9861505627632141,0.13163819909095764,2.7728681564331055,4.357298374176025,-1.5357837677001953,-0.2904626727104187,1.7235965728759766,-0.6679388284683228
157,-0.35932198107371155,-1.430513334830982,-2.8604054589508103,-0.049167633056640625,0.9901764392852783,-0.13089413940906525,0.7668361067771912,0.8669912219047546,-1.2685519456863403,0.17778396606445312,0.5725219249725342,0.8906750082969666
158,-0.7385651487260778,-1.3099977910176683,3.118167710004754,-0.1735934615135193,0.9661843776702881,-0.19066527485847473,0.2786184847354889,-0.19769036769866943,-0.10043416172266006,0.6699771285057068,-0.946546196937561,0.24332329630851746
159,-1.2599013575367626,-1.489729063235271,2.7495139862920794,-0.07709795236587524,0.9967158436775208,-0.02477269619703293,-2.8831069469451904,0.14082257449626923,2.2462990283966064,0.17801958322525024,-1.1951868534088135,-0.14362329244613647
160,2.357695250252705,-1.3489986235939107,0.18106664358473937,0.1553180068731308,0.9755035638809204,0.15578490495681763,0.5666358470916748,-5.565806865692139,0.281482458114624,-0.08152653276920319,3.6826536655426025,-0.016853585839271545
161,2.006975625825502,-1.2248419057901807,-0.20988840791684626,0.3073461353778839,0.9407522678375244,0.14326061308383942,0.17318597435951233,3.342433214187622,0.33735981583595276,-0.358447790145874,-0.9541037082672119,-0.18989145755767822
162,2.2457582168677654,-1.2799494727425602,-0.14919126910693542,0.22388537228107452,0.9580013751983643,0.17918944358825684,-0.9317250847816467,1.6260396242141724,-0.9366748929023743,-0.27736741304397583,-1.2742855548858643,-0.11606383323669434
163,1.8507132748538302,-1.2846906030695762,-0.4788572179667058,0.2712339162826538,0.9593501687049866,0.07797009497880936,-0.698170006275177,-2.40382981300354,0.365275502204895,-0.2707914412021637,-0.46743738651275635,-0.19743108749389648
164,0.9740597442130842,-1.4439159926896556,-1.507579278217329,0.10467123240232468,0.9919614791870117,-0.0711090937256813,4.299572467803955,0.6622054576873779,-2.1207010746002197,0.14098000526428223,1.0480165481567383,-0.04806208610534668
165,-0.4573915431344304,-1.3642973924002506,-2.763368388692165,-0.09054496139287949,0.9787547588348389,-0.18395812809467316,1.0565049648284912,0.6888137459754944,-1.098389983177185,0.7112725377082825,-0.7835643887519836,0.9767590165138245
166,-0.6167137650785348,-1.3774024076158224,-2.866674880861677,-0.11115513741970062,0.9813576340675354,-0.15678629279136658,-1.9134072065353394,-1.0554742813110352,0.4842824935913086,0.4223276376724243,-1.3710365295410156,0.35580670833587646
167,2.3064590637575213,-1.3486672686561456,-0.01208201195649639,0.16333290934562683,0.9754306077957153,0.1478436440229416,-1.810241937637329,-3.915421962738037,5.072030544281006,0.2666444778442383,3.444338798522949,0.49891531467437744
168,1.9754777417885527,-1.1753432992377817,-0.20962502436949845,0.35411080718040466,0.922822117805481,0.1516736000776291,0.1395779699087143,2.4567739963531494,1.7132333517074585,0.15393060445785522,-0.45581167936325073,-0.04770016670227051
169,2.323944822741174,-1.2074669469409116,-0.07598944122864694,0.2592693269252777,0.9347187876701355,0.24306364357471466,-0.7088125348091125,2.247452974319458,-1.778904676437378,-0.5771404504776001,-1.2758291959762573,0.024392321705818176
170,2.4441184900077797,-1.2536535596183045,-0.135220319220512,0.20029865205287933,0.9501303434371948,0.23902563750743866,2.6122987270355225,-1.5933449268341064,1.2834522724151611,0.011218711733818054,-0.9007527232170105,-0.7757077217102051
171,2.2399439930925005,-1.3722177494457244,-0.07830888782071183,0.15473417937755585,0.9803479909896851,0.1223742812871933,3.3731791973114014,3.4088075160980225,-2.523303508758545,-0.31812530755996704,2.529036283493042,-0.1807849258184433
172,-0.35123554861620526,-1.430955860682807,-2.7645964924661595,-0.04795679822564125,0.9902382493019104,-0.13087598979473114,0.3991541862487793,0.5865414142608643,-1.6986645460128784,0.37310633063316345,-0.0258675217628479,0.8660749197006226
173,-0.6128312201877663,-1.3088822567615792,-2.924512304311727,-0.14893275499343872,0.9658961296081543,-0.21181051433086395,0.3714520037174225,-2.674360990524292,0.5898007750511169,0.6861489415168762,-1.2122035026550293,0.37358415126800537
174,2.791282926327683,-1.5431971043114223,0.39572380543052804,0.009468652307987213,0.99961918592453,0.025914566591382027,-5.732505798339844,2.4408912658691406,4.528898239135742,0.593650221824646,0.34432899951934814,0.02598058618605137
175,1.8736582906322983,-1.1854726129785282,-0.3024499086081142,0.3587530553340912,0.9266768097877502,0.11210130900144577,0.888750433921814,0.07694599777460098,1.684388279914856,0.1201593279838562,0.6041308641433716,0.23514296114444733
176,2.0932740411672546,-1.1617623334217795,-0.3582744419049648,0.34466150403022766,0.9175054430961609,0.19847556948661804,-0.11008624732494354,1.5945143699645996,-1.6193013191223145,-0.5315511226654053,-1.120920181274414,-0.48047325015068054
177,2.6872729559003496,-1.2986023182736461,0.06978754162256738,0.11798295378684998,0.9631833434104919,0.24157336354255676,-0.5522580742835999,0.010371656157076359,1.4302796125411987,0.4212779104709625,-1.1691312789916992,0.6670112609863281
178,2.099863359877501,-1.1918994819989763,-0.43316041939743805,0.3193231225013733,0.9290732741355896,0.1866968721151352,-0.16680726408958435,-2.4460346698760986,0.9454929828643799,-0.7464013695716858,0.20941555500030518,-0.7882745265960693
179,1.1826596580333184,-1.2960739091338056,-1.369629739838125,0.25110119581222534,0.9625005125999451,-0.102669857442379,1.7423040866851807,0.4478108584880829,-2.624168634414673,1.7344028949737549,-0.01802724599838257,5.19808292388916
180,0.28807780698592667,-1.350322456569394,-2.1120143377169684,0.062132593244314194,0.9757938981056213,-0.20968028903007507,0.07653502374887466,0.04285015910863876,-0.7734016180038452,0.739609956741333,-1.269357681274414,0.5326630473136902
181,1.2276433016315704,-1.442868352404777,-1.145204702208412,0.12014135718345642,0.9918283820152283,-0.042925115674734116,-3.2959461212158203,1.960066556930542,1.9269051551818848,0.08479943871498108,-0.8008493781089783,-0.030011892318725586
182,1.956047664456071,-1.0744644696691092,-0.31121120866492963,0.4412993788719177,0.8793352842330933,0.1789533644914627,-1.2834630012512207,-3.99135160446167,0.8842441439628601,0.4837952256202698,3.647153854370117,-0.05225968360900879
183,2.0030485625316956,-0.9796858552703607,-0.4134863947084696,0.5060269832611084,0.8303223252296448,0.23345544934272766,-0.005903853103518486,2.218310832977295,-0.9263920187950134,-0.5719297528266907,-0.680587887763977,-0.2639272212982178
184,2.3534748121132987,-1.219322653749016,-0.13713842866200204,0.24410492181777954,0.938866376876831,0.24278074502944946,0.1505812257528305,2.7720770835876465,-3.0746524333953857,-0.34388217329978943,-1.2124871015548706,-0.22022834420204163
185,2.084880799908601,-1.215823575135187,-0.40693131090077855,0.3026397228240967,0.9376559853553772,0.1709107756614685,-0.16129456460475922,-1.9927908182144165,0.5571614503860474,-0.2674987316131592,-0.2835422158241272,-0.3767976760864258
186,1.9576481480434857,-1.4911192694831679,-0.558218754996133,0.07371053099632263,0.9968274831771851,0.03002816252410412,4.65680456161499,5.726826190948486,-1.2391424179077148,-0.17812642455101013,1.076292634010315,-0.3178699016571045
187,-0.5842537872075723,-1.3971935066188654,-3.072548635443781,-0.09527544677257538,0.9849688410758972,-0.14408054947853088,1.1127928495407104,0.050754498690366745,-1.2599703073501587,0.19772295653820038,-0.28562790155410767,0.6727671027183533
188,-0.7298635174343739,-1.3322375782033082,-3.067415940631313,-0.15755881369113922,0.9716795682907104,-0.17610794305801392,-1.0495338439941406,-1.8331483602523804,0.960132896900177,0.604061484336853,-1.287887454032898,0.2947297692298889
189,2.5174039587310673,-1.4308451387674566,0.14480837126924942,0.0815267339348793,0.9902228116989136,0.11319202929735184,-3.2544124126434326,-2.1193478107452393,5.585547924041748,0.4746256172657013,1.2326014041900635,0.27049028873443604
190,1.925964795267356,-1.2090677893394497,-0.22689039780502487,0.3318038582801819,0.9352865219116211,0.12306497991085052,-0.048478856682777405,1.3819756507873535,2.1397593021392822,0.19660791754722595,-0.12716597318649292,0.09064958244562149
191,2.186967729242495,-1.1880892728509826,-0.1853746405330746,0.3047572374343872,0.9276571273803711,0.21581226587295532,0.10484705865383148,1.2749438285827637,-1.3413209915161133,-0.3953182101249695,-1.2010643482208252,-0.3163220286369324
192,2.314235035145233,-1.2454499868081903,-0.18817120753732122,0.235299214720726,0.9475401043891907,0.216337651014328,2.816056251525879,0.1596408635377884,2.132852077484131,0.4399479627609253,-0.9806517362594604,-0.4432815611362457
193,2.034511391404014,-1.2181424342348437,-0.2906673430641379,0.3089154362678528,0.9384593963623047,0.15448376536369324,3.0170278549194336,1.2885856628417969,-2.7594099044799805,-1.063370943069458,3.108522415161133,-0.7185096740722656
194,0.4633627106911892,-1.4356421023289008,-1.9177342680066525,0.06022472679615021,0.99088054895401,-0.12053529173135757,1.3826218843460083,0.9876078367233276,-1.4018751382827759,0.6518113613128662,0.1487526297569275,1.1941132545471191
195,-0.4512393058947356,-1.36445039146112,-2.734047457310177,-0.08934623003005981,0.9787861108779907,-0.18437699973583221,0.4842419922351837,-3.2618460655212402,-0.37814998626708984,0.7460234761238098,-1.1976125240325928,0.6411488652229309
196,-0.6116074970652827,-1.5213669119221196,-2.9094425267079767,-0.028370466083288193,0.9987786412239075,-0.04045328497886658,-3.1053168773651123,3.8658859729766846,1.5659505128860474,0.3344007432460785,-0.8367760181427002,-0.18543779850006104
197,2.05623546098406,-1.1853309060650112,-0.12120349437693062,0.33255207538604736,0.926623523235321,0.17543581128120422,-0.9000690579414368,-2.4161620140075684,1.733628749847412,0.08546242117881775,2.7481963634490967,0.4597874879837036
198,2.036426057308505,-1.0766250997532028,-0.3135418668789989,0.4238075017929077,0.8803620934486389,0.2129548341035843,0.6894217729568481,0.5189167261123657,-0.7666810750961304,-0.6069282293319702,-0.5430513620376587,-0.33859574794769287
199,2.540244697487564,-1.237179350763189,0.09624908130665474,0.18526367843151093,0.9448640942573547,0.2700174152851105,-0.8405061960220337,2.5326123237609863,-2.435818910598755,-0.10448363423347473,-1.3311707973480225,0.007646799087524414
200,2.1664479613361056,-1.2318941821034581,-0.3358970298771368,0.2751980125904083,0.9431202411651611,0.18652154505252838,-0.2120719999074936,-3.405214309692383,1.0668394565582275,-0.2699032425880432,-0.5340626239776611,-0.4378795623779297
201,2.336126532437498,-1.41137796114894,-0.17924711423612938,0.11447896808385849,0.9873197674751282,0.10997404903173447,3.1927011013031006,5.690427303314209,-2.0669052600860596,-0.004310503602027893,1.351867914199829,-0.5877115726470947
202,-0.5917586417304365,-1.4781433959375267,-3.0611267948379486,-0.05160975828766823,0.9957107901573181,-0.07678815722465515,0.0942486822605133,-0.4611693024635315,-1.2459224462509155,0.08676600456237793,-0.026869237422943115,0.46777939796447754
203,-0.825816473161844,-1.422934957502099,-3.097770221601269,-0.10829749703407288,0.9890884160995483,-0.09987877309322357,-0.6568391919136047,-1.484912633895874,1.0235483646392822,0.532964825630188,-1.3143905401229858,0.28655481338500977
204,2.673035114958411,-1.4372096347746202,0.2684695857200422,0.060148995369672775,0.9910905361175537,0.1188357025384903,-2.5040836334228516,-1.3760217428207397,5.1628522872924805,0.641648530960083,0.9276260137557983,0.2093351036310196
205,1.918146611029734,-1.1764700284799823,-0.31652506597113267,0.3612419366836548,0.9232556223869324,0.1307799220085144,0.030839990824460983,2.716899871826172,1.8444228172302246,0.22234570980072021,0.22812682390213013,0.4601013660430908
206,2.081479700139186,-1.2122035396120592,-0.3050477439405412,0.3061786890029907,0.9363915920257568,0.17153853178024292,0.6747429370880127,0.28360891342163086,-2.015566349029541,-0.4797626733779907,-0.8988854885101318,-0.3874657154083252
207,2.619590277099989,-1.2903479627588774,0.05572406178043866,0.1380101591348648,0.9609314203262329,0.2399243414402008,0.8505330085754395,0.9173079133033752,1.7813770771026611,0.7956293225288391,-1.2004029750823975,0.0466509610414505
208,1.9515094321440694,-1.207818463952957,-0.4863113294884187,0.3296375572681427,0.9348436594009399,0.13193407654762268,-1.7351064682006836,-3.7404706478118896,-1.7129793167114258,-0.8145923614501953,1.832887053489685,-0.6610478162765503
209,0.755358052813135,-1.4445938630247126,-1.8359696714346354,0.08628848940134048,0.9920470118522644,-0.09163493663072586,1.7916173934936523,-4.722841262817383,-2.0755515098571777,0.6111144423484802,0.3638031482696533,1.67873215675354
210,-0.4148973103473368,-1.368732818784544,-2.8451693029798713,-0.08089794963598251,0.9796545505523682,-0.18366441130638123,-0.1121448203921318,-0.5272945165634155,-0.3605639934539795,0.7204853296279907,-0.7317754626274109,0.5644779801368713
211,-0.45329022998336743,-1.490615111140968,-2.740806321138668,-0.035076431930065155,0.9967871904373169,-0.07200785726308823,-2.7737207412719727,-0.15026959776878357,1.079146385192871,-0.020709726959466934,-1.2035589218139648,0.2889573574066162
212,2.094972390522668,-1.2253020198641535,-0.16963380168956796,0.2931918203830719,0.9409081935882568,0.16950012743473053,-1.2624369859695435,-3.8799054622650146,1.4034942388534546,0.2917843163013458,3.8630926609039307,0.01003478467464447
213,1.9785004476863994,-1.080841353726847,-0.31597966522259646,0.4320142865180969,0.8823540210723877,0.186588853597641,-0.11672499775886536,2.792534351348877,0.12051636725664139,-0.27759528160095215,-0.19955366849899292,0.09830810129642487
214,2.323186054526786,-1.2103018792963638,-0.10157394543742058,0.2575182318687439,0.9357225298881531,0.24105511605739594,0.2531611919403076,1.288400411605835,-2.013322353363037,-0.3102831542491913,-1.3259966373443604,-0.09145787358283997
215,2.152090051651588,-1.2706820300523436,-0.37584517326282635,0.24707306921482086,0.9553027153015137,0.1623317152261734,1.5554558038711548,-1.0450291633605957,0.7708213925361633,-0.04309360682964325,-0.7449756264686584,-0.4223719835281372
216,2.201156991013211,-1.3666641339025474,-0.17042891697546164,0.16375850141048431,0.9792372584342957,0.11948921531438828,2.5370147228240967,3.4345340728759766,-1.912922739982605,-0.45196646451950073,1.7607377767562866,-0.542752742767334
217,-0.34747737583331545,-1.4304850274245071,-2.8236174313917193,-0.047623105347156525,0.9901725053787231,-0.13149292767047882,0.5402202010154724,1.7246804237365723,-1.5179438591003418,0.19787639379501343,0.2876442074775696,0.9538043737411499
218,-0.7532042721276726,-1.3058459271966636,-3.0939110838745436,-0.17910796403884888,0.9651054739952087,-0.19102820754051208,0.8443191647529602,-2.8318023681640625,-0.020614199340343475,0.8320773243904114,-0.9445976614952087,0.4864994287490845
219,-1.3180007170388077,-1.4893159520766666,2.633686761048131,-0.07880520820617676,0.9966822862625122,-0.02035711519420147,-3.121454954147339,2.5621657371520996,2.4885764122009277,0.28400540351867676,-0.6525506973266602,-0.2200298309326172
220,2.0541003452278352,-1.2795813690787121,-0.146719664018624,0.2542317509651184,0.9578957557678223,0.1334252953529358,0.15325036644935608,-1.5657360553741455,1.4893079996109009,0.04954022169113159,1.6461082696914673,0.3472113609313965
221,2.0717298097773726,-1.1702482616743162,-0.2967868984343482,0.34201493859291077,0.9208474159240723,0.18725837767124176,0.15204645693302155,1.8335570096969604,-1.0645641088485718,-0.5070998668670654,-0.6960092186927795,-0.35043585300445557
222,2.3847024066788625,-1.3053948458946818,-0.0700065050950825,0.18011023104190826,0.9649872779846191,0.19068366289138794,-0.5062311291694641,2.4487850666046143,-0.9086974263191223,-0.15713049471378326,-1.2464812994003296,-0.24010679125785828
223,2.094377242584682,-1.2067495336639273,-0.23755679938999874,0.3083593249320984,0.9344635605812073,0.17802399396896362,-0.9615558385848999,-5.454553127288818,-0.8052952885627747,-0.405405193567276,0.8732757568359375,-0.4728696346282959
224,0.8674670540703533,-1.5195637172023937,-1.6504520955072135,0.03905916586518288,0.9986879229545593,-0.03312200307846069,5.411301136016846,-0.14886704087257385,-2.6266329288482666,0.2569613456726074,0.6578673124313354,-0.2778978943824768
225,-0.7028895938764035,-1.336178310844488,-3.13186116401267,-0.15027548372745514,0.9726032018661499,-0.1773706078529358,0.8356041312217712,-0.2960769832134247,-1.4844849109649658,0.26590660214424133,-0.5833667516708374,0.18026971817016602
226,-0.8282570002293076,-1.3853711745810653,-3.0777391585198535,-0.13583144545555115,0.9828579425811768,-0.12466023117303848,-2.079007625579834,0.434811532497406,1.4481828212738037,0.42713698744773865,-1.3229916095733643,0.2858998775482178
227,2.106326869966491,-1.363088875938498,-0.20084008642585865,0.17734642326831818,0.9785062670707703,0.1052321195602417,-1.4413809776306152,-2.809170722961426,4.816072940826416,0.46982458233833313,3.5080204010009766,0.0792618989944458
228,1.9126967536711246,-1.1733646568974032,-0.36024999379613615,0.36464840173721313,0.92205810546875,0.12976981699466705,-0.8268279433250427,3.132631301879883,0.988366961479187,-0.09026488661766052,-0.20390325784683228,0.19693611562252045
229,2.188760835752003,-1.234908462015326,-0.18062357769842532,0.2686498463153839,0.9441180229187012,0.19096721708774567,0.3531564176082611,2.2929773330688477,-1.5846728086471558,-0.4421880841255188,-1.3092608451843262,0.005703330039978027
230,2.274999248303028,-1.2864570443999055,-0.28543367655801233,0.2137944996356964,0.9598472118377686,0.1816181242465973,3.2727444171905518,-1.2959835529327393,1.6998525857925415,0.2192804366350174,-1.0596396923065186,-0.648643970489502
231,2.059069333634444,-1.2936458998686327,-0.29306760918152525,0.24164241552352905,0.9618390202522278,0.12835365533828735,2.268040418624878,1.4065992832183838,-3.573608636856079,-0.927921712398529,3.2185046672821045,-0.7598844766616821
232,-0.044433309948089084,-1.385702360479571,-2.4562631739380074,-0.008174777030944824,0.9829189777374268,-0.1838574856519699,0.8347262740135193,-0.24296419322490692,-1.3402700424194336,0.2905539274215698,0.46561312675476074,0.9888195991516113
233,-0.44527244962689017,-1.3011955013492462,-2.7537871026603034,-0.11471652239561081,0.9638773202896118,-0.24037611484527588,-0.05665058642625809,-1.2404383420944214,0.32812872529029846,0.6038064956665039,-1.0622202157974243,0.4236036539077759
234,-0.5903998598725513,-1.5417575947775706,-2.8581265308458166,-0.016161317005753517,0.9995784163475037,-0.024116510525345802,-3.6336429119110107,2.3759078979492188,1.91377592086792,0.23337015509605408,-0.6056576371192932,-0.15564727783203125
235,1.969903199017121,-1.1788474560407833,-0.09647591744274416,0.35196933150291443,0.9241663813591003,0.14843983948230743,0.382185697555542,-1.5972973108291626,2.0679659843444824,0.30995696783065796,1.639859676361084,0.907742977142334
236,1.9703248128123636,-1.0663701352985535,-0.3155051652764476,0.44524237513542175,0.875451922416687,0.18799804151058197,-0.05923569202423096,1.246029257774353,-0.8406440615653992,-0.5918335914611816,-0.8581026792526245,-0.45032715797424316
237,2.3332011176320986,-1.2292419537380836,-0.16317854406485685,0.24222949147224426,0.9422351717948914,0.23133864998817444,1.1390656232833862,2.6981492042541504,-2.1162495613098145,-0.30714040994644165,-1.0948841571807861,-0.38273635506629944
238,2.1288474569888454,-1.1859674626656307,-0.2464692160299109,0.31844785809516907,0.9268627166748047,0.19878722727298737,-0.5240057706832886,-2.9242641925811768,1.1816608905792236,-0.28733524680137634,-0.694181501865387,-0.28959226608276367
239,2.0664344444228404,-1.4395548352739298,-0.2974010409877003,0.115118108689785,0.9914001822471619,0.06223886460065842,6.4331841468811035,6.847001075744629,-1.8052983283996582,0.4687747359275818,1.29660964012146,-0.35574162006378174
240,-0.3909517175830965,-1.4294515556445926,-2.6590491918829198,-0.053682900965213776,0.9900274276733398,-0.13024523854255676,0.7906156778335571,-0.9900645017623901,-1.2604517936706543,0.3166376054286957,-0.34711360931396484,0.2905235290527344
241,-0.6196522263806291,-1.4518248027307736,-2.733076607395016,-0.06893031299114227,0.9929312467575073,-0.09662439674139023,-2.269014358520508,0.8936214447021484,1.297980546951294,0.5718141794204712,-1.5307120084762573,0.47846031188964844
242,2.2454032336382133,-1.2576597786770727,-0.029864064741265368,0.24056825041770935,0.9513720273971558,0.192401722073555,-1.5293132066726685,-3.633775472640991,4.504332542419434,0.08009523153305054,3.8536970615386963,0.10737243294715881
243,1.9631711622500532,-1.0914096119957524,-0.2269014391039934,0.42618295550346375,0.8872779607772827,0.17636889219284058,0.14979474246501923,4.14962911605835,1.5152643918991089,0.07200124859809875,-0.4116309881210327,0.19557929039001465
244,2.062026696708873,-1.227666805224389,-0.22370801914132551,0.29665330052375793,0.9417064189910889,0.15870049595832825,-0.13836799561977386,-1.098183274269104,-2.5525269508361816,-0.4054790437221527,-1.1125285625457764,-0.14795829355716705
245,2.5398683602626773,-1.264242700698526,0.09450182017999186,0.17082424461841583,0.9533792734146118,0.2487715631723404,1.1703999042510986,-0.5379927158355713,1.8628990650177002,0.34138280153274536,-0.9622445106506348,-0.9190901517868042
246,2.4152026929825183,-1.2894312619994983,0.14938552230535898,0.18442007899284363,0.9606773257255554,0.20757807791233063,2.8319358825683594,3.042550802230835,-2.4716713428497314,-0.8290733695030212,2.8286447525024414,-0.6828893423080444
247,-0.5682308863283059,-1.482734178692784,-2.9479234802639365,-0.04732899367809296,0.9961250424385071,-0.07412813603878021,0.7832221984863281,0.7459294199943542,-1.3907865285873413,0.43510061502456665,0.2724906802177429,0.9431314468383789
248,-0.8967411257599432,-1.3722559719775453,3.0790572670067036,-0.15410196781158447,0.9803555011749268,-0.12310835719108582,0.6198421120643616,-1.6103743314743042,0.06182733178138733,0.713534951210022,-0.9500973224639893,0.3029636740684509
249,-1.3119832217631793,-1.5159322681133627,2.7461275476528884,-0.05301184207201004,0.99849534034729,-0.014034940861165524,-2.4500486850738525,2.3292579650878906,1.8157176971435547,0.24257177114486694,-1.01332688331604,-0.15104985237121582
250,2.0171877469894115,-1.30937963972269,-0.11456174984204538,0.23312470316886902,0.9660248160362244,0.11157631874084473,0.4358727037906647,-2.390744924545288,0.8641505241394043,0.08212190866470337,2.8535096645355225,0.5287435054779053
251,1.9631854075282809,-1.2027425687578213,-0.30371706249209074,0.3324543833732605,0.9330293536186218,0.13758638501167297,0.437250018119812,0.8341772556304932,-0.5024625062942505,-0.5048940181732178,-0.7825626134872437,-0.459546834230423
252,2.4035536650061977,-1.2805040143510773,-0.013118872844619833,0.19258815050125122,0.9581602215766907,0.21175168454647064,-0.8599479794502258,3.6024885177612305,-1.211402416229248,-0.15453273057937622,-1.1925963163375854,-0.02489246428012848
253,2.2716901535918494,-1.2362515675627896,-0.07814489087166784,0.2509384751319885,0.9445598721504211,0.21174626052379608,-1.6667215824127197,-4.390223026275635,0.8895300626754761,-0.2075425088405609,-0.7005108594894409,-0.4371337890625
254,2.2205518346800663,-1.4905648233528361,-0.3081304083981564,0.06381424516439438,0.9967831969261169,0.04848725348711014,6.601198196411133,4.747805595397949,-2.061370372772217,0.2614573538303375,1.0608949661254883,-0.32578516006469727
255,-0.6392239302562719,-1.4234549637895333,-3.1047901048143474,-0.08758221566677094,0.9891648888587952,-0.11782283335924149,0.7832643985748291,-1.2942196130752563,-1.0377271175384521,0.34066450595855713,-0.26472336053848267,0.28074097633361816
256,-0.5750892656678969,-1.4199767298134671,-2.8516529342501937,-0.0817214772105217,0.9886482954025269,-0.12607987225055695,-1.578922152519226,0.22698284685611725,1.3882848024368286,0.3644058108329773,-1.2471321821212769,0.27380019426345825
257,2.3230116206903855,-1.3287710965829362,-0.10701393382580955,0.1750013381242752,0.9708545804023743,0.16375625133514404,-1.881150484085083,-5.235928058624268,4.060965061187744,0.2222917526960373,3.637559175491333,0.518677830696106
258,1.9788929030016802,-1.1679725517664807,-0.26574771714294426,0.35982435941696167,0.91995769739151,0.15557728707790375,0.12184973061084747,1.9437936544418335,1.9780969619750977,0.060448527336120605,-0.3852439522743225,-0.03578054904937744
259,2.1486599712875023,-1.2443770088251456,-0.17499517746295093,0.2685892879962921,0.9471965432167053,0.1751522570848465,-0.47735562920570374,-0.1002858579158783,-2.2406110763549805,-0.3071025013923645,-1.0820691585540771,-0.15195895731449127
260,2.2750023015791134,-1.3006821815920917,-0.12685458433489044,0.20336706936359406,0.9637404680252075,0.17276111245155334,1.7927981615066528,-0.25456684827804565,1.1168537139892578,0.26663416624069214,-0.8054609298706055,-0.663087010383606
261,2.4238618767842226,-1.3425544808480079,0.061475787602892476,0.148809552192688,0.9740657210350037,0.1704457700252533,1.6102666854858398,4.5976386070251465,-1.5936332941055298,-0.5430508852005005,2.195444107055664,-0.5481160879135132
262,-0.4409746807774229,-1.4719652073384146,-2.8657006915622034,-0.042114824056625366,0.9951201677322388,-0.08923165500164032,0.8347551226615906,0.6199512481689453,-0.9223019480705261,0.19775444269180298,0.24049079418182373,1.6635572910308838
263,-0.8568995923204996,-1.384051638100551,3.0602241777188146,-0.14032527804374695,0.9826138019561768,-0.12156758457422256,0.1432364284992218,-1.7175408601760864,0.31947043538093567,0.6727349758148193,-0.9802183508872986,0.30508509278297424
264,2.7789241635763173,-1.5442730935143087,0.5526549908165664,0.00940889772027731,0.9996482729911804,0.024795984849333763,-2.4067702293395996,1.325780987739563,2.2624998092651367,0.07501798868179321,-0.9194785952568054,-0.1926274299621582
265,1.852248509520363,-1.2981628261617286,-0.22258270095100874,0.25867366790771484,0.9630651473999023,0.0747896060347557,0.756025493144989,-3.621185779571533,0.6571531891822815,0.5398034453392029,2.4878625869750977,0.7038053274154663
266,2.060069878224598,-1.2063881381131276,-0.1725098287486412,0.3145821988582611,0.9343348145484924,0.16750098764896393,-0.4178384244441986,-0.005952311214059591,-1.1632256507873535,-0.5667489767074585,-0.6601801514625549,-0.5154471397399902
267,2.4190483522825295,-1.3101787459352623,0.09221032410655919,0.1704012155532837,0.9662310481071472,0.1932908147573471,-0.08595598489046097,1.4426368474960327,-0.7212443351745605,-0.015661820769309998,-1.2371506690979004,-0.4098740518093109
268,2.003045760888706,-1.2399603439277447,-0.16764070237881748,0.29495733976364136,0.9457710981369019,0.13607750833034515,-0.3705323040485382,-4.186631679534912,-0.40110427141189575,-0.32054632902145386,0.7010641694068909,-0.26365625858306885
269,1.4924749179246624,-1.506620096782768,-0.8645252216516741,0.06393659859895706,0.9979414343833923,-0.005017868708819151,3.2263522148132324,-3.3469226360321045,-1.8898828029632568,0.26189959049224854,0.32493454217910767,-0.005998969078063965
270,-0.6369613719041409,-1.4154970462604841,-2.901289216585558,-0.09199464321136475,0.9879652857780457,-0.12434542179107666,1.1175092458724976,-0.053662676364183426,-0.9752438068389893,0.41067445278167725,-0.5145612955093384,0.49560701847076416
271,-0.7027690784727817,-1.448630812183057,-2.861552130227207,-0.07876365631818771,0.9925470948219299,-0.09298769384622574,-2.1394832134246826,-0.2611370086669922,1.1690223217010498,0.2021004557609558,-1.3096094131469727,0.056824326515197754
272,2.401795173684032,-1.3135805084389114,0.17855247180826153,0.17149363458156586,0.9671019911766052,0.18789328634738922,-1.3308584690093994,-3.984299659729004,4.426838397979736,0.30288687348365784,3.5832366943359375,0.21133768558502197
273,1.9923623367942267,-1.158791717436407,-0.13293101718417213,0.36538758873939514,0.9163199067115784,0.16385886073112488,0.2331439107656479,3.2592358589172363,1.9697675704956055,0.00842219591140747,-0.37953096628189087,0.045842647552490234
274,2.1681569099617493,-1.215469343961685,-0.15893290633636234,0.2876494526863098,0.9375327825546265,0.19567900896072388,0.5124458074569702,2.996516227722168,-1.558221459388733,-0.4344390332698822,-1.2453025579452515,0.1645658016204834
275,2.529790819156733,-1.2249517382702675,0.022194361108221452,0.1946975290775299,0.9407894611358643,0.2775033414363861,2.1290431022644043,-1.6971665620803833,1.107751727104187,0.4261367917060852,-1.2036983966827393,-0.650290846824646
276,2.4140564074356856,-1.2480393293199983,0.08965799522131424,0.2109365016222,0.9483645558357239,0.23687678575515747,1.4107033014297485,0.8654989004135132,-1.9909144639968872,-0.9611501097679138,3.028228521347046,-0.7586205005645752
277,0.01885623550651042,-1.5076038370214944,-2.3930995260756514,0.0011907134903594851,0.9980040192604065,-0.06313945353031158,1.3425899744033813,-0.05952000245451927,-1.4897630214691162,0.550628125667572,0.018658578395843506,1.0645737648010254
278,-0.6966923248409422,-1.3887427760427058,-3.070487120276534,-0.11617685854434967,0.9834739565849304,-0.1388596147298813,0.5243726372718811,-2.693361282348633,-0.2907789349555969,0.6877100467681885,-0.7910606265068054,0.5308579206466675
279,-1.3415754724988678,-1.5393365004769541,2.6656833711948806,-0.030632667243480682,0.9995051622390747,-0.007147264201194048,-2.862393379211426,0.6528788208961487,1.674974799156189,0.09032505750656128,-1.1786433458328247,0.14192813634872437
280,2.021265926354966,-1.2572887575157532,-0.14820736353410724,0.277632474899292,0.9512577056884766,0.13427260518074036,-0.22219902276992798,-3.465665817260742,0.9027987718582153,-0.0747058093547821,3.721151351928711,-0.04729747772216797
281,1.9902437721768418,-1.1601044434807501,-0.24262046103519727,0.3646349012851715,0.9168447852134705,0.16259433329105377,-0.18457117676734924,0.5078248381614685,-0.6535800099372864,-0.5906633138656616,-0.41151952743530273,-0.10464145243167877
282,2.301954647323984,-1.321093415425581,0.08583019149695774,0.18395404517650604,0.9689858555793762,0.1650078296661377,-1.2623023986816406,0.6290539503097534,-1.2367626428604126,-0.029153630137443542,-1.3416359424591064,0.155045285820961
283,1.9835421397471562,-1.2580912203522823,-0.15802307438905214,0.2817997336387634,0.9515048861503601,0.12339998781681061,-1.9062855243682861,-4.18803596496582,0.1706695407629013,-0.05795329809188843,-0.4045535922050476,-0.17746186256408691
284,1.9396953769085017,-1.479993010378166,-0.3271643581570095,0.08457940816879272,0.9958801865577698,0.03269815817475319,2.7260351181030273,4.138256072998047,-1.692927598953247,-0.2542876601219177,0.692352294921875,-0.4314103126525879
285,-0.6502465016448823,-1.4000056365592175,-2.883834380765709,-0.10289161652326584,0.9854506850242615,-0.13527807593345642,-0.3017731010913849,-0.8033011555671692,-1.1303904056549072,0.25177159905433655,-0.04589080810546875,0.6585019826889038
286,-0.8984577434813796,-1.4348248412926248,-2.9048074939664565,-0.10605238378047943,0.9907701015472412,-0.08442487567663193,-0.7521823048591614,-5.358773708343506,1.7939752340316772,0.6059761047363281,-1.3614976406097412,0.13531291484832764
287,2.3013815950248833,-1.409636453855132,0.283740423965948,0.11951080709695816,0.9870418310165405,0.10707834362983704,-0.17260628938674927,-3.507578134536743,4.278825283050537,0.26307278871536255,1.8207889795303345,0.5142138004302979
288,1.9768319857842278,-1.2701003978038963,0.02939297647989802,0.27210357785224915,0.9551305770874023,0.11698441952466965,-0.8156233429908752,2.7079885005950928,1.151402235031128,-0.03443270921707153,-0.10460567474365234,0.14453589916229248
289,2.227337507270527,-1.3062809252148493,0.15803002135570007,0.20709006488323212,0.9652193188667297,0.15957894921302795,0.32579371333122253,1.132995367050171,-1.0026845932006836,-0.27575457096099854,-1.2170045375823975,-0.11107121407985687
290,2.363641740354144,-1.2821671708176796,0.1210455791531098,0.19976545870304108,0.9586349725723267,0.20276324450969696,1.078284740447998,-0.8701093792915344,1.7956440448760986,0.4328181743621826,-0.9645400047302246,-0.6665084362030029
291,2.21141590537013,-1.2970196231068996,0.21433223604431326,0.21676193177700043,0.9627566337585449,0.1615976095199585,1.8174405097961426,2.4670677185058594,-3.356924533843994,-0.7126115560531616,3.353954792022705,-0.3153146505355835
292,-0.13370375337274884,-1.50011053142469,-2.2316167370293196,-0.009414986707270145,0.9975028038024902,-0.0699966624379158,1.229468822479248,-0.5789690613746643,-1.4299535751342773,0.34028658270835876,0.10697412490844727,0.9159744381904602
293,-0.7834434076004355,-1.4105831740051358,-2.8400507812021303,-0.11258319020271301,0.9871932864189148,-0.11302419751882553,0.5936613082885742,-1.879679560661316,0.06828583031892776,0.6159248352050781,-0.8642989993095398,0.2736077308654785
294,2.8099243044723448,-1.5473941993072755,0.8844119146661981,0.007620846852660179,0.9997261762619019,0.02212853543460369,-2.8963494300842285,1.5544154644012451,1.9880118370056152,0.11846250295639038,-0.8202980756759644,-0.22803068161010742
295,2.0887067852487466,-1.249147221704438,0.26727504613736336,0.2746722400188446,0.9487153887748718,0.15650564432144165,0.8973233103752136,-4.708219528198242,0.8149967789649963,0.1963818371295929,1.6338040828704834,0.22058473527431488
296,1.9814900625180563,-1.1554410146658032,0.01881173365253976,0.3699605464935303,0.9149730205535889,0.16110162436962128,0.7361305952072144,1.5695202350616455,-1.257678508758545,-0.6229817867279053,-0.6183879375457764,-0.3558952808380127
297,2.342861222998027,-1.2879379280540622,0.34441512614915315,0.19996866583824158,0.9602615833282471,0.1947060525417328,-1.287355661392212,0.9613039493560791,-0.11762595921754837,0.2746865153312683,-1.3705092668533325,-0.03538903594017029
298,2.0717421715472772,-1.209589611438328,0.09623714703980146,0.309980183839798,0.9354710578918457,0.16972383856773376,-2.322861671447754,-2.5325629711151123,-0.06316196173429489,-0.3936746418476105,1.0066218376159668,-0.2914583683013916
299,1.957291817204849,-1.448763105229473,-0.25988599417602004,0.1127503514289856,0.9925631880760193,0.0458853505551815,4.387763023376465,3.3571219444274902,-1.9775991439819336,-0.05987866222858429,0.24078935384750366,-0.3817923069000244
300,-0.45595888879981683,-1.434794755055696,-2.568790091947893,-0.05970022454857826,0.9907660484313965,-0.12173143029212952,0.5839768052101135,-1.172419786453247,-1.0730429887771606,0.38329336047172546,-0.16691350936889648,0.41259443759918213
301,-0.6312873380042415,-1.4437842997538113,-2.507426891904162,-0.07475966215133667,0.9919447898864746,-0.10225804895162582,-1.3667486906051636,-2.769754648208618,1.8814213275909424,0.5489570498466492,-1.4604047536849976,0.5405972599983215
302,2.2204093391176305,-1.3324730062243835,0.28899029260168024,0.18798956274986267,0.9717351794242859,0.14279572665691376,-1.3825151920318604,-1.926903247833252,3.375044345855713,0.07369865477085114,3.3120477199554443,0.3504294157028198
303,1.878413995774956,-1.1824961145953718,0.09914577610490508,0.36084288358688354,0.9255539774894714,0.11464076489210129,-0.4477839171886444,2.7817625999450684,1.5860482454299927,-0.09988704323768616,-0.41565096378326416,0.10748147964477539
304,2.1938462262161793,-1.2264931223399598,0.20916496105147647,0.2741181254386902,0.9413108825683594,0.19696030020713806,0.9124363660812378,2.8453452587127686,-1.2151960134506226,-0.3820130228996277,-1.3847922086715698,0.22889724373817444
305,2.250119264874453,-1.23916019408301,0.16985874009180263,0.2533086836338043,0.9455109238624573,0.20455744862556458,1.528569221496582,-2.1902172565460205,0.8028746843338013,0.0316033661365509,-0.6513367891311646,-0.6140880584716797
306,2.3255044531342364,-1.337405283706285,0.42093950329543706,0.1684793084859848,0.9728876948356628,0.1584428995847702,2.8326478004455566,4.818055629730225,-2.328756093978882,-0.786612868309021,2.7196476459503174,-0.21345078945159912
307,-0.2976070430265455,-1.4753640808241633,-2.242760415720172,-0.027941454201936722,0.9954497814178467,-0.09109871089458466,0.7532387971878052,0.572488009929657,-1.4983495473861694,0.4246852397918701,0.31430357694625854,1.062290072441101
308,-0.7842559385023844,-1.3975400097041109,-2.6878070566976775,-0.12175940722227097,0.9850286245346069,-0.12203788012266159,0.427838534116745,-0.9846509695053101,0.278208464384079,0.6477603912353516,-0.8793005347251892,0.2068462371826172
309,1.6901896531294642,-1.5513562330616546,-0.16014572408431865,0.019306430593132973,0.999811053276062,0.0023160744458436966,-3.0618865489959717,3.039917469024658,2.279428482055664,0.16543173789978027,-0.729440450668335,-0.12586641311645508
310,2.0282375490423217,-1.2609718719528955,0.2993853866224144,0.2735441327095032,0.9523870944976807,0.13465644419193268,0.2238772064447403,-2.7694954872131348,1.239803671836853,0.06317150592803955,1.5820519924163818,0.335909366607666
311,2.0436792338775063,-1.1829417257062165,0.21789590509389536,0.3366992473602295,0.925722599029541,0.17225466668605804,0.1673601269721985,0.7911703586578369,-1.4251468181610107,-0.5744158625602722,-0.6621725559234619,-0.38815122842788696
312,2.482286675204071,-1.2985646266091164,0.5743421189771383,0.16470836102962494,0.9631732106208801,0.21252870559692383,-0.6018515825271606,1.521002173423767,-0.030125843361020088,0.08898428082466125,-1.2110675573349,-0.21136903762817383
313,1.8617963361921022,-1.2247268149517474,0.08282091208845137,0.3249419927597046,0.9407132267951965,0.09732083231210709,-1.816434383392334,-3.760972023010254,-1.1772798299789429,-0.3544219434261322,0.39514797925949097,-0.2818148136138916
314,1.228664172547812,-1.4836206442906699,-0.7847092429504354,0.08202019333839417,0.9962025880813599,-0.02921047806739807,3.7322816848754883,-2.5222601890563965,-1.6923177242279053,0.0015522018074989319,0.5101146697998047,-0.2738901376724243
315,-0.5283348054228102,-1.4432857021991414,-2.358577244351246,-0.0641038790345192,0.9918815493583679,-0.10982665419578552,0.18207970261573792,-0.4521843194961548,-0.5839138627052307,0.4940049946308136,-0.5531454682350159,0.23549799621105194
316,0.11332400339621344,-1.5208707165696047,-1.492764895887394,0.005643330980092287,0.9987539649009705,-0.04958483949303627,-2.246368408203125,-0.686841607093811,1.9195877313613892,0.2766900658607483,-1.3748526573181152,0.39420461654663086
317,2.194453933952921,-1.2547638578551363,0.5303518301203625,0.2522895932197571,0.9504759907722473,0.18150855600833893,-0.7202787399291992,-5.0720038414001465,0.690955400466919,-0.4499061703681946,4.044961452484131,-0.5132498741149902
318,1.898482858524922,-1.116596329963336,0.34606548621607514,0.4153977632522583,0.8986123204231262,0.1412111520767212,-0.5115057229995728,3.1522858142852783,0.39769265055656433,-0.2878342866897583,-0.3021004796028137,0.06533181667327881
319,2.0982487537739654,-1.2428578205222085,0.4485414022383075,0.2783174514770508,0.9467083215713501,0.16211991012096405,0.5708283185958862,-0.18187151849269867,-1.3976742029190063,-0.29920676350593567,-1.311484932899475,0.25810718536376953
320,1.8961345236205422,-1.2617016691446212,0.19591623561973676,0.28823885321617126,0.9526093602180481,0.09722999483346939,0.43550512194633484,-1.940731406211853,1.1036683320999146,-0.13285860419273376,-0.5919222235679626,-0.4109964370727539
321,2.1926379209820883,-1.4010101002980875,0.4286980011128279,0.13734079897403717,0.98562091588974,0.09843116998672485,1.6566661596298218,4.19058895111084,-1.2911144495010376,-0.2515528202056885,1.5357565879821777,-0.6658903360366821
322,-0.1699471934718411,-1.4456081301657158,-1.895803197777116,-0.02111770398914814,0.9921742081642151,-0.12306178361177444,-0.1850951611995697,1.3341288566589355,-1.1359834671020508,0.08550983667373657,0.13943278789520264,0.8381801843643188
323,-0.6805299967680247,-1.4056628377083242,-2.261644254615443,-0.10343117266893387,0.9863964319229126,-0.12776562571525574,0.07112441211938858,-3.609877347946167,0.9239720106124878,0.597770094871521,-1.14568293094635,0.26193612813949585
324,2.4741275013908304,-1.451607137233777,0.8747256613242158,0.07360345870256424,0.9929053783416748,0.09338922053575516,-3.789804458618164,4.340965747833252,3.5475893020629883,0.25546756386756897,0.038970232009887695,-0.23640990257263184
325,2.0034019238150975,-1.213521410418576,0.5701955019911643,0.31750473380088806,0.9368533492088318,0.1466168314218521,0.2127915471792221,0.704108476638794,1.9110918045043945,0.04209911823272705,0.5799160003662109,0.4724932909011841
326,2.1647506611163236,-1.1483664914244038,0.6002995682991296,0.33976271748542786,0.9120954275131226,0.2294410616159439,-0.14163601398468018,1.0474201440811157,-1.3132212162017822,-0.44022658467292786,-0.9338850378990173,-0.2458137422800064
327,2.3399274378803416,-1.2580207810997017,0.7359068121289983,0.22108760476112366,0.9514831900596619,0.21400922536849976,-0.22275066375732422,-0.1079292967915535,0.5921531319618225,0.39608460664749146,-1.1910004615783691,-0.01622486114501953
328,2.088433106075636,-1.2828790548784792,0.639841873522623,0.2467554658651352,0.9588373303413391,0.1405095010995865,-0.5117855668067932,0.78545081615448,-3.6084539890289307,-0.6953333616256714,2.1204779148101807,-0.2978886365890503
329,0.668470451253939,-1.5453348260713309,-1.107910357544117,0.01578078791499138,0.9996758699417114,-0.019981559365987778,3.143439292907715,-4.215888500213623,-1.7163735628128052,0.16964399814605713,0.0023382902145385742,0.15215319395065308
330,-0.7855357175193768,-1.4480652989099119,-2.3866135002493203,-0.08657833188772202,0.9924780130386353,-0.08655451983213425,-0.4133119583129883,-0.4092116057872772,-0.3727307915687561,0.1930846869945526,-0.6483923196792603,0.39307308197021484
331,-1.529378785868517,-1.5609391005527227,-3.0312264310315307,-0.009848128072917461,0.9999514222145081,-0.0004081186489202082,-1.8526744842529297,-0.7430379390716553,2.2727949619293213,0.33554694056510925,-1.1768617630004883,-0.12428665161132812
332,2.1618510537702385,-1.2491073289110615,0.7954800334476196,0.26253244280815125,0.9487027525901794,0.17618140578269958,-0.4407074451446533,-4.009176254272461,0.43684136867523193,-0.30103039741516113,3.4425783157348633,-0.05563688278198242
333,2.0753677329138167,-1.118329914144835,0.7444665793945183,0.38270384073257446,0.8993715643882751,0.21134939789772034,-0.7133174538612366,3.0259902477264404,0.16953660547733307,-0.42445194721221924,-0.41321128606796265,-0.19668568670749664
334,2.2063218137417406,-1.212352108814592,0.7733177514273177,0.28232428431510925,0.9364437460899353,0.20824576914310455,0.7704227566719055,-1.1304339170455933,-1.5100045204162598,-0.26756903529167175,-1.293743371963501,-0.14934679865837097
335,2.1320055379821103,-1.2449488068830081,0.6839122580738385,0.2710103690624237,0.9473797678947449,0.17036670446395874,-0.9828161001205444,-2.119504451751709,0.5292571187019348,-0.1972493827342987,-0.6188886165618896,-0.2563958168029785
336,2.7930159386684736,-1.4334702969539181,1.1190254281810135,0.046757929027080536,0.9905855655670166,0.1286621391773224,2.4683313369750977,4.541457176208496,-0.620333731174469,-0.06969186663627625,1.0270841121673584,-0.6979827880859375
337,-1.1965608722779526,-1.4838140102332151,-2.81172634527853,-0.08086021989583969,0.9962193965911865,-0.031757354736328125,-0.7414206266403198,0.6478708386421204,-1.3209763765335083,0.2225228250026703,-0.08314871788024902,0.7662086486816406
338,-1.9992727723594088,-1.4824971397978979,2.790950345967671,-0.08021312952041626,0.9961041808128357,0.03663961961865425,-1.2990795373916626,-3.2442989349365234,1.2771046161651611,0.40037304162979126,-1.146311640739441,-0.03920304775238037
339,2.535069046941793,-1.2815130533716121,1.1036469948728291,0.16260559856891632,0.958448588848114,0.23438414931297302,-0.7527926564216614,-2.5554330348968506,3.9154229164123535,0.40573850274086,1.1581438779830933,0.6837830543518066
340,2.0011255401350074,-1.1895047526291325,0.7474184037146143,0.33819276094436646,0.9281848073005676,0.1552370935678482,0.04001891613006592,3.164458751678467,2.102552890777588,0.5166198015213013,0.2782970666885376,0.48316001892089844
341,2.336217177952108,-1.2013082550754701,0.7956044107051216,0.2604132890701294,0.9325123429298401,0.25021103024482727,0.2828010022640228,2.905461311340332,-1.5004457235336304,-0.4833594858646393,-1.0299245119094849,-0.08083847165107727
342,2.5357801169078615,-1.218596525521868,0.8074921757437353,0.1964324563741684,0.938616156578064,0.2835734486579895,2.6507022380828857,0.9175108671188354,3.228773832321167,0.6705414056777954,-1.239138126373291,-0.6606485843658447
343,2.1504339011431113,-1.2244471362485245,0.6092404622344489,0.28401851654052734,0.9406182765960693,0.18593288958072662,2.2051398754119873,0.6101624965667725,-3.344731569290161,-1.0246953964233398,3.0835518836975098,-0.8110702037811279
344,1.0043072352810738,-1.4796220218445766,-0.6485948290081485,0.0768245980143547,0.9958465099334717,-0.04886246845126152,2.0333969593048096,-3.8629446029663086,-1.6777174472808838,0.6231570839881897,-0.18453681468963623,1.0150794982910156
345,-0.8798541706323497,-1.5377699406196248,-2.4758702400766954,-0.025444332510232925,0.99945467710495,-0.021040460094809532,-0.5198323726654053,-3.4467570781707764,-0.04819859564304352,0.6800921559333801,-0.980305016040802,-0.02401876263320446
346,2.3216609791630365,-1.4418890896323133,0.8989286325174389,0.0939832553267479,0.9917029738426208,0.08770637959241867,-2.27278733253479,2.629134178161621,1.5998759269714355,0.1016497015953064,-0.8725470900535583,-0.350325345993042
347,1.9054356165999597,-1.1991854088534903,0.644720794428835,0.34297433495521545,0.9317436218261719,0.11925791949033737,1.07706880569458,-2.3024098873138428,1.0812649726867676,0.27966055274009705,1.6842079162597656,0.30818653106689453
348,2.108843632922252,-1.131187562534169,0.6253783655430349,0.36545529961586,0.9049182534217834,0.2180958241224289,0.4885459244251251,1.0800001621246338,-1.3412714004516602,-0.5169750452041626,-0.5902208685874939,-0.5640583038330078
349,2.4867650971367166,-1.2211709543402487,0.9346252641953533,0.20861779153347015,0.9395011067390442,0.27169081568717957,-1.3215185403823853,2.111818313598633,-0.30773699283599854,0.10737641155719757,-1.159609317779541,0.30527442693710327
350,2.2372441192296475,-1.236349621676037,0.801916890854696,0.25800907611846924,0.9445920586585999,0.20292118191719055,-0.6660595536231995,-2.932006597518921,-3.356900930404663,-0.5887280702590942,1.8012115955352783,-0.5101110935211182
351,2.3445482991016044,-1.509696313605803,0.69946998998192,0.04367851838469505,0.9981339573860168,0.04267280921339989,2.266019821166992,-2.7386069297790527,-1.7642792463302612,0.26296210289001465,0.17563313245773315,0.6690887212753296
352,-1.3923237789634941,-1.4853437269591105,-2.945950693092266,-0.08399245142936707,0.9963511228561401,-0.015151561237871647,0.4053013324737549,-1.4237200021743774,-0.7169311046600342,0.34618425369262695,-0.4365672469139099,0.03845179080963135
353,-2.696766955861778,-1.5277920480580307,2.210838901681025,-0.018499737605452538,0.9990754723548889,0.038808804005384445,-1.855824589729309,-0.5308884382247925,2.088959217071533,0.4069885015487671,-1.3031067848205566,0.09354591369628906
354,2.3542873212091333,-1.2310843546972439,0.9230740180759104,0.23606789112091064,0.9428507089614868,0.2351691573858261,-1.1788188219070435,-2.6881067752838135,0.9611701369285583,-0.30737221240997314,3.5192008018493652,-0.5384986400604248
355,2.0881126294716545,-1.1102844812359831,0.6958823998892439,0.3862559497356415,0.8958251476287842,0.21978110074996948,-0.0194854736328125,3.7221944332122803,0.5355046987533569,-0.402750700712204,-0.2792479991912842,-0.012582063674926758
356,2.4019922528479634,-1.2099441988350705,0.7908647210662214,0.23796775937080383,0.9355962872505188,0.2608274519443512,0.5939584374427795,0.811321496963501,-1.471753478050232,-0.22425010800361633,-1.4297521114349365,0.2654329538345337
357,2.282856357950177,-1.2447001950905858,0.6163196379256446,0.24250832200050354,0.947300136089325,0.2093130499124527,0.7157721519470215,-1.768301010131836,0.89892578125,-0.10919234156608582,-0.516437828540802,-0.571510910987854
358,2.650605445704237,-1.362013627188359,0.9364025782223139,0.0977267473936081,0.9782839417457581,0.1827840358018875,2.7649247646331787,5.0143842697143555,-1.2295992374420166,-0.4544619917869568,1.5557125806808472,-0.7458791732788086
359,-1.2634745492425667,-1.5237187189586379,-2.9805732629761743,-0.0448576919734478,0.998892068862915,-0.01423679944127798,-0.4084129333496094,0.012303784489631653,-0.979742705821991,0.2389800250530243,0.231286883354187,0.6652835607528687
360,-1.5067930471206283,-1.473549011726279,-3.0513333024467135,-0.09689667820930481,0.9952751994132996,-0.006210187450051308,0.5143597722053528,-1.319691777229309,0.4657030999660492,0.6210055351257324,-1.1052451133728027,0.13510119915008545
361,2.7299116894145956,-1.4284730337307676,1.1548220798784088,0.05675836652517319,0.9898891448974609,0.1299915611743927,-2.6029489040374756,1.981107473373413,3.0249927043914795,0.3222699463367462,0.04223048686981201,-0.2766895294189453
362,2.0763424548078184,-1.1862630078091467,0.6727581715436616,0.3282022178173065,0.9269735813140869,0.18166840076446533,0.2207794189453125,-0.789035439491272,2.5072290897369385,0.20820528268814087,0.4705331325531006,0.31231963634490967
363,2.2559699090462226,-1.1172388072319221,0.6397656244939617,0.3392762541770935,0.8988940119743347,0.2772749364376068,0.635088324546814,0.06586188077926636,-1.4075186252593994,-0.4813813269138336,-0.8760821223258972,-0.5781781673431396
364,2.401310151414262,-1.2279231883450312,0.7673311402664529,0.2267618626356125,0.9417926073074341,0.24820485711097717,1.0217572450637817,1.919717788696289,0.5230632424354553,0.4418477416038513,-1.1711933612823486,-0.5794883966445923
365,2.314478035182742,-1.2644254415044127,0.7574430679400005,0.22197231650352478,0.953434407711029,0.20418426394462585,1.1615794897079468,1.902451992034912,-3.4216318130493164,-1.0710322856903076,2.974208354949951,-0.13233065605163574
366,2.415944657890788,-1.5477282404695871,0.6032860326411833,0.015308852307498455,0.9997339248657227,0.01725698634982109,2.113309860229492,-0.14985813200473785,-2.01316499710083,0.12670469284057617,0.18329524993896484,0.4832618236541748
367,-1.296431081996985,-1.4417231657535017,-2.994863616724364,-0.12390026450157166,0.9916816353797913,-0.034873396158218384,0.5315533876419067,-1.9223171472549438,-0.7752679586410522,0.44447219371795654,-0.635297417640686,0.137290358543396
368,-1.383770567148211,-1.4958157435709338,-2.89831588939956,-0.07360432296991348,0.9971902966499329,-0.013928686268627644,-1.056983232498169,-1.0867908000946045,2.0427567958831787,0.4161946177482605,-1.2418344020843506,-0.07757824659347534
369,2.2470565033359855,-1.3058763386225456,0.7398226741831965,0.20420792698860168,0.9651134610176086,0.1638757586479187,-1.1683144569396973,-2.5879290103912354,1.6842628717422485,-0.1563258171081543,3.6076252460479736,-0.0068171024322509766
370,2.0477853470959464,-1.1548759925036443,0.5538910128824479,0.3589346706867218,0.9147448539733887,0.18549376726150513,-0.6060967445373535,4.091750621795654,0.8129487633705139,-0.09086823463439941,-0.21215391159057617,0.10449957847595215
371,2.319526496440709,-1.2179406185368784,0.6386199343271799,0.25315549969673157,0.9383896589279175,0.23523901402950287,0.9951313138008118,2.7557055950164795,-0.8712291121482849,-0.3797270953655243,-1.4054458141326904,0.2864742577075958
372,2.3686739499228433,-1.190198107056794,0.5419052453867096,0.2593747675418854,0.9284425973892212,0.2659306228160858,2.363278388977051,-1.944317102432251,1.9857311248779297,0.220270037651062,-0.9345613718032837,-0.8575139045715332
373,2.246609987574148,-1.2563181606597251,0.6325024810929184,0.24133102595806122,0.9509578943252563,0.19348974525928497,2.2798664569854736,4.852497100830078,-2.757474660873413,-0.9642009735107422,3.529358148574829,-0.20612409710884094
374,0.8354828275969125,-1.515677894956989,-0.8152509356966356,0.040857989341020584,0.9984813928604126,-0.03695737197995186,0.6172503232955933,1.3701519966125488,-1.7842141389846802,0.6462605595588684,-0.11711829900741577,1.1121679544448853
375,-0.9552661702854482,-1.511541574388448,-2.5225491578599737,-0.04835189878940582,0.9982449412345886,-0.03419361263513565,6.991438567638397e-06,-1.1065775156021118,0.20410259068012238,0.49309980869293213,-0.9192959666252136,-0.02037179470062256
376,2.4837148634762842,-1.4501693130855147,1.0027175656718803,0.07357671111822128,0.992733359336853,0.09521904587745667,-2.240199565887451,2.120882272720337,1.6412285566329956,0.171006441116333,-0.7285885810852051,-0.26762819290161133
377,2.0038000421267195,-1.1721339478988348,0.5890376700697225,0.3523600101470947,0.9215810894966125,0.1628824919462204,0.8628268241882324,-3.6523187160491943,1.369732141494751,-0.014332085847854614,1.6641427278518677,0.04628501832485199
378,2.063357633838528,-1.0915018172445705,0.4654274652602448,0.40633341670036316,0.8873204588890076,0.2180721014738083,-0.09022745490074158,1.4888060092926025,-1.2207419872283936,-0.571052074432373,-0.5224523544311523,-0.4745570421218872
379,2.381684422682932,-1.2139518014258963,0.707671142003058,0.24063026905059814,0.9370037317276001,0.2532212436199188,-0.5869361162185669,-0.25506624579429626,-0.3764604926109314,-0.09017859399318695,-1.2763135433197021,-0.0392625629901886
380,2.042164217820963,-1.2224548639651207,0.41417702154809966,0.304115355014801,0.9399401545524597,0.15500392019748688,-4.622010231018066,-4.016691207885742,-0.9491940140724182,-0.3282853364944458,0.5259106159210205,0.3493295907974243
381,2.222264570443735,-1.4487519849439099,0.38541014108859223,0.09680932015180588,0.9925618171691895,0.07381940633058548,3.9446990489959717,1.7530027627944946,-1.4291976690292358,0.2762985825538635,0.5547252893447876,-0.5018589496612549
382,-0.48593944134842576,-1.486704698868964,-2.1398205617358657,-0.039227649569511414,0.9964663982391357,-0.07426896691322327,-0.026349790394306183,-1.4834308624267578,-1.2250945568084717,0.4003269076347351,0.05793112516403198,0.3522688150405884
383,-0.5311823237826003,-1.5171957873272153,-1.951845655740864,-0.027138343080878258,0.998563826084137,-0.04619242623448372,-1.0533373355865479,-1.6329787969589233,1.8169349431991577,0.4694143533706665,-1.3369885683059692,0.14662575721740723
384,2.3631027416498194,-1.2699775920588436,0.8226109567896667,0.20806476473808289,0.9550942182540894,0.2109595388174057,-1.2151780128479004,0.6027591228485107,4.043312072753906,0.10411480069160461,2.5665578842163086,0.8501061201095581
385,1.9872680340214774,-1.10012196163159,0.5902165757641096,0.4147239029407501,0.8912626504898071,0.18345198035240173,0.14209258556365967,1.5209869146347046,2.2435078620910645,0.056787848472595215,-0.09145814180374146,0.154514878988266
386,2.197585334663837,-1.1761335569157862,0.6183028708553212,0.3114098012447357,0.9231262803077698,0.22552552819252014,-0.2500459849834442,0.6578298211097717,-2.172135829925537,-0.3891533613204956,-0.9920350313186646,-0.20750488340854645
387,2.3815112778062115,-1.2295720206381586,0.7773645211648241,0.2305610030889511,0.9423456788063049,0.24254098534584045,1.6526366472244263,-0.960052490234375,1.8658994436264038,0.4272911548614502,-0.8417903780937195,-0.7882868051528931
388,2.2356226363635363,-1.271639065517567,0.6767791599028258,0.23194822669029236,0.9555851817131042,0.18181665241718292,1.3640410900115967,5.215341567993164,-2.0475621223449707,-0.7698357105255127,2.3445096015930176,0.06346847116947174
389,1.1307016071825506,-1.5214548190917583,-0.5368768876356206,0.04462392255663872,0.9987829327583313,-0.02101323753595352,2.2781338691711426,-3.1344897747039795,-1.7148374319076538,0.4032825827598572,0.337505578994751,0.5179920196533203
390,-0.8129027944457933,-1.4748589065317241,-2.396858700732367,-0.06957149505615234,0.9954015612602234,-0.06584595143795013,0.14175450801849365,-1.6285336017608643,-0.46395307779312134,0.5717535018920898,-0.8392888307571411,0.38731813430786133
391,1.9700308086776817,-1.5169186741488025,0.526800134760055,0.04961514472961426,0.9985489249229431,0.020932190120220184,-2.6095662117004395,0.0506436787545681,1.9112069606781006,0.10803865641355515,-1.157576084136963,-0.04304218292236328
392,2.110314543603979,-1.2410893500259959,0.6950020198981935,0.2777766287326813,0.9461372494697571,0.16632568836212158,0.16320984065532684,-4.005911350250244,0.5902188420295715,0.023523390293121338,3.420790672302246,-0.18947328627109528
393,2.0370516673576597,-1.130294379612558,0.6042199622855605,0.3808797597885132,0.9045377373695374,0.19168305397033691,-0.5663429498672485,2.1018714904785156,-0.8380138874053955,-0.5492604374885559,-0.3676570653915405,-0.38402003049850464
394,2.389118132936249,-1.2511456204034133,0.8725288870135917,0.2147628366947174,0.9493452310562134,0.22939129173755646,0.9154195785522461,1.7481554746627808,-1.2771731615066528,-0.2470046728849411,-1.256474256515503,-0.24895311892032623
395,1.9743208946650013,-1.2295164350283985,0.47606895714456454,0.3078121542930603,0.942327082157135,0.13142164051532745,-1.7341440916061401,-2.548713445663452,0.9030244946479797,-0.09484517574310303,-0.21968591213226318,0.623278021812439
396,2.325279927463483,-1.4290469345120274,0.7168132132746574,0.1029365137219429,0.9899703860282898,0.09676098823547363,1.84927237033844,4.0166473388671875,-1.222947359085083,-0.0237281396985054,0.9386642575263977,-0.5747578144073486
397,-0.6417812964226797,-1.4499458053012053,-2.1822341166145307,-0.0721675306558609,0.9927064776420593,-0.09656893461942673,-0.5241445302963257,-1.1257803440093994,-1.3426504135131836,0.3293849527835846,0.06196564435958862,0.5947989225387573
398,-0.9173504501775778,-1.4268644939804527,-2.2574003063466175,-0.11388620734214783,0.9896596670150757,-0.08719765394926071,-0.4670170545578003,-2.7129437923431396,1.2556989192962646,0.5766547918319702,-1.2931113243103027,0.1611875295639038
399,2.3803727084393462,-1.415133595718539,1.0180309664963627,0.10694391280412674,0.9879090189933777,0.11224453151226044,-2.0114386081695557,0.05828079581260681,4.904706001281738,0.20416751503944397,1.4280760288238525,0.8780660629272461
400,1.8951249003413222,-1.2352579206755026,0.6936515673872538,0.3121105432510376,0.9442331790924072,0.10493165254592896,-0.15335790812969208,0.3207840025424957,1.5357203483581543,0.14681276679039001,0.4363972544670105,0.4312775135040283
401,2.0644956161004,-1.2000513843415461,0.7073126381867182,0.31904467940330505,0.9320576786994934,0.17169368267059326,0.11305204778909683,1.4081798791885376,-0.9180794358253479,-0.46795526146888733,-0.9783072471618652,-0.23835936188697815
402,2.3104749586440296,-1.2278044374494994,0.788173094076745,0.24842451512813568,0.9417526721954346,0.2266874760389328,1.4703145027160645,1.2612264156341553,1.2816349267959595,0.4715156555175781,-1.1867477893829346,-0.2536191940307617
403,2.113346540113116,-1.224858614734109,0.7131032154158037,0.2903851568698883,0.9407579302787781,0.17507365345954895,1.4424355030059814,0.11574190109968185,-2.848930835723877,-1.1180219650268555,3.000159978866577,-0.46038249135017395
404,1.2211894996224237,-1.4956386215742554,-0.33384219778455604,0.0705440491437912,0.997177004814148,-0.025719162076711655,2.389023780822754,-5.624030113220215,-1.9547406435012817,0.5761539340019226,-0.038848817348480225,0.9074177742004395
405,-0.5248687163382085,-1.4636500806991521,-2.0000176736134945,-0.053588107228279114,0.9942653179168701,-0.09254571050405502,0.3913828730583191,-2.0647776126861572,-0.7542169690132141,0.3370353877544403,-0.6992519497871399,0.325883150100708
406,-0.010829432408805142,-1.5027165079901272,-1.3217263707036888,-0.0007366930949501693,0.9976834654808044,-0.06802427768707275,-2.231905698776245,0.4284514784812927,1.6245269775390625,0.47656676173210144,-1.3679226636886597,0.38710081577301025
407,2.050490192167432,-1.2146581303511277,0.6836035582200675,0.3093065023422241,0.9372502565383911,0.16090798377990723,-0.7111119031906128,-4.817580223083496,0.9207980036735535,-0.4591783285140991,4.212820053100586,-0.4092600345611572
408,2.0247143192613133,-1.079807750621238,0.6733694595748271,0.42375198006629944,0.8818671703338623,0.20674709975719452,-0.4682188332080841,2.341083526611328,0.25719568133354187,-0.4535066485404968,-0.5269325971603394,-0.20317652821540833
409,2.124178606071789,-1.1980350879200345,0.7440627013963751,0.30983415246009827,0.9313252568244934,0.19140580296516418,0.5444212555885315,1.0279247760772705,-1.587421178817749,-0.22929823398590088,-1.5459339618682861,0.4438176155090332
410,2.103041142848926,-1.1909299984493131,0.6520647965200927,0.31950411200523376,0.9287142157554626,0.18816761672496796,-1.224511981010437,-4.190865516662598,0.475415974855423,-0.24775728583335876,-0.6460298895835876,-0.3839073181152344
411,2.2136351937598757,-1.3417249013856791,0.7617271901674116,0.18174861371517181,0.9738776683807373,0.13612347841262817,1.7222330570220947,4.111401081085205,-1.4467425346374512,-0.1675732284784317,1.1969138383865356,-0.6523282527923584
412,0.21047822294132096,-1.507838433831168,-1.2203328660565105,0.013144990429282188,0.9980188012123108,-0.06152798980474472,-0.11213864386081696,0.5639066696166992,-1.4176360368728638,0.12088823318481445,0.1628088355064392,0.5291945934295654
413,-0.41917865347828387,-1.466740900721018,-1.6644500072449906,-0.04227522388100624,0.9945911169052124,-0.09487519413232803,-0.3842338025569916,-1.5125120878219604,0.9656373858451843,0.42276838421821594,-1.1140216588974,0.23847568035125732
414,2.1703081561583395,-1.401523070914219,0.9148892546361995,0.13908761739730835,0.9857074618339539,0.09505531936883926,-2.0020604133605957,1.2239558696746826,4.475793838500977,0.32976916432380676,0.17556262016296387,-0.20317912101745605
415,1.8384340037975215,-1.1244875843299833,0.7959350555410343,0.4162716567516327,0.9020465612411499,0.1141485646367073,-0.03740670531988144,0.20410649478435516,1.7312180995941162,-0.02703520655632019,0.4095379114151001,0.2816033363342285
416,2.0128493391671234,-1.1124668759643355,0.8328630370928799,0.39992013573646545,0.8967928886413574,0.18927858769893646,0.5487826466560364,0.29947635531425476,-1.9096084833145142,-0.5987268686294556,-0.7444491982460022,-0.31359195709228516
417,2.2438098541315172,-1.2498129213432416,0.9703268629608784,0.2467043101787567,0.9489256143569946,0.19666551053524017,1.5561007261276245,2.23034405708313,0.6402116417884827,0.3467252552509308,-1.1955991983413696,-0.29433703422546387
418,2.068400942510903,-1.2213201035590464,0.9117239651465743,0.30088117718696594,0.9395521879196167,0.16343754529953003,1.3172602653503418,1.21730637550354,-2.6686131954193115,-0.9197319746017456,3.0555801391601562,-0.04153516888618469
419,1.7061577523356706,-1.5059610935372871,0.37910654022355483,0.06419816613197327,0.9978989362716675,0.008743422105908394,2.792766571044922,-2.346200942993164,-1.8314241170883179,0.37014326453208923,0.11088097095489502,0.05093371868133545
420,-1.013684203752709,-1.4532258259626885,-2.2144709595506,-0.09956226497888565,0.9930965304374695,-0.06202070042490959,-0.11575034260749817,-1.4030888080596924,-1.3783550262451172,0.6935259103775024,-0.5457088351249695,0.015817105770111084
421,-2.334897842672911,-1.5170382267302758,2.9954402722359066,-0.038795191794633865,0.9985553622245789,0.03717699274420738,-2.359989643096924,0.5548397302627563,2.0291266441345215,0.40364810824394226,-1.3650257587432861,0.019341588020324707
422,2.2876328918944657,-1.2400768846185541,1.1962513815024007,0.24480541050434113,0.9458089470863342,0.21334460377693176,-0.32634952664375305,-2.4047627449035645,1.2822695970535278,-0.43380072712898254,3.3813700675964355,-0.5105705261230469
423,2.052072641314398,-1.152065911178528,0.949452060465128,0.36041325330734253,0.9136058688163757,0.18822011351585388,0.24244365096092224,2.0920557975769043,-0.1383657306432724,-0.5075689554214478,-0.29739487171173096,-0.18988332152366638
424,2.4381447064494166,-1.2605945151751525,1.2365517721061046,0.19745182991027832,0.9522719979286194,0.2327893227338791,-0.5586414933204651,1.5145117044448853,-1.1841919422149658,-0.09038090705871582,-1.2811752557754517,0.1340014934539795
425,2.1932144528202446,-1.2126734668093164,1.0062945175551465,0.2847849428653717,0.9365564584732056,0.20435196161270142,-2.268660068511963,-1.3792606592178345,0.37469202280044556,-0.1294352114200592,0.6901984214782715,1.7782530784606934
426,2.631572611373783,-1.3689915075124615,1.2800451074519228,0.09785293787717819,0.9797064065933228,0.17492948472499847,2.6620588302612305,3.932291269302368,-0.988939642906189,-0.2631056308746338,0.6967614889144897,-0.6555355787277222
427,-1.2192541477187862,-1.506854805618412,-2.6044918005394257,-0.05999058112502098,0.9979564547538757,-0.022003173828125,-0.18439039587974548,-0.058964721858501434,-1.5218042135238647,0.2080771028995514,0.006926417350769043,0.4736480712890625
428,-1.1836895553744902,-1.4562059557428466,-2.42903612539622,-0.10587853193283081,0.9934417009353638,-0.04316422715783119,-0.5979809165000916,-1.7637544870376587,1.1424628496170044,0.5244271159172058,-1.2781555652618408,0.21423053741455078
429,2.5883491792015634,-1.3663984976181884,1.2925915773125947,0.10665485262870789,0.9791833758354187,0.17269892990589142,-2.466453790664673,0.24702094495296478,4.512741565704346,0.3464090824127197,1.3004188537597656,0.7656097412109375
430,2.046313724782835,-1.1659846743756952,0.9513521300020799,0.350150465965271,0.9191765785217285,0.18030177056789398,0.35909369587898254,0.6927008032798767,1.8665107488632202,0.20772606134414673,0.30416613817214966,0.28364166617393494
431,2.3186293970543512,-1.147158907239607,1.0145681458021734,0.30138853192329407,0.9115996956825256,0.2795550525188446,-0.067918561398983,0.9805702567100525,-1.5150423049926758,-0.3960082530975342,-0.9373260140419006,-0.386061429977417
432,2.481424266039053,-1.2151134047020864,1.156477719437863,0.21355225145816803,0.9374088644981384,0.2750633656978607,0.7357118725776672,0.2722623646259308,1.0113145112991333,0.3356115221977234,-1.0415349006652832,-0.46355512738227844
433,2.2972730341706113,-1.2181744431300785,1.055419099811172,0.25816255807876587,0.9384704232215881,0.22940129041671753,1.407296895980835,1.6198887825012207,-2.9674782752990723,-0.7233420610427856,2.17647385597229,-0.07226637005805969
434,2.524755583790057,-1.4884643624949607,1.0685975728590735,0.04757295176386833,0.9966126084327698,0.06708496063947678,1.7164406776428223,-4.967809677124023,-1.8923720121383667,0.26799407601356506,0.5680999755859375,-0.124854676425457
435,-1.2928887429963376,-1.4907304432124555,-2.710188760610934,-0.07691201567649841,0.9967964291572571,-0.021942248567938805,0.7523254752159119,-2.280278205871582,-0.8412371277809143,0.3135605752468109,-0.6534736752510071,0.11407482624053955
436,-2.3554688966444983,-1.5385006648402235,2.65467271800751,-0.022847546264529228,0.9994785189628601,0.022814415395259857,-2.1674230098724365,-0.16760198771953583,1.9172844886779785,0.4088186025619507,-1.2897007465362549,0.15180718898773193
437,2.3031601578403595,-1.2000855943706428,0.9857075191130347,0.26938819885253906,0.9320700764656067,0.2422294318675995,-1.3124836683273315,-2.54644775390625,1.394605278968811,-0.28547096252441406,3.4583563804626465,-0.13592150807380676
438,2.031923066865277,-1.0938737301650585,0.7928122212881127,0.411100834608078,0.888411819934845,0.20425663888454437,-0.34121885895729065,2.3535780906677246,0.5661396384239197,-0.11202853918075562,-0.0659477710723877,0.19462347030639648
439,2.3948855193531235,-1.219088896668474,1.068126746922611,0.23399394750595093,0.9387858510017395,0.25283944606781006,0.4326651394367218,0.3447853922843933,-2.056256055831909,-0.23831221461296082,-1.2936902046203613,0.09225329756736755
440,2.093699003958297,-1.228581870684104,0.7304576005252638,0.29073232412338257,0.9420138597488403,0.16758465766906738,0.23030135035514832,-0.13731877505779266,0.45213860273361206,-0.04735463857650757,-0.5364657640457153,-0.3683903217315674
441,2.5262749229122003,-1.312206748290919,1.1037474219174517,0.14760425686836243,0.9667516350746155,0.20881569385528564,1.573395848274231,2.425542116165161,-0.7065557241439819,-0.24497061967849731,0.4773705005645752,-0.6310722231864929
442,-0.857947921704201,-1.550380064934518,-2.382114885333952,-0.015444048680365086,0.9997916221618652,-0.013351282104849815,0.5348173975944519,-0.06250040978193283,-1.3844561576843262,-0.1705758273601532,0.8690285682678223,0.8212279081344604
443,-1.1428793458478124,-1.4337617188506953,-2.529074786142697,-0.12428818643093109,0.9906254410743713,-0.05668812617659569,0.23508666455745697,-1.0182970762252808,0.40033313632011414,0.7576652765274048,-0.9336339831352234,0.30211055278778076
444,2.780235443475007,-1.4260974132554967,1.3588022786138192,0.050979144871234894,0.9895493388175964,0.13488218188285828,-2.72224760055542,1.2314813137054443,3.1755504608154297,0.1207890510559082,-0.5965440273284912,-0.30924439430236816
445,2.107494044234108,-1.1878008932280995,0.8609868179568217,0.3211592137813568,0.927549421787262,0.19107355177402496,0.48030683398246765,-2.9242801666259766,1.190800666809082,0.09386458992958069,1.1496601104736328,0.16882026195526123
446,2.154720176919034,-1.124917844549217,0.7864680606548048,0.35979512333869934,0.9022321701049805,0.23774941265583038,0.18571579456329346,0.1350172609090805,-1.600032925605774,-0.48410847783088684,-0.6804150342941284,-0.4977897107601166
447,2.2987577079874413,-1.2283491879092245,0.9661633447398136,0.2506806254386902,0.9419357776641846,0.22341984510421753,0.7872250080108643,0.17723211646080017,0.7073832154273987,0.2007354199886322,-1.3038283586502075,-0.5968024730682373
448,2.428415320806338,-1.2833292388784492,1.005431020757916,0.1854931116104126,0.9589650630950928,0.2144259214401245,-0.6309996843338013,0.8978563547134399,-2.038529396057129,-0.351691871881485,1.3539774417877197,-0.3904818296432495
449,-3.127212326174519,-1.4701534685816506,1.4436937675421684,-0.0014447887660935521,0.9949398040771484,0.1004628911614418,4.0077056884765625,4.111983776092529,-1.1513853073120117,0.03928658366203308,0.29027748107910156,-0.3686971664428711
450,-1.0750651233341815,-1.4093633432231167,-2.774540935569475,-0.14138419926166534,0.9869979619979858,-0.0764566957950592,1.2970643043518066,-0.8312825560569763,-1.1734780073165894,0.48525625467300415,-0.03809964656829834,0.14118444919586182
451,-1.1544015989008158,-1.417404516038108,-2.7022157854881086,-0.1397363543510437,0.9882585406303406,-0.06179913133382797,-1.923715591430664,-1.3985813856124878,1.8223060369491577,0.4743005037307739,-1.2868118286132812,0.15983682870864868
452,2.5097579340667155,-1.2722889508933497,0.887032294808511,0.17369984090328217,0.9557765126228333,0.2373180240392685,-2.733135223388672,-1.2969285249710083,1.9674688577651978,-0.6025786399841309,3.2751805782318115,-0.1266307532787323
453,2.0791308690164283,-1.1309506878215738,0.7143098044888695,0.3719603419303894,0.9048174023628235,0.20724669098854065,-0.36976054310798645,2.3607194423675537,2.0280585289001465,-0.023113876581192017,-0.2695024013519287,0.1856060028076172
454,2.389452054391599,-1.142169868377748,0.8663552951174519,0.2839542329311371,0.9095374941825867,0.30349868535995483,0.4122365117073059,0.086945079267025,-1.4828978776931763,-0.31785932183265686,-1.124518632888794,-0.342317134141922
455,2.271209067703276,-1.2048479329845276,0.78651301853465,0.2735920548439026,0.9337847828865051,0.23063650727272034,1.240667700767517,-2.249296188354492,0.9931434392929077,-0.014360517263412476,-0.5552142858505249,-0.5676573514938354
456,2.75155679864714,-1.3319309486500526,1.195904600683269,0.08996051549911499,0.9716070294380188,0.21883048117160797,1.6854552030563354,4.897956371307373,-1.0308269262313843,-0.03469318151473999,0.6396142244338989,-0.6689800024032593
457,-1.2647428370785951,-1.5070574895461195,-2.8875910424698996,-0.060734234750270844,0.997969388961792,-0.019190896302461624,0.057800646871328354,1.8452644348144531,-1.3800828456878662,-0.023433256894350052,0.49163925647735596,0.88575279712677
458,-1.2688341795893785,-1.4460017337779294,-2.7946334861619126,-0.11884033679962158,0.9922232627868652,-0.037017274647951126,-0.33568209409713745,-1.4357467889785767,0.9459578990936279,0.5819903016090393,-0.9544118642807007,0.3115381598472595
459,2.593148032527619,-1.3935510694071382,1.0852911469218742,0.09192530810832977,0.9843331575393677,0.1504586637020111,-2.0982518196105957,0.8086379766464233,3.88022780418396,0.040063224732875824,0.018123388290405273,0.39226603507995605
460,2.1056334708013633,-1.1540758324223988,0.7997924331830673,0.34823960065841675,0.9144212603569031,0.20630872249603271,0.0005817301571369171,-1.8031738996505737,1.3842662572860718,0.17416036128997803,0.5453718900680542,0.15115895867347717
461,2.2309108474786856,-1.0929717933402414,0.8186604132010123,0.36324432492256165,0.8879973888397217,0.2819823622703552,0.4385046362876892,0.6847183108329773,-1.5693788528442383,-0.5403378009796143,-0.7792023420333862,-0.3771667778491974
462,2.236160170005124,-1.2497928832423215,0.9397738954106976,0.24821597337722778,0.9489192962646484,0.19478391110897064,0.5405467748641968,0.030977576971054077,0.21564266085624695,0.30879083275794983,-1.190099835395813,-0.3523614704608917
463,2.3092539619467303,-1.2841750893912072,0.9552053287976862,0.2090686410665512,0.9592045545578003,0.19030791521072388,-0.060636043548583984,2.050178289413452,-2.7639338970184326,-0.3954242765903473,1.9477168321609497,-0.2598574161529541
464,-3.1061443944307316,-1.514965500417137,1.4948220941489527,-0.001977697014808655,0.9984418749809265,0.0557677187025547,2.460841417312622,-3.408137798309326,-1.5125912427902222,-0.02234482765197754,0.15358150005340576,-0.2721831798553467
465,-1.6506524192430685,-1.4463938790891695,3.053872455104168,-0.12368679791688919,0.9922720193862915,0.009898193180561066,0.3502980172634125,-3.98158597946167,-0.40228477120399475,0.7333211898803711,-0.4080435037612915,-0.24262523651123047
466,2.7514610230012773,-1.4384373834994502,1.4771800994888773,0.05019092932343483,0.9912533164024353,0.12205703556537628,-2.5406198501586914,0.03579056262969971,3.2873947620391846,0.29285717010498047,-1.2576717138290405,-0.15025530755519867
467,2.0754847190726284,-1.1299611054401573,0.817290955073154,0.3734971284866333,0.904395580291748,0.20632196962833405,0.06862030178308487,-3.5583174228668213,0.6402267813682556,-0.1860886514186859,3.7930073738098145,-0.25284597277641296
468,1.9841134259666742,-1.0989506462473182,0.7062687917551754,0.41625702381134033,0.8907308578491211,0.18256226181983948,-1.2729986906051636,4.0002336502075195,-0.8292570114135742,-0.32316306233406067,-0.09510701894760132,-0.010305747389793396
469,2.3212793120046644,-1.1928433600926225,0.9885744326790503,0.2698853611946106,0.9294219613075256,0.2516678273677826,0.03907405585050583,-0.1858239620923996,-1.5679324865341187,-0.4061310887336731,-1.191583275794983,-0.16602027416229248
470,2.321455734150396,-1.2589998428758944,0.9681014316464971,0.22432129085063934,0.9517840147018433,0.20925338566303253,-0.3436669707298279,-1.505894422531128,-0.1778114140033722,0.08567625284194946,-0.015947341918945312,2.4275567531585693
471,2.473378874766028,-1.303316494855376,0.9593650561402427,0.1637575924396515,0.9644400477409363,0.20745855569839478,0.887312114238739,3.689134120941162,-1.202940821647644,-0.07217437028884888,0.331534743309021,-0.4045562744140625
472,2.630425862345454,-1.5333635019486624,1.0253532656201338,0.01830817572772503,0.9992994666099548,0.032641202211380005,1.5902093648910522,0.027244262397289276,-1.6202160120010376,-0.4388556480407715,0.27827316522598267,0.6794102191925049
473,-1.4172003679248812,-1.4602950131683616,-2.9657687330222733,-0.10897907614707947,0.9939009547233582,-0.016871631145477295,-1.076901912689209,-0.929473340511322,0.1523832380771637,0.7578285932540894,-0.7918440103530884,0.2643691897392273
474,2.965572379871559,-1.355104965758061,1.3760236529939176,0.03747798502445221,0.9768286347389221,0.21071505546569824,-2.5388031005859375,4.68711519241333,3.2258095741271973,0.2082800567150116,-0.09233790636062622,-0.443625271320343
475,2.201310192974385,-1.1448026079717393,0.6922353370256322,0.33377256989479065,0.9106285572052002,0.24362127482891083,0.22137974202632904,-1.6810842752456665,1.7289199829101562,-0.15463438630104065,0.749283492565155,0.174194797873497
476,2.1850033659627934,-1.0656307793672806,0.5641058253529712,0.39550068974494934,0.8750943541526794,0.2789068818092346,0.0008072229102253914,0.9521123766899109,-0.8452873229980469,-0.40447288751602173,-0.5455656051635742,-0.27515318989753723
477,2.5080054634737152,-1.1902217278769804,0.8519327629675867,0.21991565823554993,0.9284513592720032,0.29935839772224426,-0.06962688267230988,-0.6105207800865173,-1.1299264430999756,0.14899611473083496,-1.230346441268921,-0.06759259104728699
478,2.5895076535136314,-1.2182796725105514,0.8886611907639147,0.18107683956623077,0.9385067820549011,0.2939665913581848,0.5009394884109497,1.602988839149475,0.258192241191864,-0.08766253292560577,1.4796147346496582,-0.4968627393245697
479,2.731360289011407,-1.2968884277017227,0.9215064373536975,0.10787960141897202,0.9627211689949036,0.24805183708667755,3.040367364883423,4.186561584472656,-1.3875441551208496,-0.2558898329734802,0.3510604500770569,-0.2923634350299835
480,-2.055392931632081,-1.494328312279742,2.326872676256712,-0.06759762018918991,0.9970777630805969,0.035587940365076065,0.9086728096008301,-0.2802622616291046,-0.9008084535598755,0.4898235499858856,0.5498429536819458,0.6234543323516846
481,-1.848903906660591,-1.4381302268500327,2.6034666210979265,-0.12719444930553436,0.9912127256393433,0.03631484508514404,-0.95932936668396,-0.08802668005228043,0.484129935503006,0.6243105530738831,-0.8443012237548828,0.22815048694610596
482,2.9063954135714436,-1.3705656802605113,1.1052725859150911,0.04634936526417732,0.9800207018852234,0.1934187263250351,-2.232961416244507,1.462271809577942,2.7234954833984375,0.15402904152870178,-0.5862525701522827,-0.3947432339191437
483,2.2813175778312753,-1.1650270268817267,0.5693419722173784,0.29921069741249084,0.9187989830970764,0.25745147466659546,0.9668656587600708,-5.015434265136719,0.7661388516426086,0.029219478368759155,1.1183713674545288,-0.14713048934936523
484,2.2179882895250222,-1.0928591426021743,0.3682109972300906,0.36693793535232544,0.8879455924034119,0.27732545137405396,0.08795154094696045,3.1351232528686523,-1.2090638875961304,-0.37327027320861816,-0.8313964605331421,-0.3335082232952118
485,2.4577873878893866,-1.248858403925857,0.5204678521451327,0.1998884528875351,0.9486240148544312,0.24526958167552948,-0.675790011882782,2.1047143936157227,-1.2099782228469849,-0.2390424907207489,-1.1749118566513062,0.3255922794342041
486,2.387559697344931,-1.2447651771844135,0.4767239730080742,0.2192627489566803,0.9473209381103516,0.23346737027168274,-0.6553741693496704,1.1866366863250732,-1.2500956058502197,-0.4000641405582428,2.241903305053711,-0.17990899085998535
487,2.625197129031715,-1.4784470767392643,0.4494245860421817,0.04553336277604103,0.9957388639450073,0.08019464462995529,4.8895769119262695,-0.9688011407852173,-1.3469268083572388,0.017165008932352066,0.256641685962677,-0.3986912965774536
488,-1.0527671333561448,-1.4808597052507873,-3.128355631352763,-0.07803264260292053,0.9959584474563599,-0.04447454214096069,0.4011179506778717,-1.7537645101547241,-0.6447498202323914,0.42010417580604553,-0.2756977081298828,0.41099071502685547
489,-1.568377623404956,-1.5231209078840493,2.7919795461355137,-0.047656215727329254,0.9988637566566467,-0.00011526647722348571,-1.187209963798523,-2.734890937805176,1.659507155418396,0.38882747292518616,-1.275002121925354,0.1127861738204956
490,2.243791193167902,-1.2559406808727893,0.2711664393460819,0.24215680360794067,0.9508410692214966,0.19303297996520996,-1.7644926309585571,-1.2458003759384155,2.478363037109375,-0.1567990779876709,3.501521110534668,-0.16201183199882507
491,1.9398108186904128,-1.0941782535485842,0.1719686236393931,0.4278932511806488,0.8885515332221985,0.16547907888889313,-0.9616287350654602,2.6614975929260254,1.2658742666244507,-0.17284265160560608,-0.26721376180648804,0.09720097482204437
492,2.2821329540467117,-1.156823858694867,0.3543171748493607,0.30470016598701477,0.9155301451683044,0.26260748505592346,1.6756913661956787,-0.2122388482093811,-1.3959705829620361,-0.2500431537628174,-1.4071223735809326,-0.15822216868400574
493,2.1894898788585744,-1.2946782711440714,0.21246383692828974,0.22208856046199799,0.9621210098266602,0.15811340510845184,1.5677729845046997,1.17149019241333,-1.826866865158081,0.06830143928527832,-0.7065820693969727,-0.2728290557861328
494,2.9741864956498203,-1.3009653614365826,1.0181568487783177,0.044417064636945724,0.9638159871101379,0.26284193992614746,1.624444603919983,3.580443859100342,0.007770293392241001,-0.3583361506462097,0.8646447062492371,-0.54227614402771
495,-2.0574962402248014,-1.4673465504798138,2.0649341135764123,-0.09127361327409744,0.9946538209915161,0.04829803481698036,1.7622507810592651,0.6165319681167603,-1.5012167692184448,0.06795818358659744,0.14017271995544434,-0.11821377277374268
496,-1.4340763063077833,-1.3438966510582966,2.804626334874639,-0.22285833954811096,0.9743685126304626,-0.03066047467291355,0.28134316205978394,-1.620818018913269,-1.0115625858306885,0.6768988966941833,-0.3814883232116699,0.3707635998725891
497,-2.191018046799599,-1.3548400184862261,2.1871587987397643,-0.1743716597557068,0.9767719507217407,0.12454387545585632,-2.62642765045166,-0.8507944345474243,1.3731013536453247,0.2780551612377167,-1.0837208032608032,-0.12039351463317871
498,2.7546580549044304,-1.2503396737107244,0.9108850571313689,0.11886554211378098,0.9490916728973389,0.2917117178440094,-0.6224110126495361,-4.001084804534912,1.6693319082260132,-0.6737056374549866,4.2378740310668945,-0.10857576131820679
499,2.361709793363659,-1.1644765443403802,0.5325982872650931,0.2779255509376526,0.9185816049575806,0.2810082733631134,-0.2407393604516983,1.316053032875061,0.9246415495872498,-0.3572864830493927,-0.468630313873291,-0.14654776453971863
500,2.7388454596278273,-1.1274848772693151,0.6889470258270212,0.16811922192573547,0.903336226940155,0.3946133852005005,-0.7247530817985535,3.05708909034729,-0.8323310017585754,-0.22941376268863678,-1.0600897073745728,-0.43585795164108276
