,attitude.roll,attitude.pitch,attitude.yaw,gravity.x,gravity.y,gravity.z,rotationRate.x,rotationRate.y,rotationRate.z,userAcceleration.x,userAcceleration.y,userAcceleration.z
0,-0.4949417450347919,-1.4229906657829456,-2.9204146062768737,-0.06994961202144623,0.9890966415405273,-0.12959568202495575,-2.122159481048584,0.1394156664609909,0.7696707248687744,0.9239535331726074,0.0034265518188476562,0.6530331373214722
1,0.05726123977914736,0.5515466766323351,-0.7854338024511051,0.04874361306428909,-0.5240051746368408,-0.8503191471099854,0.05591211095452309,0.3562798500061035,0.10250016301870346,0.036354660987854004,-0.19503474235534668,-0.12302374839782715
2,0.1411939359306808,0.5494362309990333,-0.7914955927731131,0.12001319229602814,-0.5222065448760986,-0.8443323969841003,0.48369932174682617,-0.10331074148416519,0.30877211689949036,0.11108117550611496,-0.03605151176452637,-0.44032031297683716
3,0.14845881027295454,0.5544488440348923,-0.7464975697958426,0.125755175948143,-0.5264747738838196,-0.8408388495445251,-0.6655821800231934,-0.29895538091659546,-0.13198122382164001,-0.0878370851278305,0.17564475536346436,0.038089215755462646
4,0.12197553306142664,0.5251482683352378,-0.7013679559461884,0.10527777671813965,-0.5013412833213806,-0.8588209748268127,-0.13141119480133057,-0.3432461619377136,0.500834047794342,-0.08316779881715775,0.01746988296508789,0.2730666399002075
5,0.10352588047920581,0.5490761847378351,-0.6010165351077151,0.08815064281225204,-0.521899402141571,-0.8484399914741516,-0.07177059352397919,1.5751254558563232,0.9725068211555481,-0.20758119225502014,0.10853886604309082,0.3669489026069641
6,0.09140010251145027,0.6071157278159397,-0.4681214503468533,0.07496214658021927,-0.5705009698867798,-0.817868709564209,0.6316282749176025,1.312713384628296,1.518919587135315,-0.06930114328861237,-0.12507086992263794,0.12949901819229126
7,-0.015488924688889629,0.6752512607455083,-0.358573681057891,-0.012089394964277744,-0.6250934600830078,-0.7804562449455261,-1.1462403535842896,-2.345641613006592,0.8868774175643921,0.09178604930639267,-0.1305827498435974,-0.1075136661529541
8,-0.14135753505567833,0.5841922984153717,-0.40190004738864515,-0.11752219498157501,-0.5515258312225342,-0.8258376717567444,-0.08085158467292786,-1.1131477355957031,-0.17410887777805328,0.10290427505970001,0.11388850212097168,-0.3969406485557556
9,-0.08595486095669107,0.6822632334845146,-0.39480894562597857,-0.06663154065608978,-0.6305512189865112,-0.7732822299003601,1.1554062366485596,1.7115083932876587,-0.7855697274208069,-0.026416555047035217,0.28445136547088623,0.6929599642753601
10,0.28152075535211984,0.739439353736504,-0.5236927919890259,0.20526400208473206,-0.673873782157898,-0.7097610831260681,1.0449432134628296,5.6935272216796875,-2.8799548149108887,-0.16792576014995575,0.7715148329734802,0.9244217276573181
11,1.2719322394122796,0.5322401350160435,-1.0465918867279134,0.8234759569168091,-0.5074648857116699,-0.2537064254283905,1.3115774393081665,5.551875591278076,-6.2231340408325195,0.21580028533935547,1.2063937187194824,0.2657150328159332
12,1.5963386939016624,-0.1364546708367565,-0.9775941631075924,0.9903812408447266,0.1360315978527069,0.025302184745669365,-4.669732570648193,0.8255823850631714,-7.727428436279297,1.7006281614303589,1.7507634162902832,-0.11613774299621582
13,1.8890897291696627,-0.6184335493677664,-0.2795923459755447,0.7738615274429321,0.5797595381736755,0.25498461723327637,-3.9099926948547363,-0.4679068922996521,-2.1445138454437256,1.7675507068634033,-0.3986835479736328,-1.4467113018035889
14,1.7132555076194635,-0.5158789610596223,-0.08949840339837764,0.8610478043556213,0.49329960346221924,0.1235007643699646,-0.9188392758369446,-2.781519889831543,0.15342050790786743,-0.3197116255760193,-0.29481321573257446,-0.02488313615322113
15,1.8995132085413389,-0.5528070879920537,0.20957959758874606,0.8054864406585693,0.525078296661377,0.27474483847618103,-3.420051336288452,1.9072164297103882,-1.2128628492355347,0.17070996761322021,-0.4358600974082947,-0.6026257276535034
16,2.064172671664056,-0.4971406839925353,0.43511500309835077,0.7741252779960632,0.47691428661346436,0.4162726402282715,-0.46531203389167786,-0.5895099639892578,0.8626024723052979,0.6683948636054993,-0.5618294477462769,-1.0226874351501465
17,1.930721552369093,-0.4043212726186053,0.30876971584591517,0.8604594469070435,0.3933948576450348,0.32380592823028564,1.496825933456421,-0.38817107677459717,1.224616289138794,0.5214833617210388,-0.049171775579452515,-0.5235282182693481
18,1.8469668325146071,-0.3099123490207346,-0.037496027890807145,0.9162721633911133,0.30497515201568604,0.25968319177627563,3.121554136276245,-0.0618017353117466,3.2013227939605713,0.8678159117698669,0.3508475720882416,-0.6554657220840454
19,1.7263590857007853,0.027527575208237214,-0.4260250790730979,0.9875502586364746,-0.027524098753929138,0.15487739443778992,2.972147226333618,-0.8403998613357544,4.775321960449219,0.2544541358947754,0.5855227708816528,-0.21453918516635895
20,1.6286966258108915,0.42876087468493423,-0.6275756817245957,0.9079576730728149,-0.4157441556453705,0.05262984707951546,0.211747407913208,-2.2877418994903564,4.399301528930664,0.2581648826599121,0.7713044285774231,0.04372943192720413
21,1.174155085374056,0.7034402462184782,-0.3965437489764545,0.7034143805503845,-0.6468451023101807,-0.2946178615093231,-2.544304609298706,-3.636090040206909,1.8147954940795898,0.16679435968399048,0.45838379859924316,0.40104788541793823
22,0.6975797193164617,0.7085183872532944,-0.12919222059099247,0.48776474595069885,-0.6507094502449036,-0.5819474458694458,-1.539275884628296,-2.5036416053771973,1.4176219701766968,0.35291826725006104,0.022520363330841064,0.3331071138381958
23,0.44671015613389675,0.6797269194954996,-0.014854583372270648,0.3359862267971039,-0.6285806894302368,-0.7014268040657043,-2.153730869293213,-3.264249801635742,1.1377487182617188,0.5736206769943237,-0.057057738304138184,-0.039616286754608154
24,0.15473579665992565,0.5549827285936916,0.16991801414013583,0.1309872567653656,-0.5269286036491394,-0.8397550582885742,-0.9916940927505493,-1.684169888496399,1.2222143411636353,-0.1427212655544281,0.08216547966003418,0.09320354461669922
25,0.020211760017932595,0.5283300016100159,0.29205138976177614,0.01745470054447651,-0.504091739654541,-0.8634737133979797,-1.2743736505508423,-1.5500482320785522,1.1287615299224854,-0.12206895649433136,0.012316226959228516,0.13744527101516724
26,-0.07700624704937932,0.49342555053362674,0.3292882864363303,-0.06775359064340591,-0.4736455976963043,-0.8781055212020874,0.3033125102519989,-0.7973622679710388,1.569581151008606,0.16783598065376282,-0.11128482222557068,-0.3768993616104126
27,0.10067520093846347,1.468625485024045,0.9497332417706511,0.010250943712890148,-0.9947850704193115,-0.10147769749164581,20.214080810546875,8.776104927062988,12.201921463012695,0.6863585710525513,0.25242966413497925,-1.4824455976486206
28,-0.6294536556446086,1.4306174352460521,1.5556883918892703,-0.0822543129324913,-0.9901910424232483,-0.11294352263212204,-24.87310791015625,-5.819983005523682,-7.07630729675293,-0.4811306893825531,1.0722832679748535,1.5281351804733276
29,-0.08731106612727117,0.6637027097907503,0.7627114306679063,-0.0686890259385109,-0.6160377264022827,-0.7847160696983337,19.135040283203125,6.125370502471924,5.35402774810791,0.3031861186027527,0.8667091727256775,-1.3687262535095215
30,-1.5842677296744574,1.4674894508890934,2.5933109772630436,-0.1031138226389885,-0.9946686029434204,0.0013891718117520213,-19.5070743560791,-7.481045246124268,-6.213322639465332,-1.1565754413604736,0.3434540033340454,3.4551842212677
31,-0.08644526569381021,0.6970925200095214,0.7776660932539342,-0.06619610637426376,-0.6419911980628967,-0.7638490200042725,27.150089263916016,7.52381706237793,9.057886123657227,0.489383339881897,1.521538257598877,-2.19716477394104
32,-1.4379101375353456,1.43779679848314,2.280075768940124,-0.1314387321472168,-0.9911686182022095,-0.01756993494927883,-26.71895980834961,-9.536298751831055,-7.8573408126831055,-1.2943425178527832,0.341403603553772,3.326636791229248
33,-0.24472387692448372,0.29058281087078236,0.3988053629531388,-0.2321309894323349,-0.2865106463432312,-0.9295304417610168,24.59954261779785,13.885669708251953,3.9575493335723877,-0.0382089763879776,0.9541437029838562,-1.8775527477264404
34,-2.7480072277263012,0.7555556446857362,-2.248351042788859,-0.27914777398109436,-0.6856932044029236,0.6722365021705627,-4.820104598999023,-7.634581089019775,-2.1462061405181885,-1.1374019384384155,0.43854647874832153,1.2170460224151611
35,-0.1730155380790317,-0.19020378035194602,0.42866855823889904,-0.1690489798784256,0.18905900418758392,-0.967305064201355,-14.163606643676758,-4.5527262687683105,-5.394102573394775,-2.036761522293091,2.839383363723755,-1.667262077331543
36,-2.708327649687382,1.297598299656017,-2.4151035032739734,-0.11327724903821945,-0.9629129767417908,0.24488212168216705,24.946880340576172,12.32699966430664,10.361211776733398,-0.10846348106861115,1.890540361404419,0.29176953434944153
37,0.11335029829893753,1.0845621429186092,0.7187249204181905,0.052855223417282104,-0.8840988874435425,-0.46430104970932007,-32.1104621887207,-11.312146186828613,-7.454225063323975,0.0511181615293026,2.3650407791137695,0.8431768417358398
38,-0.307358965407983,0.42017368883588285,0.40353480983949663,-0.2762267291545868,-0.4079190492630005,-0.8702303767204285,22.617130279541016,12.755431175231934,1.0062898397445679,-0.8381837010383606,1.225805401802063,0.6066805720329285
39,-2.9985291892256383,0.7704689901659607,-2.118731483905632,-0.10231024771928787,-0.6964718699455261,0.7102532386779785,-2.5748798847198486,-2.9493913650512695,-1.7588822841644287,-0.636337161064148,-0.08988982439041138,2.432919979095459
40,-0.4681529058956323,-0.1726215527401996,0.346565544798278,-0.4445323348045349,0.1717655211687088,-0.8791402578353882,-19.452348709106445,-10.303396224975586,-4.792235851287842,-2.264925003051758,2.9889094829559326,-1.2514749765396118
41,-0.0026088075711897573,0.9270048432112323,0.38280659167195236,-0.0015658886404708028,-0.7998257279396057,-0.6002302169799805,19.158613204956055,15.550466537475586,-0.4481968581676483,-0.10945706069469452,0.7349148392677307,1.2901411056518555
42,-2.897167638951238,1.06045956058674,-2.3171404756639893,-0.11820928007364273,-0.8725800514221191,0.47395217418670654,-17.84819793701172,-9.987310409545898,-3.552022933959961,-1.1607061624526978,0.32565927505493164,1.930634617805481
43,-0.6681611030269934,-0.0472791416861611,0.08198884992959524,-0.6188512444496155,0.04726152867078781,-0.7840850949287415,-1.9876424074172974,-6.1924004554748535,-5.681841850280762,-0.7734216451644897,0.7162272334098816,-2.399355888366699
44,0.9876203679950499,1.2655583913791246,-0.12673987622061503,0.25084933638572693,-0.9537754654884338,-0.16548959910869598,17.46584701538086,19.914087295532227,-1.4987114667892456,0.12486782670021057,0.1860906481742859,0.6500019431114197
45,2.8738041144416617,1.0968508802854042,-1.525080108597834,0.12076324969530106,-0.8897745013237,0.44013339281082153,-9.671860694885254,-3.127838373184204,-1.460915446281433,-0.060567326843738556,0.030185997486114502,0.8407504558563232
46,-2.9002950844887057,1.4856899979939826,-2.02550515771579,-0.020312337204813957,-0.996380627155304,0.08253946900367737,0.759701132774353,1.6168993711471558,-1.522537112236023,-1.3480653762817383,1.2164735794067383,0.2524672746658325
47,0.5052806654447888,0.4686523789238795,0.3042591674307928,0.43186137080192566,-0.4516843855381012,-0.7806900143623352,-5.759674549102783,-9.607328414916992,-8.932974815368652,1.2901997566223145,0.1952298879623413,-1.5797377824783325
48,2.8402422133064196,1.4485953772159734,-1.4553590233814482,0.03618000075221062,-0.9925427436828613,0.11640308052301407,9.64555835723877,8.19318962097168,13.521218299865723,0.4142594635486603,0.6252332925796509,-0.27033376693725586
49,0.7513158230831263,0.877350644457245,0.43087556506714725,0.43631231784820557,-0.7690481543540955,-0.4671151638031006,-18.97589111328125,-6.349220275878906,-19.83295249938965,1.128400206565857,2.7020010948181152,-0.8552420139312744
50,1.3109678578953468,1.1185787160415712,-0.06372145228528674,0.422294557094574,-0.8994802832603455,-0.11226189136505127,15.838866233825684,9.489814758300781,7.789745330810547,-0.8407667875289917,1.1256459951400757,-0.41151130199432373
51,2.7417638038741803,0.9257178792717038,-1.2640898982125894,0.23404736816883087,-0.7990525960922241,0.553838312625885,-2.703951120376587,-4.992914199829102,-5.104828357696533,-0.7942889928817749,0.8222305774688721,-0.32175213098526
52,1.7297064852603072,0.8903956501012,-0.7248724171072428,0.6211779713630676,-0.7773207426071167,0.09955087304115295,-4.073199272155762,-3.0376033782958984,4.511199951171875,0.8941723704338074,-0.4475327730178833,0.7356389760971069
53,3.1172693035503847,1.2080247100332757,-1.9346417508260942,0.00863070972263813,-0.9349168539047241,0.3547622859477997,10.62008285522461,3.1676597595214844,2.6045565605163574,-1.066095232963562,1.110713243484497,-0.24759981036186218
54,2.315212622016004,0.7787626466528644,-0.9716524966714093,0.5235046148300171,-0.7023992538452148,0.4822632670402527,0.27157968282699585,-0.4144415557384491,1.2668030261993408,3.724587917327881,-1.8129358291625977,1.10011887550354
55,2.9982773195935293,0.9487246072970775,-1.688466965281486,0.08322712033987045,-0.8126729726791382,0.5767459273338318,-2.9062514305114746,-1.7901073694229126,4.709502220153809,-0.07340047508478165,0.6655935645103455,-0.03495210409164429
56,0.9856219950938117,1.1162580346522284,-0.19395767307279174,0.3659970462322235,-0.8984638452529907,-0.24250563979148865,-12.685006141662598,-7.2397236824035645,-9.236867904663086,-1.3928372859954834,1.5036121606826782,0.35960155725479126
57,2.631004549308139,0.8063126531991746,-1.28101919712302,0.3382541835308075,-0.7217398285865784,0.6038839817047119,18.625768661499023,12.103160858154297,6.100168704986572,0.2967250943183899,0.09295564889907837,-1.6529715061187744
58,1.7182161108787861,0.8758705554618397,-0.8180839516942379,0.63338303565979,-0.7681012153625488,0.09405554085969925,-17.80767250061035,-11.538013458251953,-4.87618350982666,-0.7092955708503723,0.12736940383911133,1.1466976404190063
59,2.4436300455716466,0.6476809917734119,-1.1135263396249375,0.5125102400779724,-0.6033386588096619,0.6109957098960876,20.07954216003418,8.184946060180664,4.420607566833496,0.2655048966407776,0.5943512320518494,-1.7538179159164429
60,2.3118288187978564,0.3352523426687735,-1.1532789970367474,0.6966982483863831,-0.32900747656822205,0.6374682188034058,-8.156476974487305,-6.409400463104248,-6.621419906616211,-0.6286134719848633,0.7389957904815674,0.7283459305763245
61,2.404865973157713,0.20104522053272272,-0.5395330752900475,0.658334493637085,-0.19969360530376434,0.7257533073425293,15.765959739685059,9.132109642028809,8.044143676757812,2.325796127319336,-0.887968122959137,-3.5218958854675293
62,2.3837031757660516,-0.11632383585883711,-0.8384170569408907,0.6827446818351746,0.11606168001890182,0.7213800549507141,-18.953893661499023,-8.946845054626465,-6.28243350982666,-0.3513391613960266,1.0069241523742676,1.5360203981399536
63,2.5968773654447004,-0.18263583942634523,-0.8400382378490565,0.5095564723014832,0.1816222071647644,0.8410501480102539,16.106767654418945,-1.8280020952224731,5.125837326049805,0.25716710090637207,0.8080018162727356,-0.949921727180481
64,2.5532364611277436,0.14279305120982122,-0.0963243875260958,0.5493457913398743,-0.1423082947731018,0.8233876824378967,3.060013771057129,4.438882350921631,2.5524256229400635,1.905472993850708,0.2542315125465393,-2.7388999462127686
65,2.16358855408217,0.0589571406082279,-0.1336004959321257,0.8279427886009216,-0.058922991156578064,0.5577082633972168,-16.104883193969727,-1.7829949855804443,-2.5939183235168457,-0.7937784790992737,0.35494351387023926,1.8360141515731812
66,2.4675057826109996,-0.00539970889993469,-0.385697140616455,0.6241752505302429,0.005399682559072971,0.7812660932540894,0.32249608635902405,-6.025341510772705,-1.3086481094360352,-1.528273582458496,0.9953327178955078,-0.14244145154953003
67,2.6451550929110144,0.13634140958273167,-0.19662503907520026,0.4718761742115021,-0.13591939210891724,0.8711252212524414,9.35261344909668,-2.8327434062957764,4.922257900238037,0.1662617027759552,-0.5983640551567078,-2.326554298400879
68,2.48699480589864,0.2970370416960245,0.3598608576037738,0.5821778178215027,-0.2926882803440094,0.7585528492927551,2.6336092948913574,7.860326766967773,4.104711532592773,2.2395689487457275,-0.07506376504898071,-3.4956746101379395
69,2.449981483739913,-0.06628282340649928,-0.35628649069128937,0.6363785862922668,0.0662342980504036,0.7685282230377197,-10.182779312133789,-2.0327672958374023,-2.814927577972412,0.5322463512420654,0.3523600697517395,2.2067222595214844
70,2.5394195297108535,0.06340635428464579,-0.4857212146518713,0.5652965307235718,-0.06336387991905212,0.8224507570266724,10.805152893066406,-5.5950493812561035,8.0082426071167,0.307384192943573,0.41095906496047974,-0.580720841884613
71,2.301627233960116,0.4225824417644102,-0.14613154575012766,0.6791179776191711,-0.41011708974838257,0.608771562576294,-10.0806303024292,7.462982654571533,-2.79872727394104,-0.005885004997253418,1.4303350448608398,-0.5569831728935242
72,2.6631602133926884,0.05526003187937924,-1.2693194933654077,0.459685355424881,-0.055231910198926926,0.8863624930381775,11.748026847839355,0.5440637469291687,6.999655246734619,-0.6590415239334106,3.167200803756714,1.7188771963119507
73,2.343853942501667,0.5600959048333417,-0.2619336916518692,0.6064108610153198,-0.5312674641609192,0.5916256904602051,-13.89796257019043,0.008736299350857735,-8.679409980773926,0.635654628276825,1.987886667251587,-0.8134579062461853
74,2.682401128586086,0.018220987481689047,-0.9888754664764644,0.44314998388290405,-0.018219979479908943,0.8962623476982117,15.273859977722168,0.5233551859855652,3.795051336288452,-0.08707085251808167,2.3698740005493164,0.8729331493377686
75,2.3525636178416796,0.22658043525968896,-0.2507625205804832,0.6915304660797119,-0.2246466875076294,0.686526894569397,-14.285299301147461,-1.2861725091934204,-9.718652725219727,0.12679827213287354,1.3830634355545044,-0.20593619346618652
76,2.4542084027284092,0.20778784415208026,0.11750650046377556,0.6208690404891968,-0.20629583299160004,0.7562829852104187,19.775352478027344,3.745526075363159,11.413114547729492,0.988414466381073,0.41720283031463623,-2.5802574157714844
77,2.3947374224836424,-0.0041995809382988575,-0.5084715960524759,0.6793283224105835,0.004199568647891283,0.7338222861289978,-17.3118896484375,-1.4457552433013916,-7.0035881996154785,-1.442389965057373,1.615993857383728,2.07008695602417
78,2.1000326707401085,0.35315013601172873,0.949817718635822,0.8099232316017151,-0.3458552658557892,0.4737173318862915,11.249957084655762,4.078987121582031,2.6279125213623047,1.251767873764038,0.5489650964736938,-4.762093544006348
79,2.346391219293597,-0.27291558846095476,-0.738407461284033,0.6875787973403931,0.2695402503013611,0.6742281913757324,-5.032259941101074,-1.338808536529541,0.9536603093147278,-0.6741510033607483,0.6171938180923462,3.0649991035461426
80,1.854400773611171,0.27833411994261115,0.7939704535380854,0.9231050610542297,-0.27475425601005554,0.2690490186214447,-16.529306411743164,-4.581678867340088,-5.504737377166748,-0.11054396629333496,1.7322890758514404,-1.0643980503082275
81,2.1608110857258596,0.08822449700227068,0.1087620146344493,0.8277007341384888,-0.08811008930206299,0.5542094111442566,26.38655662536621,8.207894325256348,13.291913032531738,1.0338256359100342,0.7319546937942505,-0.9641215205192566
82,2.392300434306692,0.16361975879022303,-0.6325111810867512,0.672023594379425,-0.16289067268371582,0.722392201423645,-10.492597579956055,0.242524653673172,-2.7359185218811035,-0.4475059509277344,1.3260071277618408,0.7990615367889404
83,1.6118946534931173,0.4014325966963067,0.4865299650968649,0.919724702835083,-0.3907374441623688,0.037820443511009216,-10.374654769897461,-7.929464340209961,-4.481572151184082,-0.46550124883651733,1.078664779663086,-0.3501220941543579
84,1.7723412993714487,0.1402370696531421,0.3573927480404463,0.9701400399208069,-0.13977785408496857,0.19821803271770477,16.90109634399414,15.262849807739258,4.702798366546631,0.8600754141807556,0.052909597754478455,-0.24324680864810944
85,2.3767838864724165,-0.2290366602510466,-0.6282712661004858,0.6743175983428955,0.22703944146633148,0.7026730179786682,-9.184432029724121,-6.511928081512451,-2.4770281314849854,0.05242818593978882,0.2709464430809021,1.1683902740478516
86,1.7284249368885758,0.11004654794153583,0.844213107394262,0.9816282391548157,-0.10982456803321838,0.15602709352970123,-11.870938301086426,-3.6396563053131104,-3.5410478115081787,-0.765090823173523,0.6946024298667908,-0.844290018081665
87,2.411080735439268,-0.34776230134124314,-0.31054727823310946,0.6273077130317688,0.3407949209213257,0.7002453207969666,21.4744930267334,5.067280292510986,7.041770935058594,-0.20260989665985107,0.7543131113052368,-0.8791547417640686
88,2.2363546347139094,-0.08016539461625238,0.2841332897157499,0.7840461134910583,0.08007955551147461,0.6155152916908264,-20.903108596801758,-8.056893348693848,-6.257591247558594,-0.3616522550582886,1.395857334136963,0.36786794662475586
89,2.242016728587407,0.020485310378852442,0.5432935128345698,0.7828987836837769,-0.020483877509832382,0.6218115091323853,24.451698303222656,8.686378479003906,10.399173736572266,0.9987783432006836,0.9697331190109253,-2.4251105785369873
90,2.1826422120165323,-0.21885828858716488,-0.36544776644763033,0.7990624308586121,0.21711528301239014,0.5606781244277954,-16.059457778930664,-6.582962512969971,-1.2882574796676636,0.1472265124320984,0.7016163468360901,2.16060471534729
91,1.5673587462224985,0.13870059449869246,0.9958871279113236,0.9903906583786011,-0.13825631141662598,-0.003404561197385192,5.304490566253662,6.10352897644043,2.117537498474121,-0.8372229337692261,0.9456140995025635,-1.7240581512451172
92,2.3186652610553806,0.0010287676706229524,-0.9510261628896298,0.7331395745277405,-0.0010287674376741052,0.6800776720046997,4.562684535980225,0.11484313011169434,5.870736598968506,-0.7365115880966187,2.0670535564422607,1.7215948104858398
93,1.8793508347319527,0.508342198246321,-0.057545928272546114,0.8322978019714355,-0.4867297410964966,0.2652819752693176,-18.08745574951172,-2.542978525161743,-2.9806675910949707,0.015404224395751953,1.9769030809402466,0.3053203821182251
94,1.9613799067209863,0.3390928718873041,0.06917978960992827,0.8720322847366333,-0.33263176679611206,0.35904818773269653,27.716413497924805,6.149543285369873,4.9978485107421875,0.25351691246032715,1.8375909328460693,-2.0909972190856934
95,2.1293355862147383,0.022916488701763483,-0.4230966273546839,0.8478075265884399,-0.022914482280611992,0.5298088788986206,-21.094011306762695,-4.9101481437683105,-6.643910884857178,0.17056405544281006,1.6719776391983032,1.5259162187576294
96,1.907082546248179,0.09492730228783587,0.8080206803988629,0.9397364854812622,-0.09478479623794556,0.32849791646003723,11.638574600219727,4.976047992706299,0.9993964433670044,-0.09073764085769653,0.20695216953754425,-3.5590734481811523
97,1.947618435345541,-0.1819262741714902,-0.09583594547004713,0.9144936800003052,0.18092438578605652,0.3618948757648468,-11.390399932861328,-4.949626445770264,-2.5254204273223877,-0.8402290344238281,-0.3386392295360565,2.3601510524749756
98,1.9689061418005247,-0.055006928150876724,0.9466012139375686,0.9204012155532837,0.054979193955659866,0.3870902955532074,4.635324478149414,6.291082859039307,0.04258527606725693,0.4208158254623413,0.3465558588504791,-2.6586050987243652
99,1.8301592346950952,-0.37146751775321607,0.35974873398731894,0.9006304144859314,0.36298325657844543,0.23897279798984528,-1.8939201831817627,-5.596811294555664,1.303017497062683,0.7171674370765686,-0.49521589279174805,0.5485333204269409
100,2.028617939406044,-0.3677953019033944,0.22949236768715287,0.8370271325111389,0.3595590591430664,0.4124355614185333,6.192211627960205,6.38593864440918,1.208632230758667,1.3053679466247559,0.6013479232788086,-1.1195735931396484
101,1.9118982439333958,-0.1553870973729585,-0.44564221831212203,0.9310323596000671,0.15476255118846893,0.3304952383041382,-1.806418538093567,-4.983583927154541,7.978578567504883,0.2823464274406433,0.6130291819572449,0.42125949263572693
102,1.4688568936148825,0.38381267257647006,-0.19433624365387617,0.9224300384521484,-0.3744584619998932,-0.09435907006263733,0.7829541563987732,4.903626918792725,1.4632930755615234,-1.2752437591552734,1.0314257144927979,0.8184801936149597
103,2.0751167792754948,0.10994749565425657,-0.6573622583532859,0.8702169060707092,-0.10972611606121063,0.4802950322628021,4.906826972961426,0.17932569980621338,4.27156925201416,2.5470502376556396,-0.8411253690719604,0.1869567632675171
104,1.1533787637060924,0.6935105461649475,-0.3173634619015118,0.7029789090156555,-0.6392407417297363,-0.3117561340332031,-8.484553337097168,-13.133511543273926,4.854334354400635,-0.6602542996406555,0.8816266655921936,1.3843116760253906
105,0.3714200095645132,-0.08610242707463767,0.4734789899539455,0.36159446835517883,0.08599607646465302,-0.9283609986305237,-8.910489082336426,1.325219988822937,3.152465581893921,1.0127036571502686,2.2221245765686035,-2.775893211364746
106,-0.10460622113100491,0.09627521773576837,0.2641402497385377,-0.10393201559782028,-0.09612655639648438,-0.9899281859397888,5.632903575897217,-2.7590017318725586,-2.8549609184265137,0.2843366861343384,0.11280441284179688,0.5992421507835388
107,-0.14387434571413685,0.46961945087426665,0.08657530604857917,-0.12785641849040985,-0.45254695415496826,-0.8825270533561707,-1.5969085693359375,1.0349098443984985,-0.2955603301525116,0.16899411380290985,-0.35214054584503174,1.809757947921753
108,0.22125584722914418,-0.12062884451346499,0.27259232376370296,0.21786028146743774,0.12033650279045105,-0.968532919883728,9.184114456176758,-3.7745511531829834,-2.266894578933716,-0.9834700226783752,0.8734531402587891,-5.628116130828857
109,-0.1716374939991959,0.5673179755505796,-0.17991432241868383,-0.14404000341892242,-0.5373721122741699,-0.8309534788131714,5.862796783447266,-2.094621181488037,-2.6184356212615967,0.6540039777755737,-0.10915803909301758,0.9956568479537964
110,-0.05542709976897062,0.4816167676188962,-0.16241940687754047,-0.0490969642996788,-0.46321263909339905,-0.8848862051963806,-13.747869491577148,5.858897686004639,2.9977710247039795,0.509485125541687,0.23930516839027405,0.9210342764854431
111,-0.13633162807185323,0.11685495570181868,0.02550151906594907,-0.13498282432556152,-0.11658919602632523,-0.983964741230011,2.824732780456543,-0.652474045753479,-3.0459036827087402,-0.3955957889556885,0.27433454990386963,0.259294331073761
112,-0.009971908776353742,0.458636603414165,-0.14973215213395707,-0.008941233158111572,-0.4427260160446167,-0.8966123461723328,-1.4288287162780762,0.8794068098068237,-1.3685861825942993,-0.21675151586532593,-0.0758286714553833,1.354910135269165
113,-0.040593390903662534,0.20849618404817566,-0.24341809880923387,-0.0397033654153347,-0.2069888859987259,-0.9775373339653015,4.790633201599121,-1.1241379976272583,-3.0672099590301514,-0.312408447265625,0.5314822793006897,-0.558854877948761
114,0.0008419086064379801,0.5421537811205259,-0.3720090108610974,0.0007211783085949719,-0.5159820914268494,-0.8565990328788757,-1.5353646278381348,1.2574224472045898,0.6151576042175293,0.11889246851205826,-0.6055999398231506,1.3478710651397705
115,-0.04398162863454204,0.07722785760620578,-0.18939087303958693,-0.04383639991283417,-0.0771511122584343,-0.9960552453994751,2.0107805728912354,-0.8692867159843445,-0.2525818347930908,-0.27612513303756714,0.8184536099433899,-1.1470264196395874
116,-0.10403572308224987,0.23686822151969314,-0.22971312311069542,-0.10094846785068512,-0.23465944826602936,-0.9668217897415161,2.0893378257751465,0.9094427824020386,-0.2249508500099182,-0.19646058976650238,-0.45689940452575684,0.9592534303665161
117,-0.010237755378444418,0.02473518094524173,-0.15146213438059183,-0.010234445333480835,-0.02473265863955021,-0.9996417164802551,-2.9576339721679688,1.6103153228759766,0.7194139957427979,-0.12402763962745667,0.8566723465919495,-1.0648877620697021
118,-0.09604206509019107,0.3981224097785115,-0.26717939307659305,-0.08839462697505951,-0.3876882791519165,-0.9175424575805664,2.685380697250366,0.19671809673309326,-0.5955989956855774,0.07923935353755951,-0.4418252408504486,1.183457374572754
119,-0.02856126120748105,0.1488104143486784,-0.23815192097155538,-0.02824176661670208,-0.14826180040836334,-0.9885448217391968,-0.8707667589187622,-0.4134858548641205,0.6045274138450623,-0.33516156673431396,0.44474005699157715,-2.558223247528076
120,-0.06509019921449508,0.24515548412795943,-0.2898452701761068,-0.06309939920902252,-0.24270716309547424,-0.9680452942848206,1.0591033697128296,-0.4586295485496521,-0.09031401574611664,0.05156375467777252,0.004700571298599243,0.05991846323013306
121,-0.10594455694528446,0.29596224245041663,-0.31028607142150916,-0.101148821413517,-0.2916603982448578,-0.9511588215827942,-0.3148508071899414,-0.2973436713218689,-0.29154109954833984,0.025175325572490692,0.012729763984680176,1.082414984703064
122,-0.06754082010201388,0.14915426698511608,-0.31532987866971135,-0.06674015522003174,-0.14860184490680695,-0.9866424202919006,0.1829216033220291,-0.4991935193538666,-0.3708168864250183,-0.03582942485809326,0.32157546281814575,-0.7498840689659119
123,-0.06795655805395952,0.31810458707034,-0.3909034635306723,-0.06449750065803528,-0.31276679039001465,-0.9476375579833984,1.9561057090759277,-0.02279692143201828,-0.8087134957313538,-0.002381756901741028,-0.11611193418502808,0.06273466348648071
124,0.10431745354438958,0.35140911818708803,-0.3511581826491646,0.09776492416858673,-0.3442211449146271,-0.9337846636772156,-6.9502973556518555,1.2934002876281738,2.2662107944488525,0.5019665360450745,-0.2984485328197479,0.4823991656303406
125,0.0368058210497225,0.2971830670694203,-0.28516807444779374,0.03518449887633324,-0.29282790422439575,-0.955517590045929,2.663327932357788,-1.9036062955856323,-0.8880168795585632,0.011568430811166763,0.22155413031578064,-0.14497679471969604
126,-0.0322601888140611,0.5157882628671098,-0.2770613449496419,-0.028058407828211784,-0.493220716714859,-0.8694515824317932,-0.4390786588191986,0.6339635848999023,0.294607549905777,-0.08719122409820557,-0.08774241805076599,1.776205062866211
127,-0.010991459230163871,0.21106326228936842,-0.14634279249409946,-0.010747328400611877,-0.20949968695640564,-0.9777496457099915,5.944444179534912,-2.1825902462005615,-1.3876858949661255,-0.41811618208885193,1.0427974462509155,-2.5200531482696533
128,0.03279656112020085,0.6016220526653812,-0.24586411745859477,0.02703324891626835,-0.5659804940223694,-0.8239753246307373,-2.564641237258911,1.431670069694519,-0.4369319975376129,-0.3898567259311676,-0.5197281241416931,2.0610053539276123
129,-0.024814581243135847,0.3245485112997735,-0.22950193084756645,-0.023516718298196793,-0.3188808858394623,-0.9475030303001404,3.535919666290283,0.6372073292732239,-1.414801001548767,-0.4951905608177185,0.21084871888160706,-0.4801245331764221
130,-0.024596954632287043,0.3138192397265826,-0.29205808651352777,-0.02339331805706024,-0.3086935877799988,-0.950873851776123,-0.7536391019821167,-0.22401706874370575,-0.3246188163757324,-0.14605553448200226,0.22483128309249878,-0.28371477127075195
131,-0.055015591830791674,0.3425028769391102,-0.3276090410648685,-0.051793985068798065,-0.3358456492424011,-0.9404919147491455,0.49502286314964294,-0.531896710395813,-0.5535460710525513,-0.040048666298389435,0.15834015607833862,0.6577465534210205
132,-0.050264741927047295,0.36088797243994886,-0.3823942321109375,-0.04700706899166107,-0.3531051576137543,-0.9344019889831543,-0.5806379318237305,-0.1529645472764969,-0.42621681094169617,0.017054066061973572,0.027665704488754272,0.5111536979675293
133,-0.01103959629815998,0.34477464790481094,-0.41317431235752955,-0.010389722883701324,-0.3379845917224884,-0.9410942792892456,-0.6420494914054871,0.28721076250076294,-0.20947806537151337,-0.051698289811611176,-0.1762518584728241,0.013283610343933105
134,0.04369749992775028,0.3467016750566155,-0.4086848733687284,0.04108436033129692,-0.33979758620262146,-0.9396008253097534,0.2574736177921295,0.9260594844818115,0.6103627681732178,0.19235986471176147,-0.09680214524269104,-0.5847827196121216
135,0.03498528115397699,0.35547433189462374,-0.33038076213510575,0.032791364938020706,-0.34803506731987,-0.9369078278541565,-0.5154395699501038,-0.026499507948756218,0.9091272354125977,0.03430153429508209,0.1072361171245575,-0.2110108733177185
136,0.004588993237539603,0.37731640383780884,-0.27644732540536177,0.004266173113137484,-0.36842697858810425,-0.929646909236908,0.42834171652793884,0.044767290353775024,0.5853320956230164,-0.0990232527256012,0.05020493268966675,0.5967459082603455
137,-0.021507606040926757,0.4194320692365892,-0.23518634728317042,-0.019641820341348648,-0.4072418212890625,-0.9131091237068176,0.38524332642555237,0.0016883467324078083,0.45535004138946533,-0.018047384917736053,0.054534912109375,0.4261096715927124
138,-0.015194631922545256,0.4042329313494854,-0.232350290488112,-0.013969473540782928,-0.39331361651420593,-0.9192982316017151,0.05863809213042259,0.19786278903484344,-0.25141945481300354,-0.04512781649827957,-0.08572080731391907,-0.1522654891014099
139,0.01922245401513636,0.40219344580338495,-0.284729263100477,0.01768750138580799,-0.39143770933151245,-0.9200345873832703,0.34204578399658203,0.04027344658970833,-0.5584033727645874,-0.09138745814561844,-0.36939603090286255,-0.5636231899261475
140,0.044135363030290184,0.3930924628700094,-0.30428048064234686,0.040755875408649445,-0.38304683566093445,-0.9228293895721436,-0.02225576341152191,0.14189423620700836,-0.3368549644947052,-0.15983545780181885,0.22395870089530945,-0.39853596687316895
141,0.05901682052279346,0.4036911115681673,-0.3445710534246313,0.05424139276146889,-0.39281541109085083,-0.9180163145065308,0.0400170162320137,-0.11456530541181564,-0.4161756932735443,-0.1849329173564911,0.20201954245567322,0.43980586528778076
142,0.06270089774167949,0.38915366612263996,-0.3971645540511888,0.05797477811574936,-0.37940549850463867,-0.9234123826026917,-0.36824458837509155,-0.000786507036536932,-0.5724586844444275,-0.09154410660266876,0.10207700729370117,0.41270071268081665
143,0.08021389296086485,0.35776909584050887,-0.4351319165781471,0.07505423575639725,-0.35018545389175415,-0.9336685538291931,-0.035187043249607086,-0.017987949773669243,-0.32657209038734436,-0.019512251019477844,-0.13846197724342346,-0.03573751449584961
144,0.10856837495062686,0.36288944214271374,-0.4349647774627552,0.10129858553409576,-0.35497698187828064,-0.9293707609176636,0.4464254677295685,0.36378785967826843,0.06042991578578949,-0.005458131432533264,-0.29043927788734436,-0.4058495759963989
145,0.11223268851917349,0.3856770333476689,-0.38621487325548176,0.10377034544944763,-0.3761865198612213,-0.9207146167755127,0.11944151669740677,-0.2706233263015747,0.4814963638782501,-0.04217062145471573,0.1791345477104187,-0.49197453260421753
146,0.0958927096935672,0.39653887139628446,-0.3439600916811144,0.08831625431776047,-0.38622811436653137,-0.9181656241416931,0.29867231845855713,-0.35091957449913025,0.4419180750846863,-0.07200460880994797,0.07455208897590637,0.13380283117294312
147,0.04774362990753292,0.42872890663612767,-0.29583227454602395,0.04340609163045883,-0.4157150983810425,-0.9084585309028625,-0.06012768670916557,-0.46782559156417847,0.14075304567813873,-0.15729770064353943,0.17894446849822998,0.6423452496528625
148,0.025761854946800136,0.3873830658012485,-0.27758452682917123,0.02385028451681137,-0.3777666985988617,-0.9255936145782471,0.11190474033355713,-0.2741168141365051,-0.4142787754535675,-0.15069660544395447,0.049107640981674194,-0.07458949089050293
149,0.018446411197379525,0.38540369570453553,-0.29634754662685775,0.01709233783185482,-0.3759332597255707,-0.9264891147613525,0.25971823930740356,-0.24605339765548706,-0.4584622383117676,-0.14193975925445557,-0.14025631546974182,-0.36394667625427246
150,0.030065121436695534,0.4396217705829951,-0.34877967616093875,0.027202211320400238,-0.425597220659256,-0.9045037627220154,0.3593616485595703,-0.11016213148832321,-0.42384159564971924,-0.25199469923973083,-0.08006376028060913,-0.3209906220436096
151,0.061507592090714755,0.4034515738456809,-0.3928245971585993,0.0565335713326931,-0.392595112323761,-0.917972207069397,-0.10484962910413742,-0.561295211315155,-0.4211467504501343,-0.0961606502532959,0.21220576763153076,-0.29404860734939575
152,0.03382169141297555,0.40627357195825275,-0.4298067539435929,0.03106267750263214,-0.39518898725509644,-0.9180744886398315,0.08220402896404266,-0.3364403545856476,-0.5419160723686218,-0.06019170209765434,0.14833229780197144,0.5426472425460815
153,0.05476661998478113,0.3855796516011408,-0.4756331886495518,0.050720322877168655,-0.37609630823135376,-0.925191342830658,0.028526853770017624,0.28553855419158936,-0.5182905197143555,-0.03312693536281586,0.15345528721809387,0.16629546880722046
154,0.08364906884647255,0.369155435951948,-0.4872934376632946,0.07792288810014725,-0.36082789301872253,-0.9293714165687561,-0.5383411049842834,-0.1224510595202446,0.16679540276527405,-0.06882865726947784,-0.24309968948364258,-0.12214219570159912
155,0.09554806314679903,0.3416022677024745,-0.45279232741306935,0.08989029377698898,-0.3349972069263458,-0.937921404838562,0.13735732436180115,-0.019892387092113495,0.5955020189285278,0.20703047513961792,-0.11861604452133179,-0.7687893509864807
156,0.06735209741404344,0.3893279639583119,-0.39447469461499834,0.06226465851068497,-0.3795667588710785,-0.9230667352676392,-0.055787503719329834,-0.04620567336678505,0.5303148031234741,-0.07129786908626556,0.12358531355857849,-0.04011380672454834
157,0.023553268914898194,0.41189803509222295,-0.34718686829424006,0.021581338718533516,-0.40034934878349304,-0.9161084294319153,0.4155048727989197,-0.12705205380916595,0.45356208086013794,-0.10562674701213837,0.08913105726242065,0.5025036931037903
158,-0.006834209474428731,0.4141389295077846,-0.311703370130248,-0.00625641830265522,-0.40240180492401123,-0.9154418110847473,-0.4916454255580902,0.039958637207746506,0.3692154288291931,-0.01672331988811493,0.04974067211151123,0.5699370503425598
159,-0.02107869571877273,0.3370854607672112,-0.292586691524631,-0.01989096961915493,-0.33073797821998596,-0.9435129761695862,-1.104994297027588,-0.02439016103744507,0.08355573564767838,-0.09038430452346802,-0.20733270049095154,-0.05277913808822632
160,-0.00026972411383031236,0.30456830727448286,-0.32068952530135686,-0.0002573104575276375,-0.29988136887550354,-0.9539764523506165,0.4907867908477783,-0.22118701040744781,-0.45082980394363403,-0.013994399458169937,-0.48649558424949646,-0.5979644656181335
161,-0.026737596451019155,0.3466100460252886,-0.3179085243848536,-0.025144508108496666,-0.33971142768859863,-0.9401935338973999,-0.11577173322439194,0.015003204345703125,-0.24280142784118652,-0.4064045548439026,0.19189953804016113,-0.2498546838760376
162,-0.019469661244975744,0.38174897063874735,-0.37963387509270574,-0.01806698553264141,-0.3725441098213196,-0.9278386235237122,0.7636480331420898,-0.6108067631721497,-0.5789724588394165,0.02951107919216156,0.21006852388381958,0.20086413621902466
163,-0.04470438519051091,0.4248503480695216,-0.4068264545091224,-0.04071661829948425,-0.4121844470500946,-0.9101901650428772,0.16140741109848022,-0.09487438201904297,-0.06102898344397545,0.16506049036979675,0.0691363513469696,0.8301272988319397
164,-0.003986941394693683,0.35725674334522595,-0.3631873998487564,-0.003735194681212306,-0.3497055172920227,-0.936852216720581,-0.9704754948616028,1.31419837474823,1.0318852663040161,0.21967756748199463,-0.061412036418914795,0.21888041496276855
165,0.13584641131632252,0.31274627667462473,-0.1855512685145169,0.12885960936546326,-0.3076728582382202,-0.942726194858551,1.0734336376190186,3.7674167156219482,2.3906917572021484,0.23986902832984924,-0.22469103336334229,-0.2645339369773865
166,0.3148960201140633,0.3247204348874242,0.03178500515340925,0.29353174567222595,-0.3190438449382782,-0.9011382460594177,-2.620267629623413,-0.9590297341346741,2.022387981414795,0.6304489374160767,0.1244027316570282,-0.9208832383155823
167,-0.08837015147608233,0.16033445847751937,0.2363452699010301,-0.08712321519851685,-0.15964838862419128,-0.9833219051361084,0.14502808451652527,-2.872591495513916,2.1145567893981934,0.09278421849012375,0.04017205536365509,0.0323941707611084
168,-0.3086382487903296,0.2442772305722066,0.4288223790445804,-0.2947435677051544,-0.24185506999492645,-0.9244632720947266,2.125149726867676,0.629889965057373,1.3061093091964722,-0.05771920084953308,0.22961753606796265,0.8742924332618713
169,-0.26056843908780647,0.29678887125270437,0.5279342025729068,-0.24636639654636383,-0.29245099425315857,-0.9240000247955322,-0.5909790992736816,0.3033140301704407,0.5025923848152161,-0.45503437519073486,0.11897382140159607,0.4312937259674072
170,-0.046181201770357116,0.29356750631828565,0.4823852790248637,-0.04418975114822388,-0.2893689274787903,-0.9561970829963684,0.44392314553260803,2.5433568954467773,-1.4979636669158936,-0.7968441843986511,0.12069830298423767,-0.4385782480239868
171,0.424616276702776,0.498812322335744,0.185164753727057,0.3617730438709259,-0.4783829152584076,-0.8001688122749329,3.029860258102417,2.9323713779449463,-2.047980308532715,-0.0355248749256134,-0.1290542185306549,-0.7081625461578369
172,1.0853337947297315,0.7902541214234335,-0.36471004505230287,0.6223627328872681,-0.7105321288108826,-0.3283422589302063,7.666635513305664,3.4774951934814453,-0.26541849970817566,-0.19105786085128784,0.6012639999389648,-0.017406612634658813
173,1.860049811217809,0.8014705195421864,-1.1618935925023168,0.6667516827583313,-0.7183798551559448,0.19842529296875,2.860042095184326,0.928250789642334,-0.45634743571281433,-0.4142340421676636,0.7218283414840698,0.2781982421875
174,2.02616501252953,0.6294560407105999,-1.3026911424769014,0.7259763479232788,-0.5887051224708557,0.3555060923099518,1.274141788482666,1.6697343587875366,-2.7671256065368652,-0.3625882863998413,1.1733304262161255,0.17707130312919617
175,2.072613442499366,0.21970423447514648,-1.172224825229608,0.8556355834007263,-0.21794097125530243,0.46945664286613464,-1.0770350694656372,-0.5755188465118408,-5.786017417907715,0.3625956177711487,1.2911831140518188,0.06830883026123047
176,1.9996488240179549,-0.26226919139604216,-0.5494256628804705,0.8783441781997681,0.25927281379699707,0.40160784125328064,-5.657832622528076,-1.3780604600906372,-8.453008651733398,2.2142460346221924,1.5497024059295654,-0.3866848349571228
177,2.225567314464572,-0.4283156885240717,0.12082603522144925,0.7215360999107361,0.41533923149108887,0.5539665818214417,-4.572889804840088,-4.235130786895752,2.4391274452209473,1.2930207252502441,-0.6231486797332764,-1.0394248962402344
178,1.9380546558626446,-0.35912744992487866,0.0674535957767902,0.8737733960151672,0.35145747661590576,0.33615145087242126,1.379347324371338,1.7063034772872925,-1.0706915855407715,-0.5910890698432922,-0.42765986919403076,0.5294185876846313
179,2.2201299356532607,-0.4971965266673937,0.32144155795864127,0.7000508308410645,0.4769633710384369,0.5314459800720215,-2.4495067596435547,1.462601661682129,-2.708453893661499,0.47377729415893555,-0.5389751195907593,-0.23328924179077148
180,2.378285501656479,-0.4376836142363792,0.5102892357492654,0.6261487603187561,0.42384257912635803,0.6544429063796997,-0.6152307987213135,0.2773668169975281,1.2915887832641602,0.846950113773346,-0.45352086424827576,-0.5253687500953674
181,2.331847767112475,-0.34007850222759406,0.38707029894153205,0.6826402544975281,0.33356109261512756,0.6501839756965637,0.6554931402206421,-0.32794907689094543,1.7792428731918335,0.9124066829681396,0.03518277406692505,-0.2812264561653137
182,2.2085043901626564,-0.19016582727484838,0.10402036001116181,0.788978099822998,0.1890217363834381,0.584622859954834,1.6463626623153687,-1.0572559833526611,4.153116703033447,0.8059619069099426,0.2816203236579895,-0.43467485904693604
183,2.089788722577997,0.11948650149863267,-0.29554381658639817,0.8621283769607544,-0.1192023828625679,0.4924689829349518,1.2720788717269897,-1.0614176988601685,5.115561008453369,0.15227597951889038,0.6139075756072998,-0.0858222246170044
184,2.134153425175714,0.43005620112969173,-0.6611011611232582,0.7684810161590576,-0.4169218838214874,0.48540031909942627,1.8995563983917236,0.1773000955581665,3.5912632942199707,-0.09443908929824829,1.1638853549957275,0.114315927028656
185,2.2615280024941744,0.48289448518838,-0.9105905317826861,0.6826450824737549,-0.4643446207046509,0.5642518401145935,0.8191890120506287,-0.32083889842033386,-0.728082537651062,-0.6895571351051331,1.2972455024719238,0.14116203784942627
186,2.166488699365903,0.22691903808501673,-0.7503935444943137,0.8065400123596191,-0.22497661411762238,0.546698272228241,-0.09479282796382904,-0.09180565923452377,-5.095730304718018,-0.06926572322845459,1.128312110900879,0.3942503333091736
187,2.092581670327895,-0.23905775914458416,-0.2791900375195415,0.842276394367218,0.23678728938102722,0.48425406217575073,-0.9329069256782532,-0.42178311944007874,-6.597459316253662,1.5582818984985352,0.8669571876525879,-0.10077029466629028
188,2.1708142437237794,-0.5809333382366177,0.025454651661452964,0.6899315714836121,0.5488044023513794,0.47202572226524353,-0.7017337083816528,-0.3080616295337677,-1.4477726221084595,0.6266883611679077,-1.5186223983764648,-0.14361077547073364
189,2.265507120930983,-0.5724603029913461,0.11448200801313883,0.6457593441009521,0.5417017340660095,0.5381026864051819,-1.4528776407241821,0.40974366664886475,-0.5611169338226318,0.11728709936141968,-0.644637405872345,-0.3200850486755371
190,2.3529798360504426,-0.47361020870936604,0.2708250334153621,0.6312932968139648,0.45610207319259644,0.6272475123405457,-1.4255846738815308,-0.8435376882553101,0.8021427989006042,0.7688988447189331,-0.5350205898284912,-0.8165938854217529
191,2.188499935316158,-0.3444469443458217,0.2391708117006868,0.7673269510269165,0.33767616748809814,0.5451458096504211,-0.00395483523607254,-2.741283416748047,1.299189567565918,1.011939287185669,-0.016051441431045532,-0.5806531310081482
192,1.8546308408366632,-0.1318795162208474,0.041144563741635214,0.9516526460647583,0.1314975619316101,0.2776070833206177,1.4437482357025146,-3.296550989151001,3.3670477867126465,1.1931532621383667,0.6941555142402649,-0.32855620980262756
193,1.3066824105058732,0.18752617803944166,-0.03078488688427004,0.948400616645813,-0.1864290088415146,-0.25647735595703125,0.19347378611564636,-6.647537708282471,2.0173449516296387,0.0025271177291870117,0.7424287796020508,0.20296478271484375
194,0.6253485822765975,0.2664560484567102,0.02694453517796961,0.564721941947937,-0.26331421732902527,-0.7821475267410278,-0.48945319652557373,-6.838501453399658,-0.5070983171463013,0.3888760805130005,0.5289239883422852,0.41358673572540283
195,0.08706849672165795,0.2360201353375212,-0.0432548143948466,0.08454771339893341,-0.23383496701717377,-0.9685932397842407,1.231799840927124,-2.9015579223632812,-1.590684175491333,0.3616498112678528,0.34385085105895996,0.4588733911514282
196,-0.032472034051844754,0.35150667253803874,-0.17795102990456452,-0.03048117458820343,-0.34431275725364685,-0.9383600950241089,0.5707769393920898,-0.6621138453483582,-0.6819051504135132,0.21138937771320343,-0.11781492829322815,0.3804835081100464
197,-0.05839000551810714,0.3003637790245884,-0.15897662420805225,-0.05574413388967514,-0.2958677113056183,-0.9536010026931763,-0.773923397064209,0.33149251341819763,0.3840846121311188,0.06038280576467514,0.11634805798530579,-0.0065277814865112305
198,-0.0329363202019456,0.31521336806695543,-0.10147216072582366,-0.0313078947365284,-0.3100193440914154,-0.9502146244049072,1.1976118087768555,1.5352180004119873,0.34055933356285095,-0.0972626656293869,-0.019570529460906982,0.4669840335845947
199,-0.01090518857466692,0.36747314707246853,-0.043301848542676574,-0.01017693616449833,-0.35925841331481934,-0.9331825971603394,0.4672926962375641,0.3595583438873291,0.20824699103832245,-0.15820379555225372,0.08246403932571411,0.35380643606185913
200,0.0045793861314237065,0.4080234841652024,-0.03347617369896036,0.0042034354992210865,-0.3967958390712738,-0.9178972840309143,-0.42661556601524353,-0.9122467041015625,-0.04674879088997841,-0.1370006799697876,-0.1035245954990387,0.016087591648101807
201,-0.007432134253673973,0.4100211132777612,-0.05824203363275981,-0.00681603979319334,-0.39862868189811707,-0.9170870780944824,-0.18139661848545074,-0.6905305981636047,-0.27204105257987976,-0.016346801072359085,-0.27309373021125793,-0.3493008613586426
202,-0.046574943658310164,0.37720987238681936,-0.06502427858118867,-0.043284881860017776,-0.36832794547080994,-0.9286877512931824,-1.6040090322494507,0.03475963696837425,-0.17323361337184906,-0.20091678202152252,0.14374908804893494,-0.20972472429275513
203,-0.015965466012197456,0.35464394409320477,-0.1179882796317771,-0.014971301890909672,-0.34725648164749146,-0.9376506805419922,1.0323245525360107,0.018573792651295662,-0.8270421624183655,0.0474420040845871,0.18348389863967896,0.06635856628417969
204,-0.005651391561321946,0.42797283978249157,-0.163277822926117,-0.005141659174114466,-0.41502732038497925,-0.9097943902015686,0.13503465056419373,-0.06946589052677155,-0.23639892041683197,0.01698247715830803,0.12240955233573914,0.6203504204750061
205,0.03094296542764386,0.4150267297978014,-0.18178531308224768,0.028311561793088913,-0.40321439504623413,-0.9146674871444702,0.22159256041049957,0.5079010128974915,-0.3090493083000183,-0.06564981490373611,-0.01243501901626587,-0.0008140802383422852
206,0.05980336423846084,0.38233119783951725,-0.18224684539413025,0.055452339351177216,-0.3730843663215637,-0.9261388182640076,0.17861610651016235,0.5956425666809082,0.22502297163009644,-0.015367500483989716,-0.2761160731315613,-0.41010385751724243
207,0.05087358738567493,0.37111082459041905,-0.10102825199834593,0.0473899245262146,-0.36265087127685547,-0.9307193756103516,-0.04549466446042061,-0.056856684386730194,1.3946959972381592,0.1059914231300354,0.12288951873779297,-0.45789146423339844
208,0.01701447757785555,0.3529868604866229,-0.0064935112089489965,0.01596466824412346,-0.34570205211639404,-0.9382085204124451,-0.1748153120279312,-0.08365346491336823,0.801568329334259,0.08335478603839874,0.16970717906951904,0.02657216787338257
209,0.0010842792258193908,0.39290776209120365,0.06146395962635692,0.0010016565211117268,-0.3828762173652649,-0.9237990975379944,0.3382490277290344,-0.05532887578010559,0.8184443712234497,-0.01665717363357544,0.01930508017539978,0.5140701532363892
210,-0.024502856554506413,0.39908365020106096,0.13007942776267792,-0.022575100883841515,-0.38857415318489075,-0.9211408495903015,-0.47471246123313904,-0.0012873988598585129,0.32622480392456055,-0.10224179178476334,0.036889612674713135,0.400556743144989
211,-0.03452554276643737,0.2902759374685324,0.17034756594718597,-0.03307459130883217,-0.2862166166305542,-0.9575939178466797,-1.4400858879089355,0.43522223830223083,0.4021610617637634,-0.10332372039556503,-0.2041703462600708,-0.09726142883300781
212,-0.039381157171478366,0.10954738860945,0.2586898412334753,-0.03913497552275658,-0.10932841151952744,-0.9932349920272827,-2.0794005393981934,0.412392795085907,1.4114254713058472,-0.10924148559570312,-0.19435200095176697,-0.4366508722305298
213,-0.004208785497610394,0.06584486674674268,0.3278243670941595,-0.004199652932584286,-0.06579729914665222,-0.9978241920471191,1.1020584106445312,-0.47167542576789856,-0.6604148149490356,-0.21397051215171814,0.4283919036388397,-0.6505675315856934
214,-0.02849341373324695,0.3194948755588517,0.20152337558307942,-0.027047820389270782,-0.31408703327178955,-0.9490088224411011,3.3723843097686768,0.12698961794376373,-1.3866872787475586,0.08820504695177078,0.16770946979522705,0.6040381193161011
215,-0.006610497930692449,0.4191837983941356,0.16050659199282216,-0.006038126535713673,-0.4070150554180145,-0.9134014844894409,-1.1879233121871948,-0.10775970667600632,0.2519579529762268,-0.0899243950843811,-0.024671345949172974,0.4843395948410034
216,-0.003934301700632075,0.3819282396901642,0.16233595631048842,-0.0036508168559521437,-0.3727104663848877,-0.9279404878616333,-0.7116929292678833,-0.5142000913619995,-0.24561451375484467,0.032489925622940063,0.046874284744262695,-0.1877669095993042
217,0.029482951969046906,0.39126532462617875,0.13070716921766568,0.027250897139310837,-0.38135841488838196,-0.9240255355834961,-0.8542797565460205,0.5412716269493103,0.9866626858711243,0.45996224880218506,-0.25624534487724304,-0.1277170181274414
218,0.010103909598129028,0.30322427637715754,0.31313826092076136,0.00964279193431139,-0.2985989451408386,-0.9543299674987793,-0.3501525819301605,0.29221293330192566,1.9091016054153442,0.3609626889228821,0.23677033185958862,-0.2402806282043457
219,-0.04503216218632404,0.3712192752463681,0.4816934078419569,-0.04195064678788185,-0.36275193095207214,-0.9309410452842712,1.1882195472717285,0.09704910218715668,1.5516307353973389,0.06090205907821655,0.17364975810050964,0.6463646292686462
220,-0.08210428796388063,0.3458579885735952,0.6899637850000884,-0.07715572416782379,-0.3390039801597595,-0.9376157522201538,-1.8556550741195679,0.7719294428825378,2.436945915222168,-0.11844669282436371,0.04835456609725952,0.7706540822982788
221,0.001127233749339814,-0.024922925930936677,1.0011339865225857,0.001126883435063064,0.024920346215367317,-0.9996888041496277,-4.459311485290527,1.2965394258499146,2.827705144882202,-0.38131487369537354,0.44852936267852783,-0.22727042436599731
222,0.15427566163042244,-0.34745617210652896,1.1505958296681442,0.14448171854019165,0.3405070900917053,-0.929074764251709,-0.7180683612823486,1.1371866464614868,-0.7968927621841431,-0.5128746628761292,1.0455403327941895,-1.2055535316467285
223,0.11706189178174212,-0.2929457220908359,0.9249854743278545,0.11181895434856415,0.28877368569374084,-0.9508450627326965,2.9172422885894775,-0.13764414191246033,-3.1658530235290527,0.07838183641433716,0.5953357815742493,-0.44774502515792847
224,0.18473917970148948,0.2549462463740954,0.5461008950877208,0.17775271832942963,-0.2521933913230896,-0.9512110352516174,9.003552436828613,3.113205909729004,-1.8003756999969482,0.22765804827213287,0.3450278639793396,0.7639551758766174
225,0.8300152807477101,0.9384205652642178,-0.016743437029795732,0.43616992235183716,-0.8066255450248718,-0.3988873362541199,4.791199207305908,2.5127460956573486,-0.41707277297973633,-0.08150988817214966,0.6502993106842041,1.2654187679290771
226,1.593549553510153,0.8658613442045515,-0.5342689794926314,0.6478167176246643,-0.7616536617279053,0.014742464758455753,0.3321625590324402,2.713078022003174,-3.9298818111419678,-0.0830278992652893,1.0647846460342407,0.7782109975814819
227,1.7741804590589825,0.33562800579720026,-0.34927132612605444,0.9247424006462097,-0.3293622136116028,0.19071486592292786,-0.4379887580871582,3.5288705825805664,-7.355810165405273,1.0745861530303955,1.411881685256958,0.20354175567626953
228,2.0827786665775996,-0.3736624740181199,0.22377564397986582,0.8116196990013123,0.36502763628959656,0.4561011791229248,-5.0622053146362305,2.176564931869507,-7.424620151519775,3.251093864440918,0.38227155804634094,-0.5814368724822998
229,1.9715018325568916,-0.18689048392015414,0.5189916139270019,0.9047520160675049,0.18580442667007446,0.3832756578922272,1.702032208442688,-2.5658626556396484,0.39987123012542725,-0.49224603176116943,0.03819456696510315,-0.35104912519454956
230,2.0588937201336024,-0.2685548343868264,0.46584243475549386,0.8515676856040955,0.26533836126327515,0.4521370530128479,-1.0694774389266968,0.7078326344490051,-1.2760406732559204,-0.5341544151306152,-0.27724024653434753,-0.23363128304481506
231,2.170238054843244,-0.3932282540897158,0.6029598295728398,0.7626346945762634,0.38317227363586426,0.5211216807365417,0.34794729948043823,0.9107208847999573,-2.0339465141296387,0.2791593074798584,-0.3192683756351471,-0.390933632850647
232,2.2156404699561416,-0.4431174312115594,0.672224385542195,0.7220069169998169,0.428757905960083,0.5430218577384949,0.38663947582244873,-0.12719568610191345,0.3906976580619812,0.7276238203048706,-0.3466046154499054,-0.3742749094963074
233,2.1864164509998,-0.44650922073263666,0.494241876541502,0.736374020576477,0.4318196177482605,0.5208501815795898,0.9746419787406921,0.4315430223941803,1.9312437772750854,1.0545042753219604,-0.08709308505058289,-0.0842658281326294
234,2.1049751193258612,-0.19548032623833095,0.2276009881988474,0.8442947864532471,0.19423773884773254,0.49943768978118896,0.8519309759140015,-0.3083913028240204,4.414605617523193,0.29863429069519043,0.23418328166007996,-0.25862348079681396
235,2.054383790995807,0.17509189515666773,-0.06368169560962025,0.8717962503433228,-0.17419862747192383,0.45784926414489746,0.6046109795570374,-0.015100264921784401,4.491209030151367,0.019881486892700195,0.7639966011047363,-0.013589680194854736
236,2.147891636683922,0.4947747086582196,-0.35732434609522595,0.7375483512878418,-0.4748333990573883,0.48016226291656494,1.2985289096832275,1.0037952661514282,2.939805507659912,-0.4658503532409668,1.1190747022628784,0.17038094997406006
237,2.2936960617762536,0.5031138261987576,-0.5272458647456995,0.6569681763648987,-0.48215585947036743,0.5795847773551941,1.5808697938919067,0.40077710151672363,-1.7858425378799438,-0.6908122301101685,1.1645747423171997,-0.1352946162223816
238,2.2386442053041677,0.04751400290315731,-0.4040889384773549,0.7842702269554138,-0.04749612882733345,0.6185987591743469,0.27649977803230286,-1.2722318172454834,-6.3085408210754395,0.6104136109352112,1.1063339710235596,0.3250352144241333
239,2.270821187698285,-0.5534199158199429,0.08324125082838096,0.6506622433662415,0.5255997180938721,0.5480729341506958,-2.9060966968536377,-0.9552593231201172,-6.7946062088012695,2.4893524646759033,-0.052821338176727295,0.5824509263038635
240,2.29630554932274,-0.42807489306050106,0.2350572557608293,0.680652379989624,0.4151201844215393,0.6036450862884521,2.0333526134490967,2.2390921115875244,1.1357476711273193,-0.4747655987739563,-0.3736010789871216,-0.10462170839309692
241,2.4044042537304033,-0.42790723812621606,0.2158890796472231,0.6116000413894653,0.4149676561355591,0.6736076474189758,-0.04984930157661438,0.4246119260787964,-1.293512225151062,-0.30935394763946533,-0.22891724109649658,-0.31176066398620605
242,2.4867307949953346,-0.5381033666305737,0.37255819629182296,0.5229800939559937,0.5125083327293396,0.6810483336448669,-0.7348521947860718,-0.622755765914917,-1.649802565574646,0.8191676735877991,-0.22196578979492188,0.022900521755218506
243,2.469876445490787,-0.5330912728194102,0.40005008700253725,0.5359759330749512,0.508198082447052,0.6741399765014648,0.6337527632713318,0.26883527636528015,1.129989504814148,0.9467053413391113,-0.234730064868927,0.22089481353759766
244,2.400499800255801,-0.4019703161824336,0.16349904805821974,0.621284008026123,0.39123237133026123,0.6789280772209167,0.05548921972513199,0.5257679224014282,3.650562047958374,0.6537556052207947,-0.0031708478927612305,-0.0044896602630615234
245,2.37061967712556,-0.06646177309043617,-0.11241240720503673,0.6952950358390808,0.06641285866498947,0.7156495451927185,-0.8289672136306763,0.5597294569015503,4.37970495223999,0.08738934993743896,0.39356333017349243,-0.2237672209739685
246,2.4313482167288454,0.2637358435665458,-0.36850481276940095,0.6294741630554199,-0.26068902015686035,0.7319860458374023,-0.29405686259269714,0.5205097198486328,3.1880977153778076,-0.15300321578979492,0.9217607975006104,-0.27312374114990234
247,2.4912247671291734,0.3553321270818007,-0.5258579466721912,0.5676555633544922,-0.34790176153182983,0.7461444735527039,0.6789987683296204,-0.1936465948820114,-0.11962113529443741,-0.43725401163101196,1.0533766746520996,-0.20934027433395386
248,2.371091355769637,0.16263048139113892,-0.3766485032287356,0.6873045563697815,-0.16191454231739044,0.7080931067466736,0.6704592108726501,-1.055276870727539,-4.488046646118164,-0.14117729663848877,1.0165441036224365,0.06737369298934937
249,2.2466039423699917,-0.27583792231291954,-0.0273739333769292,0.7507081627845764,0.27235329151153564,0.6018809080123901,0.40047988295555115,-1.5807687044143677,-6.562075614929199,1.0011837482452393,0.8822944760322571,0.028978347778320312
250,2.312486776054756,-0.6445190905830921,0.37728870930278424,0.5894115567207336,0.6008141040802002,0.540015459060669,-1.8110240697860718,-0.785839855670929,-2.3639535903930664,0.8275806903839111,-1.0746452808380127,-0.13518446683883667
251,2.3509159204348196,-0.642544207952977,0.44728951136069034,0.5690714716911316,0.5992342233657837,0.563095211982727,0.02746090665459633,0.20407052338123322,-0.23163068294525146,0.013295412063598633,-0.5027223825454712,-0.1693115234375
252,2.385465200106374,-0.6685666056248053,0.5099525757386206,0.538397490978241,0.6198618412017822,0.5708760023117065,0.15377546846866608,0.029768696054816246,-0.45407745242118835,0.513329803943634,-0.49762362241744995,-0.05094808340072632
253,2.3283746496862605,-0.6264692638353794,0.45366193392824555,0.5885412096977234,0.5862881541252136,0.5566732883453369,0.43227359652519226,-0.01636682078242302,1.80783212184906,0.8917443156242371,-0.17922955751419067,0.09489214420318604
254,2.2614955199771294,-0.4832376002746748,0.21289376426431686,0.6825403571128845,0.4646484851837158,0.5641279816627502,0.5320571660995483,0.7935432195663452,3.3616371154785156,0.9114232063293457,0.1410796344280243,0.027989327907562256
255,2.255234819739623,-0.16777398158614368,-0.09046635808587476,0.7638955116271973,0.16698800027370453,0.623360812664032,-0.5014534592628479,0.8143612742424011,4.7887163162231445,0.2770286202430725,0.42308464646339417,-0.12534445524215698
256,2.334647879998654,0.23689927326386348,-0.3234744489439882,0.702006995677948,-0.2346896380186081,0.6723888516426086,-0.8321270942687988,0.7382922768592834,4.1338725090026855,0.027958154678344727,0.8701419234275818,-0.32740288972854614
257,2.4719468525722164,0.48041295750132074,-0.5309271799793035,0.550446629524231,-0.4621454179286957,0.6952912211418152,-0.420266717672348,0.23928405344486237,1.6043975353240967,-0.3752148151397705,1.1216762065887451,-0.36197829246520996
258,2.457342001436458,0.41785248225823884,-0.5198134120346802,0.5777087807655334,-0.40579864382743835,0.7082229852676392,0.6590666770935059,-0.5477523803710938,-2.5756170749664307,-0.5437732934951782,1.0005099773406982,-0.12487953901290894
259,2.274441350004893,0.033323243925783494,-0.22685602465840404,0.7620657086372375,-0.03331707790493965,0.6466421484947205,1.2393642663955688,-1.602175235748291,-6.777309417724609,0.7724191546440125,1.3119730949401855,-0.008656859397888184
260,2.1796335928566783,-0.5371931493395459,0.1707661085651712,0.7047710418701172,0.5117264986038208,0.49135899543762207,-2.17134690284729,-1.479936122894287,-4.504243850708008,1.4114398956298828,-0.6084825396537781,0.33842918276786804
261,2.131267810379574,-0.5288263983842801,0.3835291547423303,0.7313036322593689,0.5045204162597656,0.45897093415260315,-0.030486665666103363,0.05966111645102501,-0.6581154465675354,-0.1887468695640564,-0.13991165161132812,0.31095707416534424
262,2.272644475699134,-0.6019883732736938,0.6244937473811318,0.6294093728065491,0.5662824511528015,0.5321358442306519,-1.37771737575531,-0.25453922152519226,-2.3829712867736816,0.3550876975059509,-0.44349491596221924,-0.36660802364349365
263,2.325221559321591,-0.6382074767760029,0.7518434140245697,0.5852385759353638,0.5957567095756531,0.5500637292861938,-0.19697701930999756,-0.46549442410469055,1.1890416145324707,0.9985169768333435,-0.6441270112991333,-0.13035541772842407
264,2.242645906463997,-0.5032314321152235,0.6419843323444966,0.6856429576873779,0.4822588860988617,0.5452706217765808,-0.2719343304634094,0.3030771017074585,1.9169459342956543,0.6446945667266846,0.007746607065200806,0.21733301877975464
265,2.221357830171611,-0.29608885792469297,0.4475387992347689,0.7611169219017029,0.291781485080719,0.5792790651321411,0.11381090432405472,0.6149691343307495,3.4545953273773193,0.42294973134994507,0.31756293773651123,0.029714345932006836
266,2.249167179385193,0.013297678640512083,0.265894966053895,0.7785271406173706,-0.013297286815941334,0.6274698376655579,-0.6542145609855652,0.6096968650817871,3.600276470184326,-0.19107908010482788,0.43791887164115906,-0.10026347637176514
267,2.3694021486909995,0.2660667250144518,0.141553225936888,0.673155665397644,-0.26293861865997314,0.6911762952804565,-0.5462586879730225,0.8272257447242737,1.7041747570037842,-0.3591908812522888,0.8085623979568481,-0.2982167601585388
268,2.4305398594164194,0.30361858789887436,0.1529579828256921,0.6227810978889465,-0.29897522926330566,0.7230198979377747,-0.3602442145347595,-0.1980091780424118,-1.5772629976272583,-0.408272922039032,0.8959143161773682,-0.26551562547683716
269,2.3804908904776596,0.09233354986286126,0.38222368134625384,0.6867817044258118,-0.09220241010189056,0.7209922671318054,-0.7920693159103394,-0.5500183701515198,-4.796713829040527,0.20481985807418823,0.9947597980499268,0.15292441844940186
270,2.303018793641031,-0.1786639686913501,0.8042765735015114,0.7318522930145264,0.1777149736881256,0.6578824520111084,-0.09862127900123596,-1.17814302444458,-4.655663967132568,0.7672321200370789,0.525928795337677,-0.28544604778289795
271,2.303329868436203,-0.45063466386748363,1.0713603791840212,0.6692614555358887,0.4355369210243225,0.6019943356513977,-1.1680793762207031,-0.70406574010849,-3.0995614528656006,0.2350202202796936,-0.40338659286499023,-0.017750442028045654
272,2.396184990975414,-0.5786414680804601,1.3451097224242314,0.5678531527519226,0.5468870997428894,0.6151888370513916,-0.21797163784503937,-0.12193898111581802,-1.781727910041809,0.5437037944793701,-0.6437804102897644,-0.3194277882575989
273,2.4317510460076432,-0.6318638288812586,1.435990271442206,0.5258861184120178,0.5906497836112976,0.6120268702507019,-0.09029524773359299,-0.10768376290798187,-0.2749311327934265,0.6621174812316895,-0.6919223070144653,-0.060040175914764404
274,2.3800811547074714,-0.6087941107259304,1.3544993436850994,0.5660467147827148,0.5718786120414734,0.5937557816505432,0.2258126139640808,-0.21201276779174805,1.7228760719299316,1.0053339004516602,-0.39863038063049316,0.11857026815414429
275,2.3004471948571297,-0.4389224560190327,1.1112260821573898,0.6747502088546753,0.4249643087387085,0.603421688079834,0.6562862992286682,0.5987344980239868,4.295616626739502,1.2127468585968018,0.16133946180343628,-0.08245605230331421
276,2.2938028711998455,-0.030744942327262697,0.6917240987205617,0.7494655251502991,0.030740099027752876,0.6613293290138245,-0.17214103043079376,0.8346447944641113,6.546619415283203,0.7243809103965759,0.903052031993866,-0.11671268939971924
277,2.4808204817849426,0.43046439967334493,0.27627042412851155,0.5577375888824463,-0.41729289293289185,0.7174923419952393,-0.5231753587722778,1.0933910608291626,5.214148998260498,0.18773043155670166,1.225001573562622,-0.34423190355300903
278,2.7603470306685507,0.5987145539588625,-0.09376124984862856,0.3073582649230957,-0.563581109046936,0.7667514085769653,1.0826035737991333,0.5492137670516968,1.4868273735046387,-0.3978733420372009,1.3066840171813965,-0.478360116481781
279,2.673532538936282,0.4502828370614254,-0.001642038578748404,0.40618646144866943,-0.4352201819419861,0.8034898042678833,1.3529752492904663,-0.6478832364082336,-3.2344465255737305,-0.2906927466392517,1.1016173362731934,-0.15947741270065308
280,2.4439578923427736,0.016093491101184798,0.36441631842963795,0.6423237919807434,-0.016092795878648758,0.7662646770477295,0.9954550862312317,-1.8535544872283936,-6.453277587890625,0.7260692119598389,1.0351357460021973,0.13134896755218506
281,2.3489114601855285,-0.6100447344581428,0.8420272354777745,0.5837662220001221,0.572904109954834,0.5753244161605835,-0.983149528503418,-1.7944029569625854,-6.4812517166137695,1.9116103649139404,-0.4210333228111267,0.7858816981315613
282,2.3080858871423615,-0.49071760995475655,0.9403045204901493,0.6529350280761719,0.4712589383125305,0.5929508805274963,-0.633110523223877,1.7389081716537476,0.011228087358176708,-0.4247703552246094,-0.0869511067867279,0.2509973645210266
283,2.395179817770576,-0.45277656300459146,1.0694532178497203,0.6105896830558777,0.43746399879455566,0.6601552367210388,-0.2791716158390045,-0.7871920466423035,-1.1017426252365112,0.08853739500045776,-0.16613230109214783,-0.5417930483818054
284,2.3632561258949147,-0.5556251576157921,1.1382555480925853,0.5964803099632263,0.5274745225906372,0.6049646139144897,0.3617972135543823,-0.6178164482116699,-0.5347626209259033,0.6745768785476685,-0.30107980966567993,-0.027846574783325195
285,2.298529511242763,-0.5640760485023175,1.076081655317722,0.6310101747512817,0.5346352458000183,0.5621313452720642,0.531278133392334,0.6212120056152344,0.9869657754898071,0.7759876847267151,-0.24627453088760376,0.29725897312164307
286,2.2576503399836083,-0.4367827432972466,0.8451690037308193,0.7006503939628601,0.423026442527771,0.5745759010314941,0.6380640268325806,0.9934179782867432,3.4387354850769043,0.6443202495574951,0.07056480646133423,0.10163253545761108
287,2.2992314950189474,-0.09287395506386059,0.5276961617557984,0.7430009245872498,0.092740498483181,0.6628336310386658,-1.2052031755447388,0.8804858326911926,5.776403427124023,0.5267896056175232,0.559267520904541,-0.2033306360244751
288,2.396816839139571,0.3354084504539113,0.24643710832565827,0.640036940574646,-0.3291548788547516,0.6942694187164307,-0.5071866512298584,-0.14522653818130493,4.64525842666626,0.05555027723312378,0.9441908597946167,-0.4115697741508484
289,2.5688783220174183,0.47175607950063975,-0.01011065555075611,0.48272255063056946,-0.4544512629508972,0.7486337423324585,0.7642516493797302,-0.38068878650665283,0.8035126328468323,-0.5001940131187439,1.0686177015304565,-0.4189983606338501
290,2.4943377284200583,0.2988184198765682,0.052209566604964244,0.5762768387794495,-0.2943911850452423,0.7623900175094604,1.1423746347427368,-1.0557273626327515,-3.6480295658111572,-0.13180363178253174,1.003100872039795,-0.00543212890625
291,2.2761178163741245,-0.07324207846170608,0.44002199493994903,0.759361743927002,0.07317661494016647,0.6465405225753784,0.009631087072193623,-1.838734745979309,-5.833765983581543,1.117759108543396,0.6328780651092529,0.11539173126220703
292,2.2087253175929087,-0.33076935774141236,0.8567300683649569,0.7597846388816833,0.3247707784175873,0.5632508993148804,-3.9134316444396973,-1.4234837293624878,-2.041642665863037,0.4276697635650635,-0.8073604702949524,-0.0893586277961731
293,2.2255968281210983,-0.30205724937385986,1.0435420211189024,0.7572599649429321,0.2974849343299866,0.5814294815063477,0.3431251347064972,0.6518719792366028,-0.7540936470031738,-0.09815657138824463,-0.3073268532752991,-0.36432743072509766
294,2.2754550539276317,-0.40958823792197596,1.0896653673323822,0.6988177299499512,0.3982316553592682,0.5941932797431946,0.1667046844959259,0.4984423518180847,-0.8699490427970886,0.7127424478530884,-0.4422684907913208,-0.08868485689163208
295,2.2219276197872584,-0.4064374118824408,1.0267318587249636,0.7306018471717834,0.3953394889831543,0.5567120313644409,1.3731966018676758,-0.37535741925239563,1.1216970682144165,0.4580274820327759,-0.33729496598243713,-0.024775147438049316
296,2.1672976003354347,-0.3965640541082799,0.845623292215742,0.7631019949913025,0.3862513303756714,0.5181559920310974,1.31022310256958,0.4676579535007477,2.0747196674346924,1.1174523830413818,-0.15001466870307922,-0.09295451641082764
297,2.1579375636986597,-0.17818888613819434,0.5027558888848016,0.8193457722663879,0.17724743485450745,0.545211672782898,1.302154302597046,1.1023422479629517,4.845371723175049,0.5732780694961548,0.21414048969745636,-0.2833861708641052
298,2.292146764913284,0.23791312908335935,0.11070741174500573,0.7297627329826355,-0.23567505180835724,0.6417971253395081,0.14359386265277863,1.5050708055496216,5.163694858551025,0.14081215858459473,1.0463287830352783,-0.25440698862075806
299,2.576602496314555,0.48588733099752635,-0.23249978314248468,0.4734399616718292,-0.46699318289756775,0.7468413710594177,0.7576977610588074,1.299552083015442,2.3286731243133545,-0.4167077839374542,1.1294535398483276,-0.4213866591453552
300,2.6467879382637904,0.41329719570138806,-0.2717380713839789,0.4348774254322052,-0.40163108706474304,0.8059618473052979,1.0712859630584717,-0.47429344058036804,-2.5963382720947266,-0.44691652059555054,1.1021162271499634,-0.3031845688819885
301,2.4721948508777274,0.06734891819441588,0.011008659421146172,0.619107186794281,-0.06729801744222641,0.7824177742004395,1.3389694690704346,-1.9231265783309937,-5.847742557525635,0.43301689624786377,0.9656286835670471,-0.0480426549911499
302,2.3183751702836815,-0.4226457147597172,0.42512524829653886,0.6688085198402405,0.41017478704452515,0.6200418472290039,0.09109381586313248,-2.5342116355895996,-5.771088123321533,1.4106440544128418,0.26766639947891235,0.1539754867553711
303,2.2928186280856138,-0.578241515884278,0.6661234721430205,0.628463089466095,0.5465521812438965,0.5534574389457703,0.2302551418542862,-0.47616997361183167,-0.8843891620635986,0.0788886547088623,-0.6578344702720642,0.004358232021331787
304,2.360086159749678,-0.6560241598518084,0.7976043038202499,0.5581431984901428,0.6099711060523987,0.5625044107437134,-0.20320160686969757,-0.1697763204574585,-1.6635195016860962,0.2472766637802124,-0.43739426136016846,-0.10275715589523315
305,2.390288925895607,-0.7376161380348629,0.8876404830383321,0.5051687359809875,0.6725255846977234,0.5408458113670349,0.034918252378702164,0.14382457733154297,0.2177920788526535,0.9357798099517822,-0.7758122682571411,0.2584553360939026
306,2.307420554153175,-0.6105308659195166,0.7572608333705902,0.6069212555885315,0.5733025074005127,0.5504279732704163,0.04032432287931442,0.20443864166736603,2.0594825744628906,0.5120667815208435,-0.1330711841583252,0.16018915176391602
307,2.2773066396349546,-0.42901676245917636,0.5147600362224526,0.6916998624801636,0.415976881980896,0.5903512835502625,0.38742104172706604,1.0877705812454224,3.6584880352020264,0.8368951082229614,0.2905965745449066,0.008998692035675049
308,2.3137741528189406,-0.10305112323170879,0.2341154597285097,0.7325505614280701,0.10286882519721985,0.6728953123092651,-0.7239532470703125,1.0233405828475952,4.506643295288086,0.17215847969055176,0.39871811866760254,-0.2247597575187683
309,2.4462606245258063,0.22990554911200645,-0.010754481743689833,0.6237837672233582,-0.22788555920124054,0.7476373910903931,-0.8142557740211487,0.754868745803833,3.3136799335479736,-0.027790844440460205,0.9080308675765991,-0.4215724468231201
310,2.5072011084965102,0.34779102574486104,-0.1340118741706739,0.5572020411491394,-0.34082192182540894,0.7572094202041626,0.4559536278247833,-0.32074275612831116,-0.012567806988954544,-0.4155395030975342,0.9529893398284912,-0.48279547691345215
311,2.4157071433081154,0.19243880000384023,-0.038029208691582876,0.6515448093414307,-0.19125324487686157,0.7341060638427734,0.5957150459289551,-1.0608903169631958,-3.4339094161987305,-0.25197815895080566,1.0048823356628418,-0.19693565368652344
312,2.2558731154297673,-0.19571600399003114,0.2414685753483494,0.7595866322517395,0.1944689154624939,0.6206527352333069,0.4212876260280609,-2.1398773193359375,-5.491520404815674,0.8707996606826782,1.0021252632141113,0.06670981645584106
313,2.1815507764265445,-0.5803210978082599,0.5857757421533631,0.6850992441177368,0.5482925176620483,0.4795985519886017,-1.066947340965271,-1.556440830230713,-3.466538429260254,0.690496027469635,-0.4151594638824463,0.005402207374572754
314,2.2029960179875396,-0.6781547335517237,0.8264392282805273,0.6282262206077576,0.6273571252822876,0.4601689279079437,-0.24438083171844482,0.06027810275554657,-1.2719658613204956,0.22293972969055176,-0.47525733709335327,0.006002545356750488
315,2.2649171801829557,-0.7649799227843362,0.9677950007441073,0.5544770359992981,0.6925225257873535,0.4614844024181366,0.2189449816942215,-0.3143080770969391,-1.1450796127319336,0.5603452920913696,-0.5391716957092285,0.019686222076416016
316,2.25625229026752,-0.7716030310562981,0.9760276564472926,0.55489182472229,0.6972851753234863,0.45374906063079834,-0.40083077549934387,-0.14846166968345642,0.9777621030807495,0.7277924418449402,-0.4706616997718811,0.14343410730361938
317,2.210845470242274,-0.6919302910562191,0.8450840754045402,0.6176040172576904,0.6380247473716736,0.45988041162490845,0.8750541806221008,0.9984456896781921,1.4340888261795044,0.6628831028938293,-0.1995023488998413,0.08545345067977905
318,2.18736084315173,-0.5167968044850397,0.5634675314801617,0.7093223929405212,0.4940977990627289,0.5027217864990234,0.42275190353393555,1.1434733867645264,3.8952879905700684,0.7632423639297485,0.150357186794281,-0.15242576599121094
319,2.212169797880617,-0.11476498704623087,0.2863968160311743,0.7960036396980286,0.11451322585344315,0.5943607091903687,-0.4188573956489563,1.2190805673599243,5.320277214050293,0.3251815438270569,0.5835000276565552,-0.3757633566856384
320,2.3439874556434757,0.309069446692484,-0.009125680718516327,0.6817742586135864,-0.3041723072528839,0.6653292775154114,-0.26094624400138855,1.3555059432983398,4.070420742034912,-0.06951534748077393,1.1305272579193115,-0.33125340938568115
321,2.462493999640421,0.485978140515526,-0.173790563319437,0.5553703904151917,-0.4670734703540802,0.6880449652671814,-0.14778761565685272,-0.3080921769142151,-0.4020225405693054,-0.7018243074417114,1.2414569854736328,-0.44530826807022095
322,2.2943855502344723,0.2441483490239924,0.01214824060940401,0.7272086143493652,-0.24173001945018768,0.6424438953399658,0.26254135370254517,-1.1170824766159058,-5.128513336181641,-0.168767511844635,1.1451265811920166,-0.00398564338684082
323,2.107923925877313,-0.25850003024004037,0.4338963729309713,0.830635130405426,0.2556307017803192,0.49466967582702637,-1.1315795183181763,-2.365243673324585,-7.1332316398620605,1.5079115629196167,1.247039556503296,-0.034388333559036255
324,2.0809607325290607,-0.6047485730168926,0.8351348804826437,0.7178929448127747,0.5685552358627319,0.40171465277671814,-1.6611698865890503,-1.6920640468597412,-1.5673081874847412,0.5890070796012878,-0.8651708960533142,-0.3200647830963135
325,2.1012940122192627,-0.6219887153951003,1.0385803645572547,0.7010170221328735,0.5826525688171387,0.41120660305023193,-0.4143749475479126,0.3085785508155823,-1.5405369997024536,-0.06036156415939331,-0.22281986474990845,-0.11558288335800171
326,2.263142465274459,-0.7967658965357476,1.2572501362406479,0.5380731821060181,0.7150990962982178,0.4462176561355591,-0.34630176424980164,0.06757815927267075,-2.0363712310791016,1.0182316303253174,-0.6608695387840271,-0.051015108823776245
327,2.2793189762798907,-0.8147508868326419,1.205391829088875,0.5209338665008545,0.7275547385215759,0.4464211165904999,0.680900514125824,0.9262717962265015,1.327898621559143,0.9721538424491882,-0.4142460823059082,-0.009913027286529541
328,2.2408852932792485,-0.6525317098443271,0.8478841104943698,0.6227411031723022,0.6071999073028564,0.49345940351486206,1.4089082479476929,2.852776050567627,4.501805782318115,1.2364509105682373,0.3717736005783081,-0.3485924005508423
329,2.2397815264115475,-0.2816807627069263,0.4268410132644081,0.7535360455513,0.277970552444458,0.5957484245300293,-0.5004979968070984,1.222511887550354,5.96167516708374,0.641193687915802,0.595473051071167,-0.346038281917572
330,2.362856092029507,0.21568279596409268,0.08929663043467079,0.6861069202423096,-0.2140144556760788,0.6953095197677612,-0.40208759903907776,1.5782771110534668,5.38919734954834,0.2639511227607727,1.1779731512069702,-0.5266693234443665
331,2.6323580977864838,0.47456878359374044,-0.2598497694662957,0.43363431096076965,-0.4569549262523651,0.7766294479370117,-0.30072712898254395,0.7624294757843018,2.291487693786621,-0.35889679193496704,1.3086395263671875,-0.5504332780838013
332,2.5923082756620315,0.4300268511722971,-0.2677304236380618,0.47454437613487244,-0.41689521074295044,0.7752459645271301,1.6386945247650146,-0.9827092885971069,-2.5403525829315186,-0.5670278668403625,1.2255651950836182,-0.2623673677444458
333,2.361701958138617,0.054850404515864676,0.015102110324516844,0.7021440267562866,-0.054822906851768494,0.7099210023880005,0.5546451807022095,-1.7172225713729858,-6.116434574127197,0.45000123977661133,1.3352336883544922,0.18470168113708496
334,2.2378171708216987,-0.46158339798789694,0.4683666482908139,0.7034468054771423,0.44536635279655457,0.5539056658744812,-0.34912529587745667,-1.6013261079788208,-6.066032409667969,1.1257920265197754,0.19695237278938293,0.07803714275360107
335,2.3125723736608803,-0.6471084716483021,0.8189308260305281,0.5882160663604736,0.6028819680213928,0.5390127301216125,0.2628469169139862,-0.64589524269104,-1.3955093622207642,0.4511362314224243,-0.7058331370353699,-0.10615158081054688
336,2.4562617032566014,-0.721432629033566,1.023334593963912,0.47524139285087585,0.6604610681533813,0.5813231468200684,-1.3267858028411865,-0.24964331090450287,-1.145416498184204,0.9645779132843018,-0.7953488230705261,-0.14118343591690063
337,2.454998381227618,-0.6351329980629425,1.0152537720213513,0.5102903246879578,0.5932846069335938,0.6225888729095459,0.08700048178434372,0.5358647704124451,1.513865351676941,0.8856598734855652,-0.256050169467926,-0.3804929852485657
338,2.3434532031859283,-0.5498297270929112,0.751192249936125,0.6105210781097412,0.5225420594215393,0.5951583385467529,1.5335571765899658,0.7825154662132263,3.206930637359619,1.0928937196731567,0.14683037996292114,-0.2848862409591675
339,2.209055065804752,-0.26922585682675426,0.32502739964581756,0.7742031812667847,0.26598525047302246,0.574335515499115,0.4359166920185089,0.2648729979991913,5.6773576736450195,0.5604830980300903,0.5398008823394775,-0.08433008193969727
340,2.2162296427785053,0.16590195085773313,-0.05796421150639675,0.7878711223602295,-0.1651419699192047,0.5932854413986206,0.2797473669052124,0.298688679933548,5.697301864624023,0.06549203395843506,0.9488180875778198,-0.03862839937210083
341,2.4317588528778615,0.4760144066743513,-0.4090221399170019,0.5792561173439026,-0.4582403302192688,0.6741496324539185,0.7647939324378967,0.5374444723129272,2.693373441696167,-0.5602590441703796,1.4155311584472656,-0.3065503239631653
342,2.3820681706525146,0.3808516938911631,-0.38215243703132434,0.6392391324043274,-0.37171128392219543,0.6732044816017151,0.6280208826065063,-1.5964387655258179,-3.7676126956939697,-0.6589382290840149,1.0884318351745605,-0.2831897735595703
343,2.2130982505330636,-0.07586549294604412,-0.03258803769547944,0.7984157204627991,0.07579273730516434,0.5973171591758728,-1.150302767753601,-2.092803478240967,-6.959181785583496,0.9784854650497437,1.2252326011657715,-0.0696377158164978
344,2.211578492900025,-0.6026919779398263,0.4761987871817486,0.6603914499282837,0.5668622255325317,0.49249371886253357,-2.8685226440429688,-1.4959384202957153,-5.05621337890625,1.6975033283233643,-0.9448378086090088,0.2827747166156769
345,2.138730722313578,-0.46475894808053253,0.5874487064360508,0.7535950541496277,0.4482073187828064,0.48083746433258057,-0.1839936226606369,0.9979243874549866,-0.27315112948417664,-0.5785462856292725,-0.13000056147575378,0.17091116309165955
346,2.2386723705902956,-0.4823354986998168,0.7171178427132286,0.695565402507782,0.4638494849205017,0.5486639738082886,0.07318414002656937,0.24207083880901337,-1.7941306829452515,-0.08594632148742676,-0.18865728378295898,-0.49408334493637085
347,2.276063073117034,-0.6508568763718304,0.8001984810233518,0.6057737469673157,0.6058683395385742,0.5157144665718079,0.30355075001716614,-0.27160143852233887,-0.15576639771461487,1.0394288301467896,-0.685458242893219,-0.04553025960922241
348,2.1778076379926445,-0.595024201277702,0.6668651026990892,0.6801939010620117,0.5605288147926331,0.47238069772720337,0.9138825535774231,0.6195448637008667,1.347980260848999,0.6545533537864685,-0.10055261850357056,0.20613175630569458
349,2.1271533645309795,-0.44897935966410774,0.4329169900199991,0.7650225758552551,0.43404626846313477,0.475756973028183,1.0969091653823853,0.9925687313079834,3.2649662494659424,0.6064680218696594,0.1601462960243225,-0.09649962186813354
350,2.130707079816814,-0.1566293096939177,0.12279038570440144,0.8369303941726685,0.15598967671394348,0.5246090888977051,0.28803178668022156,0.7683485746383667,4.634824275970459,0.08280837535858154,0.331055611371994,-0.21296358108520508
351,2.2412135571528307,0.1922095044036588,-0.13185956836257143,0.7691329717636108,-0.1910281777381897,0.6098713278770447,0.004562066402286291,1.1435807943344116,3.7120702266693115,-0.1300032138824463,0.8891177177429199,-0.3255541920661926
352,2.3865496645831135,0.35802467449997294,-0.3164907946698489,0.6418642997741699,-0.3504248559474945,0.6820647716522217,0.39201387763023376,0.41391196846961975,0.6744382381439209,-0.474948525428772,1.144339680671692,-0.34090888500213623
353,2.2818409417739667,0.19980596503688786,-0.18517059252907395,0.7426065802574158,-0.19847916066646576,0.6396417021751404,-0.31643858551979065,-1.605007290840149,-4.3262152671813965,-0.22698163986206055,1.0744709968566895,-0.09624570608139038
354,2.111092831580232,-0.23288206436589634,0.14585481912909104,0.8344066739082336,0.23078274726867676,0.5005044341087341,-0.02157282829284668,-1.9644393920898438,-6.383081912994385,0.9603015780448914,0.9889590740203857,0.013304710388183594
355,2.1361622183754205,-0.6502353569160927,0.4948233679315885,0.6720868945121765,0.605373740196228,0.4264054596424103,-0.8196223378181458,-0.006117966957390308,-3.1067540645599365,0.5999925136566162,-0.7717251181602478,-0.15089279413223267
356,2.189883343251309,-0.7677892950165965,0.6063486440245791,0.5859245657920837,0.6945464611053467,0.41748976707458496,-0.6491184830665588,-0.176425963640213,-1.057299256324768,0.21110308170318604,-0.4815948009490967,0.10339951515197754
357,2.2713501383485237,-0.8559414285774911,0.780957226326184,0.5011261701583862,0.7551883459091187,0.42256736755371094,0.08167048543691635,-0.22264815866947174,-1.4880435466766357,0.8129912614822388,-0.5887149572372437,0.14650917053222656
358,2.2332192079551985,-0.7892009369145495,0.7403763126662899,0.5554324984550476,0.7097906470298767,0.4332342743873596,0.0939749926328659,0.07707333564758301,1.9167602062225342,0.7153956890106201,-0.16822576522827148,0.011437386274337769
359,2.2004730996890554,-0.6336109917294386,0.5092522161914665,0.6513385772705078,0.5920587182044983,0.4745781719684601,0.6021251678466797,1.020963191986084,3.536921977996826,1.0857219696044922,0.08172363042831421,-0.35638368129730225
360,2.1309597504992825,-0.22261283115421893,0.2124146357080128,0.8262636661529541,0.22077873349189758,0.5182137489318848,-0.0988265797495842,0.7966960072517395,5.813473224639893,0.39947497844696045,0.5630805492401123,-0.4105628728866577
361,2.138255336221001,0.24129826813407698,-0.09881440602789963,0.8188388347625732,-0.23896348476409912,0.5219191908836365,0.30186399817466736,0.10488073527812958,5.102607250213623,0.06600326299667358,0.9238694906234741,-0.286064088344574
362,2.325507834712217,0.5333780106729785,-0.4530294312440381,0.6272808313369751,-0.5084450244903564,0.5899173617362976,0.7104610204696655,0.30116012692451477,3.439723491668701,-0.1023784875869751,0.994910478591919,-0.20875275135040283
363,2.4691553092603895,0.5621998637335034,-0.6886200238635061,0.5270215272903442,-0.5330487489700317,0.6618968844413757,1.308937430381775,0.4819551408290863,0.3275654911994934,-0.2119274139404297,0.5827770829200745,0.25898629426956177
364,2.3236139541498773,0.5112167442165277,-0.5360775464031872,0.6364647746086121,-0.48923879861831665,0.5962868332862854,-3.571420431137085,-2.2547147274017334,-2.5870251655578613,0.43650269508361816,-0.17081061005592346,0.5804862380027771
365,1.3395997994669453,0.6084917327465265,0.37592243350830284,0.7986797094345093,-0.5716305375099182,-0.18801386654376984,-7.679426193237305,-6.47831392288208,0.06407782435417175,-0.14954036474227905,-0.126977801322937,-0.041524097323417664
366,0.5201715943517751,0.308567094873458,0.8112485552413811,0.47355422377586365,-0.3036937117576599,-0.8267505764961243,-2.1611506938934326,-5.649899482727051,0.11707334220409393,-0.09457167983055115,0.0304546058177948,0.06530654430389404
367,0.011317556478035118,0.2033098734554291,0.8330177132140051,0.011084219440817833,-0.20191213488578796,-0.9793409109115601,0.13142724335193634,-3.27683687210083,-0.4082159101963043,-0.017630234360694885,0.06014274060726166,0.37793105840682983
368,-0.22665437990356824,0.1893752145923087,0.7736081381941318,-0.2207012176513672,-0.18824531137943268,-0.9570029377937317,0.6041473746299744,-0.6121156811714172,-0.8870069980621338,-0.16641424596309662,-0.04377982020378113,-0.08109819889068604
369,-0.13551096254374778,0.24509720489518902,0.7016328147590483,-0.13105908036231995,-0.24265062808990479,-0.9612201452255249,0.24296219646930695,0.3114936947822571,-0.9921135902404785,-0.20730456709861755,0.2829948663711548,-0.5425792932510376
370,-0.040473283622548185,0.29715199378187557,0.5657911233485727,-0.03868894651532173,-0.2927982211112976,-0.9553912281990051,1.0040494203567505,1.0839776992797852,-1.4239296913146973,-0.09651917964220047,0.18037143349647522,0.003074944019317627
371,0.031204269766822335,0.4310279289966869,0.4209264602715699,0.02834562584757805,-0.41780492663383484,-0.9080944657325745,1.5759435892105103,0.5756564736366272,-1.0704398155212402,0.024327710270881653,0.25163671374320984,0.43499571084976196
372,0.06319712446331366,0.5362561791088484,0.3304478054781558,0.05428983271121979,-0.51092129945755,-0.8579114675521851,1.5757033824920654,0.09625834226608276,-0.9622383117675781,-0.025633826851844788,0.25077420473098755,0.18359506130218506
373,0.09317035742967884,0.615192587137991,0.2700404262613027,0.07597868889570236,-0.5771158337593079,-0.8131203055381775,1.123672366142273,-0.1983020007610321,-0.12537556886672974,-0.07459013909101486,-0.05772608518600464,-0.16361004114151
374,0.10881975900466521,0.6708588765021894,0.24404743480046176,0.08506909012794495,-0.621658980846405,-0.7786548733711243,0.7469742298126221,0.051093414425849915,0.47609397768974304,0.22503527998924255,-0.02189570665359497,-0.27513235807418823
375,0.024113212855452502,0.6225850378451313,0.27477830964005473,0.019587041810154915,-0.5831370949745178,-0.8121375441551208,-0.28569820523262024,0.45710134506225586,0.058895569294691086,-0.009638311341404915,0.1247478723526001,0.031711578369140625
376,0.00914270428666127,0.6232810043577036,0.2801724963115144,0.0074234772473573685,-0.5837023854255676,-0.8119337558746338,-0.13002467155456543,-0.5011215806007385,0.3030231297016144,0.006019517779350281,0.10863524675369263,0.1634504795074463
377,-0.03973818602434427,0.6456839656377229,0.29720930356135694,-0.03173007443547249,-0.6017448306083679,-0.7980578541755676,-0.04465344920754433,-0.23686707019805908,0.030988391488790512,-0.027321435511112213,0.13697737455368042,0.2673113942146301
378,-0.029243817843509247,0.6868734761619297,0.26275802927134123,-0.0226090457290411,-0.6341227293014526,-0.7729018330574036,-0.12258431315422058,-0.35491305589675903,-0.16349327564239502,0.01691751927137375,-0.10211378335952759,0.10343772172927856
379,-0.006513282455448863,0.6776448241988663,0.21955198233181844,-0.005074146203696728,-0.6269599795341492,-0.7790349125862122,0.33229517936706543,-0.2901632785797119,-0.40782657265663147,-0.0941842719912529,-0.36734843254089355,-0.37217962741851807
380,-0.010808169128072703,0.698295606778067,0.17989182620381927,-0.008278238587081432,-0.6429131627082825,-0.76589435338974,-0.5230082273483276,-0.24116921424865723,-0.3384445607662201,-0.1448131948709488,0.09173518419265747,-0.01195293664932251
381,-0.014547388894547708,0.6351451682197028,0.14767746460178552,-0.011710025370121002,-0.5932943820953369,-0.8049004077911377,-0.17493070662021637,-0.6449188590049744,-0.34913837909698486,-0.037301205098629,0.18368744850158691,-0.052918195724487305
382,-0.016941716025142734,0.6507556605330809,0.10961925805489837,-0.013478629291057587,-0.6057878136634827,-0.7955120801925659,-0.2567770481109619,0.12667295336723328,-0.22192370891571045,-0.0064340876415371895,0.22367721796035767,0.3713330626487732
383,-0.004263911372181827,0.6292279591799941,0.08837185076335675,-0.003447285620495677,-0.5885207653045654,-0.8084747791290283,-0.25558769702911377,0.16814067959785461,0.14968055486679077,-0.021806010976433754,-0.07628941535949707,0.10769963264465332
384,0.037941682949086765,0.6211105177380286,0.07777403322915842,0.03084801323711872,-0.581938624382019,-0.8126474022865295,0.06325718760490417,0.4201565682888031,-0.20870256423950195,-0.07230614125728607,-0.2819223999977112,-0.11897790431976318
385,0.05787230213794534,0.5634921551367462,0.10587662283346856,0.048897646367549896,-0.5341417193412781,-0.8439796566963196,-0.3332953453063965,0.136974036693573,0.4194521903991699,0.072028249502182,0.09502428770065308,-0.3869468569755554
386,0.045079396487823914,0.5212282696856468,0.1571519562832855,0.03907998651266098,-0.4979456663131714,-0.8663272261619568,-0.11265835911035538,-0.06148973107337952,0.4815104007720947,-0.05421670526266098,0.028905779123306274,-0.11923795938491821
387,-0.005169672622851609,0.5707800032063797,0.2092525574834255,-0.004350155591964722,-0.5402885675430298,-0.8414685726165771,0.7161605954170227,-0.22745798528194427,0.3007192611694336,-0.08729413151741028,0.16313707828521729,0.35977911949157715
388,-0.024439794837694644,0.6084378571612977,0.22142628298974326,-0.020051879808306694,-0.5715863704681396,-0.8202968239784241,-0.057653214782476425,-0.1612299531698227,0.003675626590847969,-0.041547853499650955,0.0013501644134521484,0.25907862186431885
389,-0.029036491727372674,0.5972664627111638,0.20937377570559107,-0.024006204679608345,-0.562384307384491,-0.82652747631073,-0.2297622263431549,-0.03896341100335121,-0.10629899054765701,-0.011180564761161804,-0.21201449632644653,-0.05671226978302002
390,-0.05224146222380365,0.5740318498705507,0.1989309438931867,-0.04384816437959671,-0.543022096157074,-0.8385728001594543,-0.30815455317497253,-0.17329297959804535,-0.13559779524803162,-0.1541956514120102,-0.13861852884292603,-0.15758198499679565
391,-0.040118352992031994,0.5414563907879332,0.17526492998596657,-0.03437056392431259,-0.5153846144676208,-0.8562694787979126,-0.8709079027175903,-0.006394583266228437,-0.1316784918308258,-0.125236377120018,0.16429513692855835,-0.0504077672958374
392,-0.026809780283045908,0.5102522221947025,0.12486839582337217,-0.023391984403133392,-0.48839735984802246,-0.8723077774047852,0.36477768421173096,-0.18481282889842987,-0.5532868504524231,0.03331019729375839,0.10788893699645996,0.19989871978759766
393,-0.031505571230675475,0.5120495288564302,0.08722942740711687,-0.027460191398859024,-0.48996493220329285,-0.8713095188140869,-0.6063128709793091,-0.5057483315467834,0.24400654435157776,0.19870957732200623,0.005773067474365234,0.4618246555328369
394,-0.18525732054721777,0.35553242478610286,0.1655839783218058,-0.1726798564195633,-0.3480895459651947,-0.9214202761650085,-2.3031129837036133,-1.3240323066711426,1.5214310884475708,0.4313773512840271,-0.2233978807926178,0.6114532351493835
395,-0.04282151832446168,0.10541185575425677,0.360811949872035,-0.0425708182156086,-0.10521674901247025,-0.9935377240180969,-2.4309213161468506,4.493149280548096,2.9072494506835938,0.724043607711792,-0.10105156153440475,0.3844678997993469
396,0.3803838133864866,-0.17638424442798362,0.7791175862307305,0.3655163645744324,0.17547106742858887,-0.9141157865524292,0.28851547837257385,5.1657795906066895,3.5446979999542236,0.49204280972480774,0.5622150897979736,-0.07373815774917603
397,0.9961945766636423,-0.1032893481685482,1.0623769949934494,0.8349351286888123,0.10310578346252441,-0.5406038761138916,-1.3501027822494507,6.848204612731934,1.1825429201126099,0.6767378449440002,1.0554635524749756,0.15513640642166138
398,1.5721706501573478,-0.1409062712938226,1.4000484768711345,0.9900881052017212,0.1404404640197754,0.001360702095553279,-3.9051833152770996,4.0539045333862305,0.9555202722549438,0.6119167804718018,0.5723586082458496,-0.7421901226043701
399,1.8047513165561007,-0.05875388732475918,1.6191852042784312,0.9710786938667297,0.05872008949518204,0.23142656683921814,0.03239668905735016,1.2582753896713257,-0.24442143738269806,0.06105637550354004,0.27372315526008606,-1.0247310400009155
400,1.8566049548256534,-0.039086904345552606,1.6577634234471998,0.9587012529373169,0.03907695412635803,0.28171804547309875,0.33453133702278137,-0.33706650137901306,0.3679332137107849,0.2196739912033081,0.30470359325408936,-1.1068370342254639
401,1.7466957201680986,-0.07037543218743299,1.5358702675183165,0.9821324348449707,0.0703173577785492,0.1745605617761612,2.44246244430542,-1.3525166511535645,-0.008522918447852135,0.3918910026550293,0.4433697462081909,-0.563385009765625
402,1.5788552283569512,-0.10078683364524108,1.1498003599907054,0.994892954826355,0.10061629116535187,0.008017918094992638,5.074987411499023,-1.625454306602478,0.43920785188674927,0.4513808488845825,0.6264344453811646,-0.1336129903793335
403,1.3921239415165425,0.05446426834715098,0.6492751299077432,0.9826213717460632,-0.05443734675645828,-0.1774597316980362,5.312900066375732,-1.082482099533081,1.8968098163604736,0.027129054069519043,0.3663422465324402,0.398956298828125
404,1.5642350065168529,0.37916211806345856,0.05263039437493068,0.928955078125,-0.37014222145080566,-0.006095259450376034,5.477707386016846,1.187281608581543,2.471796989440918,-0.22196966409683228,0.8606054782867432,0.587272047996521
405,1.8349394279924316,0.43690010759421977,-0.35617705418222084,0.8746421337127686,-0.4231327772140503,0.23655812442302704,1.5275362730026245,0.632920503616333,-0.6538088917732239,-0.46364670991897583,0.8297947645187378,0.5493762493133545
406,1.8446721319427453,0.2807540364726298,-0.18105354239139088,0.925035834312439,-0.277080237865448,0.25987523794174194,-2.9933135509490967,1.1089003086090088,-4.2386040687561035,-0.02546924352645874,0.9098469614982605,0.23608112335205078
407,1.9028404482362768,-0.11759010700318742,0.2905082862557489,0.9388492703437805,0.11731930077075958,0.32372501492500305,-2.3960886001586914,0.5819590091705322,-4.528223037719727,1.1957635879516602,0.29114317893981934,-0.37366706132888794
408,1.901023516330897,-0.16869141731274187,0.5617476255540944,0.9325408339500427,0.1678924858570099,0.3196551501750946,-0.5633748769760132,-1.32256281375885,0.27276182174682617,-0.22445690631866455,-0.4686127305030823,-0.41657906770706177
409,1.9544824607298061,-0.20545503333290344,0.6204951060599668,0.9077886343002319,0.2040126472711563,0.3664681315422058,-1.4404704570770264,0.9470342993736267,-1.2333602905273438,-0.14869433641433716,-0.2503535747528076,-0.0974251925945282
410,2.0649603583655654,-0.22940249422993783,0.8358977969903705,0.8573018312454224,0.22739571332931519,0.46187034249305725,-0.880466639995575,0.42221808433532715,-0.41582489013671875,0.5624977946281433,-0.37207961082458496,-0.6727927923202515
411,2.0053510153607093,-0.1837450317816216,0.7941232003704549,0.8917885422706604,0.1827128380537033,0.41391947865486145,1.105352520942688,-0.4725462794303894,1.023479700088501,0.5474967360496521,-0.05832318961620331,-0.17382240295410156
412,1.9809633152931512,-0.11358508022501884,0.6723520142526929,0.9111447930335999,0.11334100365638733,0.39619284868240356,0.9319343566894531,-0.9131625890731812,2.0295190811157227,0.6546814441680908,0.13101321458816528,-0.37087851762771606
413,1.9042082694637943,0.06377301141287652,0.4016406307172999,0.9430104494094849,-0.06372979283332825,0.3266037404537201,1.8340083360671997,-0.4043826758861542,2.8575828075408936,-0.15214741230010986,0.24797967076301575,0.03179478645324707
414,1.8862475971872756,0.2822662554130933,0.18354685974017665,0.9130359888076782,-0.2785329222679138,0.2979681193828583,0.8474732041358948,-0.7261186242103577,2.231278896331787,-0.37185239791870117,0.606230616569519,0.07486525177955627
415,1.9477731801669116,0.3587886589105119,0.030329385222762534,0.8705757856369019,-0.3511402904987335,0.34467098116874695,0.48406466841697693,0.19156168401241302,0.11447042226791382,-0.3579874038696289,0.6798756718635559,0.12090513110160828
416,1.9694041587044726,0.24267746492540423,0.07607981871698057,0.8945975303649902,-0.24030248820781708,0.37676259875297546,-0.12039165943861008,0.9062624573707581,-2.5028860569000244,-0.08427947759628296,0.6395639181137085,0.2508466839790344
417,1.9707151733971846,-0.05168602640655571,0.3675945347200576,0.9198625683784485,0.05166301503777504,0.38882365822792053,-1.5557879209518433,0.4249389171600342,-4.476260662078857,0.6175367832183838,0.44540730118751526,-0.1289513111114502
418,2.040243910399724,-0.3509809221354896,0.5713085711439382,0.8374495506286621,0.3438190817832947,0.42481398582458496,-1.5201454162597656,-0.6929535865783691,-1.3600388765335083,0.5010668039321899,-0.6989826560020447,-0.09061592817306519
419,2.074221444822884,-0.36279047683680804,0.6830935301342292,0.8189208507537842,0.35488444566726685,0.45102736353874207,-0.3040737211704254,0.8160116076469421,-0.2546572983264923,-0.058926403522491455,-0.4303544759750366,-0.1642536222934723
420,2.164594580165763,-0.38885753898144104,0.7263264682782303,0.7669439315795898,0.3791314959526062,0.5177413821220398,0.4185270667076111,0.9471655488014221,-0.6262651085853577,0.08054441213607788,-0.266399621963501,-0.23163914680480957
421,2.2550259808951676,-0.4681919412111786,0.7253353578143964,0.6915152072906494,0.45127353072166443,0.5640558004379272,0.3109780550003052,0.8020749092102051,-0.1198662519454956,0.6660439968109131,-0.3112894296646118,-0.13879334926605225
422,2.2650484082838345,-0.4456279112153565,0.6260805622692777,0.6934775710105896,0.43102455139160156,0.5773268938064575,1.0412414073944092,0.7867159843444824,1.089102864265442,0.5660895705223083,-0.07747849822044373,-0.05012059211730957
423,2.2567404945765506,-0.38792509253155777,0.3937448644480639,0.7163233757019043,0.3782685101032257,0.58633953332901,1.1392518281936646,0.6671925783157349,2.9140450954437256,0.732056200504303,0.002743542194366455,-0.14668792486190796
424,2.2177571003546537,-0.13563143810315376,0.09175112502183388,0.7905916571617126,0.13521598279476166,0.5972285866737366,0.5512580275535583,-0.08938014507293701,4.5284037590026855,0.23240351676940918,0.2650526165962219,-0.44386231899261475
425,2.1679979822972855,0.20072337836763918,-0.20526911020765037,0.8103102445602417,-0.19937823712825775,0.5510405898094177,0.5080738663673401,-0.6550818681716919,4.176052570343018,0.0560532808303833,0.8033668994903564,-0.27273547649383545
426,2.243594413833787,0.3824426524024782,-0.48204868408684826,0.7255802154541016,-0.373187780380249,0.5781558752059937,0.990875244140625,-0.42811599373817444,2.0944817066192627,-0.20011329650878906,0.878162145614624,-0.15998876094818115
427,2.2791670227589136,0.32179372561222963,-0.6006337926835359,0.7204415798187256,-0.3162687122821808,0.6172019839286804,1.4466180801391602,-0.5080429911613464,-1.46090829372406,-0.40459978580474854,0.9000089168548584,0.13081437349319458
428,2.205888737865153,0.037172649389045395,-0.40781537085975006,0.804460883140564,-0.03716408833861351,0.592842161655426,0.3449106812477112,-0.818571925163269,-5.089081287384033,0.17939543724060059,0.8902372121810913,-5.346536636352539e-05
429,2.1934496445183087,-0.4378750906791074,-0.12153760868313651,0.7356938123703003,0.42401599884033203,0.5281709432601929,-0.17833003401756287,-0.9689652323722839,-4.937760829925537,0.7116632461547852,-0.1103106439113617,0.15542256832122803
430,2.2691712607569383,-0.5719543056415815,0.10732684091788545,0.6439929008483887,0.5412763357162476,0.540641188621521,0.04492159187793732,-0.1460847556591034,0.216280996799469,0.33527034521102905,-0.8402418494224548,-0.16893714666366577
431,2.302629070974938,-0.5733281558692016,0.16820349529706535,0.6249935030937195,0.5424310564994812,0.5613839030265808,-0.21493518352508545,-0.10978374630212784,-1.2186121940612793,0.08148843050003052,-0.28820425271987915,-0.08729332685470581
432,2.321440343973512,-0.6286330362055712,0.2293074991116285,0.5914580821990967,0.5880396366119385,0.551712155342102,0.19516541063785553,-0.1774025559425354,0.8329394459724426,0.8574858903884888,-0.6853450536727905,0.04095423221588135
433,2.2707150491250774,-0.5782259715793143,0.08139489199933164,0.6405485272407532,0.5465391874313354,0.5394375920295715,0.7149131894111633,0.8466293811798096,1.6682311296463013,0.8859408497810364,-0.16812115907669067,0.12747842073440552
434,2.2153687178281665,-0.3511299456187548,-0.17907191820090537,0.750583827495575,0.3439590334892273,0.5641952753067017,-0.18679675459861755,0.41986387968063354,4.547300815582275,0.7135428786277771,0.18544474244117737,-0.08833467960357666
435,2.2087107732692735,0.06906710120104774,-0.45257262220045247,0.8014243245124817,-0.06901220232248306,0.59410160779953,0.057091668248176575,0.4899464547634125,4.463714599609375,-0.03610432147979736,0.7513852119445801,-0.23303282260894775
436,2.3151741834999027,0.34794294406225873,-0.6891804535464149,0.6914348602294922,-0.34096473455429077,0.6369149088859558,0.2785216271877289,0.6231644153594971,2.310045003890991,-0.43955808877944946,0.9882426261901855,-0.30509740114212036
437,2.3686311492807226,0.3472067881137105,-0.7770508142088045,0.6565908193588257,-0.34027260541915894,0.6731289625167847,0.7154722809791565,-0.420663446187973,-1.5480715036392212,-0.6093650460243225,1.0219132900238037,-0.217501699924469
438,2.2705278514709115,0.06023573905183595,-0.5992774820995408,0.7636275887489319,-0.0601993203163147,0.6428442597389221,0.44127628207206726,-1.1305205821990967,-5.321571350097656,-0.06736910343170166,0.9969058632850647,-0.08148878812789917
439,2.177964239376429,-0.4202689531594322,-0.19838581768551108,0.7497999668121338,0.4080060124397278,0.5208947658538818,-0.5664488077163696,-2.1313812732696533,-5.872611999511719,1.6120165586471558,0.4683825969696045,0.16771918535232544
440,2.1879785872391913,-0.5116764966289223,0.07732857536649736,0.7110655307769775,0.4896396994590759,0.5046173930168152,-0.17425750195980072,-1.5507506132125854,-0.35901159048080444,0.057962119579315186,-0.6257634162902832,-0.3781067728996277
441,2.2302008951242036,-0.5589533599993473,0.20388301339182302,0.6700732111930847,0.5302991271018982,0.519408106803894,-1.185195803642273,0.17244873940944672,-1.199899673461914,0.09666568040847778,-0.5112103819847107,-0.03799331188201904
442,2.307963119448511,-0.5481939119056646,0.2958633943361983,0.6318867802619934,0.5211466550827026,0.5736948251724243,-0.44546371698379517,0.27978628873825073,0.2466968446969986,0.36387139558792114,-0.4394052028656006,-0.10235071182250977
443,2.3193433354490263,-0.5003607646183019,0.26418051731314723,0.6428590416908264,0.4797421097755432,0.5971428751945496,0.04812052473425865,0.1617656946182251,0.6410018801689148,0.4567502737045288,-0.11307346820831299,-0.04009026288986206
444,2.286667371936148,-0.4921910259918999,0.17735331269706855,0.6649597883224487,0.4725579619407654,0.5783747434616089,1.1997249126434326,0.6860730648040771,1.067092776298523,0.835360586643219,-0.10469910502433777,0.07239729166030884
445,2.223635307966607,-0.356350225575507,-0.08049280235877816,0.7444575428962708,0.3488560914993286,0.569282054901123,0.5709234476089478,0.3900381028652191,3.667978048324585,0.4507175087928772,0.011266529560089111,-0.0433117151260376
446,2.1951516739700527,-0.003326024646110368,-0.3171277355447607,0.811335563659668,0.003326018573716283,0.5845710635185242,-0.5139251947402954,0.34722957015037537,4.270092010498047,-0.038950979709625244,0.48999062180519104,-0.10167628526687622
447,2.2530430411750664,0.28986279221780176,-0.5254386051719476,0.7437793612480164,-0.28582075238227844,0.6042344570159912,0.20975682139396667,0.5703706741333008,2.4735703468322754,-0.3732195496559143,0.8559043407440186,-0.09620827436447144
448,2.2927804552225797,0.30957106232705933,-0.6170021405196742,0.7148206233978271,-0.30465012788772583,0.6294599175453186,1.0087183713912964,-0.10803108662366867,-1.4198181629180908,-0.5912854671478271,0.9576194882392883,-0.026432573795318604
449,2.226904646669402,0.047353448984234575,-0.44162421176462957,0.791483998298645,-0.047335755079984665,0.6093539595603943,0.22831499576568604,-0.2652408480644226,-4.764970779418945,0.16475367546081543,0.8963042497634888,0.05074125528335571
450,2.1836695965672392,-0.36531132293028284,-0.15081600114698931,0.7640208601951599,0.35724008083343506,0.5372627377510071,-0.21116170287132263,-0.9005091190338135,-4.316370964050293,0.961549699306488,0.07957321405410767,0.2922964096069336
451,2.22691752268792,-0.464125970104246,0.09283048611911232,0.70854252576828,0.44764140248298645,0.545512855052948,-0.4154759347438812,-0.38435763120651245,-0.6814814805984497,-0.12413108348846436,-0.6446782350540161,-0.24453330039978027
452,2.3102828281152474,-0.49175430001723197,0.22100713347699608,0.6512693166732788,0.4721730351448059,0.5940542221069336,-0.8885754942893982,0.30735525488853455,-1.1783779859542847,0.14482730627059937,-0.34819549322128296,-0.25254738330841064
453,2.368596066257264,-0.5136925662605756,0.32742197957390734,0.6081600189208984,0.49139657616615295,0.6234344840049744,-0.14152008295059204,-0.13197235763072968,-0.31978583335876465,0.4713534712791443,-0.4706599712371826,-0.16307681798934937
454,2.3348295450572447,-0.4968117046928466,0.2685077441328508,0.634760320186615,0.47662511467933655,0.6082004904747009,0.47885534167289734,-0.338114857673645,1.0475152730941772,0.454656183719635,-0.18055877089500427,0.015777170658111572
455,2.2801205447015245,-0.47645564981576166,0.11584393467653115,0.6742914915084839,0.4586324691772461,0.578781008720398,0.9034368991851807,0.1523512899875641,1.6076380014419556,0.6995489001274109,-0.15797322988510132,0.054855525493621826
456,2.2316886428826512,-0.28145790029324647,-0.10607067704454996,0.7583815455436707,0.2777564823627472,0.5896686911582947,-0.10171535611152649,0.3917776644229889,3.554333209991455,0.1157793402671814,0.002776414155960083,-0.09961730241775513
457,2.2895606915469924,0.01912110407006741,-0.37561356780953253,0.7524822950363159,-0.01911993883550167,0.6583347916603088,0.29641973972320557,1.1831516027450562,3.7223060131073,-0.1199445128440857,0.5378119349479675,-0.1988012194633484
458,2.4071939469286705,0.17201552386133193,-0.6034125314617111,0.6602507829666138,-0.1711684763431549,0.7312796711921692,1.1553725004196167,0.7282527685165405,1.2721549272537231,-0.3979675769805908,0.7613937258720398,-0.22760236263275146
459,2.4436555393936774,0.06525697859364891,-0.6553854243519326,0.6412705779075623,-0.06521067023277283,0.7645386457443237,1.5940186977386475,0.06609569489955902,-2.172499418258667,-0.6017962098121643,0.6647895574569702,-0.09159564971923828
460,2.385708583650739,-0.33671294146388453,-0.3983194556946432,0.6474143266677856,0.3303864002227783,0.6868040561676025,1.3919671773910522,-1.8678048849105835,-5.5598273277282715,1.2748117446899414,0.07099607586860657,0.31708699464797974
461,2.2053889708580003,-0.1490614413693709,-0.15345370003368394,0.7963831424713135,0.14851005375385284,0.5862753987312317,-6.149489879608154,-5.846364974975586,2.3620760440826416,0.6419561505317688,-0.22352224588394165,0.12518101930618286
462,1.3617488943326432,0.17025618925639555,0.29803708924193545,0.9640851616859436,-0.16943484544754028,-0.2045275866985321,-2.475818157196045,-7.805527687072754,1.8797740936279297,0.8116105794906616,-0.4373309016227722,-0.334977388381958
463,0.5430390411531174,0.3961646490291467,0.408544037772222,0.4767175614833832,-0.3858828842639923,-0.7898321151733398,1.7994682788848877,-6.525031566619873,1.4241620302200317,0.33366143703460693,0.6487460732460022,0.45661067962646484
464,0.062358483672302685,0.5885758194028433,0.44405623330947236,0.05183194950222969,-0.5551770329475403,-0.830115556716919,1.7496256828308105,-1.8482626676559448,-0.2656683921813965,0.06004548817873001,0.49253976345062256,0.9223854541778564
465,-0.07145827938059697,0.6522874532685603,0.3909475865170149,-0.05673938989639282,-0.6070058345794678,-0.7926692366600037,-0.19059814512729645,-0.6454994082450867,-0.33381959795951843,-0.06752818822860718,-0.10144448280334473,0.5639858245849609
466,-0.057143265482251356,0.5601997728635495,0.33849350170902465,-0.04838251695036888,-0.5313554406166077,-0.8457662463188171,-1.4726389646530151,-0.15084433555603027,-0.41215211153030396,-0.012652639299631119,0.11593490839004517,-0.0009286999702453613
467,-0.007033574660376485,0.5056839694975775,0.28483467154061476,-0.0061532254330813885,-0.48440590500831604,-0.8748217225074768,-0.032157089561223984,-0.24374626576900482,-0.4513676166534424,-0.009303927421569824,0.17372173070907593,0.1022997498512268
468,0.022506655154615824,0.5416336234903849,0.21015321976569418,0.01928359642624855,-0.5155364871025085,-0.8566506505012512,-0.2935684621334076,-0.39749452471733093,-0.4431982636451721,-0.03567153587937355,0.08107298612594604,0.24320155382156372
469,0.06037457236078381,0.5236348279595238,0.15386002701287127,0.05225306749343872,-0.5000312328338623,-0.8644295334815979,-0.43651774525642395,-0.0793728306889534,-0.4376630187034607,0.04000157117843628,-0.1391441822052002,-0.1097373366355896
470,0.09114614790109377,0.5481274676362003,0.12605183379353846,0.07768572866916656,-0.5210899114608765,-0.8499588966369629,0.23514118790626526,0.8287816047668457,0.16110992431640625,0.13738688826560974,-0.26386791467666626,0.042784273624420166
471,0.10035927133677801,0.5272612977967774,0.2005134477974352,0.08658380061388016,-0.5031684637069702,-0.8598399758338928,-0.7232279777526855,1.0449401140213013,0.8137975335121155,0.24892644584178925,0.06846082210540771,0.2928844094276428
472,0.17544499867216146,0.43012716695505854,0.33926664359893666,0.15864737331867218,-0.4169863760471344,-0.8949599862098694,-0.5873783826828003,1.2915345430374146,1.1244803667068481,0.09113900363445282,0.06488984823226929,0.2999892830848694
473,0.20837600063742492,0.3054841063040787,0.5443182964045019,0.1972934603691101,-0.3007549047470093,-0.9330711364746094,-1.8418339490890503,1.0631190538406372,1.9861806631088257,-0.09010046720504761,0.03191030025482178,0.2906303405761719
474,0.20372731410101358,0.11989338681368583,0.7360228796624952,0.20086857676506042,-0.11960636079311371,-0.9722891449928284,-1.5822170972824097,0.04044238477945328,1.027735710144043,-0.3279285132884979,-0.015235558152198792,-0.32186979055404663
475,0.1723002402971162,0.07457455102911086,0.7874896793477292,0.17097245156764984,-0.07450544834136963,-0.982454776763916,-0.30894699692726135,-0.4364304542541504,-0.28138265013694763,-0.21667252480983734,0.03979170322418213,-0.428769588470459
476,0.11881079363236485,0.03764658404050943,0.746754823044484,0.11844748258590698,-0.03763769194483757,-0.9922467470169067,0.16083019971847534,-0.3443506360054016,-0.5190199017524719,-0.04407614469528198,0.08762548863887787,-0.47162044048309326
477,0.10648468441148644,0.10629536691891098,0.6567457829989776,0.10568369179964066,-0.1060953140258789,-0.9887238144874573,2.610574245452881,0.8870770335197449,-0.6948035955429077,0.13354359567165375,0.035996437072753906,0.17608648538589478
478,0.5941513126625899,0.7206104264950568,0.5114417077543068,0.4206397533416748,-0.6598434448242188,-0.6226305961608887,9.115837097167969,6.504880428314209,1.4600399732589722,-0.3690803050994873,0.5236587524414062,0.37746763229370117
479,1.9037079627177493,1.0370788965853595,-0.5457201370236504,0.48080500960350037,-0.8609218001365662,0.16625341773033142,2.7070682048797607,0.322384238243103,-2.0935161113739014,-0.4222264885902405,0.6505947113037109,0.30231356620788574
480,1.6560606757219398,0.746818960868571,-0.22436933393091044,0.731187641620636,-0.679307758808136,0.06249576061964035,0.5747837424278259,2.6400864124298096,-3.6879923343658447,0.3641493320465088,0.5683305859565735,0.22691774368286133
481,1.8063233826049079,0.2911692720926721,-0.02619906217438837,0.9314623475074768,-0.28707247972488403,0.22353330254554749,-3.1820149421691895,1.8278591632843018,-6.3409905433654785,0.8605908155441284,0.8322232961654663,0.19609865546226501
482,2.009161417643274,-0.214000516911652,0.38333722280306093,0.8847928047180176,0.2123708575963974,0.4147774279117584,-1.7582546472549438,2.424102783203125,-4.008925437927246,1.3577609062194824,-0.3430166244506836,-0.2945229113101959
483,2.0356882184618494,-0.18920637716041308,0.6416083997529832,0.8779178261756897,0.18807949125766754,0.44032523036003113,-0.8175543546676636,-1.2629915475845337,0.4076976478099823,-0.1915927529335022,-0.2861325144767761,-0.3544335663318634
484,2.1047978786296895,-0.22081073757468533,0.7009101348333822,0.8398779630661011,0.2190207540988922,0.4966239929199219,-1.031522274017334,0.9911748170852661,-1.3318917751312256,-0.05482834577560425,-0.2945975065231323,-0.2945365309715271
485,2.1981386216608088,-0.2372842638314515,0.8690265988552184,0.7869054675102234,0.2350638508796692,0.5705474019050598,-1.0426764488220215,-0.14592134952545166,-0.18358413875102997,0.6526238322257996,-0.42050397396087646,-0.5679383277893066
486,2.1307116758045095,-0.19121621028429447,0.8319157913563232,0.8318569660186768,0.1900530755519867,0.5214342474937439,1.0848281383514404,-0.15893208980560303,0.1825912594795227,0.2061372995376587,-0.12244142591953278,-0.047526776790618896
487,2.0745366150957896,-0.15595945695764457,0.6972937551303762,0.865153968334198,0.15532797574996948,0.4768460690975189,1.625752329826355,-0.4907972812652588,2.4789135456085205,0.717533528804779,-0.06926840543746948,-0.19016391038894653
488,1.9907662451260166,0.07438405479650387,0.4037416761620372,0.9105762243270874,-0.07431548088788986,0.40660548210144043,1.3031164407730103,-0.7750456929206848,3.982273578643799,0.10201221704483032,0.29565948247909546,0.04404756426811218
489,2.006650421944734,0.34983063125866287,0.13851656943732985,0.8516033291816711,-0.34273868799209595,0.3966134488582611,0.908393383026123,-0.1717534214258194,2.8605329990386963,-0.2276408076286316,0.6928668022155762,0.06232517957687378
490,2.0788859517477682,0.49029747992040495,-0.022375850269254056,0.7707501649856567,-0.4708883464336395,0.42919474840164185,0.8022237420082092,0.5173884630203247,0.5061682462692261,-0.5260603427886963,0.8437368869781494,0.04558244347572327
491,2.088005926600159,0.36562441167338705,-0.003650329812675838,0.811748743057251,-0.3575325012207031,0.46177348494529724,0.6579326391220093,0.2166002094745636,-2.8868768215179443,-0.3342858552932739,0.7820625305175781,0.10631126165390015
492,2.0790012026679072,-0.019019983809521634,0.21875856481825148,0.8734613060951233,0.019018836319446564,0.4865216910839081,-1.9314826726913452,-0.31290531158447266,-5.3769917488098145,0.7415440678596497,0.6004727482795715,0.28421491384506226
493,2.1551169180762053,-0.3714564715638661,0.44990932498400305,0.7772019505500793,0.3629729449748993,0.5140112042427063,1.2168755531311035,0.9331552386283875,-2.274186372756958,0.8949323892593384,-0.49950864911079407,0.00635915994644165
494,2.194938433610612,-0.3911477800931361,0.5503581280702654,0.7501766085624695,0.3812497556209564,0.540262758731842,-1.2071361541748047,0.15415062010288239,-0.2135525345802307,-0.06073862314224243,-0.5132381916046143,0.002110898494720459
495,2.1875821384363845,-0.2786604769942012,0.7689595073577457,0.7842745780944824,0.2750680446624756,0.5561038255691528,-4.945004940032959,-2.2186830043792725,-0.6525899171829224,-0.1524232029914856,-0.2430855631828308,-0.005002021789550781
496,2.2505596341752563,-0.21732914952933302,0.8681442826759698,0.7594268918037415,0.21562236547470093,0.6138219833374023,4.185335159301758,3.6912288665771484,1.3028852939605713,0.3851194977760315,-0.1881260871887207,-0.6389533281326294
497,2.3810210951943267,-0.38445761292361885,0.365046794369413,0.6390153765678406,0.3750563859939575,0.67155921459198,-0.4864824116230011,-1.0822155475616455,1.2734177112579346,0.32144904136657715,-0.024806201457977295,0.39596086740493774
498,1.9522426873401677,-0.11808408215351984,0.9482070266754379,0.9216640591621399,0.11780984699726105,0.36967095732688904,-9.454095840454102,-7.121282577514648,-2.5215001106262207,0.05198413133621216,0.11491720378398895,-0.03315350413322449
