,attitude.roll,attitude.pitch,attitude.yaw,gravity.x,gravity.y,gravity.z,rotationRate.x,rotationRate.y,rotationRate.z,userAcceleration.x,userAcceleration.y,userAcceleration.z
0,-0.043591552848830074,0.3395462172064617,-0.1438804752751651,-0.04108971729874611,-0.33305925130844116,-0.9420101642608643,0.1940302848815918,0.6992442607879639,0.9056602716445923,0.1749092936515808,0.009038865566253662,-0.5720279216766357
1,0.04331208762693768,0.6729787929778788,-0.037901583512544586,0.03385809436440468,-0.623318076133728,-0.7812350392341614,-0.12237651646137238,0.019290702417492867,-0.2816503345966339,-0.05047491565346718,0.13686788082122803,0.11959874629974365
2,0.045155970328901354,0.6507585496747209,-0.07497084687202539,0.03591499105095863,-0.6057900786399841,-0.7948135137557983,-0.45618104934692383,0.3281136453151703,-0.5226222276687622,-0.053004831075668335,0.1550149917602539,0.36042630672454834
3,0.05579136635483865,0.6355634816043229,-0.09439970697226734,0.04487410932779312,-0.5936310887336731,-0.8034852147102356,-0.006477684713900089,-0.0843610167503357,-0.12835896015167236,0.013032995164394379,-0.03309321403503418,0.1502106785774231
4,0.06454655346641931,0.612111496632799,-0.10399195981262722,0.05279058590531349,-0.5745968818664551,-0.8167322278022766,-0.12846359610557556,0.25148165225982666,-0.5992265939712524,-0.0728864073753357,-0.3356051445007324,-0.1733648180961609
5,0.0977004367478315,0.5837856186882167,-0.12473721417616952,0.08138985931873322,-0.5511865019798279,-0.8304029703140259,-1.073081374168396,0.22848522663116455,-0.6043891310691833,-0.07128854095935822,-0.16496944427490234,-0.13724839687347412
6,0.054211071228189286,0.5591554116017395,-0.15563416151600204,0.045932404696941376,-0.5304704308509827,-0.8464580774307251,-0.34332552552223206,-1.5455883741378784,-0.4622477889060974,-0.056628815829753876,0.12829452753067017,0.0522228479385376
7,-0.07688659422880363,0.5380342167513855,-0.16857354149828604,-0.06595885008573532,-0.5124489068984985,-0.8561807870864868,-0.5747395753860474,0.00544826639816165,0.28801974654197693,0.024439677596092224,0.18339312076568604,0.3472849130630493
8,-0.11377409794302486,0.5266412753424438,-0.22725551510668268,-0.09814566373825073,-0.5026325583457947,-0.8589109182357788,-0.691422700881958,0.2616524398326874,-0.9555112719535828,0.17418020963668823,0.006981313228607178,0.4791959524154663
9,-0.16555880108249943,0.45798833680363965,-0.20408928223744202,-0.14781948924064636,-0.4421446621417999,-0.8846793174743652,0.6470807194709778,-2.488893747329712,-0.1554652899503708,-0.21599581837654114,-0.05756542086601257,0.25307226181030273
10,-0.3532292846538642,0.35901427076140696,-0.22150996025667405,-0.323874294757843,-0.3513515293598175,-0.8784403800964355,-2.572295665740967,-1.3358346223831177,0.3978760540485382,-0.516274631023407,0.022829800844192505,0.33043622970581055
11,-0.7342527265224541,0.2858986197714775,-0.20259020634185917,-0.6428350806236267,-0.282019704580307,-0.7121993899345398,-3.749181032180786,-3.494277238845825,0.960657000541687,-0.3490014672279358,0.5791083574295044,0.7610122561454773
12,-1.0340050119359425,-0.03885573166812868,-0.42090398455432354,-0.8587052822113037,0.038845956325531006,-0.5109952092170715,-4.5878496170043945,-2.955657720565796,1.5826390981674194,-0.1841718554496765,0.790225088596344,0.12110269069671631
13,-1.3531296845673784,-0.3132464190961061,-0.804311014333547,-0.9288905262947083,0.30814871191978455,-0.20544332265853882,-4.315443515777588,-2.5065536499023438,0.9158374071121216,-0.0241277813911438,0.23652905225753784,-0.5470134019851685
14,-1.7022386500446158,-0.37652553808758193,-1.0317413025148923,-0.9219260215759277,0.36769163608551025,0.1218828335404396,-0.4839881360530853,-2.998792886734009,-0.19450484216213226,-0.34015893936157227,-0.37498530745506287,-1.0215104818344116
15,-1.780764899622202,-0.29458388364607857,-1.111935272586157,-0.9359065294265747,0.29034167528152466,0.19945065677165985,-0.5181485414505005,0.4703693389892578,-1.2581968307495117,-0.3175113797187805,-0.21310171484947205,-1.0165435075759888
16,-1.6909753087452188,-0.2497198779133663,-0.9722656579138023,-0.9619925618171692,0.2471325397491455,0.11617111414670944,3.3397481441497803,0.028068847954273224,-0.5303663611412048,-0.5618873834609985,0.311964750289917,-0.825124979019165
17,-1.5625861228443074,-0.1671272975910359,-0.44178081420589593,-0.9860334396362305,0.1663503646850586,-0.00809571798890829,7.11772346496582,-0.7171953916549683,-1.9816758632659912,-0.47469037771224976,0.8255777359008789,-0.21002864837646484
18,-1.5503111070459041,0.0970878763887502,0.08508973191878448,-0.995081901550293,-0.09693542122840881,-0.020387323573231697,2.4948670864105225,0.4800185263156891,-2.5614607334136963,0.6136578917503357,0.5670281648635864,0.5410934686660767
19,-1.587761125227129,0.2950957417829465,0.26943337562042025,-0.9566366076469421,-0.29083144664764404,0.01623070426285267,0.6916777491569519,-0.30289342999458313,-0.811159074306488,0.7217275500297546,0.8261250257492065,0.41313636302948
20,-1.624342139077988,0.24078934246694939,0.24387956352421772,-0.9697580337524414,-0.23846927285194397,0.05197616666555405,-1.9022043943405151,0.12936320900917053,1.754523515701294,0.26609909534454346,0.8479205965995789,0.5120192766189575
21,-1.5449585125266025,-0.021169467447312965,-0.09810431033583955,-0.9994422793388367,0.02116788551211357,-0.025829151272773743,-6.100217342376709,0.48755723237991333,2.432440996170044,-0.7172325849533081,0.8923605680465698,0.6319692730903625
22,-1.6638470126115468,-0.24671177262966898,-0.645691219302243,-0.9655255675315857,0.24421662092208862,0.09010301530361176,-3.2095160484313965,-0.3809165060520172,1.943893551826477,-0.8058366775512695,0.4665530323982239,-0.6851195096969604
23,-1.7421951463440155,-0.29134150082912974,-0.8558660203073407,-0.9438239336013794,0.2872374653816223,0.16337329149246216,-1.2468560934066772,-0.2913745939731598,0.06562613695859909,0.23210835456848145,-0.4672912061214447,-0.3472263813018799
24,-1.8545003419839041,-0.2579752422315102,-1.0989867709292946,-0.9282565116882324,0.2551233172416687,0.2706507444381714,-2.1324357986450195,-0.6924031972885132,0.12020406126976013,0.1015048623085022,-0.401378870010376,-0.7726649045944214
25,-1.9112691490459899,-0.16022495372573944,-1.1832972861840199,-0.9305236339569092,0.15954028069972992,0.32965561747550964,0.46579718589782715,-0.1121385395526886,-1.0342586040496826,-0.19078373908996582,-0.043573468923568726,-0.834477424621582
26,-1.9215353482176314,-0.15727944303826474,-1.0587634134581971,-0.927527666091919,0.15663181245326996,0.33935102820396423,1.8990206718444824,-0.671183168888092,-0.6597777009010315,-0.6136101484298706,0.03846709430217743,-0.43946394324302673
27,-1.8831599205724923,-0.14964769334502667,-0.7377857680301256,-0.9409743547439575,0.1490897685289383,0.303874135017395,3.696697473526001,0.37735357880592346,-2.181309223175049,-1.0361679792404175,0.6520271897315979,-0.24225914478302002
28,-1.802556881063821,0.04066051126249632,-0.277495123633407,-0.972459077835083,-0.04064930975437164,0.22950151562690735,3.2692718505859375,0.2817698121070862,-2.829824209213257,0.4075634479522705,0.49038684368133545,0.29874253273010254
29,-1.8193303164225978,0.21494552940973463,-0.027491515579577713,-0.946969211101532,-0.21329420804977417,0.24032270908355713,1.1558839082717896,-0.3529047667980194,-1.5586326122283936,0.665932834148407,0.6145545840263367,0.38330399990081787
30,-1.8498079135648415,0.27189265023412296,0.011949610307051604,-0.926013171672821,-0.26855504512786865,0.26528841257095337,0.27084940671920776,-0.5202856063842773,0.5745282173156738,0.44803160429000854,0.7035983800888062,0.1842813491821289
31,-1.874375587665495,0.11679653882826699,-0.05645554746835726,-0.9477710127830505,-0.11653117090463638,0.29690098762512207,-0.33492568135261536,-0.5072206258773804,2.5887269973754883,0.02766627073287964,0.4482572674751282,0.35927265882492065
32,-1.8632358219426133,-0.0972892188686121,-0.4117574634313835,-0.9530154466629028,0.09713581204414368,0.2869257628917694,-3.8090641498565674,1.2735939025878906,3.19879150390625,-0.6680936217308044,0.3682420253753662,-0.2176966369152069
33,-1.8585014028819946,-0.19164739596892683,-0.6555328711804517,-0.9413419365882874,0.19047638773918152,0.2785573899745941,-1.6482322216033936,1.2337597608566284,-0.12427900731563568,-0.43573325872421265,-0.6318826079368591,-0.35710954666137695
34,-1.807850809910426,-0.07892854045922179,-0.7519439328314382,-0.969007670879364,0.07884661853313446,0.23410937190055847,-1.348127841949463,0.8335716128349304,-1.429133415222168,-0.052278220653533936,-0.7185255885124207,-0.40625911951065063
35,-1.7404807686488744,0.1305994124227045,-0.71547292403327,-0.9772443175315857,-0.13022847473621368,0.16743320226669312,0.4163297712802887,1.0089772939682007,-2.705131769180298,-0.44833844900131226,-0.20528176426887512,-0.3870225250720978
36,-1.6799287635033893,0.3866602235327007,-0.5792392992111075,-0.9206637740135193,-0.37709730863571167,0.10087507218122482,1.1053739786148071,1.9062360525131226,-2.7394931316375732,-0.6233119964599609,-0.08123090863227844,-0.48350441455841064
37,-1.509427989305406,0.6494073922395743,-0.4474991201433435,-0.79494309425354,-0.6047145128250122,-0.048845671117305756,0.8603274822235107,2.992927074432373,-2.420564651489258,-0.917733907699585,0.4402552843093872,-0.34437334537506104
38,-1.2367264275016145,0.8585597850049415,-0.37161346308535054,-0.6173985004425049,-0.7569020986557007,-0.21428582072257996,0.19108423590660095,4.645145893096924,-1.5592457056045532,-0.5346248149871826,0.4540303945541382,0.10150814056396484
39,-0.68719693989137,0.9408293786361421,-0.443626245078181,-0.3737204968929291,-0.8080469965934753,-0.4554043114185333,0.5199625492095947,4.631009578704834,-0.5146458148956299,-0.3271920084953308,0.6445643305778503,0.35921287536621094
40,-0.34412093176365416,1.067331230904871,-0.45626411289394136,-0.16276836395263672,-0.875916063785553,-0.4541778266429901,1.927290678024292,1.8784970045089722,-0.5377675890922546,-0.2770051956176758,0.501801073551178,0.2979888916015625
41,-0.22742154363338143,1.25505446434074,-0.4069191958984699,-0.07001218944787979,-0.950566291809082,-0.30252623558044434,1.559524655342102,1.4061390161514282,0.1925990730524063,-0.1525525152683258,0.09998035430908203,0.49315428733825684
42,-0.5876527923588623,1.3666761844835225,0.04544217320324664,-0.11238189041614532,-0.9792397022247314,-0.1687006652355194,0.4987918734550476,0.9094529151916504,0.335158109664917,-0.32199007272720337,-0.13657450675964355,0.2889094352722168
43,-0.6741313461013189,1.3493369046614407,0.17346817091521483,-0.13711166381835938,-0.9755779504776001,-0.17160393297672272,-0.776135265827179,0.4277961254119873,0.5633834600448608,0.008968383073806763,0.17017334699630737,0.21805168688297272
44,-0.6199718772260022,1.2900236947611443,0.15456799219166875,-0.16099759936332703,-0.9608416557312012,-0.22552898526191711,-0.3719261884689331,0.6102650761604309,-0.08168209344148636,-0.14857271313667297,0.2989305853843689,0.0335734486579895
45,-0.5829992270159574,1.2804232209734179,0.12748948637080204,-0.15762200951576233,-0.9581370949745178,-0.23901550471782684,-0.4934788942337036,0.08553093671798706,0.24924567341804504,-0.004655197262763977,0.20516175031661987,0.09031863510608673
46,-0.6603114448257664,1.3067625700490517,0.20736248223091805,-0.1600731462240219,-0.9653451442718506,-0.2061193585395813,-0.024159900844097137,-0.01726643741130829,0.38698679208755493,-0.016806721687316895,-0.06534016132354736,0.1860388219356537
47,-0.8073595157317968,1.3406755264039658,0.3472765122034819,-0.16479051113128662,-0.9736388325691223,-0.15770690143108368,0.8700910806655884,0.005450431723147631,-0.037370361387729645,-0.02107679843902588,-0.4334504008293152,-0.1962970495223999
48,-1.052198030443589,1.3928663167555524,0.552455433593188,-0.15372033417224884,-0.9842121601104736,-0.08772852271795273,0.10747042298316956,-0.25452712178230286,-0.12906724214553833,0.11191126704216003,0.09172570705413818,-0.17672157287597656
49,-0.97975150246442,1.3471188210142278,0.48477447565732773,-0.18418799340724945,-0.9750882983207703,-0.12360302358865738,0.2855813503265381,-0.2897811532020569,0.10895463824272156,-0.12081995606422424,0.07794779539108276,-0.09563523530960083
50,-1.067509102657198,1.3595201180114875,0.5420957031208697,-0.18370455503463745,-0.9777640700340271,-0.10114376991987228,-0.25134435296058655,-0.0757259950041771,0.08180196583271027,0.07718293368816376,0.4053000807762146,0.14864438772201538
51,-1.116373835571841,1.3622020190834112,0.5506951767233091,-0.18606895208358765,-0.9783229827880859,-0.09089863300323486,0.1668717861175537,-0.331754207611084,0.18517152965068817,0.15594808757305145,0.05888938903808594,0.019121289253234863
52,-1.1789208946664365,1.3440998363317689,0.5910652399260191,-0.20772171020507812,-0.9744142293930054,-0.08584076911211014,0.16157536208629608,-0.2761417627334595,0.08189673721790314,-0.08112716674804688,-0.32175886631011963,-0.012517385184764862
53,-1.3330012102794457,1.375536881473334,0.6934982263613457,-0.1885615438222885,-0.9809973835945129,-0.045703742653131485,0.22812148928642273,-0.8088226914405823,-0.6982822418212891,-0.12923327088356018,-0.12166374921798706,-0.07763302326202393
54,-1.0942511081014152,1.3437925421337809,0.4210255106312152,-0.19998420774936676,-0.9743450880050659,-0.10323736071586609,-0.4431951642036438,-0.8065283298492432,-0.2269277423620224,-0.29971063137054443,-0.13869202136993408,-0.1038549542427063
55,-1.0147809737634679,1.348001605752301,0.27350621391332475,-0.18767240643501282,-0.9752837419509888,-0.1166219711303711,-0.36020955443382263,-0.008355772122740746,0.08428675681352615,0.15152433514595032,0.31886589527130127,-0.043015480041503906
56,-0.9170546426919547,1.3337346454727577,0.16167568239450206,-0.1864248365163803,-0.9720322489738464,-0.14282478392124176,-0.08870070427656174,0.20759926736354828,0.2072542905807495,0.1261526197195053,0.227647602558136,-0.07339225709438324
57,-0.9949625345374363,1.3215508001942395,0.2531253240826166,-0.20689423382282257,-0.9690988063812256,-0.13432195782661438,0.34394800662994385,0.21804848313331604,0.04256875813007355,-0.012069404125213623,-0.12748932838439941,0.008726894855499268
58,-1.0473147309537005,1.3346161655517315,0.3516429093497831,-0.20265546441078186,-0.9722388982772827,-0.11697153002023697,0.4207133948802948,0.5917680859565735,-0.14976349472999573,0.026340171694755554,-0.5001121759414673,-0.03579949587583542
59,-0.9925915926703256,1.33567757191317,0.35088802855837925,-0.19509001076221466,-0.972486674785614,-0.12731683254241943,-0.6903850436210632,1.503228783607483,0.8642611503601074,0.26524990797042847,0.0030500292778015137,-0.20518743991851807
60,-0.9843861843042592,1.2965140157323445,0.42989443829572516,-0.2256050705909729,-0.9626198410987854,-0.14988498389720917,0.3286071717739105,0.31946948170661926,-0.02118687517940998,-0.012737229466438293,0.2013435959815979,0.007108449935913086
61,-0.9625530907330144,1.3054807654484195,0.4639899043983305,-0.21518641710281372,-0.9650098085403442,-0.14983583986759186,-0.12953785061836243,0.6313439011573792,-0.08712753653526306,0.08234339952468872,0.4012739062309265,0.15659548342227936
62,-0.983370026728885,1.3069980388746547,0.49648082700234947,-0.21703985333442688,-0.9654065370559692,-0.1445126235485077,0.225382000207901,-0.13160748779773712,0.24408777058124542,0.18327216804027557,0.08103764057159424,-0.0449710488319397
63,-1.1429721890068825,1.304066235685004,0.6518344078742379,-0.239822655916214,-0.9646379351615906,-0.10935676097869873,0.8733034133911133,-0.3701523542404175,0.2743203341960907,-0.06303378939628601,-0.3693769574165344,-0.19269096851348877
64,-1.3205918750311707,1.36171540457287,0.7960607521994866,-0.20109781622886658,-0.9782220721244812,-0.05139250308275223,0.18666230142116547,-0.21219725906848907,-0.5609248876571655,-0.09568560123443604,-0.03210806846618652,-0.05757051333785057
65,-1.0418617447365779,1.3333301654437557,0.5342987495139014,-0.20309396088123322,-0.9719371795654297,-0.11870571970939636,-0.49635228514671326,0.03462810069322586,-0.2070467472076416,-0.2835088074207306,-0.1536273956298828,0.029640138149261475
66,-1.0020445098090007,1.3657416503419475,0.4556301799385031,-0.17156609892845154,-0.9790498614311218,-0.10966659337282181,-0.2864871919155121,0.2400948405265808,-0.11583031713962555,0.17689140141010284,0.4906464219093323,0.04106305539608002
67,-0.8638014827178359,1.3561522614540193,0.3431688268951033,-0.16194729506969452,-0.9770522713661194,-0.13835428655147552,0.006685734260827303,0.33812543749809265,0.08739136904478073,0.10326199233531952,0.17588955163955688,-0.010922431945800781
68,-0.8467217502629001,1.3450496847542341,0.3685495624094313,-0.16767701506614685,-0.9746272563934326,-0.14827723801136017,0.26174527406692505,0.152814120054245,-0.05594564601778984,-0.12111082673072815,-0.18182110786437988,0.10274499654769897
69,-0.8626225641925617,1.3570070436149906,0.4351930096842956,-0.16115015745162964,-0.9772340059280396,-0.13800226151943207,0.3146837651729584,0.5089227557182312,0.12835532426834106,0.02061671018600464,-0.4201507568359375,0.009507998824119568
70,-0.732040985181669,1.3444932523190134,0.32318860876798094,-0.1499708592891693,-0.9745025634765625,-0.16689392924308777,-1.103488564491272,0.751222550868988,0.5591724514961243,0.1638105809688568,-0.00927734375,-0.10195064544677734
71,-0.7958977835797361,1.3042280632343601,0.3962233015718943,-0.18821346759796143,-0.964680552482605,-0.18430204689502716,0.20003636181354523,0.04987480118870735,0.17883062362670898,0.041240811347961426,0.313618540763855,0.022116363048553467
72,-0.8092221174898255,1.3015822297400104,0.41307595050893475,-0.1924990713596344,-0.9639801979064941,-0.18353867530822754,-0.12161128222942352,-0.2752494215965271,-0.1977231353521347,0.014764666557312012,0.36244815587997437,0.13593123853206635
73,-0.8585550542656691,1.2876684222161843,0.43352296577118454,-0.21144747734069824,-0.9601863026618958,-0.18257080018520355,-0.1181798130273819,-0.19540508091449738,-0.12396340817213058,-0.016839250922203064,-0.10820353031158447,0.16761721670627594
74,-0.8874399822501574,1.275964297892744,0.4169814668607097,-0.22533172369003296,-0.9568509459495544,-0.18347132205963135,0.02254573628306389,-0.8677647709846497,0.12557533383369446,-0.13886503875255585,-0.3322725296020508,0.13323940336704254
75,-0.7976463495041972,1.2147763300224423,0.28125888293418566,-0.24945959448814392,-0.9372914433479309,-0.24342238903045654,-1.646832823753357,-0.8216106295585632,-0.025156734511256218,-0.1869417428970337,0.07842010259628296,0.652800440788269
76,-0.6584866076647112,1.039381308406479,-0.04112053272935433,-0.3100930452346802,-0.8620908856391907,-0.40080127120018005,-2.2181389331817627,-1.7332110404968262,0.14428453147411346,-0.2728079557418823,0.4376829266548157,0.26400625705718994
77,-0.7517802546985904,0.9569549097534614,-0.25652179398506736,-0.39338162541389465,-0.8174413442611694,-0.42076173424720764,-1.0442678928375244,-3.2833950519561768,-0.7981972098350525,-0.0027669668197631836,0.588193416595459,0.25068730115890503
78,-1.2036766987020842,0.886358431720795,-0.2422305906802899,-0.5901085138320923,-0.7747745513916016,-0.22692809998989105,-1.4435882568359375,-3.4459619522094727,1.441193699836731,0.054494500160217285,0.5800876617431641,0.20805299282073975
79,-1.191673651863898,0.4992009071855397,-0.5493845637817587,-0.8156208992004395,-0.4787241220474243,-0.32493993639945984,-3.419147491455078,-2.606665849685669,3.2671291828155518,-0.24564319849014282,0.5451608896255493,-0.41086941957473755
80,-1.6157413901826128,0.0820361676541755,-0.5630940981277904,-0.9956303834915161,-0.08194418251514435,0.04477882757782936,2.9311187267303467,-7.140422344207764,4.7316203117370605,-0.7621667385101318,0.9071852564811707,-0.6508274078369141
81,-2.030562114179133,-0.5311742420332838,-0.3236496185084868,-0.7726777195930481,0.506546139717102,0.38259685039520264,0.8296430706977844,0.06858919560909271,3.3190062046051025,-1.9833190441131592,-0.11999517679214478,0.6012441515922546
82,-1.8947032942706343,-0.47714908916938126,-0.39831014587148705,-0.8421151638031006,0.4592485725879669,0.2827242314815521,0.6306894421577454,0.8850584030151367,-1.054479956626892,0.12501299381256104,-0.592198371887207,-0.08741173148155212
83,-1.8567682926284153,-0.39884703964793927,-0.28607079836318894,-0.884084939956665,0.38835614919662476,0.25994864106178284,0.5473779439926147,-0.27828291058540344,-0.9937431216239929,0.15976548194885254,-0.17049115896224976,-0.02175891399383545
84,-1.8588631229173422,-0.3319151627047081,-0.22742397113970791,-0.9064638614654541,0.32585427165031433,0.26859307289123535,0.4627426862716675,-0.20873115956783295,-0.6604194641113281,-0.002639472484588623,0.23415854573249817,0.03498050570487976
85,-1.8706339510951608,-0.3272528345552489,-0.17694514490913663,-0.904681384563446,0.3214428722858429,0.2796897888183594,-0.7995341420173645,0.15542803704738617,0.006446498446166515,-0.1122559905052185,0.4485766887664795,0.488803893327713
86,-1.8496855492538073,-0.34873365358486613,-0.3480229934826179,-0.9034936428070068,0.3417079746723175,0.25871729850769043,-0.7990237474441528,0.7379627227783203,1.252259612083435,-0.18102461099624634,0.5172244906425476,0.03681489825248718
87,-1.7973628376816875,-0.427810203278008,-0.48041378380719385,-0.8866231441497803,0.41487935185432434,0.20438838005065918,-1.6721440553665161,0.9897910356521606,0.7332528829574585,0.19507956504821777,-0.33503010869026184,0.2533447742462158
88,-1.8247665622801894,-0.42745545496394655,-0.7054618904375449,-0.8808324337005615,0.4145565629005432,0.22864235937595367,-1.8274672031402588,0.33166858553886414,0.414448082447052,0.2668339014053345,-0.37573814392089844,-0.09965977072715759
89,-1.8998660485919254,-0.441617338596431,-0.8999436977961612,-0.8555526733398438,0.42740219831466675,0.2921590805053711,-1.3361971378326416,-0.05108961462974548,0.5967856645584106,-0.25885772705078125,-0.29849597811698914,-0.2759084701538086
90,-1.9553418936001292,-0.4257337610023178,-1.0128730866881075,-0.8442240953445435,0.41298916935920715,0.3416516184806824,-0.1518574357032776,-0.3830481767654419,0.04216799885034561,-0.6121053099632263,-0.016993075609207153,-0.44040656089782715
91,-1.924355186368867,-0.41452732466406744,-0.9016090729168766,-0.858691930770874,0.40275734663009644,0.3169146776199341,2.0899977684020996,-0.23335230350494385,-1.5555976629257202,-0.9512141346931458,0.20142966508865356,-0.4209033250808716
92,-1.7898581978051273,-0.23817591802966823,-0.5973360784161423,-0.9485463500022888,0.2359304279088974,0.2111792117357254,2.022120714187622,0.7793700098991394,-2.935567617416382,0.09011739492416382,0.1521768718957901,-0.13369512557983398
93,-1.7085550494388868,0.007036661169938835,-0.33283403119315946,-0.9905016422271729,-0.007036603055894375,0.13731999695301056,2.125321626663208,0.37057235836982727,-2.7249338626861572,0.3931353688240051,0.37901538610458374,-0.033331409096717834
94,-1.7637166739708507,0.18266526639131508,-0.08449165033200462,-0.9651203751564026,-0.18165114521980286,0.18853618204593658,1.4898695945739746,-0.34149953722953796,-1.0210902690887451,0.42924684286117554,0.7675275802612305,0.1568465530872345
95,-1.8435328493948888,0.11512019370709593,0.007878785682090368,-0.9566629528999329,-0.11486608535051346,0.2675848603248596,0.16000975668430328,-0.15459531545639038,1.7558395862579346,0.32253825664520264,0.7212961316108704,0.2666252851486206
96,-1.8634673338922751,-0.11328868249337978,-0.2049936557568712,-0.9513390064239502,0.11304650455713272,0.2866612374782562,-3.7380683422088623,0.5583524107933044,3.350022554397583,-0.3906562924385071,0.8192654848098755,0.1447657346725464
97,-1.8696433909376715,-0.4103304186177168,-0.5548086809585888,-0.8763449788093567,0.39891234040260315,0.2699786126613617,-1.1459299325942993,0.6995754241943359,3.176013946533203,-0.5587135553359985,0.04791077971458435,-0.2782489061355591
98,-1.9032526430968986,-0.49150388946505014,-0.8156726562342655,-0.8333495855331421,0.47195228934288025,0.28773200511932373,-1.7667006254196167,0.4842812716960907,0.6189344525337219,0.02648007869720459,-0.47543126344680786,-0.36259162425994873
99,-1.9793012190536274,-0.5405224332613326,-0.9589316268190703,-0.7868861556053162,0.5145840048789978,0.3406074643135071,-0.6076337695121765,-0.4376073479652405,1.0948481559753418,-0.18923377990722656,-0.5470547676086426,-0.3645179569721222
100,-1.996599441200388,-0.5342810803173743,-0.9791596807551948,-0.7837866544723511,0.5092224478721619,0.35548731684684753,0.2008080780506134,0.17673812806606293,-0.8430747389793396,-0.7028467655181885,-0.5112518072128296,-0.43455836176872253
101,-1.9364719089247582,-0.4363568109581351,-0.8628331840058364,-0.8463752269744873,0.42264047265052795,0.3240740895271301,1.3536733388900757,-0.24309158325195312,-2.063436985015869,-1.1567680835723877,0.003262817859649658,-0.4917682409286499
102,-1.8696517090763682,-0.2345646243622419,-0.5126178799481532,-0.9295035600662231,0.23241955041885376,0.286363810300827,2.6283230781555176,0.26518407464027405,-4.0481791496276855,-1.1574257612228394,0.5379661917686462,-0.3499777317047119
103,-1.783711068321686,0.14745945246930064,-0.19763465736285185,-0.9668118953704834,-0.14692562818527222,0.20901651680469513,1.7915866374969482,0.8768160939216614,-4.552358627319336,-0.39036595821380615,0.5472247004508972,-0.14125213027000427
104,-1.8099952863472148,0.6017582584507561,0.04566004887473223,-0.8008710145950317,-0.5660927295684814,0.1953067034482956,0.399726927280426,0.8035534024238586,-4.597457408905029,-0.5425127148628235,0.917823076248169,-0.008127093315124512
105,-1.6232659990770562,1.0046279591504468,0.018774355130909786,-0.5356638431549072,-0.8439624905586243,0.02813192643225193,-1.8390686511993408,3.2575700283050537,-2.6407058238983154,-0.446544349193573,0.8714131712913513,-0.0031533297151327133
106,-1.0198188431509139,1.1451299014384175,-0.2278455603748433,-0.3518200218677521,-0.9107637405395508,-0.21617615222930908,2.199960708618164,3.8271446228027344,-0.6439675092697144,-0.604524552822113,0.4875154495239258,-0.22523009777069092
107,-0.9301246854931856,1.3002638821798833,0.0527496411363613,-0.21424847841262817,-0.9636287689208984,-0.15974116325378418,0.3528326749801636,3.068305730819702,-0.2820855379104614,-0.17334003746509552,0.23483848571777344,0.4665954113006592
108,-0.9103678152273951,1.348486310169589,0.2873545522338252,-0.17412202060222626,-0.9753907322883606,-0.1352565437555313,0.5901003479957581,1.9996466636657715,0.17941008508205414,0.11188143491744995,0.23051774501800537,0.5581386089324951
109,-0.9764158858623067,1.3532145985704995,0.49870269786631394,-0.17884650826454163,-0.9764223098754883,-0.12088567763566971,-0.10200997442007065,0.9543969035148621,0.1283033788204193,0.07215707004070282,0.37351709604263306,0.5393121838569641
110,-0.9694288364709763,1.3459366107264004,0.5686186009219915,-0.1838521808385849,-0.974825382232666,-0.1261494755744934,0.05002666264772415,0.5609137415885925,0.11258765310049057,0.0445241779088974,0.10512030124664307,0.3235829472541809
111,-0.9818908763627442,1.324575557726566,0.6340795308349644,-0.20268255472183228,-0.9698405265808105,-0.13538618385791779,-0.08589691668748856,0.5075260996818542,0.264504075050354,-0.1431121528148651,-0.2404104471206665,0.015772566199302673
112,-1.189657995185709,1.331796904737099,0.9195961280578836,-0.2197430431842804,-0.9715753197669983,-0.08805834501981735,0.05398951470851898,0.5830076932907104,-0.4209116995334625,-0.18311947584152222,-0.15769702196121216,0.19528186321258545
113,-1.1392876159097423,1.3114073159885515,0.910020782243062,-0.23297914862632751,-0.966546893119812,-0.1072748601436615,-1.209326148033142,-0.612437903881073,0.730507493019104,-0.024024635553359985,0.11480128765106201,0.3101099729537964
114,-1.217860046478382,1.3000368230756394,0.9784097371867017,-0.2509772479534149,-0.9635680317878723,-0.09244987368583679,0.9177327752113342,-0.5723688006401062,-0.25016891956329346,0.0766761302947998,0.3091644048690796,0.3090483546257019
115,-1.2761818712543929,1.318528590014512,0.985287831397258,-0.23884622752666473,-0.9683488607406616,-0.07247672230005264,0.5542965531349182,-0.6138623356819153,0.05101717263460159,0.10932965576648712,0.1745867133140564,0.027249641716480255
116,-1.445488295788029,1.3294076197736335,1.0947761075461968,-0.2371770590543747,-0.9710069298744202,-0.02987672947347164,0.6658532619476318,-0.7231480479240417,-0.25640201568603516,0.0024816393852233887,-0.09816110134124756,-0.06893914937973022
117,-1.621138718487516,1.3264795248477395,1.232343699559243,-0.2415871024131775,-0.9703028202056885,0.012172357179224491,0.45222175121307373,-0.11099988222122192,-0.07566680759191513,-0.412541925907135,-0.402362585067749,0.14944875240325928
118,-1.72182290637648,1.3770911237050973,1.2753033754844156,-0.1903056502342224,-0.9812977313995361,0.02896174229681492,-0.7386095523834229,0.09468713402748108,0.0462614931166172,0.10217085480690002,0.14662659168243408,0.030898455530405045
119,-1.2738109669439421,1.343389823978268,0.8135933223284794,-0.2155822068452835,-0.9742543697357178,-0.06597596406936646,-0.19801586866378784,-0.262986958026886,-0.34224173426628113,-0.12000435590744019,0.08660483360290527,-0.13328856229782104
120,-1.1476295024511918,1.3547283266162489,0.6725366124431897,-0.19548001885414124,-0.976747989654541,-0.0880395695567131,-0.472968190908432,0.2581983804702759,-0.07505373656749725,0.10876433551311493,0.3962273597717285,0.0376245453953743
121,-1.0011925149386303,1.3321558810137637,0.5563763472619447,-0.19906091690063477,-0.9716602563858032,-0.12748055160045624,-0.00799616053700447,0.2888333201408386,0.12428054213523865,-0.040761470794677734,-0.06512874364852905,0.038750648498535156
122,-0.9916086566191098,1.3381987151258978,0.5620945356405916,-0.19291213154792786,-0.9730709195137024,-0.12616607546806335,0.15314620733261108,0.21041494607925415,-0.1297914981842041,-0.08968064188957214,-0.2917148470878601,-0.019540071487426758
123,-0.9537018565841368,1.3637924128002255,0.5388628006377006,-0.1676216423511505,-0.9786511063575745,-0.11893286556005478,0.4625295400619507,-0.20774561166763306,-0.3514612317085266,0.125309020280838,-0.15074342489242554,-0.255792498588562
124,-0.8785095121738264,1.3130803148039318,0.5048641156625218,-0.19619792699813843,-0.9669746160507202,-0.16268496215343475,-0.1594552993774414,0.5512835383415222,0.6193245649337769,-0.06549030542373657,-0.04779583215713501,-0.12212032079696655
125,-0.9608029380232332,1.3251197157064565,0.6012833867670553,-0.19934964179992676,-0.9699729681015015,-0.1393272578716278,-0.0301009863615036,0.3802907466888428,-0.034672919660806656,0.10453152656555176,0.41766589879989624,0.1540214568376541
126,-0.9205598341647964,1.3159771090073389,0.5784102912196665,-0.20063303411006927,-0.9677088856697083,-0.15259699523448944,-0.10371813923120499,-0.005575958173722029,0.045077547430992126,0.09551523625850677,0.19993239641189575,0.08884578943252563
127,-0.8741982673862062,1.2888652043777116,0.5428228042537183,-0.21339593827724457,-0.9605199694633484,-0.17850346863269806,-0.02329976111650467,0.14003238081932068,0.14318053424358368,0.010667681694030762,-0.23122191429138184,-0.06800226867198944
128,-0.9071994725524634,1.2877852651900965,0.5762186011143374,-0.21998649835586548,-0.9602189660072327,-0.17200402915477753,0.19134782254695892,-0.2862151861190796,-0.25004687905311584,-0.3226160407066345,-0.33313119411468506,-0.0078055113554000854
129,-0.7997872021102292,1.2746644802877973,0.4380681377184766,-0.20929738879203796,-0.9564724564552307,-0.20335924625396729,-1.1708338260650635,-0.09982205927371979,0.4123172461986542,-0.07509592175483704,-0.023630082607269287,0.09299242496490479
130,-0.717369787622196,1.248823030736167,0.30150803918491587,-0.20802874863147736,-0.9486128091812134,-0.238448828458786,0.11191095411777496,-0.5980005860328674,-0.18496549129486084,0.13251301646232605,0.3177381753921509,-0.0339357852935791
131,-0.6672233533456329,1.2306085292276288,0.24014019577820384,-0.2064737230539322,-0.9426920413970947,-0.2621074318885803,-0.26025617122650146,0.20849037170410156,-0.05413386970758438,0.052451491355895996,0.3014566898345947,0.08594471216201782
132,-0.624101344229688,1.1947102492417052,0.2332363692481012,-0.21462835371494293,-0.9301092624664307,-0.29804572463035583,-0.0485423281788826,0.5529868006706238,0.28892576694488525,0.026289135217666626,-0.10037767887115479,0.01353040337562561
133,-0.6013355483990818,1.1903539191744135,0.262111999470895,-0.21007856726646423,-0.9285004734992981,-0.30619269609451294,0.4814440906047821,0.5238685011863708,0.12429182231426239,-0.0008741915225982666,-0.3111540675163269,-0.15270018577575684
134,-0.6336232914684646,1.229443030735785,0.34645352850027394,-0.19820231199264526,-0.9423025250434875,-0.26978084444999695,0.5112059116363525,0.14601320028305054,-0.28210222721099854,0.09912700951099396,-0.09425747394561768,-0.2602483928203583
135,-0.6279116170165859,1.1843139116149255,0.41041706790167903,-0.22143122553825378,-0.9262406826019287,-0.305034875869751,-0.2831438183784485,0.5499182939529419,1.0299091339111328,0.04305599629878998,-0.010648906230926514,-0.040622442960739136
136,-0.6688265894909624,1.190139100835838,0.48008814469855454,-0.2303735762834549,-0.9284206628799438,-0.29148444533348083,0.5111694931983948,-0.1403540074825287,-0.3261588215827942,0.1011163741350174,0.38597071170806885,0.16985666751861572
137,-0.6625919130830035,1.1897803346389897,0.4784534152609527,-0.22875672578811646,-0.9282873272895813,-0.2931777238845825,-0.006627253256738186,0.1635427325963974,0.41812190413475037,0.18804626166820526,0.12736868858337402,0.033778250217437744
138,-0.6929137750080326,1.1654331925221113,0.5297957692411663,-0.2519051432609558,-0.9189592599868774,-0.30341005325317383,0.22704966366291046,-0.17935411632061005,0.09804543852806091,-0.0524161159992218,-0.3544781804084778,-0.024867504835128784
139,-0.7021160474272328,1.1716261461970572,0.5313107797216108,-0.25100624561309814,-0.921383798122406,-0.2967285215854645,-0.019472211599349976,0.08074888586997986,-0.06490037590265274,-0.23353660106658936,-0.23984050750732422,-0.10566103458404541
140,-0.6072145835541443,1.1689899488684288,0.43082017008034673,-0.22314411401748657,-0.920356035232544,-0.32117193937301636,-0.6184319853782654,-0.06267128139734268,-0.3094984292984009,-0.11579936742782593,0.07225728034973145,0.04858893156051636
141,-0.49833682002756935,1.1654737325297695,0.2965721807833176,-0.18846894800662994,-0.9189752340316772,-0.3463580310344696,-0.04446302354335785,-0.027988627552986145,-0.4869089424610138,0.12451937794685364,0.3578638434410095,0.1553942859172821
142,-0.43496835383384386,1.1276811079883124,0.2521208528042744,-0.18066991865634918,-0.9034203886985779,-0.38883164525032043,-0.6619006991386414,0.45027726888656616,0.33906352519989014,0.17716039717197418,0.24140256643295288,0.2942119240760803
143,-0.42778486927262366,1.068209798887537,0.20715580235566458,-0.1998336911201477,-0.8763395547866821,-0.43828684091567993,-0.7160308957099915,-0.32834041118621826,0.10586362332105637,0.0763748437166214,-0.3702576756477356,-0.1490391194820404
144,-0.4475594884167265,1.0673231258477796,0.2014784699452162,-0.20879727602005005,-0.8759121298789978,-0.4349502623081207,0.5985223054885864,0.3163842558860779,0.39359167218208313,-0.031650736927986145,-0.3445773720741272,-0.4528060555458069
145,-0.5162551198868732,1.1454742076819133,0.2879308718654364,-0.20367735624313354,-0.9109058976173401,-0.35883966088294983,0.08845537155866623,0.18130014836788177,-0.09225523471832275,0.07460328936576843,0.07672321796417236,-0.07006964087486267
146,-0.6108734616478256,1.163283880889667,0.4131508194068358,-0.22732627391815186,-0.9181095361709595,-0.3246499001979828,0.4986603856086731,0.9198525547981262,0.6434845924377441,-0.11117468774318695,0.19371384382247925,0.2770577371120453
147,-0.6392977285703647,1.1811357634351993,0.4330142077119128,-0.22664529085159302,-0.9250380396842957,-0.30485495924949646,0.1309971958398819,-0.3038644790649414,-0.3290292024612427,0.06479530036449432,0.30986469984054565,0.13014185428619385
148,-0.6420200944289711,1.197121153892487,0.4202204231640823,-0.2185909003019333,-0.930992066860199,-0.29235559701919556,0.2041787952184677,-0.35172179341316223,0.18457794189453125,0.1683742254972458,-0.07605749368667603,0.06472492218017578
149,-0.6180840449918253,1.200584212643762,0.4136269567858776,-0.209661602973938,-0.9322506189346313,-0.2948742210865021,0.42298316955566406,-0.22677303850650787,0.01480407640337944,0.027303829789161682,-0.27149999141693115,-0.05182075500488281
150,-0.6323906731370886,1.2334813528799036,0.4269619850203629,-0.19561885297298431,-0.9436466693878174,-0.2669534385204315,0.2596938908100128,-0.1549774557352066,-0.5655532479286194,-0.1938922256231308,-0.22453564405441284,-0.07974150776863098
151,-0.5304572033510897,1.2144287969417533,0.317347212281626,-0.1765042096376419,-0.9371702671051025,-0.30092889070510864,-0.6952013373374939,0.020771872252225876,0.003958757035434246,-0.1496066302061081,0.05992722511291504,0.05562859773635864
152,-0.42314269205101657,1.2215321731804691,0.1637130623748548,-0.14051949977874756,-0.9396247863769531,-0.3120247423648834,0.22382299602031708,-0.37609392404556274,-0.7566148042678833,0.05410899221897125,0.3268623948097229,0.09057393670082092
153,-0.30210418932978156,1.2366939156745518,-0.018000919992859493,-0.09756631404161453,-0.9447050094604492,-0.31307047605514526,-0.8990650177001953,-0.26741817593574524,-0.19452425837516785,0.04620523005723953,0.37535393238067627,0.33045026659965515
154,-0.16826779473093192,1.1563660645904037,-0.14867158822775273,-0.0674368217587471,-0.9153459072113037,-0.3969811499118805,-0.8978762030601501,0.0553632453083992,-0.6897867918014526,-0.1011727973818779,-0.1564618945121765,0.2920311987400055
155,-0.06763360183382493,1.0609599550516235,-0.29069902851559204,-0.032982371747493744,-0.8728243708610535,-0.48691868782043457,-1.164851427078247,-0.1483677327632904,-0.9849591851234436,-0.12842509150505066,-0.31022006273269653,0.14097142219543457
156,-0.034984857632316825,0.9334291922742731,-0.4620064534071285,-0.020814593881368637,-0.8036653399467468,-0.5947173833847046,-1.1332314014434814,-1.040152907371521,-0.14605100452899933,0.23620766401290894,0.19003313779830933,-0.19548946619033813
157,-0.3379836267048926,0.9777255092321415,-0.4052726496086114,-0.1853264719247818,-0.8292282819747925,-0.527289867401123,0.9747428894042969,-2.1670453548431396,0.6697667241096497,0.2001122534275055,0.44609534740448,0.11457014083862305
158,-0.8854289251809456,0.9960724255103289,-0.02814783123097734,-0.4208502769470215,-0.8393424153327942,-0.3440777063369751,0.674288272857666,-1.584484338760376,2.2399332523345947,0.24357366561889648,0.3808920979499817,0.2835613489151001
159,-1.3620845373933614,0.7726921323991243,0.3226754000630642,-0.7004951238632202,-0.6980654001235962,-0.14836211502552032,0.7570858597755432,-2.48268461227417,3.4535183906555176,-0.14244616031646729,0.3263155221939087,0.36424344778060913
160,-1.7486313526476114,0.36196991480834634,0.49091645551896534,-0.9204519987106323,-0.35411718487739563,0.1654362827539444,2.1422181129455566,-4.2977166175842285,4.553400039672852,-0.7260781526565552,0.697958767414093,0.4478144645690918
161,-1.928237664207077,-0.08868267443032707,0.27036594460917035,-0.933113694190979,0.08856647461652756,0.3485034704208374,-1.3782442808151245,-1.4810068607330322,5.638584136962891,-0.9060433506965637,1.241877794265747,-0.05680122971534729
162,-2.027430371124561,-0.45870631558501146,-0.146045853549237,-0.8047593235969543,0.4427885413169861,0.3953489065170288,-3.8152945041656494,1.540094017982483,2.728428840637207,-0.9198042750358582,-0.1056608259677887,-0.2531369924545288
163,-2.088651668548866,-0.4890447045227996,-0.44570466054335556,-0.7670342922210693,0.4697827994823456,0.43699291348457336,-0.699030876159668,-0.26311710476875305,1.0650519132614136,-0.14997321367263794,-0.3683881163597107,-0.473064661026001
164,-2.1942562264050793,-0.5630619137435512,-0.5496040493924883,-0.6865317821502686,0.5337779521942139,0.4937160611152649,0.23250812292099,-0.456139475107193,0.8043040037155151,-0.5792916417121887,-0.3630015254020691,-0.3521602749824524
165,-2.201150391245016,-0.6273341256911501,-0.5302136879564218,-0.6540061235427856,0.5869885683059692,0.4772002696990967,0.6606306433677673,0.025413118302822113,-0.04931244999170303,-0.8007972240447998,-0.3527052402496338,-0.15154728293418884
166,-2.095643136932725,-0.6018320584769912,-0.3706529419268967,-0.7133495807647705,0.5661535859107971,0.4130404591560364,0.7422428131103516,-0.19662584364414215,-2.2175745964050293,-1.049727201461792,0.01361936330795288,-0.0024570226669311523
167,-1.9396192187183008,-0.32962759827767113,-0.1530221635240105,-0.8825355768203735,0.3236907124519348,0.3411084711551666,1.3359923362731934,1.4902487993240356,-3.787581205368042,-0.2676565647125244,0.4070221483707428,-0.4446699917316437
168,-1.7274402272237026,0.033569632735688026,0.18413735434216472,-0.9871999621391296,-0.03356332704424858,0.15591619908809662,2.610797166824341,1.4818813800811768,-4.481559753417969,0.30525416135787964,0.6270081400871277,-0.05842781066894531
169,-1.7082149549418038,0.3461600342831998,0.5345762066590595,-0.9318145513534546,-0.3392881155014038,0.12886083126068115,3.1458404064178467,-0.028344878926873207,-2.1028223037719727,0.5551971793174744,0.9601987600326538,0.16917382180690765
170,-1.8518144170113366,0.30310071305772224,0.7786029121684299,-0.9169772863388062,-0.2984810173511505,0.26469185948371887,0.8379189968109131,-0.5483478307723999,2.1935641765594482,0.44978368282318115,0.9748573303222656,0.3362908363342285
171,-1.8764119687640815,-0.05495917104001116,0.6248005630842164,-0.9522221088409424,0.054931506514549255,0.30042609572410583,-2.485856056213379,0.06705056875944138,5.043149471282959,-0.34288299083709717,0.896499752998352,0.28253594040870667
172,-1.9053914810185195,-0.4369307971576371,0.07446134714453578,-0.8558077216148376,0.423160582780838,0.29753631353378296,-3.8791298866271973,1.31841242313385,4.661099433898926,-1.0440640449523926,0.5469015836715698,-0.488469660282135
173,-1.9781078233173255,-0.5568764936257316,-0.3130361505114759,-0.7794601917266846,0.5285372138023376,0.3362891674041748,-0.4810653328895569,0.6155086159706116,0.6649718284606934,-0.16130518913269043,-0.7861055135726929,-0.7411811351776123
174,-2.004664767575674,-0.5956016511722415,-0.32859666279120625,-0.7511115074157715,0.5610069036483765,0.34799858927726746,0.3391660451889038,-0.5551334619522095,0.508640706539154,-0.10208380222320557,-0.6105979084968567,-0.36862847208976746
175,-2.001644256446953,-0.6260392701020525,-0.24491996322887188,-0.7362980842590332,0.5859397649765015,0.3384377062320709,0.5610716938972473,-0.36539384722709656,-0.73850017786026,-0.5575252175331116,-0.3651755452156067,-0.06391677260398865
176,-1.9491441219756431,-0.5691921680072057,-0.1147640663355269,-0.7827633619308472,0.5389517545700073,0.3111470341682434,1.005517840385437,-0.05368700623512268,-0.9217477440834045,-0.5735903382301331,0.0318794846534729,0.01169845461845398
177,-1.8978033448120715,-0.45887949010828255,0.07407353888045042,-0.8490394949913025,0.4429437816143036,0.28798073530197144,0.6528847813606262,-0.07442250847816467,-2.9396324157714844,-0.852056086063385,0.363116979598999,-0.04461824893951416
178,-1.7698542765451932,-0.14884015772144063,0.2156935234828296,-0.9694151878356934,0.14829121530056,0.19555960595607758,0.8856110572814941,1.4420844316482544,-3.784921884536743,0.12766426801681519,0.2695096731185913,-0.25526729226112366
179,-1.6490268170156823,0.18287343801429468,0.39231942918430734,-0.9803176522254944,-0.18185584247112274,0.07684756070375443,2.1335031986236572,0.7820690870285034,-2.663869857788086,0.5742203593254089,0.6388718485832214,-0.11816836148500443
180,-1.7031061910170604,0.26901470842999764,0.6564610075902584,-0.955607533454895,-0.2657817006111145,0.12717929482460022,2.840080976486206,-0.7094804644584656,0.7711657285690308,0.40732860565185547,0.9762613773345947,0.1409633308649063
181,-1.73945417541938,0.04984397788725016,0.7462545255164577,-0.9845867156982422,-0.0498233400285244,0.16765093803405762,-0.2405065894126892,0.1460416465997696,3.6897621154785156,0.23309123516082764,0.7875400185585022,0.4719974994659424
182,-1.7934682259398667,-0.25133960024944363,0.4482602539862677,-0.9446666836738586,0.24870169162750244,0.2138976901769638,-4.494139671325684,0.7220054864883423,3.0439298152923584,-0.4780017137527466,0.7061017751693726,-0.0751953125
183,-1.8492368236597996,-0.5468259747683478,0.025351605040156707,-0.8212806582450867,0.5199786424636841,0.23477673530578613,-1.8200322389602661,0.9160587787628174,2.889349937438965,-0.5761649012565613,-0.22343939542770386,-0.41431164741516113
184,-1.9104053875406375,-0.6312656298161633,-0.1701023638819911,-0.7611734867095947,0.5901669263839722,0.268920361995697,-0.4372463822364807,0.13565286993980408,0.5860673785209656,-0.13317477703094482,-0.6552608609199524,-0.35270628333091736
185,-1.9466439019087418,-0.6803385305468251,-0.18657302631137032,-0.7230978012084961,0.6290562152862549,0.2853385806083679,0.5443395376205444,-0.48762017488479614,0.35310161113739014,-0.3356485962867737,-0.6600925326347351,-0.2379448115825653
186,-1.9342183968098356,-0.6263958753481693,-0.12228830749330827,-0.7572315335273743,0.5862287282943726,0.2879863679409027,0.6164004802703857,0.08713533729314804,-1.2888555526733398,-0.6078653931617737,-0.13931411504745483,-0.41503098607063293
187,-1.8157351867124532,-0.5648402866873,0.11656394269905253,-0.8194622993469238,0.5352809429168701,0.20483092963695526,2.2215049266815186,-0.9516320824623108,-1.7179144620895386,-0.7407030463218689,0.012479007244110107,-0.13465584814548492
188,-1.7693428598867138,-0.28893912273169997,0.3740459861522869,-0.9397155046463013,0.28493547439575195,0.18906821310520172,1.511875033378601,0.4952622950077057,-4.390902996063232,-0.503201425075531,0.577399730682373,-0.37765154242515564
189,-1.6843079783057686,0.08321288004047887,0.631158281833967,-0.9901265501976013,-0.08311688154935837,0.11287611722946167,2.4947259426116943,0.5047453045845032,-3.73245906829834,0.2982167601585388,0.654711127281189,-0.1241217851638794
190,-1.7030410521224648,0.3502758781396984,0.8616444514575297,-0.9310765862464905,-0.34315693378448486,0.12385281920433044,1.3356729745864868,0.13061949610710144,-1.5076539516448975,0.7165839076042175,0.8924123048782349,0.14204679429531097
191,-1.7945858111598654,0.26192615520571466,0.9431150960247863,-0.941806972026825,-0.25894150137901306,0.21435695886611938,0.5003238916397095,-0.6981741189956665,2.6951191425323486,0.2611277103424072,0.9991453886032104,0.0486588329076767
192,-1.7778372991511175,-0.09711784570888436,0.8064515755686553,-0.9740318059921265,0.0969652533531189,0.20459628105163574,-2.7224013805389404,0.456762433052063,4.493283271789551,-0.37632519006729126,0.8003430962562561,0.19550441205501556
193,-1.7689991364520354,-0.48117334651816296,0.39937576131959357,-0.8690976500511169,0.4628196060657501,0.17454929649829865,-2.3044519424438477,1.0938897132873535,4.2451043128967285,-0.7904635071754456,0.3037819564342499,-0.4458352327346802
194,-1.8128497213566994,-0.6430884406392963,0.10802780144936572,-0.7769185304641724,0.5996698141098022,0.19181665778160095,-1.013948678970337,1.1293911933898926,0.783475399017334,-0.10955601930618286,-0.7670740485191345,-0.4641249179840088
195,-1.8560890459426345,-0.669285112623812,0.007057535196702251,-0.7525650858879089,0.6204254627227783,0.22072242200374603,-0.5402013063430786,-0.4418628513813019,0.436622679233551,-0.19581454992294312,-0.558062732219696,-0.25105687975883484
196,-1.916067664692656,-0.6820301583265025,-0.00259657022449509,-0.7304803729057312,0.6303703188896179,0.262738436460495,-0.010709158144891262,-0.572674036026001,-0.5035697221755981,-0.6464268565177917,-0.3708794116973877,-0.22848251461982727
197,-1.8822591953586592,-0.6143246034847785,0.11191659836253452,-0.7778463363647461,0.576406717300415,0.25042080879211426,1.1962785720825195,-0.16016405820846558,-1.1247367858886719,-0.545716404914856,-0.13558030128479004,-0.23394128680229187
198,-1.8512885949928415,-0.5042783730516156,0.35638612562385613,-0.8413074016571045,0.48317575454711914,0.24237003922462463,1.616830825805664,-0.8268413543701172,-3.0663633346557617,-0.9069530963897705,0.24418020248413086,-0.40804994106292725
199,-1.7516725796949568,-0.15793166872219006,0.652917788639907,-0.9714441895484924,0.1572759598493576,0.17765280604362488,2.5719566345214844,0.5853766202926636,-4.598475933074951,-0.04312795400619507,0.4889490008354187,-0.34861230850219727
200,-1.7054537754550712,0.22805518894286442,0.9374795888456664,-0.9652897715568542,-0.22608350217342377,0.1307748407125473,2.305537700653076,0.3406127989292145,-3.5717718601226807,0.31552475690841675,0.8879640102386475,-0.1527475118637085
201,-1.7591109465673,0.42582086151661536,1.1621865935112743,-0.8945999145507812,-0.4130684733390808,0.17048630118370056,1.0553622245788574,-0.05251496285200119,-0.2950949966907501,0.6279067397117615,1.0193307399749756,0.02735912799835205
202,-1.7724624173339805,0.23805795760708734,1.2324351877217672,-0.9521036148071289,-0.23581579327583313,0.1946529895067215,1.1942347288131714,0.3067018687725067,3.6928718090057373,0.24539268016815186,1.0007998943328857,0.2240481674671173
203,-1.7549439342664515,-0.1427945027883949,0.9806000293173884,-0.9730868339538574,0.14230972528457642,0.18124495446681976,-4.3259100914001465,1.3274424076080322,4.22148323059082,-0.5720638036727905,1.0022367238998413,-0.10934557020664215
204,-1.7536237389194405,-0.5456164471378102,0.5591292645636914,-0.8405608534812927,0.5189451575279236,0.15541304647922516,-2.188871383666992,1.0464272499084473,3.274254322052002,-0.6902313232421875,-0.24331045150756836,-0.44725263118743896
205,-1.781824225265324,-0.6732520970007103,0.35610003192952455,-0.7644546031951904,0.6235317587852478,0.16375938057899475,-0.7180920243263245,0.48108017444610596,0.8411785960197449,-0.19759666919708252,-0.6401638984680176,-0.17642416059970856
206,-1.8732269942667916,-0.7491033188480597,0.26125462900913154,-0.6990646123886108,0.6809824109077454,0.21810920536518097,-0.29222404956817627,-0.815902590751648,0.49658843874931335,-0.6734176874160767,-0.6962106823921204,-0.30369579792022705
207,-1.874266596747911,-0.6809769602432689,0.3078894808411097,-0.7414549589157104,0.6295523643493652,0.23218120634555817,0.34472712874412537,-0.0020392322912812233,-1.272796392440796,-0.5049286484718323,-0.3355613350868225,-0.2957952320575714
208,-1.8122805770167896,-0.57634753510632,0.4760258889780584,-0.8141300678253174,0.5449651479721069,0.20051243901252747,1.6632237434387207,-1.1849219799041748,-1.4897507429122925,-0.6917139887809753,0.011919617652893066,-0.3743557929992676
209,-1.778053893403275,-0.34883680975725145,0.7904804769870433,-0.919658899307251,0.3418048918247223,0.19338320195674896,2.3822567462921143,-0.4033717215061188,-4.020021915435791,-0.5205724239349365,0.4683452546596527,-0.34076786041259766
210,-1.7361241352440286,0.002445802474870102,1.073508560154613,-0.9863615036010742,-0.002445799997076392,0.16457518935203552,1.8439586162567139,-0.5343021154403687,-3.543444871902466,0.2765989303588867,0.4883314371109009,-0.1673980951309204
211,-1.8188196160772605,0.26211044681385015,1.2985999997483162,-0.9362900257110596,-0.2591194808483124,0.2371036410331726,1.3588370084762573,-0.2760244309902191,-2.455005407333374,0.44419407844543457,0.8182930946350098,-0.17574810981750488
212,-1.8486617064677453,0.33953258268051845,1.4231097478287886,-0.9067432880401611,-0.33304640650749207,0.25864362716674805,0.2575114071369171,0.25590020418167114,0.7028276920318604,0.5707448720932007,0.9150471687316895,-0.027579814195632935
213,-1.7753062865709242,0.11219661582450069,1.3498729004122165,-0.9730042815208435,-0.11196137219667435,0.20181046426296234,-0.973660409450531,0.7861899137496948,3.972989320755005,0.15021979808807373,0.8657760620117188,0.18129193782806396
214,-1.698555101061553,-0.30129610160757797,1.0569766006379164,-0.9471697807312012,0.29675817489624023,0.12167195975780487,-2.947983503341675,1.6143591403961182,4.882271766662598,-0.7958722114562988,0.7344918251037598,-0.15945279598236084
215,-1.702995832715521,-0.5884541095706287,0.6822986764517427,-0.8245418071746826,0.5550758242607117,0.10964350402355194,-2.1531386375427246,1.3659024238586426,1.167752742767334,-0.3417789936065674,-0.6396247744560242,-0.48749685287475586
216,-1.7047702393439017,-0.6187910418821118,0.5395349863815414,-0.8072807192802429,0.5800507664680481,0.10880632698535919,-1.1446722745895386,0.10358446091413498,0.6188081502914429,0.049544572830200195,-0.44269120693206787,-0.13596689701080322
217,-1.7934966308684537,-0.7112390097175315,0.41894314035190966,-0.738845705986023,0.6527729034423828,0.16731640696525574,0.039782896637916565,-0.11761361360549927,0.9827961325645447,-0.5983582735061646,-0.49052613973617554,-0.4233283996582031
218,-1.7291505633720445,-0.7129864760786648,0.5179809791228844,-0.7469478845596313,0.6540957093238831,0.11928106099367142,0.3859577178955078,0.2063702642917633,-0.9149181842803955,-0.7480015158653259,-0.375119149684906,-0.0060455650091171265
219,-1.7137652030600476,-0.5930775239126703,0.7156870053185712,-0.8207642436027527,0.5589156150817871,0.11814983934164047,2.3856043815612793,-1.9009405374526978,-2.4439921379089355,-0.9556944966316223,0.1285386085510254,-0.35055649280548096
220,-1.6887740781151066,-0.27702094401213917,1.0033785447162622,-0.9551880955696106,0.27349138259887695,0.11321671307086945,1.9806926250457764,-0.2651127874851227,-4.06520938873291,-0.07593977451324463,0.31632182002067566,-0.269619345664978
221,-1.7239174904613874,0.07822780403081869,1.2411566269843666,-0.9852772951126099,-0.07814804464578629,0.15205705165863037,2.1014442443847656,-0.7255707383155823,-3.546736240386963,0.2561514377593994,0.6448900103569031,-0.29597795009613037
222,-1.8046930126878054,0.34101828264373996,1.4483015499535699,-0.916753351688385,-0.33444690704345703,0.21842332184314728,0.4769735038280487,0.27878206968307495,-1.862520456314087,0.5323843359947205,0.9635820388793945,-0.06325671076774597
223,-1.7571197608958289,0.3267075429072962,1.446083090126163,-0.930711567401886,-0.3209264874458313,0.17544840276241302,-0.19236430525779724,0.41313105821609497,2.233889579772949,0.5576342344284058,0.9557836651802063,0.006466865539550781
224,-1.6911694389274226,-0.03212294816428085,1.2433777495700544,-0.9922516942024231,0.03211742267012596,0.12002067267894745,-3.5715487003326416,1.0840460062026978,4.702447414398193,-0.33532392978668213,1.000521183013916,-0.0009257793426513672
225,-1.6066049911599127,-0.5538653893097777,0.8900365641814422,-0.8499524593353271,0.525978684425354,0.030448677018284798,-1.796789288520813,1.146164894104004,5.304181098937988,-0.9190904498100281,0.3028481602668762,-0.44834113121032715
226,-1.571585356514404,-0.8008896749007071,0.7875365812031808,-0.6960679888725281,0.7179756760597229,0.0005492184427566826,-0.321776419878006,1.5958523750305176,0.10144232958555222,-0.6338727474212646,-0.6960793733596802,0.04901134967803955
227,-1.6784901780115988,-0.8407744874582456,0.5822258520047393,-0.663022518157959,0.7451598644256592,0.07168077677488327,-1.3243499994277954,-0.8134248852729797,0.4107814431190491,-0.4773431420326233,-0.7766081690788269,-0.30985522270202637
228,-1.7377688172653,-0.7867449969803583,0.5666506190232012,-0.696333110332489,0.7080584764480591,0.11736118048429489,0.3394337296485901,-0.2640579044818878,-0.9114891290664673,-0.47282588481903076,-0.4239397644996643,-0.3658963441848755
229,-1.6976071819382768,-0.6847739784977617,0.7094018170877072,-0.7683426141738892,0.6324979662895203,0.09795984625816345,1.5380098819732666,-1.186350703239441,-1.143680214881897,-0.7168412208557129,0.10955226421356201,-0.5286695957183838
230,-1.631704597717933,-0.477020250330019,1.0778837198221147,-0.8867195844650269,0.4591341018676758,0.0540754459798336,2.7392027378082275,-1.1467204093933105,-4.306916236877441,-0.9808493256568909,0.6232175827026367,-0.2707655429840088
231,-1.6060496148790837,-0.012727292824278164,1.3622840498727238,-0.9992977976799011,0.012726949527859688,0.03524313494563103,2.568568706512451,-0.37524640560150146,-4.47119665145874,0.19222986698150635,0.725310206413269,-0.20756065845489502
232,-1.672570190637542,0.3729930196732651,1.6297457502642032,-0.9264221787452698,-0.3644042909145355,0.09461245685815811,1.7291969060897827,0.24511627852916718,-3.2264564037323,0.5573425889015198,1.032403588294983,0.024772286415100098
233,-1.6752440318049382,0.5168739902727383,1.7519161135435146,-0.8646305203437805,-0.49416491389274597,0.09063851088285446,-0.036651547998189926,0.17622484266757965,0.5802220106124878,0.738165557384491,1.1274961233139038,0.19299185276031494
234,-1.6167346436765393,0.25298779110149416,1.6526313809435347,-0.9671474695205688,-0.25029775500297546,0.04446040838956833,-0.6581136584281921,0.07037519663572311,4.281973838806152,0.12934845685958862,1.1728594303131104,0.11494815349578857
235,-1.5512395152794518,-0.2728188269357052,1.278030024092065,-0.9628311395645142,0.26944708824157715,-0.018832309171557426,-4.70339822769165,1.8004287481307983,6.463751792907715,-0.9076371192932129,1.5262377262115479,-0.7332886457443237
236,-1.5486414491654765,-0.8326856174272892,0.9714534272499066,-0.6727263331413269,0.7397411465644836,-0.014906608499586582,-0.09516063332557678,1.392967700958252,3.4791133403778076,-1.0151398181915283,-0.6055706739425659,-0.989884614944458
237,-1.4650120116621799,-0.9489586468856708,0.855203271749785,-0.5792735815048218,0.8128093481063843,-0.06150766462087631,-3.008507490158081,1.330432415008545,0.6752020120620728,-0.15327030420303345,-0.7018474340438843,0.05604499578475952
238,-1.720702070326316,-1.0066710840036,0.5291711478460202,-0.5286806225776672,0.8450566530227661,0.07985129207372665,-0.44425708055496216,-0.4497651755809784,0.3157133460044861,-0.8418943285942078,-0.6753787994384766,-0.5928822755813599
239,-1.665245591793719,-0.917698267438494,0.6370769610489118,-0.6049414873123169,0.7942050695419312,0.05730678513646126,0.6784864068031311,-0.39366984367370605,-2.0028092861175537,-0.8658378720283508,-0.21945232152938843,-0.26275110244750977
240,-1.6271176591720906,-0.6980500583498275,0.8781515806256904,-0.7648822069168091,0.6427250504493713,0.04312479496002197,2.585268259048462,-2.4183640480041504,-3.0905818939208984,-1.0960644483566284,0.4998072385787964,-0.4785343408584595
241,-1.6096472461861875,-0.2977223869159131,1.188399617406986,-0.9552856683731079,0.29334354400634766,0.03713241219520569,2.437265634536743,-0.18919548392295837,-4.476078510284424,-0.04808652400970459,0.5521917343139648,-0.2561722993850708
242,-1.6288865298122372,0.09591989747722662,1.398163267102645,-0.9937241077423096,-0.0957728773355484,0.05779065564274788,1.8339203596115112,-0.728858232498169,-3.555447816848755,0.3596910238265991,0.6740657687187195,-0.1930598020553589
243,-1.7086453130807262,0.38788326674427837,1.5606510767804527,-0.9169303178787231,-0.3782297670841217,0.12720465660095215,0.22416932880878448,0.03439568355679512,-2.5279715061187744,0.5741416215896606,1.0728098154067993,0.04796624183654785
244,-1.6794312211698414,0.4079451955623101,1.5367442902768285,-0.9125269055366516,-0.39672398567199707,0.09952408820390701,-0.12296775728464127,0.2299722135066986,2.5249314308166504,0.6711022853851318,1.0801498889923096,-0.027105793356895447
245,-1.6303293997745425,0.012560770158173683,1.441117442473295,-0.9981496930122375,-0.012560440227389336,0.05949321761727333,-3.8692691326141357,0.30295246839523315,4.458596229553223,-0.20874422788619995,0.9968438744544983,0.39822471141815186
246,-1.5847840197987808,-0.5054466479114753,0.9676327982912764,-0.8748726844787598,0.48419827222824097,0.01223824918270111,-3.0516510009765625,1.7428070306777954,6.089620113372803,-0.870931088924408,0.7141506671905518,-0.6808326244354248
247,-1.5344170320371597,-0.8166710953923028,0.8290570918331355,-0.6841984391212463,0.7288707494735718,-0.02490164153277874,0.5537072420120239,2.419879198074341,-0.39551636576652527,-0.8551387786865234,-0.800831139087677,-0.1283423900604248
248,-1.6394561589852692,-0.8540600436535845,0.5369810664431405,-0.6553797125816345,0.753953754901886,0.04506910592317581,-1.4717991352081299,-1.8713289499282837,1.0299546718597412,-0.4819493889808655,-0.8297136425971985,-0.5267739295959473
249,-1.702283979411697,-0.8322859582490224,0.5801108182942637,-0.6673760414123535,0.7394721508026123,0.0882609486579895,1.1340293884277344,-0.20987823605537415,-1.3430200815200806,-0.7874883413314819,-0.5095832943916321,-0.3705332279205322
250,-1.6470446532767713,-0.6722456282687858,0.7449470514193129,-0.7801518440246582,0.622744619846344,0.059600818902254105,1.4525012969970703,-1.6375744342803955,-1.5934549570083618,-0.5797266960144043,-0.003558218479156494,-0.3666229248046875
251,-1.7128855387436093,-0.4356683483615569,1.0238941145891671,-0.8974518775939941,0.4220164120197296,0.12838338315486908,2.0246055126190186,-1.1172499656677246,-4.061752796173096,-0.8594908714294434,0.661449134349823,-0.5110585689544678
252,-1.6524146223021685,-0.008974474865620098,1.3151025755211037,-0.9966310262680054,0.008974354714155197,0.08152443170547485,2.5880136489868164,0.642192006111145,-4.391852378845215,0.28470170497894287,0.6652352809906006,-0.2800869941711426
253,-1.6609382846280185,0.3463231863107999,1.6087698429266186,-0.9368082284927368,-0.33944159746170044,0.08467520028352737,2.7047183513641357,0.32777202129364014,-2.920461416244507,0.4623514413833618,1.0691016912460327,-0.04495656490325928
254,-1.7143252792034236,0.45535971207938347,1.7982624763617703,-0.888867974281311,-0.4397853910923004,0.12846162915229797,0.1914907693862915,0.29683127999305725,0.5923665761947632,0.6076638698577881,1.174999713897705,0.21002410352230072
255,-1.6269375650692786,0.22909271045294924,1.6938949080593246,-0.9723384380340576,-0.22709403932094574,0.054645705968141556,-1.8592228889465332,0.36232006549835205,3.90631365776062,0.17665374279022217,1.169049620628357,0.3976858854293823
256,-1.6466351115164075,-0.2636915808539261,1.2477393344587382,-0.9626593589782715,0.2606463134288788,0.07314720749855042,-4.2728590965271,0.7171661853790283,6.825350761413574,-0.9172844886779785,1.4801526069641113,-0.598537802696228
257,-1.7331450185162385,-0.7484654252279679,0.8436051313243156,-0.7230988144874573,0.6805151104927063,0.11843652278184891,-1.7556315660476685,0.9528802037239075,2.099735975265503,-0.9565886855125427,-0.6918982863426208,-0.7119729518890381
258,-1.7144610035592072,-0.7662263978280314,0.6409688676949828,-0.7131096124649048,0.6934211850166321,0.1031593605875969,-2.705211877822876,1.1664458513259888,0.6170516014099121,-0.010324835777282715,-0.5210731625556946,-0.011789798736572266
259,-1.9260579993852458,-0.8329881963297925,0.35377753548330365,-0.6306630969047546,0.7399447560310364,0.2339777797460556,0.24171775579452515,-0.16678586602210999,0.49176228046417236,-1.000119924545288,-0.7372592687606812,-0.9259639382362366
260,-1.7516331044461895,-0.7596836367263258,0.49272708003356536,-0.7132306098937988,0.6886920928955078,0.13040290772914886,1.5295768976211548,0.42508119344711304,-1.3853503465652466,-0.8095811605453491,-0.15521442890167236,-0.5219739675521851
261,-1.6272939853920088,-0.5845846221161825,0.8961162914342597,-0.8326107263565063,0.5518530011177063,0.047090668231248856,3.290919542312622,-1.3547868728637695,-3.523181200027466,-1.0590671300888062,0.5241051912307739,-0.39900410175323486
262,-1.4781164516387963,-0.14434111730722526,1.2178051882829781,-0.9853538870811462,0.14384043216705322,-0.09158484637737274,2.8454360961914062,1.157740592956543,-4.613426208496094,0.014726996421813965,0.6212962865829468,-0.18099814653396606
263,-1.1283630236178757,0.3304725002961195,1.2733092385375846,-0.8548118472099304,-0.3244900107383728,-0.40497273206710815,0.4178694188594818,5.562122344970703,-4.6144118309021,-0.0741279125213623,1.0265620946884155,0.34491413831710815
264,-0.4554804813540143,0.5950939723950472,1.04452896779705,-0.364274263381958,-0.5605865716934204,-0.7436712384223938,0.9748006463050842,3.540004014968872,-1.5703397989273071,-0.04658389091491699,0.7026001214981079,0.3127325773239136
265,-0.32030651612475186,0.6591126963610956,1.0215750449208858,-0.24890616536140442,-0.6124156713485718,-0.7503284215927124,-0.7909446954727173,-1.220028281211853,1.0329917669296265,-0.09533213078975677,0.2911418676376343,0.7636340856552124
266,-0.6522586158110881,0.45871350454474086,1.0066768189065627,-0.5442348122596741,-0.4427949786186218,-0.7125595808029175,-1.9323078393936157,-4.9893293380737305,1.4429389238357544,-0.0927586555480957,0.7378389239311218,0.361225962638855
267,-1.4545957945208714,0.06176127079542628,1.1986520210511633,-0.9913625121116638,-0.06172201409935951,-0.11571815609931946,2.045649290084839,-7.348682403564453,6.408846378326416,-0.060715675354003906,0.8860628604888916,-0.03996729105710983
268,-1.8345702503686512,-0.5074083735013695,1.229459682544503,-0.843777596950531,0.48591378331184387,0.22787615656852722,-0.39754146337509155,-0.2878674864768982,4.742558002471924,-0.6872589588165283,0.2706322968006134,-0.12130877375602722
269,-1.9017705137235401,-0.8680930565872681,1.0412969712135938,-0.6112069487571716,0.763097882270813,0.2100190967321396,-0.4398123323917389,2.008007287979126,2.3680224418640137,-1.0043936967849731,-0.43787193298339844,-0.1715211570262909
270,-1.818856300911346,-0.954814725884059,0.9105864470838689,-0.5600749254226685,0.816206693649292,0.14185376465320587,-0.890912652015686,1.7948678731918335,-0.35720887780189514,-1.094862699508667,-0.6490620374679565,0.1167827695608139
271,-1.7097360685115173,-0.8203814871817807,0.8433862763912534,-0.6753706932067871,0.731406033039093,0.09444433450698853,0.6715092062950134,-0.05750722438097,-1.998352289199829,-0.8824601173400879,-0.3443363308906555,-0.2327500581741333
272,-1.5637967496062055,-0.5391842169415262,0.9794927318383077,-0.8581066727638245,0.5134361386299133,-0.006006482057273388,0.7777959108352661,2.069559335708618,-3.72930645942688,-0.5479448437690735,0.15987318754196167,-0.28655028343200684
273,-1.2511900145000487,-0.1528308318536877,1.0208495834595432,-0.9382935166358948,0.15223658084869385,-0.3105306029319763,0.7723010778427124,4.322028160095215,-3.4349758625030518,-0.25125110149383545,0.48681676387786865,-0.18379303812980652
274,-0.7653546922859085,0.19906387615162466,0.9745020490938753,-0.6791115999221802,-0.19775177538394928,-0.7068957686424255,1.2923941612243652,5.518468379974365,-2.309281826019287,-0.38056546449661255,0.8762643933296204,-0.15096861124038696
275,-0.23954354939583464,0.4036533397478563,0.8993106428374907,-0.2181912213563919,-0.39278069138526917,-0.8933733701705933,0.753757119178772,4.411309242248535,-1.0225977897644043,-0.3967684805393219,0.6614574193954468,0.31401240825653076
276,0.06398640733697479,0.5249486548086837,0.8713195753601205,0.05533284321427345,-0.5011685490608215,-0.8635787963867188,2.4156548976898193,1.4577120542526245,0.3399818539619446,-0.43535298109054565,0.3450864553451538,0.20569616556167603
277,0.1876548356363489,0.6008094079640613,0.8357708449758682,0.15388552844524384,-0.5653102993965149,-0.8103971481323242,-0.2201010137796402,0.20599840581417084,-0.22781357169151306,-0.18467774987220764,-0.05914032459259033,0.2787046432495117
278,0.21909925552006276,0.5937367732695894,0.8028177488389802,0.18015223741531372,-0.5594621896743774,-0.8090409636497498,-0.09666576236486435,0.023166362196207047,0.1877816617488861,-0.08258755505084991,0.10941946506500244,0.48248761892318726
279,0.21439868355363945,0.6027479961464373,0.8139773427353204,0.1752675473690033,-0.5669083595275879,-0.804919958114624,-0.5769979357719421,0.32901254296302795,0.4466799199581146,0.021128326654434204,0.12386947870254517,0.4764288067817688
280,0.17501246150321514,0.5328053523318024,0.8711418931932312,0.14998479187488556,-0.5079518556594849,-0.8482272624969482,-0.5112607479095459,0.1630559265613556,0.5027009844779968,-0.012258961796760559,-0.16193950176239014,-0.05498623847961426
281,0.16589614898558083,0.582331992125767,0.8985799251309383,0.1379188746213913,-0.5499730706214905,-0.8237159848213196,1.8850594758987427,0.7091854214668274,0.6484911441802979,0.1255698949098587,-0.19903510808944702,-0.3979637026786804
282,0.1559164890399238,0.5748724343439391,0.9323193150627214,0.13032519817352295,-0.5437277555465698,-0.8290810585021973,-0.44310182332992554,-0.21581433713436127,0.6326255798339844,0.09606944024562836,0.1224784255027771,-0.22125762701034546
283,0.09794328760596105,0.555849045724845,0.9799423215098066,0.08306524157524109,-0.5276647210121155,-0.8453816771507263,0.7421603202819824,-0.09699880331754684,0.6940526366233826,-0.1430017650127411,0.15148985385894775,0.23759359121322632
284,0.016902065778271937,0.6221208045575474,0.9895192595116836,0.01373471412807703,-0.5827599167823792,-0.8125282526016235,0.23913642764091492,0.12776952981948853,0.044354431331157684,-0.05470457673072815,0.11770260334014893,0.5792672038078308
285,0.05247569608039585,0.5995451368274477,1.010864985378745,0.043303653597831726,-0.5642669796943665,-0.8244559168815613,-0.42569825053215027,1.1213806867599487,0.3668317198753357,-0.10290449857711792,-0.14172667264938354,0.09006565809249878
286,0.14007174223669977,0.5959733796557977,1.0425816158061245,0.11554502695798874,-0.561314582824707,-0.8194969296455383,-0.33595114946365356,-0.2343313843011856,-0.18316663801670074,-0.0007073730230331421,-0.23008251190185547,-0.4049292802810669
287,0.14549239371267364,0.5618307370486175,0.992086459085843,0.12269353866577148,-0.5327364206314087,-0.8373399376869202,-0.08793788403272629,-0.679641604423523,-0.9014047384262085,-0.21835088729858398,0.09563314914703369,-0.37962478399276733
288,0.11282987976773304,0.6098121216830453,0.8883869510701105,0.09229680150747299,-0.5727134346961975,-0.8145431876182556,0.819952666759491,-1.3445900678634644,-0.8588739037513733,-0.08790227025747299,0.18172228336334229,0.23338168859481812
289,0.12498465558473046,0.6471798003163378,0.810440872730769,0.09945178776979446,-0.6029388904571533,-0.7915642857551575,0.19447432458400726,-0.1057794988155365,-0.5612580180168152,0.009999513626098633,0.16437077522277832,0.31095826625823975
290,0.1078764980588876,0.668203650763981,0.7895469317840443,0.08451200276613235,-0.6195769906044006,-0.7803730964660645,0.27102774381637573,-0.40553632378578186,0.28802689909935,0.026571989059448242,-0.10181277990341187,0.10025835037231445
291,0.10626897145995343,0.6731233119475601,0.8101821052900035,0.08293309807777405,-0.6234310865402222,-0.7774675488471985,-0.03261547163128853,0.1814158856868744,0.2035091519355774,0.15139612555503845,-0.40736114978790283,-0.1884137988090515
292,0.09970757927914987,0.6371688876347021,0.8471608397262875,0.0800105631351471,-0.5949222445487976,-0.799791157245636,-0.8613812923431396,0.24891938269138336,0.662959098815918,0.1793125718832016,0.03632849454879761,-0.2723981738090515
293,0.03355965013705945,0.5788006778699564,0.941130294126216,0.0280881579965353,-0.5470203757286072,-0.8366479277610779,0.18238526582717896,-0.05776084586977959,1.0400983095169067,-0.06557901203632355,0.1505969762802124,0.00856870412826538
294,-0.034627713287699716,0.6339382681765893,1.0231284610613005,-0.02789400890469551,-0.5923224091529846,-0.8052180409431458,0.7858976125717163,-0.4775950014591217,0.4271690547466278,-0.041228294372558594,0.20908266305923462,0.41648513078689575
295,-0.10147215719662284,0.7040461970659967,1.055278681098399,-0.0772123858332634,-0.6473070979118347,-0.758308470249176,0.888242244720459,-1.110003113746643,0.06057536602020264,-0.0848054438829422,0.16236752271652222,0.20279699563980103
296,-0.17472277763021998,0.7290772189886406,1.0218773068505653,-0.12964440882205963,-0.666181743144989,-0.7344346046447754,-0.9786300659179688,-1.0458709001541138,-0.4069036841392517,-0.009622544050216675,-0.213670551776886,-0.08137649297714233
297,-0.17223863808352474,0.6689490325891818,0.9146377911011891,-0.13444964587688446,-0.6201618909835815,-0.7728664875030518,-0.298420786857605,-1.2291107177734375,-0.8626692295074463,-0.29893049597740173,-0.10119736194610596,-0.32964205741882324
298,-0.06831807204111424,0.498791097761149,0.650775233445057,-0.05994764342904091,-0.4783642888069153,-0.8761129379272461,-2.840298652648926,-0.035495780408382416,-1.558942198753357,-0.11336167901754379,-0.08552426099777222,-0.1500558853149414
299,-0.1268831139686159,0.48585096521770177,0.4269958043449903,-0.11189912259578705,-0.4669610261917114,-0.8771693110466003,0.044495586305856705,-1.73403799533844,-2.413618326187134,0.17069122195243835,0.23629391193389893,0.5166346430778503
300,-0.1736996310090287,0.47472433151493965,0.21755201945142535,-0.15371601283550262,-0.4570932686328888,-0.8760349154472351,-0.044003814458847046,-1.1995022296905518,-0.8204002380371094,0.4932088255882263,0.04277139902114868,0.1627628207206726
301,-0.31731393221089943,0.583467667133569,0.1971101571418747,-0.26039496064186096,-0.5509212017059326,-0.7928935885429382,1.4107707738876343,-1.4387164115905762,-0.1448245346546173,0.41638559103012085,-0.10389441251754761,-0.30825692415237427
302,-0.4758459957242622,0.6361987772870205,0.3295955883676328,-0.36846980452537537,-0.5941421985626221,-0.7150000929832458,-0.009329723194241524,-1.4613943099975586,0.9991651177406311,-0.17968693375587463,-0.11380457878112793,-0.45505911111831665
303,-0.45253815866171654,0.49969002797788836,0.4191074237156994,-0.383787602186203,-0.47915348410606384,-0.7893788814544678,-2.406569242477417,2.52298641204834,2.1212167739868164,-0.5218520164489746,-0.01353752613067627,-0.11836647987365723
304,-0.1683191542218911,0.30511013901918027,0.5846663821255365,-0.15978814661502838,-0.30039823055267334,-0.9403343200683594,-0.860837996006012,3.6528255939483643,1.495940923690796,-0.2388019561767578,0.16297757625579834,0.3170433044433594
305,0.030956411178093238,0.3504780163191316,0.734795545944183,0.029069887474179268,-0.34334680438041687,-0.9387587308883667,1.675636649131775,0.7609876990318298,0.480114221572876,-0.013551697134971619,0.14440268278121948,0.3222731351852417
306,0.0728108339543687,0.48024080731591684,0.7962127035994424,0.06451769918203354,-0.4619927704334259,-0.8845338225364685,1.069819688796997,0.3072298467159271,0.525263786315918,-0.07562610507011414,-0.0389074981212616,0.03869342803955078
307,0.040495509454666255,0.6143466516879279,0.8280149623794473,0.03308187052607536,-0.576424777507782,-0.8164803385734558,1.4334763288497925,-0.7285730838775635,-0.17442816495895386,-0.22168050706386566,-0.22528725862503052,-0.21734845638275146
308,0.03358614368863475,0.6751300185790763,0.7763464891204528,0.026213278993964195,-0.6249988079071045,-0.7801854610443115,0.4013521671295166,-0.9403710961341858,-0.5777472257614136,-0.09850943088531494,-0.0017406940460205078,0.017749547958374023
309,-0.02818775726299234,0.6983615592617719,0.6884287705475196,-0.02158605121076107,-0.6429636478424072,-0.7655924558639526,0.6045751571655273,-1.4866464138031006,-0.5758607387542725,-0.03394068777561188,0.21849465370178223,0.30962932109832764
310,-0.26893501287792065,0.9419276423391613,0.5312562217543662,-0.15629565715789795,-0.808693528175354,-0.5670859813690186,2.8943185806274414,-6.075858116149902,-1.6267075538635254,0.37145984172821045,0.34880882501602173,0.772850751876831
311,-1.775498253489961,1.3451376497721816,1.171233917270804,-0.21907709538936615,-0.9746469259262085,0.0454825684428215,6.145442008972168,-9.074951171875,-1.6905457973480225,0.45773983001708984,0.689750075340271,0.4514198303222656
312,-2.9108311298827547,0.8346441402773888,1.8274640540625882,-0.15357139706611633,-0.7410576343536377,0.6536433100700378,3.1448028087615967,-0.8250331282615662,4.175467491149902,-0.24965739250183105,0.23863142728805542,0.6316502690315247
313,-2.6536895120965,0.4348174536235504,1.4220519598322554,-0.42515382170677185,-0.42124485969543457,0.8011223673820496,2.718022108078003,0.572900116443634,4.957390308380127,-0.7077654600143433,0.5794937610626221,0.25150513648986816
314,-2.534810887135537,-0.20614691179825476,1.09548649386596,-0.5581532716751099,0.20468991994857788,0.8040940165519714,5.5807318687438965,-0.038144368678331375,5.1808295249938965,-1.2500286102294922,0.6075965166091919,0.6082900762557983
315,-2.5810354319454953,-0.6067379202592719,1.0420435773444259,-0.4367637038230896,0.5701906681060791,0.6957871317863464,-0.5386301875114441,1.2775588035583496,0.36217477917671204,-0.8354988098144531,-0.8909457921981812,0.3789960741996765
316,-2.528302753963289,-0.5980244012030771,1.0173219895095027,-0.4756721258163452,0.5630108118057251,0.6758365631103516,-0.009820125997066498,0.07627271860837936,0.21280565857887268,-0.14046257734298706,-0.2923351526260376,0.3221035599708557
317,-2.546632192969269,-0.5844339781353938,0.9264390208413728,-0.4674508273601532,0.5517274141311646,0.6907147765159607,-0.9430568814277649,0.5124216079711914,0.48016947507858276,-0.2660239636898041,-0.22790533304214478,0.45273321866989136
318,-2.52814148211265,-0.4610434263766021,0.8205372506147594,-0.5155839920043945,0.4448828399181366,0.7322925329208374,-2.582029342651367,1.5061206817626953,-0.94624263048172,-0.4023999571800232,-0.1112951934337616,0.5362010598182678
319,-2.3488910041920494,-0.1563299802039591,0.8487294307257457,-0.7035667300224304,0.15569399297237396,0.6933640837669373,-1.5556870698928833,1.5698931217193604,-1.9441502094268799,0.4410240054130554,0.17177489399909973,0.0817064642906189
320,-2.2916582857376238,0.04509256349749384,0.8021349446946499,-0.7504736185073853,-0.045077282935380936,0.6593616604804993,-1.41715407371521,-0.2153310775756836,-0.2679033577442169,0.7158361673355103,0.21135233342647552,-0.3015732169151306
321,-2.3179034046318385,0.08686959503276762,0.7736305057697794,-0.7308912873268127,-0.08676037937402725,0.6769568920135498,0.7616279125213623,-0.40398073196411133,0.2948111295700073,0.37835222482681274,0.31890761852264404,-0.2709052562713623
322,-2.3795817279765137,-0.08855410107924457,0.8516523093678361,-0.6876726150512695,0.08843840658664703,0.7206145524978638,2.461561679840088,-0.9238978028297424,1.5872383117675781,0.1469009518623352,0.15794527530670166,0.1740540862083435
323,-2.4767719581655436,-0.4337243049759582,0.7929338629101506,-0.559795618057251,0.4202531576156616,0.7141540050506592,2.2682924270629883,-0.5129926204681396,2.6192944049835205,-0.9349095225334167,-0.2765459418296814,0.6293670535087585
324,-2.4832523976709595,-0.38152164575735215,0.847573688910582,-0.5678155422210693,0.3723331391811371,0.7341345548629761,-2.32490611076355,1.5116406679153442,-2.95479416847229,-0.6944220066070557,-0.0943027138710022,0.2852593660354614
325,-2.320728559087803,-0.022145301499353585,0.9832513771258162,-0.731555700302124,0.022143490612506866,0.6814221143722534,-0.7113748788833618,0.6782330274581909,-3.6309094429016113,0.2875401973724365,0.13752448558807373,-0.23697936534881592
326,-2.3239261700077853,0.27271530330342464,1.1714004564609175,-0.7025898694992065,-0.2693473696708679,0.6586496829986572,-0.9512860774993896,-0.035464122891426086,-2.7938501834869385,0.3749684691429138,0.5919334888458252,-0.0399516224861145
327,-2.364315724282977,0.4054834086713738,1.24795700593835,-0.6444704532623291,-0.3944630026817322,0.6550241708755493,0.19430606067180634,-0.7241358160972595,0.07796287536621094,0.4734499454498291,0.864891529083252,-0.03359484672546387
328,-2.4178637028445253,0.18623654799233647,1.2120350472062464,-0.6507331728935242,-0.18516184389591217,0.7363842129707336,2.0071604251861572,-0.9656976461410522,3.2131197452545166,0.0954200029373169,0.696819543838501,0.32243847846984863
329,-2.4641847268625656,-0.166512481189924,0.9622155477360161,-0.618106484413147,0.16574408113956451,0.7684229016304016,0.1972956359386444,0.33897140622138977,4.471774101257324,-0.5782284140586853,0.4821135997772217,0.3492530584335327
330,-2.4996704902523996,-0.40595422944360604,0.6845627329472387,-0.5500743389129639,0.39489561319351196,0.7358501553535461,0.08580120652914047,0.3378318250179291,2.5421149730682373,-0.24472540616989136,-0.46415528655052185,-0.1605176329612732
331,-2.5650612156188735,-0.49791947685394256,0.5125315020487577,-0.47892996668815613,0.4775986671447754,0.736563503742218,0.2540816068649292,-0.32899531722068787,1.2968745231628418,-0.17873913049697876,-0.4475998282432556,-0.21486550569534302
332,-2.65190482333721,-0.6016501571511321,0.44515413842360263,-0.38775813579559326,0.5660036206245422,0.727518618106842,0.824700653553009,-0.4534621834754944,0.6488963961601257,-0.47360047698020935,-0.6677950620651245,0.1776784062385559
333,-2.6661148628408258,-0.5999824946130948,0.48235823758679613,-0.3778128921985626,0.564628005027771,0.733793318271637,-0.21347779035568237,0.0007816448342055082,-0.9285260438919067,-0.8426613807678223,-0.3416208028793335,0.41296565532684326
334,-2.590983694330851,-0.46909773955313655,0.6868555507796171,-0.4666876494884491,0.45208168029785156,0.7601476907730103,-0.7508441209793091,-0.42950454354286194,-3.3868117332458496,-0.9658074378967285,0.15431779623031616,0.6280968189239502
335,-2.4628888478340847,-0.08385981006220643,0.9285796122552071,-0.6255785822868347,0.0837615579366684,0.7756518721580505,-2.449707508087158,1.202467679977417,-4.800085067749023,-0.3258223533630371,0.5332733988761902,0.052107036113739014
336,-2.402509181307898,0.3886327754352815,1.1564795586707628,-0.6233782172203064,-0.3789235055446625,0.6839710474014282,-1.7629870176315308,0.6677723526954651,-4.196075916290283,0.24692875146865845,0.9122639894485474,-0.14419132471084595
337,-2.447247634053097,0.6834244021046403,1.324857373434806,-0.49617424607276917,-0.6314520239830017,0.5958854556083679,-0.5508710145950317,-0.08846653252840042,-1.603325605392456,0.5296672582626343,1.168515682220459,-0.23783797025680542
338,-2.5233519474564936,0.5860768184316617,1.3837234671372602,-0.48287659883499146,-0.5530968308448792,0.6789065599441528,2.459702968597412,-0.4248877763748169,1.6757451295852661,0.2824067175388336,1.0938835144042969,-0.06934839487075806
339,-2.5712156971448397,0.11746349115866268,1.302969649468283,-0.5362286567687988,-0.1171935573220253,0.8358974456787109,1.6160694360733032,0.6445564031600952,5.5737409591674805,-0.20377683639526367,0.8159240484237671,0.7713413238525391
340,-2.492526351902087,-0.3546717157079492,0.8019747046490088,-0.5668225288391113,0.3472825288772583,0.7470653653144836,1.1614384651184082,1.0079095363616943,5.667455673217773,-0.9899858236312866,0.3031843304634094,0.21411609649658203
341,-2.5223840730353406,-0.5934892364602786,0.6209907531269959,-0.481140673160553,0.5592569708824158,0.6750815510749817,0.9902181625366211,0.7358803153038025,0.7487921118736267,-0.4602808356285095,-0.774848461151123,-0.048540472984313965
342,-2.534510060184064,-0.7152205207802492,0.5674898758767007,-0.4306783974170685,0.6557838916778564,0.6200512647628784,0.7987072467803955,-0.7947455644607544,1.1320831775665283,-0.48799222707748413,-0.7222970128059387,0.20526611804962158
343,-2.529487397018004,-0.7351827787669845,0.6292232778410093,-0.42617931962013245,0.6707227230072021,0.6070436835289001,-0.15745386481285095,0.0413735955953598,-1.6865681409835815,-0.7899613380432129,-0.5386884808540344,0.41390663385391235
344,-2.432987949339096,-0.530125114889407,0.7730489305438568,-0.5614520907402039,0.5056412816047668,0.6550560593605042,-0.9558825492858887,-0.09377669543027878,-2.617356777191162,-0.5769450664520264,0.12988722324371338,0.31213754415512085
345,-2.3996232806465,-0.24066918577903948,1.0159792546533555,-0.656265377998352,0.23835258185863495,0.7158940434455872,-1.1170865297317505,-0.3181988298892975,-4.098920822143555,-0.4171906113624573,0.5227100849151611,0.3106563687324524
346,-2.3555732214886005,0.10856830868054518,1.2000022788576779,-0.7033800482749939,-0.10835514962673187,0.7025066018104553,-1.3532140254974365,0.13807649910449982,-3.3340649604797363,0.40943479537963867,0.47459664940834045,-0.1957622766494751
347,-2.380143727073614,0.36179413620450973,1.3087350638038713,-0.6453046798706055,-0.3539527952671051,0.6769784092903137,-0.4728046953678131,-0.023227328434586525,-1.6840070486068726,0.49370843172073364,0.7557776570320129,-0.3827734589576721
348,-2.4159544940077446,0.35788316827071576,1.3483562106186069,-0.621566891670227,-0.35029229521751404,0.7006784677505493,1.1861094236373901,-0.3700139820575714,1.283512830734253,0.3504486083984375,0.9243888854980469,-0.264032781124115
349,-2.4126030471483273,0.025971716022043692,1.300241752761425,-0.6658917665481567,-0.025968795642256737,0.7455963492393494,2.36238431930542,0.04908321797847748,3.826918601989746,-0.007219254970550537,0.7875196933746338,0.24721676111221313
350,-2.361991956282912,-0.3931055993969224,1.046625456355425,-0.6493735909461975,0.38305896520614624,0.6569470167160034,1.2838711738586426,1.7064334154129028,4.64719295501709,-0.7469123601913452,0.5309882164001465,0.35883039236068726
351,-2.2840752734322085,-0.709516848003108,0.8628576867570312,-0.5737266540527344,0.6514672636985779,0.49641484022140503,0.053360726684331894,1.5143986940383911,2.2360992431640625,-0.18217837810516357,-0.7383204698562622,0.15215995907783508
352,-2.364650000464332,-0.8332510867384813,0.6249806025037596,-0.4714725613594055,0.7401215434074402,0.47951382398605347,-0.007756591774523258,-0.19301104545593262,1.74691641330719,-0.3521052300930023,-0.5617311596870422,0.0003903210163116455
353,-2.436755708569295,-0.9131908216202032,0.5861421300410967,-0.39601773023605347,0.7914580702781677,0.465579628944397,0.2755374610424042,-0.23069459199905396,-0.27322623133659363,-0.8122648000717163,-0.6318357586860657,0.3965420126914978
354,-2.399390798094642,-0.8169711375263539,0.6847037946465311,-0.4626162350177765,0.7290761470794678,0.5044143795967102,-0.41441652178764343,-0.6868164539337158,-1.9399203062057495,-0.9422146081924438,-0.06969815492630005,0.47002702951431274
355,-2.3655457746848185,-0.5325119135956671,0.9514119742913992,-0.6034737825393677,0.5076990127563477,0.6148671507835388,-1.7803086042404175,-1.426756739616394,-4.424266338348389,-0.8811302185058594,0.4765235185623169,0.496232271194458
356,-2.3290381807974274,-0.04588150078196027,1.105866100713714,-0.7252821326255798,0.04586540535092354,0.6869224309921265,-2.1481878757476807,0.4125758409500122,-4.369182586669922,0.01692330837249756,0.6056239008903503,-0.2353995442390442
357,-2.3536543415003455,0.37055837999970737,1.2658606346405883,-0.6607843041419983,-0.36213597655296326,0.6574358344078064,-1.4747925996780396,0.07227553427219391,-3.675139904022217,0.22395563125610352,1.029799461364746,-0.2708696722984314
358,-2.3709262169084213,0.6117323267866336,1.3668786806368458,-0.5702857971191406,-0.5742865204811096,0.5873408913612366,-0.3438946604728699,0.19953355193138123,-0.3007543683052063,0.6394996643066406,1.1575689315795898,-0.4001460075378418
359,-2.3911226824782,0.38327227265730296,1.390898100290792,-0.632502019405365,-0.3739573359489441,0.6783047914505005,4.083440780639648,-0.00027396390214562416,2.7326948642730713,0.3028815984725952,1.1141916513442993,-0.09793668985366821
360,-2.3993062910047134,-0.13786373381437847,1.211979754638728,-0.6695608496665955,0.1374274343252182,0.729932963848114,0.11544366925954819,1.2528741359710693,6.599303245544434,-0.728342592716217,1.104348063468933,0.498674213886261
361,-2.3716311661212717,-0.6519957192449579,0.841117920479422,-0.5533180832862854,0.6067739725112915,0.5706700682640076,2.1302664279937744,1.0310038328170776,4.115828514099121,-0.9425619840621948,-0.3111502528190613,0.15195554494857788
362,-2.369500607133539,-0.8549343701720483,0.691709021696401,-0.4578358232975006,0.7545278668403625,0.47018489241600037,-0.630363941192627,1.226288914680481,1.636810541152954,-0.276996910572052,-0.7826346755027771,0.33822566270828247
363,-2.5008671233425224,-0.8993568296004314,0.4840125359235184,-0.3718853294849396,0.7829269170761108,0.49872496724128723,-0.2622615694999695,-0.4897344410419464,0.4082731306552887,-0.7671069502830505,-0.7091050148010254,0.15589231252670288
364,-2.4857497205621044,-0.8332888628327646,0.5285522295366389,-0.4100755751132965,0.7401469349861145,0.5329357981681824,-0.45974475145339966,-0.24126429855823517,-1.5949207544326782,-0.8431592583656311,-0.3649791479110718,0.2848438024520874
365,-2.4030559948749697,-0.6490007817596563,0.762620974505299,-0.5363356471061707,0.6043906211853027,0.5891145467758179,0.30193451046943665,-1.4067306518554688,-3.925347328186035,-1.0712997913360596,0.2318214774131775,0.33033424615859985
366,-2.3363277846093755,-0.24235176560824012,1.088947075264316,-0.6999436020851135,0.2399863302707672,0.6726706624031067,-1.969719648361206,0.22962352633476257,-4.949699878692627,-0.26639556884765625,0.6004983186721802,0.10717552900314331
367,-2.3171534240846796,0.2175415771629874,1.2921814612177407,-0.7168635129928589,-0.21582980453968048,0.6629661321640015,-1.352889895439148,-0.16200047731399536,-4.348762035369873,0.33705705404281616,0.7592105269432068,-0.23059314489364624
368,-2.3630594914479093,0.5722378566251272,1.412964488426384,-0.5903635621070862,-0.5415147542953491,0.5985254049301147,-1.4107755422592163,0.22142216563224792,-1.7595504522323608,0.5612345933914185,1.2328293323516846,-0.33479249477386475
369,-2.3734045175686207,0.5163580284589773,1.3905539439674812,-0.604243278503418,-0.4937162697315216,0.6254076957702637,2.0700225830078125,-0.29374784231185913,2.060058832168579,0.24418151378631592,1.1161069869995117,-0.29334574937820435
370,-2.4146478758901697,0.11299415680763894,1.3504993115186095,-0.6603517532348633,-0.11275386810302734,0.7424434423446655,0.9980441927909851,0.09153884649276733,5.402831554412842,-0.05864238739013672,1.0286016464233398,0.6098363399505615
371,-2.3496989020171446,-0.3826302763974211,0.9396625081280076,-0.6602198481559753,0.37336182594299316,0.6516980528831482,2.066011667251587,1.4874950647354126,6.146467208862305,-1.1055729389190674,0.7830864787101746,0.29687970876693726
372,-2.399150307738283,-0.7779744622045021,0.6648080675184277,-0.4816032946109772,0.7018380165100098,0.5248635411262512,0.3879999816417694,1.2557202577590942,2.6696510314941406,-0.7756140828132629,-0.6428322792053223,0.08774638175964355
373,-2.4994274429847017,-0.9056404633296959,0.4275262106533791,-0.3696492910385132,0.7868205904960632,0.494239866733551,0.10434138774871826,0.07641812413930893,1.4514362812042236,-0.5597636103630066,-0.8430338501930237,0.07961267232894897
374,-2.5645876193594375,-0.9315185816859491,0.3918450064821099,-0.32546380162239075,0.8025268912315369,0.5000240802764893,-0.041214194148778915,-0.20102669298648834,-1.207797884941101,-1.0904908180236816,-0.7428954243659973,0.2620914578437805
375,-2.431457340387016,-0.7515159354955837,0.5828681738274469,-0.47634047269821167,0.6827471852302551,0.5540363192558289,-0.6547374725341797,-0.7483832836151123,-2.7616286277770996,-0.8183372616767883,0.04077881574630737,0.3336437940597534
376,-2.3409308711787835,-0.47625423420611784,0.9605983202447433,-0.637937068939209,0.4584534764289856,0.618753969669342,-0.7153765559196472,-1.034968376159668,-4.724172592163086,-0.6182578802108765,0.36517012119293213,0.4677633047103882
377,-2.3291069089778724,-0.05788521956929116,1.18689433616746,-0.7247829437255859,0.05785289779305458,0.6865441799163818,-1.8074473142623901,-0.7891995310783386,-4.313045024871826,0.07912248373031616,0.2510002553462982,0.13662177324295044
378,-2.434228978583779,0.34100999788787856,1.2943937204817648,-0.612413227558136,-0.33443909883499146,0.7163105010986328,-2.5828042030334473,-0.8133853077888489,-2.7177176475524902,-0.1574232578277588,0.27134397625923157,0.25358396768569946
379,-2.19606956109341,0.8023661346497019,1.0103203613710305,-0.5635141730308533,-0.7190026044845581,0.40680089592933655,-6.289914608001709,2.099540948867798,-0.9111267328262329,-0.619133472442627,0.7502525448799133,0.5576765537261963
380,-2.0742676717504858,1.1951811790047744,0.9299592797898744,-0.32132449746131897,-0.9302821159362793,0.17699146270751953,3.5350444316864014,-0.5266433954238892,-5.86357307434082,-0.8867291212081909,0.5997766256332397,-0.16405199468135834
381,2.5829441215623374,0.88764201743565,2.526377477593618,0.3345843553543091,-0.7755854725837708,0.5352763533592224,3.000640392303467,-1.122420310974121,-5.095613956451416,-0.3515826463699341,0.4848901033401489,0.1406727433204651
382,2.404833735746075,0.5034071173710057,2.8070562979672604,0.5885387063026428,-0.48241278529167175,0.6487678289413452,0.8272613286972046,0.8402666449546814,-3.6919357776641846,-0.3716808557510376,0.2826143205165863,-0.17357879877090454
383,2.385713770315244,0.22537782959937339,3.021882356384773,0.6685811877250671,-0.2234746515750885,0.7092660665512085,0.5348140597343445,-0.3707578778266907,-3.700350046157837,-0.23697108030319214,0.452493816614151,-0.1990731954574585
384,2.3018674668479324,0.04486736380209187,-3.0513486431113064,0.743710458278656,-0.04485231265425682,0.6669955253601074,-0.7885726094245911,-0.7854241728782654,-2.44629168510437,0.045489370822906494,0.4044104218482971,-0.13939237594604492
385,2.2079756043872463,-0.11511537317316041,-2.9564233902246864,0.7984574437141418,0.11486130207777023,0.5909931659698486,1.4088560342788696,-1.2885626554489136,-2.098729133605957,0.030125439167022705,0.12503741681575775,0.04737365245819092
386,2.203960458385654,-0.23498196376163769,-2.877409145387413,0.7840049862861633,0.23282544314861298,0.5754378437995911,-0.964393675327301,-0.22826333343982697,-0.6119857430458069,0.24562770128250122,-0.006430760025978088,0.153825581073761
387,2.2367208960417857,-0.2343425727929683,-2.7506849579521604,0.7648530602455139,0.23220357298851013,0.6009007096290588,-1.5146424770355225,-0.10991907119750977,-0.48525741696357727,-0.06125485897064209,0.12540146708488464,0.0019588470458984375
388,2.2167250718075246,-0.15495061772306828,-2.6487530868060243,0.7889739871025085,0.15433131158351898,0.5947287082672119,0.2890997529029846,-0.26866593956947327,0.4079299867153168,-0.408236563205719,0.2697867751121521,-0.5636006593704224
389,2.16574413553728,-0.22378445369954347,-2.758832470210689,0.8075270056724548,0.22192129492759705,0.5464902520179749,0.9155839681625366,0.6016268134117126,0.31568410992622375,-0.07127499580383301,0.18030045926570892,-0.008449912071228027
390,2.1624454221267264,-0.2886533769780563,-2.8789085553453297,0.7956824898719788,0.28466156125068665,0.5346562266349792,0.6408111453056335,0.46514660120010376,0.003223177045583725,0.2770105004310608,0.036947935819625854,0.20658522844314575
391,2.1735725241700403,-0.31033335919151034,-2.946886437552687,0.7844149470329285,0.3053760826587677,0.5398501753807068,0.5560263991355896,0.6054433584213257,0.8127408623695374,0.299782931804657,0.16825664043426514,0.08301341533660889
392,2.1845544787269158,-0.2480954830576932,-3.001832136317221,0.7924593091011047,0.24555820226669312,0.5583094358444214,-1.050734043121338,0.9739584922790527,0.9135149717330933,-0.20400410890579224,0.13827663660049438,-0.09045970439910889
393,2.1811365274635275,-0.21870158846100693,-3.05615641737084,0.799933671951294,0.2169623225927353,0.559493899345398,0.04814983531832695,0.19567669928073883,0.35158729553222656,-0.33234333992004395,-0.15853643417358398,-0.21301257610321045
394,2.2137756313868873,-0.2121000902540885,-3.102234712777231,0.7823787927627563,0.2105133980512619,0.5861464738845825,0.4107251763343811,0.8946251273155212,0.037033677101135254,-0.16444361209869385,0.10937187075614929,-0.0042830705642700195
395,2.242202172641407,-0.256014366744048,3.11277147487288,0.7574292421340942,0.2532268464565277,0.6018115878105164,0.4542258679866791,-0.21686160564422607,0.08811042457818985,0.08735835552215576,0.1342090666294098,0.34951281547546387
396,2.2541420299746924,-0.26539641547796683,3.0348967824891298,0.7483145594596863,0.262291818857193,0.6092851758003235,0.8821925520896912,-0.7485567927360535,0.39447054266929626,0.19054341316223145,-0.238671213388443,0.3507521152496338
397,2.3241725431863136,-0.08012626414864409,3.1206208912889624,0.7270432114601135,0.08004055172204971,0.6819103360176086,-1.8738574981689453,2.31528902053833,1.6498324871063232,0.1166609525680542,0.5219186544418335,-1.0516459941864014
398,2.5272128345860754,0.017036676248607486,2.9484442312080614,0.5763682126998901,-0.017035851255059242,0.8170124888420105,0.06833386421203613,2.1892597675323486,1.8859214782714844,-0.33425694704055786,0.357993483543396,-0.3661458492279053
399,2.8617041287261626,0.2560945365841206,2.8028501377806117,0.26723918318748474,-0.2533043920993805,0.9297422766685486,-2.894683599472046,5.1473188400268555,3.028726100921631,-0.15462929010391235,0.6081475019454956,-0.3192988634109497
400,-2.813797447059654,0.6103457791389747,2.2626322225791213,-0.2638271749019623,-0.5731508135795593,0.7758179306983948,-4.76254940032959,0.6450923681259155,7.35330057144165,-0.10667148232460022,0.7613375186920166,-0.2407684326171875
401,-2.343194563859727,0.417088262097117,1.3838135577137836,-0.6548377871513367,-0.4051000475883484,0.6380296349525452,0.2781153917312622,-1.1078946590423584,6.758124351501465,-1.4217156171798706,0.8343602418899536,0.11181789636611938
402,-2.40241232333313,0.026835286601021743,1.0798512800651265,-0.6734400391578674,-0.026832066476345062,0.7387551069259644,2.9501805305480957,-1.1229013204574585,5.398435115814209,-0.7495338320732117,0.9318613409996033,-0.03125065565109253
403,-2.480254576566061,-0.6198717948583866,0.9329607774105639,-0.49990835785865784,0.5809308290481567,0.6423483490943909,3.057325839996338,0.291836678981781,4.395606517791748,-0.986770749092102,-0.17877012491226196,0.6491709351539612
404,-2.5383193795243333,-0.8269190659954984,0.7109369155800721,-0.3841727077960968,0.735848605632782,0.557618260383606,0.1469893902540207,0.9670951962471008,0.906528115272522,-0.6534096598625183,-0.6170437335968018,0.28655898571014404
405,-2.6074605770109196,-0.8847030479509759,0.5671881522906637,-0.32252100110054016,0.7737268805503845,0.5452768802642822,-0.4131530225276947,0.05622706562280655,0.4654923379421234,-0.836338222026825,-0.6802058219909668,0.388591468334198
406,-2.5664025199213265,-0.8044073446193789,0.6089160800305794,-0.3772810399532318,0.7204197645187378,0.5819404721260071,-0.3280879855155945,0.2706329822540283,-1.8222661018371582,-0.9419175982475281,-0.21277505159378052,0.4758598804473877
407,-2.439506525922883,-0.596708088824751,0.908085601396656,-0.5342090129852295,0.5619224905967712,0.6315566897392273,-0.8354398608207703,-0.967995285987854,-4.1632280349731445,-0.857560396194458,0.33416515588760376,0.5757796764373779
408,-2.349813928868563,-0.1817264886525344,1.1773651962566054,-0.69988614320755,0.18072789907455444,0.6910113096237183,-1.3623424768447876,0.035701438784599304,-4.922808647155762,-0.045078396797180176,0.38386255502700806,-0.20070070028305054
409,-2.3805185421194017,0.227024466908633,1.4112416415498996,-0.6720022559165955,-0.22507934272289276,0.7055156826972961,-1.4281506538391113,-0.5670751929283142,-3.4976913928985596,0.22948211431503296,0.781201183795929,-0.25434374809265137
410,-2.434702107634359,0.4392944356644317,1.5306035336593586,-0.5878063440322876,-0.4253009855747223,0.6881879568099976,0.06887377053499222,0.07974529266357422,-0.8484578728675842,0.3401104807853699,1.0288318395614624,-0.35580581426620483
411,-2.466932620642599,0.3123072071837105,1.5780841192613655,-0.5944167375564575,-0.3072550594806671,0.7431442141532898,2.320117235183716,-0.621504545211792,2.011765241622925,0.32262712717056274,1.0290415287017822,-0.011179983615875244
412,-2.4094086800458583,-0.05102926260554232,1.3165256133337042,-0.6676252484321594,0.051007118076086044,0.7427480220794678,0.42405804991722107,1.696633219718933,5.856651782989502,-0.4546891450881958,1.0130339860916138,0.21857088804244995
413,-2.3246927590009023,-0.5308331976215014,0.9763349421176357,-0.6287025213241577,0.5062520503997803,0.5902894735336304,0.8762447237968445,1.4743735790252686,4.667517185211182,-0.5474905967712402,-0.16874301433563232,0.09190034866333008
414,-2.3846884628335205,-0.7612317081448013,0.7384033496998325,-0.49714335799217224,0.6898137331008911,0.5263136029243469,-0.038993168622255325,0.4136442542076111,1.6547685861587524,-0.5164217948913574,-0.7031498551368713,0.17578917741775513
415,-2.48454232137324,-0.8558452768333881,0.5932910726790677,-0.40041792392730713,0.7551253437995911,0.5190866589546204,0.09809936583042145,-0.35738202929496765,0.6540018320083618,-0.8442109227180481,-0.7284836173057556,0.3052845597267151
416,-2.4445778023978577,-0.8020586208771675,0.6660885162530041,-0.44628915190696716,0.7187888026237488,0.533074676990509,-0.43090617656707764,-0.047000110149383545,-1.9094051122665405,-0.884323000907898,-0.29370951652526855,0.5027681589126587
417,-2.368505507247941,-0.5753530177202477,0.9117483294591673,-0.5859145522117615,0.5441309809684753,0.6005215048789978,-0.6282122731208801,-1.742316484451294,-4.1620941162109375,-0.9801408648490906,0.36454522609710693,0.542224645614624
418,-2.3309994032411936,-0.16343097899900388,1.119687498331559,-0.7150392532348633,0.16270442306995392,0.6798865795135498,-1.8285795450210571,0.4989597797393799,-4.56490421295166,-0.12861907482147217,0.61669921875,-0.054139018058776855
419,-2.311246315227444,0.250070752128284,1.2842273187257498,-0.7152043581008911,-0.24747250974178314,0.6536359786987305,-1.2608948945999146,0.12034070491790771,-3.7892043590545654,0.3218633532524109,0.7820336818695068,-0.34911638498306274
420,-2.3384010410380944,0.5003248281028357,1.4336398671735793,-0.6313753724098206,-0.47971057891845703,0.6092971563339233,0.019906215369701385,0.01896018721163273,-1.2262787818908691,0.6397066116333008,0.974034309387207,-0.3549484610557556
421,-2.374220085935167,0.41036583218357026,1.4479387712865328,-0.6366066932678223,-0.39894482493400574,0.6599809527397156,1.6084098815917969,-0.10538938641548157,2.2191972732543945,0.35242706537246704,0.9768104553222656,-0.11957579851150513
422,-2.3423779133466684,0.01848098361376533,1.2673004388887408,-0.7166865468025208,-0.018479932099580765,0.6971509456634521,0.5196866989135742,0.577208399772644,5.906770706176758,-0.3082922697067261,0.9652420282363892,0.30281877517700195
423,-2.320665128258036,-0.49911369969654035,0.9477507115398832,-0.6425067186355591,0.4786475598812103,0.5983995795249939,2.3771681785583496,0.8631923198699951,5.170971870422363,-1.0087080001831055,0.33215880393981934,0.32361292839050293
424,-2.312083321230858,-0.7668916351548225,0.7820803635375582,-0.5311245322227478,0.6939003467559814,0.486219197511673,-0.09418676793575287,1.4721062183380127,1.0350635051727295,-0.3988071084022522,-0.834021806716919,0.2789633274078369
425,-2.386624505445362,-0.8137055529163654,0.5737185132634798,-0.4706469774246216,0.726837158203125,0.5001989603042603,-0.29517704248428345,-0.38934168219566345,1.3022181987762451,-0.41627007722854614,-0.7015228867530823,-0.007507979869842529
426,-2.4370196996557785,-0.8130336231345748,0.5392398946169038,-0.445168673992157,0.7263755202293396,0.5236441493034363,-0.06132524088025093,0.05164402723312378,-0.7506250739097595,-0.7217471599578857,-0.4492607116699219,0.18546217679977417
427,-2.3497469998518077,-0.7077719181369051,0.6863853265122878,-0.5407214164733887,0.6501424908638,0.5337933897972107,0.002657354809343815,-0.2795109748840332,-2.1579713821411133,-0.6155744194984436,-0.10421347618103027,0.34283941984176636
428,-2.310185614639766,-0.46642815251768127,0.9622699109101427,-0.659953236579895,0.44969886541366577,0.6018577814102173,-0.8710869550704956,-0.9635964632034302,-4.079347610473633,-0.682331919670105,0.4389272928237915,0.4449867606163025
429,-2.2618968445241148,-0.07582264863507872,1.1144157293978274,-0.7683312296867371,0.07575001567602158,0.635554313659668,-1.464272141456604,0.22846758365631104,-3.3954741954803467,0.2564292550086975,0.3932899236679077,-0.2197522521018982
430,-2.284137419598398,0.23991705576209538,1.24197296093559,-0.734521210193634,-0.23762205243110657,0.6356214880943298,-0.6723518967628479,-0.23745213449001312,-2.7376646995544434,0.4280482530593872,0.6946380138397217,-0.3372357487678528
431,-2.3296653434267682,0.3676781187217985,1.321320714916476,-0.6771180033683777,-0.35944971442222595,0.6421117782592773,0.10973012447357178,-0.17956256866455078,0.07142907381057739,0.48529964685440063,0.8626844882965088,-0.2995975613594055
432,-2.286781859804964,0.1951189870549175,1.2703997989279205,-0.7401307225227356,-0.1938832700252533,0.6439064741134644,1.7191771268844604,0.5963005423545837,2.7896480560302734,0.23295915126800537,0.7506459951400757,0.03578096628189087
433,-2.2553431738219607,-0.1461571806923685,1.0875186461374962,-0.7664457559585571,0.1456373631954193,0.6255801916122437,0.5364737510681152,0.784654438495636,4.9397711753845215,-0.3996461033821106,0.8236771821975708,0.22619587182998657
434,-2.2314761798189062,-0.55950284541786,0.8841808345170549,-0.6691800355911255,0.5307649374008179,0.5200832486152649,0.46997201442718506,1.0897469520568848,3.3425700664520264,-0.5293825268745422,-0.25339066982269287,0.2810336947441101
435,-2.2640449291876643,-0.7081710777617226,0.6331163167909664,-0.584228515625,0.6504456996917725,0.4853841960430145,-0.9006765484809875,0.4466300308704376,1.9027546644210815,-0.21656805276870728,-0.5843750834465027,0.029554307460784912
436,-2.3751934260975345,-0.7868881167036003,0.4873042602564008,-0.4896795153617859,0.7081595659255981,0.5086489915847778,0.208652526140213,-0.42679113149642944,0.46220287680625916,-0.6537683010101318,-0.6197807192802429,0.10109210014343262
437,-2.3886089124663035,-0.7674187230288848,0.5188692389353944,-0.49214792251586914,0.6942797899246216,0.5251340866088867,-0.19831982254981995,-0.1395011693239212,-1.0593397617340088,-0.7981657385826111,-0.37885022163391113,0.2703676223754883
438,-2.3259118410681787,-0.6226379461766356,0.6856211625553718,-0.5915420651435852,0.5831801295280457,0.5567578673362732,0.14950871467590332,-1.0059014558792114,-2.9647929668426514,-0.7656663060188293,0.0697283148765564,0.24156677722930908
439,-2.2736756670849103,-0.33361832907760314,0.9443725537084885,-0.7209158539772034,0.3274639844894409,0.6107760667800903,-0.7964275479316711,-0.08748096227645874,-4.047268390655518,-0.29809653759002686,0.3278399109840393,0.05702471733093262
440,-2.2469785335171903,0.02449354046257939,1.1236040517312276,-0.7797337770462036,-0.024491092190146446,0.6256321668624878,-0.8019410967826843,-0.044934358447790146,-3.4511935710906982,0.28643226623535156,0.4544227123260498,-0.26767629384994507
441,-2.297545072055468,0.294964672567427,1.269199915769412,-0.7150629758834839,-0.2907060384750366,0.6357477307319641,-0.6075915098190308,-0.17772898077964783,-2.031064748764038,0.4238184094429016,0.7911027669906616,-0.2589471936225891
442,-2.3122889066125802,0.31670887610923887,1.3009638132330794,-0.7007842063903809,-0.3114408254623413,0.6417993903160095,1.0665184259414673,0.06901515275239944,1.3236981630325317,0.38315707445144653,0.924889862537384,-0.26655513048171997
443,-2.295959427406965,0.011403293437865806,1.2403783430885758,-0.7483426928520203,-0.011403046548366547,0.6632145047187805,0.777782142162323,0.2867231070995331,4.628161430358887,0.09654808044433594,0.8028764128684998,0.36196261644363403
444,-2.250346963929573,-0.42723473340427787,0.9723571417594099,-0.7079378366470337,0.41435566544532776,0.5719560384750366,1.4751719236373901,1.1098783016204834,4.699667930603027,-0.6935819983482361,0.45304548740386963,0.24814289808273315
445,-2.2608627273239197,-0.7157729699047437,0.7428372354559789,-0.5819398760795593,0.6562008857727051,0.4803609251976013,-0.8458438515663147,1.2461369037628174,1.9677667617797852,-0.41563403606414795,-0.7004207968711853,0.05276602506637573
446,-2.3293515060039445,-0.7721083067002532,0.5292829046655249,-0.520015299320221,0.6976472735404968,0.49282121658325195,-0.3804498314857483,-0.06720183044672012,1.230168104171753,-0.21213197708129883,-0.5879517793655396,-0.10347777605056763
447,-2.399917260675535,-0.8232938250626765,0.47295671545590984,-0.45922771096229553,0.7333889603614807,0.5012491941452026,0.3802739977836609,-0.10625019669532776,-0.14038477838039398,-0.7524270415306091,-0.4571438431739807,0.17010706663131714
448,-2.32548128144959,-0.7892597957519856,0.61318270069562,-0.5131253600120544,0.7098320722579956,0.48253577947616577,0.16619212925434113,-0.33335983753204346,-1.7120704650878906,-0.7479525804519653,-0.2749871015548706,0.43199974298477173
449,-2.2687979634244706,-0.620394455550151,0.8704005441327999,-0.6233593821525574,0.5813561677932739,0.5229224562644958,0.0625733807682991,-1.520740270614624,-3.7627384662628174,-0.8503191471099854,0.1897009015083313,0.4197959303855896
450,-2.239329218620387,-0.23286660723359226,1.0856929774412267,-0.7635511755943298,0.23076769709587097,0.603105366230011,-1.2812923192977905,-0.17398621141910553,-4.443580627441406,-0.08991879224777222,0.40216687321662903,-0.09416371583938599
451,-2.274800971115944,0.1816683742796183,1.2373177049751833,-0.7497122287750244,-0.18067073822021484,0.6366236209869385,-1.2459315061569214,-0.20841218531131744,-3.824211597442627,0.14738678932189941,0.8097753524780273,-0.306713342666626
452,-2.3017872668095216,0.4483120300605848,1.3625074766593024,-0.6709404587745667,-0.4334449768066406,0.6016348004341125,-0.29605576395988464,0.35573965311050415,-1.2875466346740723,0.5736046433448792,1.0117073059082031,-0.3657338619232178
453,-2.300036227763412,0.346296869780414,1.3923204299362033,-0.7014145255088806,-0.33941683173179626,0.6267486810684204,2.3709704875946045,0.5203542113304138,2.2557218074798584,0.4544815421104431,1.0349429845809937,-0.19411617517471313
454,-2.298223303771942,-0.10725587523949012,1.2876043770187566,-0.7425957918167114,0.1070503517985344,0.6611289381980896,0.1549806147813797,0.6904579401016235,6.156909942626953,-0.335345983505249,1.0155845880508423,0.4669075012207031
455,-2.291448029191478,-0.638997650360557,0.9206357557186746,-0.6031250357627869,0.5963911414146423,0.5296774506568909,2.348820686340332,0.9229016900062561,4.946730613708496,-1.071954369544983,0.09454208612442017,0.07043588161468506
456,-2.2019433704977573,-0.8422985951557621,0.8776393472933391,-0.5374937653541565,0.7461753487586975,0.3928396999835968,-1.4883348941802979,2.328199625015259,0.4226464331150055,-0.08356952667236328,-0.77481609582901,0.5678384900093079
457,-2.4115431112113233,-0.8382155346330911,0.4895771602295738,-0.44602081179618835,0.7434508800506592,0.49834349751472473,-0.40749847888946533,-1.1319845914840698,1.6355884075164795,-0.6764919757843018,-0.5123260021209717,-0.3343268632888794
458,-2.4064541758568185,-0.8557584688651995,0.5590597897778188,-0.43973508477211,0.7550684213638306,0.4863174259662628,-0.06368046998977661,0.41005271673202515,-1.3431998491287231,-0.8174823522567749,-0.36699163913726807,0.24924767017364502
459,-2.2856571743857574,-0.716566496946223,0.7630285340133081,-0.5694584250450134,0.6567994356155396,0.49429911375045776,0.3799304664134979,-1.0496549606323242,-2.7676708698272705,-0.7637172341346741,0.06257617473602295,0.24520277976989746
460,-2.2563770960423657,-0.42818258735904136,1.0864530463110416,-0.7041715383529663,0.41521814465522766,0.5759655237197876,-0.6685211658477783,-0.9487128257751465,-4.5686163902282715,-0.5201326608657837,0.44127291440963745,0.2219012975692749
461,-2.241640632037694,-0.0017499251479277684,1.2857292082643028,-0.7832959890365601,0.0017499242676422,0.6216466426849365,-1.5349584817886353,-0.32721811532974243,-4.203709125518799,0.255692720413208,0.5519610047340393,-0.17650192975997925
462,-2.286716334576842,0.34852062326369837,1.3834250795178562,-0.7091290950775146,-0.3415077328681946,0.6168537139892578,-1.446257472038269,-0.19978399574756622,-2.3331897258758545,0.38118720054626465,0.9230354428291321,-0.3281726837158203
463,-2.3060074087890983,0.4350968041601548,1.4182939487353432,-0.6725853681564331,-0.42149817943573,0.6082499623298645,1.0089993476867676,-0.17256028950214386,0.8431082963943481,0.4597863554954529,1.089695930480957,-0.2844279408454895
464,-2.281081236192568,0.12933432540724465,1.3659643241201176,-0.7518439888954163,-0.128974050283432,0.6466040015220642,0.22980082035064697,-0.21671490371227264,5.027227878570557,0.28741204738616943,0.9341192841529846,0.47722119092941284
465,-2.2808158113703456,-0.3164244012932401,0.9355448301854611,-0.720700204372406,0.31117045879364014,0.6194868683815002,1.162191390991211,1.294594407081604,6.65209436416626,-1.0488462448120117,1.0743579864501953,0.08946692943572998
466,-2.2743312663515076,-0.7605657423857586,0.7170910151382267,-0.5524336099624634,0.6893314123153687,0.46865662932395935,0.9046139121055603,1.7059156894683838,1.8517444133758545,-0.8667863011360168,-0.7805332541465759,0.176286518573761
467,-2.2898779482758354,-0.7982110151194413,0.4389661545530752,-0.5251746773719788,0.7161085605621338,0.45976120233535767,-2.7680106163024902,1.0221612453460693,2.247453451156616,-0.02360767126083374,-0.528700053691864,0.033097803592681885
468,-2.5657458965825137,-0.796402994336864,0.10524984384533638,-0.3807908594608307,0.7148454189300537,0.586510181427002,-0.2591577172279358,-0.49587637186050415,0.34185341000556946,-1.1112744808197021,-0.405076801776886,-0.27750450372695923
469,-2.4226469293161315,-0.7564456176710058,0.253437197690301,-0.47898051142692566,0.6863407492637634,0.5472784638404846,0.4182201623916626,0.5943468809127808,-2.190001964569092,-0.824211597442627,-0.1546330451965332,0.33870774507522583
470,-2.2825526446246234,-0.659170505938479,0.6147715336285005,-0.5985797643661499,0.6124613285064697,0.5163272023200989,1.4467123746871948,-2.0416858196258545,-4.191141605377197,-0.9597546458244324,0.12986356019973755,0.5881498456001282
471,-2.2390601506888723,-0.2983505521135504,0.9046832709530584,-0.7502239346504211,0.29394403100013733,0.5922508835792542,-0.5477036237716675,-0.360894113779068,-4.51544189453125,-0.11833691596984863,0.32666146755218506,-0.08387374877929688
472,-2.262818830831092,0.0669632972480561,1.1301980312055353,-0.768231213092804,-0.06691326200962067,0.6366654634475708,-0.6321768760681152,-0.644030749797821,-3.483283758163452,0.3629732131958008,0.5488316416740417,-0.2938769459724426
473,-2.3450466744338114,0.2998037294564636,1.2616353096684219,-0.6830549836158752,-0.2953327000141144,0.6679930686950684,-0.3637601137161255,-0.3708494305610657,-1.5337395668029785,0.29160594940185547,0.9275500774383545,-0.3204893469810486
474,-2.372428883099187,0.2646190344135086,1.306204629726931,-0.671324610710144,-0.26154157519340515,0.6934834122657776,1.9151859283447266,0.5313789248466492,1.1510475873947144,0.19753926992416382,0.93996262550354,-0.2532368302345276
475,-2.2974219419528374,-0.07171446705712561,1.2442381490989038,-0.7454992532730103,0.07165300846099854,0.6626436710357666,0.92274010181427,1.1530927419662476,4.406999588012695,0.02111881971359253,0.6640647649765015,0.23007172346115112
476,-2.223671084281638,-0.5165194894579773,1.0327419591020308,-0.6907138824462891,0.49385666847229004,0.5282237529754639,1.609885334968567,1.5065065622329712,4.448704242706299,-0.5432493090629578,0.2080172300338745,0.22058618068695068
477,-2.18341430341331,-0.8259624146512534,0.8520957103168496,-0.5545797944068909,0.7352005243301392,0.38977134227752686,-0.10062151402235031,1.2699352502822876,2.2331812381744385,-0.4006509780883789,-0.5549025535583496,0.24583357572555542
478,-2.274402823558133,-0.9640056690599983,0.6851431774904054,-0.43481144309043884,0.8214823007583618,0.36892545223236084,0.2838341295719147,-0.4275900423526764,0.9806533455848694,-0.6388732194900513,-0.7768045663833618,0.28825533390045166
479,-2.3384624858791514,-0.9415533036274102,0.6609145996823784,-0.42346909642219543,0.8084732294082642,0.40871134400367737,-0.6530811190605164,-0.6773737668991089,-0.6811980605125427,-0.722496509552002,-0.47780007123947144,0.40815269947052
480,-2.358348449554281,-0.7779738466579453,0.7449198313189811,-0.5026123523712158,0.7018375396728516,0.5047822594642639,-0.4282551109790802,-0.5492230653762817,-2.755812883377075,-0.973675549030304,-0.11051362752914429,0.18190914392471313
481,-2.330829139580911,-0.4484503642022303,0.9899904809184712,-0.6531438827514648,0.43356963992118835,0.6208223104476929,-1.877699851989746,-1.0789685249328613,-4.3386616706848145,-0.7657251358032227,0.6156551837921143,0.21622896194458008
482,-2.2320020615863525,-0.002280426272957912,1.1425187089555038,-0.7892502546310425,0.0022804243490099907,0.6140672564506531,-1.9782452583312988,1.8019911050796509,-4.210098743438721,-0.012232840061187744,0.5885093212127686,-0.09244567155838013
483,-1.9043743436196732,0.40203067278987964,1.0459132682606491,-0.8695403933525085,-0.3912879228591919,0.30131974816322327,-3.015993118286133,5.091272830963135,-1.2577279806137085,0.2419005036354065,0.5850133895874023,0.04792347550392151
484,-1.25681402687756,0.4463980483781825,0.7874701631398455,-0.8579099774360657,-0.4317193627357483,-0.27858400344848633,-3.115161418914795,6.509134769439697,0.9518904089927673,-0.08122271299362183,0.4421868622303009,0.6348767280578613
485,-0.6592094463869677,0.3421472717544879,0.7983788447788068,-0.5769898891448975,-0.3355106711387634,-0.7446578145027161,-0.560992956161499,4.660910606384277,1.0755516290664673,-0.32617783546447754,0.09916728734970093,0.5566237568855286
486,-0.3016609734807494,0.25721509937569725,0.8162223645924538,-0.2873324155807495,-0.2543882727622986,-0.9234319925308228,-0.6076909303665161,2.451204299926758,-0.016148841008543968,-0.3702603280544281,-0.009741365909576416,0.32408207654953003
487,-0.047712629376186665,0.10916110054748002,0.7723142161859206,-0.047410644590854645,-0.10894443094730377,-0.9929165840148926,-0.7197338342666626,1.1893565654754639,-0.5937266945838928,0.00012365728616714478,-0.06132839620113373,-0.08499479293823242
488,0.0302910474882973,0.125661889348775,0.7548349623133483,0.03004760481417179,-0.12533143162727356,-0.9916598200798035,-0.22207385301589966,1.4695165157318115,0.21352700889110565,0.05849914625287056,-0.04054686427116394,0.32402676343917847
489,0.10120620139516498,0.2858706202710075,0.7562659931273976,0.09693322330713272,-0.2819928526878357,-0.9545071721076965,3.389533519744873,-1.2766493558883667,0.4470635950565338,-0.02247033268213272,-0.0806475281715393,-0.08910238742828369
490,0.05272427658308837,0.5002583625651639,0.8011061787772996,0.046241942793130875,-0.4796522557735443,-0.8762393593788147,1.647750735282898,-0.02444731816649437,0.4995102882385254,0.035651978105306625,-0.2611619532108307,-0.2029995322227478
491,0.0842676329312163,0.596298308339714,0.8439953902594268,0.06964223831892014,-0.5615834593772888,-0.8244840502738953,0.11224332451820374,0.13683894276618958,0.40969884395599365,-0.005723200738430023,-0.003952980041503906,-0.27420973777770996
492,0.021378488224757523,0.663402103939416,0.9143830966274196,0.01684286631643772,-0.6158009171485901,-0.7877217531204224,1.1122835874557495,-0.3295431435108185,0.9592615365982056,-0.11629965901374817,0.15446674823760986,0.09298908710479736
493,-0.024450190718353183,0.7574224960129909,1.0299560822330496,-0.01776396483182907,-0.6870508790016174,-0.7263920903205872,0.5812324285507202,0.8332693576812744,0.7823643684387207,-0.13683807849884033,0.1764003038406372,0.36120355129241943
494,-0.04151151440131837,0.8040903366214696,1.1022758089043168,-0.02879103273153305,-0.7201998233795166,-0.6931689977645874,0.051721807569265366,0.32376188039779663,0.4487876892089844,-0.06830063462257385,-0.005508124828338623,0.2782367467880249
495,-0.029880976732682064,0.7537786887003176,1.1177875938312665,-0.021783215925097466,-0.6843987107276917,-0.7287824749946594,-0.7560680508613586,0.2143067866563797,0.09377838671207428,-0.12404504418373108,-0.17906564474105835,-0.0597306489944458
496,-0.07655714299985461,0.7299987627796022,1.1487445842687414,-0.056992776691913605,-0.6668686866760254,-0.7429925799369812,0.004097190219908953,-0.4454739987850189,-0.13577260076999664,-0.4174487292766571,-0.18945449590682983,-0.20120608806610107
497,-0.0017932702906355332,0.6759762439257871,1.0583914022507197,-0.0013989232247695327,-0.625659167766571,-0.7800953388214111,-1.117998480796814,-0.08869950473308563,-0.7488456964492798,-0.16534912586212158,0.10905760526657104,0.10202527046203613
