,attitude.roll,attitude.pitch,attitude.yaw,gravity.x,gravity.y,gravity.z,rotationRate.x,rotationRate.y,rotationRate.z,userAcceleration.x,userAcceleration.y,userAcceleration.z
0,0.06980921862142543,0.5494301017587713,-2.311273401795135,0.0594865120947361,-0.5222012996673584,-0.8507450222969055,-0.1524292528629303,0.02654304727911949,-0.12823982536792755,-0.06108869984745979,-0.013214290142059326,0.024939417839050293
1,0.05416471284120527,0.5761561982914716,-2.3557685272650817,0.04539831727743149,-0.5448046922683716,-0.8373332023620605,0.6748231053352356,-0.1759423464536667,-0.3419642150402069,0.002972051501274109,-0.04516112804412842,-0.025047779083251953
2,0.024004871905707638,0.6696387222758645,-2.413141089827821,0.018819114193320274,-0.6207027435302734,-0.7838200330734253,0.4446277916431427,-0.6579017639160156,-0.11501999944448471,-0.007390275597572327,0.03188139200210571,0.09543502330780029
3,-0.03861419555395358,0.6441891471740162,-2.3904886969431116,-0.030867736786603928,-0.6005502939224243,-0.7989909648895264,-0.8623055815696716,0.1581977754831314,0.16092315316200256,-0.06404194235801697,-0.08734643459320068,0.04520678520202637
4,-0.02244407085610059,0.5695808585508387,-2.3687888164043276,-0.01889917254447937,-0.5392791032791138,-0.8419149518013,-0.1222560927271843,-0.5267001390457153,0.2071773260831833,-0.04213598370552063,-0.051129162311553955,-0.14168179035186768
5,-0.05923285879142568,0.5955586997324808,-2.372943640526231,-0.049006376415491104,-0.5609713792800903,-0.8263834118843079,0.2505151927471161,-0.5289589166641235,0.08087854087352753,-0.005513280630111694,-0.03175628185272217,0.10789281129837036
6,-0.09908359697719987,0.6060710201204114,-2.3541512349926115,-0.08130287379026413,-0.5696426630020142,-0.8178612589836121,-0.2849348187446594,-0.8075089454650879,0.45618289709091187,-0.0030476972460746765,-0.10252219438552856,-0.021829843521118164
7,-0.07662485302155614,0.6634041162402342,-2.3671415561689164,-0.06031369790434837,-0.615802526473999,-0.7855886220932007,3.7764906883239746,0.7705867886543274,-1.3842920064926147,-0.7188153266906738,-0.0457422137260437,-1.4187111854553223
8,0.6020600156795423,1.312398851272044,2.9115048426013765,0.14471811056137085,-0.9668006896972656,-0.2106015980243683,8.438743591308594,-5.8003621101379395,-3.850372076034546,0.46209341287612915,1.9027748107910156,1.0815885066986084
9,-0.28779560070605104,1.0391672231717115,-2.7480485572427353,-0.14388898015022278,-0.8619823455810547,-0.4860890209674835,-18.140583038330078,6.968304634094238,10.825218200683594,0.9112687110900879,2.654356002807617,1.8606464862823486
10,-0.2741074113595386,0.3027822005738191,-2.638459506780795,-0.2583743631839752,-0.29817700386047363,-0.918876051902771,3.429656982421875,2.6526248455047607,-0.5460837483406067,-0.18899807333946228,-0.10579943656921387,-2.695580005645752
11,0.022547835480207414,1.1893576322431316,-3.0599188971065456,0.00839285645633936,-0.928130030632019,-0.3721614181995392,11.698966026306152,-7.002776145935059,-5.6879119873046875,0.256652295589447,2.917830467224121,1.3466488122940063
12,-0.43659488789294415,1.1063071777855042,-2.7803020680646737,-0.1894252598285675,-0.8940505385398865,-0.40594545006752014,-4.6304521560668945,-1.7424092292785645,9.372727394104004,0.8111293315887451,2.9286117553710938,1.2368476390838623
13,-0.3344449185642773,0.10610600869370009,-2.667044069777288,-0.3263988494873047,-0.10590702295303345,-0.9392803311347961,7.192763805389404,-4.564032077789307,-2.0122435092926025,-0.9546680450439453,0.38378483057022095,-6.9837846755981445
14,-0.0453876658429495,0.905685985851791,-2.829472741468131,-0.028001200407743454,-0.7868486642837524,-0.6165104508399963,11.911171913146973,-0.15747734904289246,-4.446681499481201,-0.6862322092056274,1.9297930002212524,-0.08969682455062866
15,0.9635426910750619,0.9338676739058652,2.9495939229300414,0.48840251564979553,-0.8039261698722839,-0.3393610119819641,-5.427499771118164,-3.8988471031188965,-1.52546226978302,-0.34950169920921326,1.9523634910583496,3.3642635345458984
16,-0.3642370267194114,0.38871883206779395,-2.810492825081069,-0.3296595811843872,-0.3790031373500824,-0.864685595035553,1.330087423324585,-9.142305374145508,1.0853673219680786,-1.4480046033859253,-0.2814735472202301,-5.810668468475342
17,-0.31289264930001637,1.0927110399940478,-2.9839544405592306,-0.14161817729473114,-0.8878774642944336,-0.4377417266368866,13.371055603027344,-6.169824123382568,-5.163534641265869,-0.43676620721817017,1.879866600036621,-1.088320255279541
18,0.9552969078276653,1.3066948462445138,1.7815089121589252,0.21313698589801788,-0.9653274416923523,-0.1507169008255005,-7.428821563720703,-9.143888473510742,4.306098461151123,1.831525444984436,3.4147140979766846,2.962484359741211
19,-0.09355712162478362,-0.2540974340466785,2.768945817061517,-0.09042101353406906,0.25137192010879517,-0.9636577367782593,4.9702887535095215,0.5657196044921875,-5.565937042236328,-1.9288661479949951,2.892411708831787,-7.046046733856201
20,0.16487979745086112,0.569847383679224,2.669800234265742,0.1381978839635849,-0.5395035743713379,-0.8305644392967224,14.727314949035645,-1.6024972200393677,-2.7637579441070557,-1.862166404724121,1.645155429840088,-0.4700337052345276
21,0.36618187282962444,0.9997486609866997,2.1314226638864966,0.19353266060352325,-0.8413351774215698,-0.50467848777771,-9.818964004516602,-0.31139200925827026,1.9965159893035889,1.0240118503570557,2.3527638912200928,2.6633546352386475
22,0.17315967163965232,-0.46788234083422503,2.4085803860017996,0.15377821028232574,0.4509972333908081,-0.8791778683662415,3.8372652530670166,-1.7104347944259644,-3.4903388023376465,0.7038573026657104,3.2357397079467773,-7.146456718444824
23,0.3331655516610916,0.45021928258722826,2.256175095260476,0.29444754123687744,-0.4351629614830017,-0.8508430123329163,12.926689147949219,0.9582165479660034,0.9887533187866211,-1.0338884592056274,1.3715338706970215,-0.6545433402061462
24,0.9477322701456438,1.1324740394092314,1.1926804108310565,0.34466996788978577,-0.9054650068283081,-0.247660830616951,-3.6859781742095947,-3.465350866317749,0.7349756360054016,1.1239122152328491,1.508538007736206,2.919398546218872
25,0.025815546748083753,0.031015848393026624,2.098035063870503,0.02580026537179947,-0.03101087547838688,-0.9991859793663025,-18.81082534790039,0.7103365659713745,0.9625780582427979,-1.098386287689209,1.9000599384307861,-0.32437658309936523
26,0.11697953237976336,-0.08365421752412817,1.9013268999029689,0.11630477756261826,0.08355668187141418,-0.9896926283836365,7.7129950523376465,2.772623300552368,-0.5492644906044006,-0.028414152562618256,0.6354680061340332,-0.8639755845069885
27,0.29419370931348193,1.0308724424034859,1.5151564827563528,0.14906419813632965,-0.8577477931976318,-0.4919842481613159,15.482162475585938,-7.871460437774658,-1.4556492567062378,0.12068067491054535,2.226796865463257,0.7371472120285034
28,-0.08264266383636759,0.9735492026800556,1.559103666070247,-0.04642272740602493,-0.8268868923187256,-0.560448944568634,-16.962360382080078,2.312978982925415,5.415982246398926,0.9884698390960693,1.1338632106781006,1.9565060138702393
29,0.12174366822389215,-0.4223935974789082,1.721835476059902,0.11076955497264862,0.4099448621273041,-0.9053592085838318,9.972173690795898,-4.791835308074951,-1.989019751548767,0.4569337069988251,1.2557504177093506,-4.274480819702148
30,-0.014020407229695917,0.5745134178894087,1.612083695546801,-0.01176914107054472,-0.5434263944625854,-0.839374303817749,11.872050285339355,-3.2165019512176514,-1.4678025245666504,-0.4500686228275299,0.8327330350875854,0.07309317588806152
31,-0.09050683531566067,1.1706282726255202,1.3168876461593713,-0.03521091863512993,-0.9209955334663391,-0.3879787027835846,-11.513901710510254,2.100471019744873,2.680011510848999,1.3027737140655518,0.7341516613960266,2.114861488342285
32,0.20697181468883435,-0.4793660186539487,1.6585448087095904,0.18233518302440643,0.4612167477607727,-0.8683507442474365,-3.2457003593444824,0.4271964430809021,-1.7578314542770386,-0.3196185231208801,1.4602768421173096,-3.976177453994751
33,-0.020444596126544205,0.20550275221099282,1.5167564490431862,-0.02001301757991314,-0.20405936241149902,-0.978753924369812,11.046834945678711,-3.3056788444519043,-0.7928260564804077,-0.322897732257843,0.491412878036499,-0.661413311958313
34,-1.6939642073569894,1.4410451330706135,2.564398789512309,-0.12840788066387177,-0.991594135761261,0.01589619182050228,0.1690002679824829,-2.4231393337249756,0.7878628969192505,1.4723104238510132,0.4884966015815735,2.64924955368042
35,0.26040586865647386,-0.2405470034155104,1.427324864139086,0.2500595450401306,0.23823390901088715,-0.9384641051292419,-14.519099235534668,10.185003280639648,1.047143816947937,1.0633864402770996,2.114579916000366,-2.400631904602051
36,0.015101550527057148,0.46247284371131003,1.3869192753152388,0.01351464819163084,-0.44616255164146423,-0.8948498964309692,12.196897506713867,-4.227191925048828,0.28958702087402344,0.3507736921310425,0.7070572972297668,0.26928532123565674
37,-2.161220068513781,1.3795724806828482,3.040618817644969,-0.15788432955741882,-0.9817723631858826,0.10580926388502121,-1.8160480260849,0.46420466899871826,3.063267707824707,1.5450913906097412,0.10541433095932007,2.4667158126831055
38,-0.049073256500741076,-0.2044387869871627,1.5396534152059171,-0.04803202673792839,0.20301766693592072,-0.977996289730072,-13.721697807312012,8.166167259216309,3.003570079803467,0.2853214740753174,1.9449009895324707,-2.8005223274230957
39,-0.34792015973798446,0.649386256740505,1.5301792902211913,-0.27154603600502014,-0.6046977043151855,-0.7487345337867737,9.01533317565918,-0.30063095688819885,-2.8470795154571533,0.07423466444015503,0.6753764152526855,0.46881210803985596
40,-0.6263279494462851,1.336358200205058,1.5930369060540033,-0.13616634905338287,-0.9726450443267822,-0.1882035881280899,-7.0937371253967285,1.9374892711639404,1.4240505695343018,1.2117125988006592,0.33076876401901245,2.4937150478363037
41,-0.004787633244411421,-0.11457161297100096,1.3943061989613295,-0.004756226669996977,0.11432112008333206,-0.9934324622154236,-12.378140449523926,0.737809956073761,1.6711597442626953,0.10724951326847076,1.9151283502578735,-0.9817262291908264
42,-0.7056105053395961,0.936845791903793,1.5264062897727564,-0.3841267228126526,-0.8056937456130981,-0.45089271664619446,14.87129020690918,-2.2459850311279297,-5.724699974060059,0.427095502614975,1.4327385425567627,0.15555885434150696
43,-1.3311614030641157,1.1492569037993388,2.1113608869316605,-0.39747354388237,-0.9124601483345032,-0.09711463004350662,-15.561906814575195,7.214559078216553,4.909104824066162,0.8596012592315674,0.7462919354438782,1.9398423433303833
44,-0.3851918477080125,0.07301091121145578,1.4949679563550058,-0.37473592162132263,-0.07294606417417526,-0.9242574572563171,9.698798179626465,-9.104263305664062,-1.7652666568756104,-0.9002426862716675,0.9008879661560059,-3.481565237045288
45,-2.0722611753287743,0.8534275036648056,2.7878500776844457,-0.5764639377593994,-0.7535380721092224,0.31602102518081665,6.026853084564209,-3.5162081718444824,2.867438554763794,1.8778709173202515,0.652494490146637,1.311939001083374
46,-1.306718713902517,0.38066692343320213,1.9082315302747457,-0.8962323665618896,-0.37153974175453186,-0.2423344850540161,-4.221671104431152,-1.3254046440124512,3.630673408508301,-0.09700804948806763,0.7772098779678345,-0.6175593137741089
47,-1.4770169113781306,0.19737602817650776,2.0974389876873607,-0.9762757420539856,-0.1960969865322113,-0.09182391315698624,-1.306566834449768,1.1441683769226074,3.735521078109741,0.2351716160774231,0.2751375138759613,0.32905226945877075
48,-1.4044040795755641,-0.06546856040839719,2.012876951768426,-0.9840759634971619,0.06542180478572845,-0.16527068614959717,-1.5036441087722778,1.3594725131988525,2.8389735221862793,0.07729196548461914,0.18608883023262024,0.05772675573825836
49,-1.3552540110684081,-0.31563868202527934,1.9967797949296007,-0.9286020398139954,0.31042367219924927,-0.20331133902072906,0.050324324518442154,0.05972123518586159,1.5670400857925415,-0.3632681369781494,-0.23498421907424927,-0.13970625400543213
50,-1.3887394748201674,-0.5092648229933361,2.092689881034252,-0.858673632144928,0.4875355064868927,-0.15807777643203735,0.32408607006073,0.07571287453174591,1.6909139156341553,-0.39276063442230225,-0.038377851247787476,-0.015506193041801453
51,-1.3861199728180977,-0.5991404085064537,2.173002226870123,-0.8117782473564148,0.5639328360557556,-0.15164414048194885,0.7403907775878906,-0.08023824542760849,0.7976539731025696,-0.06494605541229248,0.42788851261138916,-0.04514850676059723
52,-1.3397461852435961,-0.6134120851313004,2.346697870564501,-0.7959597706794739,0.5756608247756958,-0.18725059926509857,0.8619926571846008,-0.6820562481880188,0.5291425585746765,0.3756869435310364,0.1888502836227417,0.21158838272094727
53,-1.3306570131914846,-0.7585366587750756,2.4346056507246305,-0.7050151824951172,0.6878600120544434,-0.172633096575737,1.3645689487457275,-0.7746380567550659,1.518394112586975,0.25504881143569946,0.12959909439086914,-0.23778259754180908
54,-1.0506625268323895,-0.9726252444484643,2.9029391610377133,-0.4886592626571655,0.8263669013977051,-0.2798744738101959,2.4303483963012695,-0.39252543449401855,2.7209584712982178,-0.2652164101600647,0.18106400966644287,-0.20933756232261658
55,-0.45141035369632,-0.9177806028893265,-2.658656434706189,-0.26504966616630554,0.7942550778388977,-0.5467244386672974,3.8550283908843994,-0.4190724790096283,2.347292900085449,-0.6033890843391418,0.265360951423645,-0.30395305156707764
56,-0.259991651183724,-0.6146116979341042,-2.441665468929066,-0.2100275605916977,0.576641321182251,-0.7895398736000061,1.977502465248108,0.39718714356422424,-1.9156975746154785,-1.1760503053665161,0.17406058311462402,0.6081281304359436
57,-0.45934496549444453,-0.5798055906517466,-3.028368990878206,-0.3709022104740143,0.5478613376617432,-0.7498530149459839,-4.065201759338379,1.1205226182937622,-5.2537617683410645,0.6681739091873169,0.40175414085388184,0.9462336897850037
58,-0.9519344242317301,-0.5054449578034016,2.5848610564871155,-0.7126884460449219,0.48419681191444397,-0.5075712203979492,-3.0396759510040283,0.33857178688049316,-5.400519847869873,-0.23170846700668335,-0.04655948281288147,-0.149014413356781
59,-1.2054037785246314,-0.3389521134482579,2.2578250872720385,-0.8808432817459106,0.3324989974498749,-0.3369859755039215,-1.0363819599151611,-2.7340898513793945,-1.5393785238265991,-0.31071555614471436,0.08617168664932251,-0.15626966953277588
60,-1.3556745187323647,-0.28608070581841316,2.18866911359587,-0.9372444152832031,0.2821944057941437,-0.20479056239128113,-1.0965083837509155,-0.5488382577896118,-1.3123364448547363,-0.1914939284324646,-0.052900612354278564,0.4566216468811035
61,-1.1661662422383192,-0.13508085764388325,1.945933260727611,-0.9108741879463196,0.1346704363822937,-0.39009252190589905,-0.16243885457515717,-0.9062377214431763,-1.1596485376358032,1.0342872142791748,0.5289801359176636,0.10942232608795166
62,-1.639316425492797,-0.18173669953052876,2.2055728329990183,-0.981223464012146,0.1807379424571991,0.06733894348144531,5.944628715515137,-8.22217082977295,6.5069451332092285,1.956519365310669,0.3748193383216858,0.1603527069091797
63,-1.8749771482126898,-0.8153128515606378,2.5623816028329762,-0.6541649699211121,0.7279401421546936,0.20535749197006226,5.52324914932251,-2.526766777038574,3.5773448944091797,-0.7145637273788452,0.43967771530151367,0.22712233662605286
64,-1.6748888337160976,-0.89023500701243,2.7867867256645664,-0.6258235573768616,0.7772196531295776,0.06537985056638718,-1.945479154586792,2.9124596118927,-2.4109535217285156,-0.8066868185997009,0.17173969745635986,0.24348855018615723
65,-1.630831286596708,-0.46866265218758024,2.4919311268236597,-0.890565812587738,0.4516935348510742,0.05352940782904625,-0.9162119030952454,0.15192300081253052,-0.5086392760276794,0.7520618438720703,0.9410524368286133,-0.26417696475982666
66,-1.7711334379123287,-0.7860688764270701,2.4799409413064444,-0.6924993991851807,0.7075808644294739,0.14061963558197021,2.7716572284698486,-1.6515650749206543,4.739544868469238,-0.16110777854919434,0.18273895978927612,-0.24326550960540771
67,-1.7637125255144304,-0.995547684787792,2.5649240788932497,-0.5339507460594177,0.8390570282936096,0.10430493205785751,0.5557538866996765,-0.22067247331142426,0.14511311054229736,-0.5423583984375,-0.26779866218566895,-0.3338276147842407
68,-1.933294099551797,-0.9965080896578914,2.3438128787352364,-0.5079349279403687,0.839579164981842,0.19263796508312225,-1.7886030673980713,1.5852208137512207,2.3154850006103516,-0.2732236385345459,-0.3985695242881775,-0.04957146942615509
69,-1.8113486332095474,-1.05682570476867,2.451739326370441,-0.47748279571533203,0.8707992434501648,0.11712756752967834,1.3429681062698364,-0.8698074817657471,-1.162270188331604,0.5034074783325195,-0.2524368166923523,0.22228896617889404
70,-1.888534451710108,-1.184684035190119,2.4715576723821835,-0.3577398359775543,0.9263801574707031,0.11765383929014206,1.0168997049331665,-2.4172463417053223,3.639195680618286,0.30491381883621216,0.395061731338501,0.0074224770069122314
71,-2.740738318944112,-1.3929162621447992,1.6864215231868647,-0.06904429942369461,0.9842210412025452,0.16291692852973938,0.17002838850021362,2.3423924446105957,2.9771363735198975,-0.4732835590839386,-0.24317795038223267,-0.182051420211792
72,2.6354171454080735,-1.1459264202378314,0.893444144979886,0.1998504400253296,0.9110923409461975,0.36051422357559204,-3.238748550415039,-1.1895722150802612,-0.47983691096305847,-0.3893951177597046,-0.5548912286758423,-0.13003018498420715
73,2.7658258118481354,-1.0587069600180836,0.8863331048273988,0.17982302606105804,0.8717226386070251,0.4558107256889343,-0.38833674788475037,0.6043503284454346,-0.5130707025527954,0.17646971344947815,1.078564167022705,-0.18484508991241455
74,2.828887156830098,-1.0460101520615364,0.9787155565500261,0.15413334965705872,0.8654310703277588,0.47673073410987854,0.5423778891563416,0.4652387499809265,-0.06817752867937088,0.27204465866088867,-0.381513774394989,0.2796780467033386
75,2.7097029594912967,-1.1137454593144414,1.0977892296615503,0.18472430109977722,0.8973578810691833,0.4007815718650818,0.6726841330528259,-3.3028557300567627,-2.490708827972412,0.4196763336658478,0.19923031330108643,0.7851467132568359
76,3.0555456820486677,-1.2762873585633903,1.7915674814980747,0.024946043267846107,0.9569447636604309,0.28919607400894165,2.381166458129883,-1.7349132299423218,-2.1009793281555176,-0.43853551149368286,0.2547861337661743,-0.2889366149902344
77,-2.99839024763387,-1.310158603459511,1.9785909007256264,-0.03677677363157272,0.9662258625030518,0.25505882501602173,-0.35419324040412903,0.2934699058532715,-0.22639870643615723,-0.4210174083709717,0.12920260429382324,-0.2182241678237915
78,3.0828270542576868,-1.2122391689330072,1.6244681784948343,0.020610375329852104,0.9364041090011597,0.35031795501708984,-2.908402919769287,4.382187366485596,1.4107292890548706,0.40059325098991394,0.04931366443634033,-0.18279170989990234
79,-3.0789370373106912,-1.1510128667404846,1.727181801639218,-0.02551940828561783,0.9131771922111511,0.4067632853984833,0.20926319062709808,1.6648943424224854,-0.30007320642471313,0.021628405898809433,0.005493521690368652,-0.0011846423149108887
80,-2.8498870618797136,-1.1848766309805816,1.9181927621926331,-0.10825059562921524,0.92645263671875,0.36050939559936523,1.2418111562728882,2.229841470718384,-0.4957798421382904,0.03192614018917084,0.23707568645477295,0.07064291834831238
81,-2.717660336696449,-1.2069895721164074,1.9575360093016039,-0.14637163281440735,0.9345490336418152,0.3243351876735687,-0.5572112202644348,3.345123052597046,0.4537009000778198,0.13099080324172974,0.037725627422332764,0.5236415266990662
82,-2.779897017465452,-1.2065198624365747,2.0176377402020664,-0.12607122957706451,0.9343817830085754,0.33322206139564514,-1.0354247093200684,-0.7125416994094849,0.7784311771392822,-0.12640072405338287,0.1801355481147766,0.3227379620075226
83,-2.940536655250352,-1.191225589607194,2.061270309337698,-0.0739947259426117,0.9288237690925598,0.3630579710006714,-0.23748673498630524,-0.5742111802101135,-0.35011860728263855,-0.1423291265964508,-0.05107724666595459,-0.07640638947486877
84,-2.7627797545780792,-1.2016672347706392,2.3341329584746764,-0.13343149423599243,0.9326419234275818,0.3352239429950714,0.6291722655296326,-0.9395245909690857,-1.095249891281128,0.015282690525054932,-0.11992830038070679,-0.2532689571380615
85,-2.452540055437217,-1.1141612738298463,2.574112128518984,-0.28034621477127075,0.8975412845611572,0.34033146500587463,0.25274476408958435,-1.0779772996902466,-1.8740793466567993,0.01496538519859314,-0.094135582447052,-0.24281266331672668
86,-2.3489402933559096,-1.008459021599815,2.8638086099985567,-0.37972933053970337,0.8460112810134888,0.3742596507072449,1.0102286338806152,-0.7893387079238892,0.07445703446865082,0.32083046436309814,-0.11709904670715332,-0.028556615114212036
87,-2.207917319972705,-1.0752958285855598,3.0678481372795945,-0.3821902275085449,0.8797308206558228,0.2828507423400879,0.9640233516693115,-3.0386645793914795,0.34371495246887207,-0.06240519881248474,0.1489558219909668,0.406159907579422
88,-2.3700668615575546,-1.1163433690124092,3.077973170982551,-0.30606356263160706,0.8985012769699097,0.3146752119064331,-1.3279911279678345,-1.8141013383865356,1.1231337785720825,-0.5491915345191956,0.49754053354263306,-0.6998223066329956
89,-2.6037271805009823,-1.0796936145152867,2.8239065179834775,-0.2416018545627594,0.8818133473396301,0.405010849237442,-0.6089720726013184,1.122711420059204,0.15079085528850555,-0.2247830182313919,-0.05049926042556763,-0.10940241813659668
90,-2.4518223617022077,-1.0561602936074381,3.026575300090199,-0.3132278323173523,0.8704719543457031,0.37969309091567993,0.6147760152816772,-0.05087042599916458,-1.1742281913757324,-0.23549345135688782,-0.3219948410987854,0.13989919424057007
91,-2.286536543505271,-1.0339446998464144,-2.960089938973461,-0.3859313726425171,0.8593231439590454,0.3355902135372162,1.0913338661193848,-1.3790438175201416,-1.8095632791519165,-0.10762941837310791,-0.03421938419342041,0.10195553302764893
92,-2.1377060443322495,-0.9688656374909076,-2.7282327260527373,-0.47765567898750305,0.8242439031600952,0.30408385396003723,0.6943301558494568,-0.8305073976516724,0.045563798397779465,0.4751075208187103,-0.3461098074913025,-0.12898924946784973
93,-2.248447397877423,-1.051864080815822,-2.752896518353644,-0.38637104630470276,0.8683492541313171,0.3109451234340668,0.644092857837677,-1.488204836845398,1.17754065990448,-0.08797889947891235,-0.018511056900024414,0.07006677985191345
94,-2.2387750720753523,-1.1823429346031833,-2.852278597411358,-0.29735299944877625,0.925495982170105,0.2346024364233017,0.7666260004043579,6.303070545196533,1.187353253364563,0.19466137886047363,0.5587111115455627,0.024857982993125916
95,-2.072046265253701,-1.2293851845242547,-2.946688702890785,-0.29362910985946655,0.9422831535339355,0.16088718175888062,1.5684809684753418,3.0720903873443604,0.7222495079040527,-0.20688971877098083,-0.21376734972000122,-0.0752396434545517
96,-1.6505742216475208,-1.2421222503669909,-2.670889449702304,-0.32176199555397034,0.9464711546897888,0.02572409249842167,0.7533569931983948,-3.9496500492095947,-0.39896512031555176,0.09399405121803284,-0.3040303587913513,-0.06371843814849854
97,-1.8071453547741014,-1.2536710016615422,-2.733255511025237,-0.303167462348938,0.9501357674598694,0.07301804423332214,0.34937337040901184,-0.0066720726899802685,0.17784535884857178,0.3262387216091156,-0.14346462488174438,-0.13205432891845703
98,-1.766910472333916,-1.2669912004245727,-2.6261695867376016,-0.2934190630912781,0.9542050957679749,0.05829288437962532,0.50008225440979,-0.9036542177200317,-0.09812262654304504,-0.006934940814971924,0.2600588798522949,-0.14203310012817383
99,-2.184738261892889,-1.1687557782632894,-2.7698937043470657,-0.3198396563529968,0.9202644228935242,0.22542382776737213,0.2480824589729309,-0.6858935356140137,-0.3014282286167145,-0.022888004779815674,0.38475877046585083,0.689569354057312
100,-1.860518251062912,-1.222773084628131,-2.623301777452644,-0.32682666182518005,0.9400486946105957,0.0974302887916565,-0.4942551851272583,-0.19233499467372894,-0.08865106850862503,-0.15449652075767517,-0.21467643976211548,-0.23082256317138672
101,-1.8143188159444266,-1.1872617821647786,-2.5766694867168694,-0.3631595969200134,0.9273477792739868,0.09022822976112366,-0.4323296546936035,-0.7618725299835205,-1.1783703565597534,-0.15943863987922668,-0.2116190791130066,0.09753119200468063
102,-2.000403607337506,-1.1422731456989208,-2.7596671271970146,-0.37776872515678406,0.909580409526825,0.1730731576681137,-1.1776063442230225,0.48693934082984924,0.5392318964004517,0.18880391120910645,-0.18993008136749268,-0.1150287389755249
103,-2.051314720042415,-1.1447954734763743,-2.8623728853843877,-0.3664359450340271,0.9106255769729614,0.19101202487945557,-0.9206819534301758,1.6490850448608398,0.8968619704246521,0.1412772834300995,-0.3752710223197937,0.23794303834438324
104,-2.0564682000421626,-1.162624517850887,-2.8307370782016226,-0.35103166103363037,0.9178480505943298,0.18528904020786285,1.610298991203308,-1.8638548851013184,-0.6786150336265564,-0.2206236720085144,0.10801571607589722,0.12597502768039703
105,-1.8997886458476754,-1.0960854387616619,-2.6116663373632725,-0.4325673580169678,0.8894249200820923,0.1476782113313675,-0.343921959400177,0.00706171989440918,-1.4638686180114746,-0.22658181190490723,0.38845294713974,0.310314416885376
106,-2.0390659068424584,-0.9689799086196405,-2.7601675171139823,-0.5051959753036499,0.8243086338043213,0.25552353262901306,-0.49931618571281433,-0.253633975982666,-0.7427658438682556,0.07555431127548218,0.025514304637908936,-0.4928586781024933
107,-2.077658312597848,-0.9571372876339732,-2.733088841086928,-0.5034605860710144,0.8175463676452637,0.27954450249671936,0.21326664090156555,0.7299383282661438,0.42650651931762695,0.3720061779022217,-0.2834888696670532,-0.008441627025604248
108,-2.0275618883377464,-1.0137088783576615,-2.7582558514082347,-0.4745140075683594,0.8487986326217651,0.2331889122724533,-0.39786002039909363,0.013833347707986832,0.7243956327438354,-0.027194887399673462,-0.08273124694824219,0.07572528719902039
109,-1.9038189770516933,-1.0446471285563044,-2.7800322783946783,-0.4746151268482208,0.8647474050521851,0.16417205333709717,0.9300660490989685,0.4011100232601166,-0.381692498922348,-0.0491274893283844,0.09626638889312744,-0.19021882116794586
110,-1.9028938365146117,-1.0219455464336902,-2.6541688398662804,-0.4932014048099518,0.8531246185302734,0.1700904369354248,-0.942207932472229,-1.7373569011688232,-0.44686758518218994,-0.0810631513595581,0.16120338439941406,0.8669883012771606
111,-1.734148747580616,-1.00252313258412,-2.5229892148866284,-0.5310130715370178,0.842831552028656,0.08752213418483734,0.9922865033149719,0.8063168525695801,0.14134006202220917,-0.3953022360801697,0.124270498752594,-0.698957085609436
112,-1.736788858607542,-1.0023606404240109,-2.4778707659693366,-0.5309152007102966,0.8427441120147705,0.0889463946223259,-0.20527252554893494,1.005534291267395,0.07814181596040726,0.05615323781967163,-0.163834810256958,0.0005464553833007812
113,-1.8004765794211672,-0.9535952411252354,-2.708540953545869,-0.5635565519332886,0.8155015110969543,0.13176296651363373,-0.8649610877037048,1.301329493522644,-0.279378741979599,0.1928442120552063,-0.005335986614227295,-0.2684054374694824
114,-1.7295215654495402,-0.9392966379701897,-2.6644105237505955,-0.5829349756240845,0.8071430921554565,0.09331142902374268,1.1828467845916748,-0.7119511365890503,-0.22251076996326447,0.14825785160064697,-0.10102736949920654,0.08083713054656982
115,-1.6158196601960242,-0.9466868553587222,-2.547457522722229,-0.5837827324867249,0.8114838600158691,0.026301618665456772,0.5506431460380554,1.2734440565109253,0.13121837377548218,-0.08443021774291992,-0.15799570083618164,0.06876063346862793
116,-1.4731371554042743,-0.9093912469611248,-2.4974266193094405,-0.611299455165863,0.7891299724578857,-0.05988951399922371,-0.4101194441318512,0.5110544562339783,-1.3200256824493408,-0.5310344696044922,-0.03177523612976074,0.4278857111930847
117,-1.7053604540673486,-0.8832321152130819,-2.7407716945333607,-0.6289193034172058,0.7727941870689392,0.0851445123553276,-1.9114203453063965,-0.7556846737861633,0.23806579411029816,-0.1395743489265442,0.2332330346107483,-0.30365025997161865
118,-1.8649721370926038,-0.850109165538227,-2.8323317987138306,-0.6315528154373169,0.7513524293899536,0.1913391351699829,0.6619997024536133,-0.7732540369033813,-0.4124056398868561,0.1633063554763794,0.1659296751022339,-0.3349548578262329
119,-1.9300302520753667,-0.8616739840709322,-2.8207427535773792,-0.6096014380455017,0.7589336633682251,0.22892270982265472,-0.3388974666595459,-1.1124399900436401,0.2807018458843231,0.022824764251708984,-0.27204108238220215,-0.0692853033542633
120,-1.9497415106279172,-0.8788778234740501,-2.837893095468179,-0.5927519798278809,0.7700234055519104,0.23602800071239471,0.250266969203949,0.4828762412071228,0.3345898985862732,0.17798757553100586,-0.16928476095199585,-0.1110433042049408
121,-1.9397145996591003,-0.8661352224561709,-2.812651624970593,-0.6041921377182007,0.7618311047554016,0.23359228670597076,0.23138989508152008,-0.6133284568786621,-0.4440295696258545,0.031926512718200684,0.014627575874328613,0.30185389518737793
122,-1.9811650490789297,-0.841667064587062,-2.7867255321711184,-0.6109069585800171,0.7457547783851624,0.2657870650291443,-0.24430130422115326,0.6325466632843018,-0.06146984547376633,-0.021142661571502686,0.14380216598510742,0.3735410273075104
123,-1.7954333684896129,-0.8818035122421729,-2.724828040169076,-0.6197863817214966,0.7718867063522339,0.14161711931228638,0.7967138290405273,-0.34186798334121704,0.3025366961956024,-0.10271716117858887,-0.09354209899902344,-0.11085547506809235
124,-1.7587449973028926,-0.8861263076318229,-2.7159774149682017,-0.6212805509567261,0.7746277451515198,0.11816350370645523,-0.022702325135469437,0.28658321499824524,-0.14697718620300293,0.0784032940864563,-0.085784912109375,-0.13828979432582855
125,-1.729053850356369,-0.8870286596277684,-2.714114853316948,-0.6238239407539368,0.7751981019973755,0.09955737739801407,0.07418856769800186,0.433234304189682,0.08441577851772308,0.07552993297576904,-0.12000095844268799,-0.03087759017944336
126,-1.6956113086635374,-0.9022170957585641,-2.6923759965371192,-0.6150496006011963,0.7847031354904175,0.0771685540676117,-0.06873869895935059,0.3086954951286316,0.15522222220897675,0.02255082130432129,-0.24864661693572998,0.15455150604248047
127,-1.6795222315740017,-0.9300959108517552,-2.7174665634366626,-0.5942272543907166,0.8016772866249084,0.06486368924379349,0.04930580407381058,-0.5656324028968811,0.3230670988559723,-0.05019712448120117,0.005436301231384277,0.06761310994625092
128,-1.6471374219494994,-0.9240539884779739,-2.6755547892348783,-0.6008347272872925,0.7980510592460632,0.045957691967487335,0.24563905596733093,-0.3216632306575775,-0.5823702812194824,-0.5346174836158752,0.237471342086792,0.16589534282684326
129,-1.8052515734228607,-0.9364095833618029,-2.730455887379956,-0.5764684677124023,0.805435299873352,0.13768823444843292,-0.6851430535316467,-1.3865954875946045,0.16220338642597198,0.033423423767089844,0.04634082317352295,-0.1904226541519165
130,-1.9882546241371049,-0.9312282199592631,-2.847240356490868,-0.5455928444862366,0.8023536205291748,0.24198538064956665,-0.4365038573741913,-0.38829153776168823,0.03264198079705238,0.013503670692443848,-0.12695395946502686,-0.34093859791755676
131,-2.174365951594923,-0.9540165597976425,-2.8783176674358977,-0.4762144386768341,0.8157452940940857,0.32829749584198,0.0924566313624382,-2.300060272216797,-0.20578113198280334,-0.08187571167945862,-0.25194835662841797,-0.08562174439430237
132,-2.2166261632116924,-0.9607436864412182,-2.8635093336046267,-0.45752695202827454,0.8196178674697876,0.34481289982795715,0.4764094650745392,-0.4009719789028168,-0.33732396364212036,0.08611270785331726,-0.05753278732299805,-0.16184470057487488
133,-2.2274953021695305,-0.9960558573661946,-2.789240301728701,-0.4305512607097626,0.8393334150314331,0.33188140392303467,-0.061328280717134476,-1.6837137937545776,-0.07316768169403076,0.08765566349029541,0.049002885818481445,0.4659091532230377
134,-2.1762547899098075,-0.9632448899542333,-2.8327897289918007,-0.46938344836235046,0.8210482597351074,0.3248979151248932,-0.2507459819316864,2.2239954471588135,0.20538976788520813,-0.2791821360588074,0.254146933555603,-0.3575669825077057
135,-2.1128495067450177,-0.9629909073786468,-2.8692113289768795,-0.4892056882381439,0.8209032416343689,0.294611394405365,0.41767051815986633,0.8848623633384705,-0.31418323516845703,-0.04163241386413574,0.07829731702804565,-0.19066855311393738
136,-1.922319106440087,-0.9586196081652888,-2.812250864677039,-0.5395102500915527,0.8183991312980652,0.19786815345287323,-0.04594550281763077,1.730879545211792,-0.18582502007484436,0.11546850204467773,-0.2747589349746704,-0.03943610191345215
137,-1.7855187166809487,-0.9442802787010915,-2.8135345034195707,-0.5728614926338196,0.8100751638412476,0.12493214011192322,-0.02004115656018257,1.3498767614364624,-0.05857241526246071,0.02731400728225708,-0.05639773607254028,0.029440999031066895
138,-1.7093280119290701,-0.9432831702479952,-2.8040925410544006,-0.5815087556838989,0.8094901442527771,0.08107670396566391,0.5199072957038879,0.13456010818481445,0.008302596397697926,0.033992886543273926,-0.06846225261688232,-0.06867122650146484
139,-1.6584238234631656,-0.9026806232567791,-2.712078823470364,-0.6171311736106873,0.7849903702735901,0.054216500371694565,0.06062375381588936,0.5481196045875549,-0.5203801393508911,-0.34714800119400024,0.016172409057617188,0.28617656230926514
140,-1.645553135609654,-0.8359965780840298,-2.711522547351699,-0.6685662269592285,0.7419649958610535,0.05007319152355194,-0.7990878224372864,-0.3122435510158539,-0.41889047622680664,-0.06684643030166626,0.2822965383529663,0.1717437505722046
141,-1.7969858981133697,-0.7058424384806896,-2.7960799622461883,-0.7416795492172241,0.6486752033233643,0.1706809401512146,-0.6398685574531555,-1.403006911277771,-2.1111550331115723,0.16150987148284912,0.13419222831726074,-0.3540611267089844
142,-1.9387313508435489,-0.4106188549228374,-2.8029047123898225,-0.8555096387863159,0.39917680621147156,0.3297899067401886,-0.18781284987926483,0.11583099514245987,-3.6180503368377686,0.17888903617858887,-0.04897227883338928,-0.15181145071983337
143,-2.0122281776592015,-0.242590632071466,-2.742219813167416,-0.8776665329933167,0.24021820724010468,0.41472455859184265,-0.730008602142334,-2.3139655590057373,-1.0682756900787354,-0.013660252094268799,-0.06616124510765076,-0.26691263914108276
144,-2.0592736947142343,-0.18590300682222818,-2.723285846175408,-0.8678333163261414,0.1848340630531311,0.46119606494903564,1.8427101373672485,2.8287601470947266,0.10573145002126694,0.30997198820114136,0.03846307098865509,-0.033904194831848145
145,-1.968821345046161,-0.22652823323761528,-2.581544644793332,-0.8982774615287781,0.2245958149433136,0.37769615650177,0.3216743767261505,-1.2633287906646729,-0.013319076038897038,-0.009284794330596924,-9.326636791229248e-05,0.4407700300216675
146,-1.9113774049008965,-0.2922982792373661,-2.547652405569252,-0.9025813341140747,0.2881537675857544,0.31986650824546814,1.9081974029541016,3.5896966457366943,1.0038994550704956,-0.6122503280639648,-0.086981862783432,-0.38682207465171814
147,-1.6571982551386406,-0.31676072549871037,-2.4665196518217045,-0.9467045664787292,0.31149008870124817,0.08200125396251678,-0.2876470386981964,-0.004403907340019941,-0.6957569718360901,0.0396154522895813,-0.18214133381843567,0.2532649040222168
148,-1.6369272070761791,-0.19503075596199027,-2.537253680617967,-0.9788974523544312,0.19379670917987823,0.06482988595962524,-1.80384361743927,0.789562463760376,-1.8147495985031128,0.1658480167388916,-0.01853424310684204,0.20436561107635498
149,-1.6261313600763823,-0.0026277382357041737,-2.6984057934504544,-0.9984660148620605,0.002627735259011388,0.055306609719991684,-1.3378010988235474,-1.1850425004959106,-0.8928604125976562,0.17658185958862305,0.26403486728668213,-0.030861973762512207
150,-1.6646490314593536,0.05476686973637847,-2.7277792250112363,-0.9941064119338989,-0.05473949760198593,0.09357447922229767,-0.4535331726074219,-0.1389896720647812,0.10992370545864105,0.21468746662139893,-0.13257740437984467,0.2154923677444458
151,-1.6721637543978243,0.08474707130625765,-2.681375374188431,-0.9912964701652527,-0.08464566618204117,0.10083077102899551,0.11496046930551529,-0.8459439277648926,-0.2754465639591217,-0.3126435875892639,-0.06884250789880753,0.26007023453712463
152,-1.7810597670268293,0.15507198509263828,-2.6554489154649543,-0.966240644454956,-0.15445122122764587,0.20621301233768463,0.03963494300842285,-1.7762550115585327,-0.9260122179985046,-0.15741652250289917,-0.14445318281650543,-0.41826438903808594
153,-1.8972331880860847,0.22206274014105654,-2.6365697944737674,-0.9239327907562256,-0.2202421873807907,0.31279608607292175,0.23184078931808472,-0.8480589985847473,0.12227562814950943,0.5126474499702454,0.2346159964799881,-0.20549634099006653
154,-1.9027066496582392,0.15681466485552967,-2.6754847336945002,-0.9338212609291077,-0.1561727523803711,0.3218514919281006,-0.04086047783493996,0.0894540473818779,1.080883264541626,0.07536154985427856,-0.1407938301563263,-0.19659200310707092
155,-1.7826163960186066,0.07578637998334532,-2.7546811009084022,-0.9748436212539673,-0.07571385055780411,0.2096361666917801,-0.0412781685590744,1.3106130361557007,-0.11506706476211548,-0.09511792659759521,-0.0649264007806778,-0.014613628387451172
156,-1.7871545401862265,0.08144128599986296,-2.657002607459422,-0.9734483957290649,-0.08135128766298294,0.2139626145362854,1.8486074209213257,-1.3608639240264893,-0.21514487266540527,-0.1287243366241455,-0.017388321459293365,0.8901633024215698
157,-1.7355340991376493,0.1039640704274447,-2.6813787718367186,-0.9811350703239441,-0.10377688705921173,0.16310818493366241,0.2957426905632019,-0.3354805111885071,0.4051912724971771,-0.1974690556526184,-0.26766782999038696,-0.7390512228012085
158,-1.7797262002576235,0.15141112378572819,-2.636290981330945,-0.9670612812042236,-0.15083326399326324,0.20504017174243927,-0.41492706537246704,-0.004581565037369728,-1.3649389743804932,0.002583920955657959,-0.05200178921222687,0.20949527621269226
159,-1.735167156312735,0.27976686594110306,-2.6928462558857817,-0.9481654763221741,-0.27613160014152527,0.1572696566581726,-0.5787779688835144,0.11583701521158218,0.036181431263685226,0.3889918923377991,0.13367554545402527,0.11035418510437012
160,-1.6961874304914748,0.2892970646784875,-2.7347418831118953,-0.9509198069572449,-0.2852785587310791,0.11986576020717621,-0.6072019338607788,1.3660056591033936,-0.1587245613336563,0.18875855207443237,-0.0370175838470459,0.17874884605407715
161,-1.5511471334768896,0.2581228220158426,-2.789248188640314,-0.9666842222213745,-0.255266010761261,-0.018997009843587875,-0.8450820446014404,1.286495566368103,0.769671618938446,0.185113787651062,-0.141004741191864,0.3965452313423157
162,-1.4566994935104305,0.22168895698933358,-2.8124433080320315,-0.9691846370697021,-0.21987755596637726,-0.11106325685977936,-0.3523407578468323,0.5392542481422424,-0.002249998040497303,-0.03833794593811035,-0.33758702874183655,0.49541687965393066
163,-1.502603382405092,0.2033594036625698,-2.902979323577779,-0.9771173596382141,-0.20196063816547394,-0.06673599034547806,-1.4678233861923218,0.15081672370433807,-0.10428742319345474,-0.4867803454399109,0.11338336765766144,-0.54115891456604
164,-1.5081432326837774,0.1919256229459194,-2.925302966151032,-0.979712724685669,-0.19074951112270355,-0.06146247684955597,-0.06682054698467255,0.27270975708961487,0.17196418344974518,-0.060463666915893555,-0.03967346251010895,-0.12059015035629272
165,-1.5244659174784154,0.11695723201907099,-2.8820282098199024,-0.9921026229858398,-0.11669076979160309,-0.045997437089681625,-0.6548054814338684,-0.35284510254859924,-0.10305551439523697,0.28922176361083984,0.10224069654941559,0.23340588808059692
166,-1.5324930891767052,0.15575407448205486,-2.8288271607337054,-0.9871702194213867,-0.15512509644031525,-0.03783031553030014,0.6903731822967529,0.6613585948944092,-0.22509285807609558,0.23753643035888672,0.14258237183094025,0.07130807638168335
167,-1.5544080091132582,0.14817743961232618,-2.740226215575636,-0.988909125328064,-0.1476357877254486,-0.01620800793170929,1.8864681720733643,0.375519722700119,0.4331285357475281,-0.21931242942810059,-0.3494955897331238,0.6365998983383179
168,-1.4715261374815616,0.19200778934076582,-2.737651641249324,-0.9767903089523315,-0.19083017110824585,-0.09728594124317169,-1.2030491828918457,0.6321927309036255,-0.13949120044708252,-0.15986740589141846,0.008304551243782043,-0.6550334095954895
169,-1.4386995654498,0.17780376511159598,-2.745131205486075,-0.9756596684455872,-0.17686839401721954,-0.12963639199733734,-0.43883487582206726,0.5459116697311401,0.1605299413204193,-0.05143982172012329,0.07789988815784454,-0.02137981355190277
170,-1.4165180795049395,0.18766104461937977,-2.807229470066363,-0.9707746505737305,-0.18656150996685028,-0.15096908807754517,-0.7378990650177002,0.7083802223205566,-0.30415865778923035,0.29113274812698364,-0.11946877837181091,0.013624921441078186
171,-1.4236255803313347,0.21283773506846432,-2.880805843094028,-0.9668692946434021,-0.211234450340271,-0.14333118498325348,-0.7751796841621399,-0.1216040626168251,-0.30724790692329407,0.2225303053855896,-0.024803757667541504,0.008031487464904785
172,-1.4150490313020962,0.23028871193115175,-2.936516855631881,-0.961816132068634,-0.2282586246728897,-0.15102337300777435,0.09868039935827255,-0.14243409037590027,-0.3496032953262329,-0.06403237581253052,-0.04328681528568268,0.07819317281246185
173,-1.39562663676494,0.2683587075884496,-2.955149971891749,-0.9494521617889404,-0.26514923572540283,-0.16803747415542603,-0.2947096526622772,0.38726702332496643,-0.49383166432380676,-0.29525303840637207,-0.3089931905269623,-0.02884666621685028
174,-1.4352411079172647,0.3042446928121392,-2.976321865927884,-0.9453213214874268,-0.2995726466178894,-0.12893393635749817,-0.3652764558792114,-1.085744857788086,-0.5035693645477295,-0.24889254570007324,-0.005328476428985596,-0.2897062301635742
175,-1.529352711165941,0.2800215096284446,-2.9887473331473586,-0.9602242112159729,-0.27637630701065063,-0.03981796279549599,0.13528452813625336,-0.6446989178657532,0.5521454811096191,0.047870755195617676,0.2301422357559204,-0.1500929594039917
176,-1.5551827764351756,0.21449537362942298,-2.9771622390236043,-0.9769647717475891,-0.21285440027713776,-0.015255128033459187,0.2113591432571411,-0.0810660794377327,0.42468440532684326,0.38968461751937866,-0.01315876841545105,-0.12509524822235107
177,-1.5598124302263074,0.18063819548217386,-3.00233249382443,-0.9836698770523071,-0.17965741455554962,-0.010804963298141956,-0.6150065660476685,0.37597495317459106,0.07776398211717606,0.23135054111480713,0.02177472412586212,-0.025327861309051514
178,-1.5229437515796134,0.18051371185419218,-3.004719676043457,-0.9826253652572632,-0.17953495681285858,-0.047057077288627625,0.43385225534439087,-0.7888331413269043,-0.019744794815778732,-0.08791589736938477,-0.03137199580669403,0.4155721068382263
179,-1.6285379046000308,0.19468051800601602,-2.932456539994769,-0.9794745445251465,-0.1934531033039093,0.056619346141815186,-0.728874683380127,2.9573466777801514,-0.36716580390930176,-0.21487677097320557,0.06599640846252441,0.2770293951034546
180,-1.558229627764725,0.17266436918408512,-2.986715579989279,-0.9850528836250305,-0.17180770635604858,-0.01237951498478651,0.13025496900081635,0.011025259271264076,0.1327127367258072,-0.19826632738113403,-0.10028703510761261,-0.39936363697052
181,-1.5296757255871545,0.17598034483067568,-2.977768385838661,-0.9837230443954468,-0.17507342994213104,-0.040474098175764084,-0.08823391050100327,-0.18634778261184692,-0.25090768933296204,0.29710811376571655,-0.012197688221931458,0.1258774995803833
182,-1.513764585931288,0.1817124225830015,-3.002096493807261,-0.981936514377594,-0.18071407079696655,-0.05606234446167946,-0.4690558910369873,0.206734761595726,-0.06397651135921478,0.22789299488067627,-0.06867557764053345,-0.10240018367767334
183,-1.4710137064791344,0.18086021388341791,-3.036818538812208,-0.9787963628768921,-0.17987582087516785,-0.09799230098724365,-0.16671910881996155,0.6977775692939758,0.25877219438552856,0.21488028764724731,0.05313631892204285,0.12219274044036865
184,-1.4096983892396975,0.1439130030614622,-3.021937303702397,-0.9768480062484741,-0.14341674745082855,-0.15874384343624115,-0.33282825350761414,0.7543259263038635,-0.006111694499850273,-0.18013441562652588,-0.34965574741363525,0.21648307144641876
185,-1.4254429187663105,0.14652767587108012,-3.054333660187137,-0.978851854801178,-0.14600390195846558,-0.14328999817371368,-0.45537927746772766,-1.462530493736267,0.04885717108845711,-0.3671411871910095,-0.10636121034622192,0.06937646865844727
186,-1.5290225653752412,0.15502084758077622,-3.100746784372475,-0.9871464967727661,-0.15440069139003754,-0.04126082360744476,0.03762336075305939,-0.343299001455307,0.15781275928020477,-0.0013637542724609375,0.19871221482753754,-0.36237990856170654
187,-1.538081601747111,0.1567541608463491,-3.1291528305470715,-0.987210750579834,-0.15611299872398376,-0.032307855784893036,0.043741773813962936,-0.9284798502922058,0.00636038463562727,0.3244757056236267,0.02189667522907257,-0.13291430473327637
188,-1.584193340383462,0.15621128804072013,-3.1371076700079152,-0.9877350926399231,-0.15557675063610077,0.013233492150902748,0.07479146122932434,0.10346072912216187,0.09422967582941055,0.25383317470550537,0.08811765909194946,-0.12140309810638428
189,-1.5860696057203967,0.13582560693017867,-3.0913733623729764,-0.9906743168830872,-0.13540835678577423,0.015132022090256214,0.41016921401023865,-0.05475671589374542,0.003697679378092289,-0.09704840183258057,-0.002836272120475769,0.41322803497314453
190,-1.7034519738357654,0.1644319044679136,-3.054919440767953,-0.97784423828125,-0.1636919230222702,0.13048285245895386,0.04394810274243355,0.13025951385498047,-0.46495598554611206,-0.0880279541015625,-0.2429090291261673,0.4987133741378784
191,-1.5404604495591687,0.13189248139122828,-3.0578287132054123,-0.9908586144447327,-0.1315104216337204,-0.030067790299654007,0.2572104334831238,0.07225209474563599,0.3317951261997223,-0.28122079372406006,-0.022588074207305908,-0.4109417200088501
192,-1.4841244553131172,0.13922988869758965,-3.04397131443574,-0.9866059422492981,-0.13878048956394196,-0.08572574704885483,0.18075641989707947,0.7433266043663025,-0.12656952440738678,0.08497929573059082,-0.0007611513137817383,0.03611939400434494
193,-1.45449958361045,0.1491015573496066,-3.055700567440596,-0.9822251200675964,-0.14854972064495087,-0.11474736779928207,-0.31938037276268005,-0.055478356778621674,-0.12342815846204758,0.3324294686317444,-0.018610328435897827,0.016541823744773865
194,-1.42609931577278,0.16157864013872983,-3.1183591034726574,-0.9766603708267212,-0.16087648272514343,-0.14231444895267487,-0.5934230089187622,0.32283690571784973,-0.08643674105405807,0.2695375680923462,0.10246583819389343,-0.005878925323486328
195,-1.3861360676839194,0.13562954571248326,-3.1091605080329536,-0.9739713072776794,-0.13521410524845123,-0.18192636966705322,0.4032890796661377,0.5135637521743774,0.41292619705200195,-0.15404999256134033,-0.17559218406677246,0.21113167703151703
196,-1.3708708719375589,0.1365851013329423,-3.1031530661506235,-0.9709537029266357,-0.13616082072257996,-0.19674670696258545,0.03628396987915039,-0.9486156105995178,0.17708589136600494,-0.41120272874832153,-0.04950813949108124,0.11553940176963806
197,-1.4804424497852182,0.140223540545621,3.1336368537818,-0.9861458539962769,-0.1397644579410553,-0.08934536576271057,-0.5460748672485352,-0.7657381296157837,-0.2591266930103302,-0.014861345291137695,0.1964813619852066,-0.3653055429458618
198,-1.4953833892308932,0.15216677135150875,3.1020837359416116,-0.9856355786323547,-0.15158021450042725,-0.07447090744972229,-0.06615190207958221,0.14618869125843048,0.0071066003292799,0.28061848878860474,0.13702334463596344,-0.08686023950576782
199,-1.5105790632333767,0.14030932645770913,3.1221063559284143,-0.98837810754776,-0.13984940946102142,-0.05958946794271469,-0.4083532392978668,0.511850893497467,0.0015613017603754997,0.341008722782135,0.03169511258602142,-0.0437735915184021
200,-1.4592226966914335,0.13470609901469627,-3.1390398178917596,-0.9847792983055115,-0.13429908454418182,-0.11033362150192261,0.7631950974464417,0.5328088998794556,0.11041181534528732,0.045402467250823975,0.10544469952583313,0.1816074252128601
201,-1.7045264658434585,0.12584419472953698,-2.9791626064511756,-0.9832341074943542,-0.12551230192184448,0.13227751851081848,-0.6609858274459839,0.6533251404762268,-0.4095848500728607,-0.29607802629470825,-0.07883340120315552,0.7522896528244019
202,-1.58150297732086,0.08696583386802625,-3.01974103032173,-0.9961637854576111,-0.08685625344514847,0.010665984824299812,0.43867790699005127,0.29463931918144226,0.06798364222049713,-0.22057205438613892,-0.10540448874235153,-0.32324230670928955
203,-1.50409852951251,0.08672429433779025,-2.9886740692295937,-0.9940266609191895,-0.08661562204360962,-0.06639787554740906,0.13507816195487976,0.5155393481254578,-0.1712140142917633,0.18160301446914673,-0.20487302541732788,0.06558913737535477
204,-1.4707289144056037,0.11725935288246693,-3.0271754696036663,-0.9881649017333984,-0.1169908195734024,-0.09921448677778244,-0.7918554544448853,0.06770621240139008,-0.30025073885917664,0.4232538938522339,0.11792159825563431,0.08877746760845184
205,-1.4446840665028318,0.12799918078448955,-3.1239487360686393,-0.9839426279067993,-0.1276499480009079,-0.12474928051233292,-0.5860168933868408,0.3069148659706116,0.1535256952047348,0.18247473239898682,0.0354105681180954,0.04601395130157471
206,-1.427344104289419,0.1004269072615671,-3.119413710839614,-0.9847414493560791,-0.10025817900896072,-0.14224039018154144,0.24222350120544434,0.4071888029575348,0.224805548787117,-0.22651636600494385,-0.22981992363929749,0.08369238674640656
207,-1.4814506776202514,0.10199847586056188,3.1282367293548003,-0.9908347725868225,-0.10182170569896698,-0.08876309543848038,-1.2993253469467163,-1.656296968460083,-0.06725891679525375,-0.5747932195663452,0.01730327308177948,-0.42220795154571533
208,-1.496568411301975,0.10366738841333174,3.0786295404975172,-0.9918925762176514,-0.10348180681467056,-0.07376164197921753,0.24107570946216583,0.3272780776023865,0.19964906573295593,0.021387696266174316,-0.06167934834957123,-0.18975764513015747
209,-1.5594543251495356,0.10403600511561857,3.108338351194969,-0.994529128074646,-0.10384843498468399,-0.011280435137450695,-0.0883338525891304,0.2662374973297119,-0.18014249205589294,0.48154395818710327,0.01203630119562149,0.09805715084075928
210,-1.506159152932284,0.09786884684857586,3.106865059266952,-0.993136465549469,-0.0977126881480217,-0.064283087849617,0.05288440361618996,0.7183474898338318,0.18958929181098938,0.3110685348510742,0.1020461693406105,-0.055239029228687286
211,-1.495233139630911,0.07734544208348373,-3.10478402038118,-0.9941653609275818,-0.07726834714412689,-0.07526560872793198,1.5445966720581055,-2.755051612854004,0.10993093997240067,-0.3154049515724182,-0.2195456176996231,0.5211121439933777
212,-1.5281880526028506,0.09242432209956494,-3.113466634544409,-0.9948282241821289,-0.09229279309511185,-0.042413584887981415,-0.1762508749961853,-0.3793672025203705,0.47565987706184387,-0.4265127182006836,-0.12154387682676315,-1.5205899477005005
213,-1.5195767597410696,0.08203537096135559,-3.116582486835308,-0.9953299164772034,-0.08194338530302048,-0.05102499574422836,-0.07611077278852463,0.872021496295929,-0.005362745374441147,-0.18690574169158936,0.09865177422761917,-0.3088230490684509
214,-1.4377095140752523,0.09188593702384683,-3.1346688321028613,-0.986975908279419,-0.09175669401884079,-0.13213452696800232,-0.5036790370941162,0.3966074585914612,-0.3016268014907837,0.3951789140701294,-0.05288137495517731,0.11005507409572601
215,-1.399566232250705,0.11194958289465903,3.0951893111967785,-0.9792075753211975,-0.1117158904671669,-0.16932792961597443,-0.5848671793937683,0.5455052852630615,-0.1935936063528061,0.4211479425430298,0.019522301852703094,0.1048290878534317
216,-1.3831363135003294,0.09084545925819766,3.0834291624226915,-0.9783924221992493,-0.09072055667638779,-0.1857912242412567,0.050726063549518585,-0.21918213367462158,0.3974944055080414,-0.08953982591629028,-0.04261075705289841,0.1539461463689804
217,-1.4239991333071988,0.07974189592430676,3.1007430505911397,-0.9861010909080505,-0.0796574130654335,-0.1458057165145874,-0.21833191812038422,-0.7926920056343079,-0.13759677112102509,-0.5238781571388245,-0.2349635511636734,-0.1680980771780014
218,-1.4853042017467075,0.10045406344132711,3.046444053592432,-0.9913250803947449,-0.10028520226478577,-0.08495756983757019,-0.3581659495830536,0.04223084822297096,0.04880846291780472,-0.14244884252548218,0.2643476724624634,-0.3136935234069824
219,-1.5455870647071503,0.09586198645771381,3.029464408479336,-0.9950923323631287,-0.09571523219347,-0.025090860202908516,-0.4643682837486267,-0.2852388918399811,-0.0017202747985720634,0.11977207660675049,-0.030154503881931305,0.20062798261642456
220,-1.4753303023125683,0.07841879461787427,3.00812558133459,-0.9923875331878662,-0.07833844423294067,-0.09502815455198288,0.5219377279281616,0.6146138310432434,0.5314039587974548,0.6049515008926392,0.05493145436048508,0.0012323707342147827
221,-1.5073587250782483,0.0639540468105454,3.057784150970472,-0.995948314666748,-0.06391046196222305,-0.06326546519994736,0.3005909025669098,-4.248786926269531,-0.5296616554260254,-0.35210472345352173,-0.29682257771492004,0.6102167963981628
222,-1.6077005179613288,0.08970129524972066,3.051929168367196,-0.9953014254570007,-0.08958104997873306,0.03674747794866562,0.46715301275253296,1.6149438619613647,0.7176201939582825,-0.5018146634101868,-0.20434899628162384,-0.21956300735473633
223,-1.5335116011869985,0.040843979889336995,3.116001428626594,-0.998471736907959,-0.04083262383937836,-0.0372450053691864,-0.11203886568546295,1.9650129079818726,-0.07363788783550262,-0.19302618503570557,-0.03070058301091194,-0.2417924404144287
224,-1.414216829326151,0.04865421183805511,3.1282199801720343,-0.9865975975990295,-0.04863501712679863,-0.1557559370994568,0.12536728382110596,0.30993887782096863,-0.07131970673799515,0.37153106927871704,-0.13735435903072357,0.2984866499900818
225,-1.4108474410150575,0.06532802211682265,3.113037083975811,-0.9851295351982117,-0.06528156250715256,-0.1589280068874359,-0.45223507285118103,0.01183006726205349,-0.31032633781433105,0.47203749418258667,0.04854267090559006,0.18939977884292603
226,-1.4220600129652348,0.07360791182681199,3.077849757337437,-0.986281156539917,-0.07354146242141724,-0.14778724312782288,0.12328179180622101,-0.15190884470939636,0.26855573058128357,0.09107857942581177,0.033258259296417236,-0.009637713432312012
227,-1.492914990718214,0.061778362854463836,3.0748162986175425,-0.9950670003890991,-0.06173907220363617,-0.07765421271324158,-0.172480508685112,0.07399074733257294,-0.3185250163078308,-0.8644607067108154,-0.04881086200475693,-0.40623247623443604
228,-1.4808757821185703,0.08927262912148486,3.0176694992218187,-0.99199378490448,-0.08915410190820694,-0.08944181352853775,-0.5077269077301025,-1.7277858257293701,-0.2564848065376282,-0.13589006662368774,0.0004852786660194397,-0.027379445731639862
229,-1.5055394966072666,0.12740287210035037,2.9104688392193863,-0.9897840023040771,-0.1270584911108017,-0.0646820068359375,-0.7386418581008911,0.6595706343650818,-0.16599175333976746,0.6345288753509521,0.06684732437133789,-0.00018310546875
230,-1.4371399299988807,0.10551887261665031,2.8927378221106608,-0.9855690002441406,-0.1053231731057167,-0.13251765072345734,0.021702036261558533,1.5762172937393188,0.3867485523223877,0.5082893371582031,0.04177030920982361,0.08385735750198364
231,-1.6271459736529073,0.09898534069355287,2.8960964869790127,-0.9935255646705627,-0.09882377833127975,0.05604414641857147,-1.090551495552063,1.4110103845596313,-0.5136734247207642,-0.08844470977783203,-0.04532600939273834,0.6349806785583496
232,-1.6195238245651047,0.07242956717907195,2.9196347106912057,-0.9961943626403809,-0.07236625254154205,0.048580512404441833,1.6845476627349854,0.9876567721366882,0.6846668720245361,-0.47696542739868164,-0.14241646230220795,-0.2749141454696655
233,-1.4370333921891127,0.01635682882164576,3.088563365715443,-0.990934431552887,-0.016356099396944046,-0.1333465576171875,1.2161200046539307,1.481088399887085,0.20832228660583496,-0.0025957822799682617,-0.24736155569553375,0.10906982421875
234,-1.3229296405282245,0.034505704998311515,-3.1241452914915766,-0.9688609838485718,-0.03449885919690132,-0.24519036710262299,0.4612857699394226,0.9950180053710938,-0.15607811510562897,0.5881389379501343,0.02322261407971382,0.4678313732147217
235,-1.3091411228460565,0.046469147290411524,-3.084888507143896,-0.9649203419685364,-0.04645242542028427,-0.2584005296230316,0.21479953825473785,-0.2791763246059418,0.20667561888694763,0.29130589962005615,0.09306803345680237,0.14789637923240662
236,-1.4757299628056613,0.05101318323920074,3.1261544679135627,-0.9941896200180054,-0.05099106207489967,-0.09479974955320358,-2.4971683025360107,-2.7592852115631104,-0.3462145924568176,-1.3123594522476196,0.21351242065429688,-1.0426056385040283
237,-1.5003550371020236,0.041692104447813405,3.0819688736447852,-0.9966533780097961,-0.041680026799440384,-0.07032190263271332,-0.285799115896225,-3.9291927814483643,-0.09118448197841644,-0.9572957754135132,-0.2618020176887512,0.6635226011276245
238,-1.492100099311931,0.106020165796592,2.9460248631261323,-0.9913076758384705,-0.10582166165113449,-0.07817362248897552,-0.43350496888160706,1.268930196762085,-0.13571886718273163,0.7068074345588684,0.1787891834974289,-0.11488056927919388
239,-1.407722953100036,0.07360388012284468,2.992842948841509,-0.9840613007545471,-0.0735374391078949,-0.1619119793176651,0.5997886657714844,0.5296935439109802,0.5150440335273743,0.5546027421951294,0.054204560816287994,0.3461771011352539
240,-1.5435062819945005,0.10471402574728529,2.9812933186673716,-0.9941521883010864,-0.10452276468276978,-0.027137193828821182,-1.138047695159912,-0.6596194505691528,-1.0041275024414062,-0.2772558927536011,-0.2574309706687927,0.27271217107772827
241,-1.508126903383182,0.07912027416270634,2.936530848398186,-0.9949147701263428,-0.07903774827718735,-0.06243249028921127,0.492458701133728,1.5056804418563843,0.7128278017044067,-0.6368907690048218,0.28382596373558044,-0.6097323894500732
242,-1.3467376725510765,0.009743576191776303,3.037906557698041,-0.9749574661254883,-0.009743422269821167,-0.222178116440773,0.38120603561401367,1.0182291269302368,0.5200667977333069,0.02370929718017578,-0.18854454159736633,0.14654028415679932
243,-1.252572288964993,0.0031465059503012105,3.058158839112291,-0.949787974357605,-0.0031465007923543453,-0.31287872791290283,-0.36656853556632996,0.5138874650001526,-0.3698190152645111,0.42624354362487793,-0.17562547326087952,0.47768887877464294
244,-1.240137045510399,0.021888457302925546,3.013760714813241,-0.9456018805503845,-0.021886710077524185,-0.3245888650417328,-0.19905537366867065,-0.0207475945353508,-0.09060585498809814,0.38508570194244385,0.11826121807098389,0.36389535665512085
245,-1.2809934586693343,0.02513455184087642,2.9805365331055715,-0.9579975605010986,-0.02513190545141697,-0.2856730818748474,-0.6721568703651428,-1.6868959665298462,-0.5669169425964355,-0.31310534477233887,0.02377387136220932,-0.09840589761734009
246,-1.3434174219759072,0.015529294355055958,2.8987620212398126,-0.9741432070732117,-0.015528670512139797,-0.2253975123167038,0.7894195914268494,1.1690351963043213,0.2859478294849396,-0.3073204755783081,0.09121226519346237,-0.1864219605922699
247,-1.4839367564804846,0.04233475803388684,2.876869068095926,-0.9953376054763794,-0.04232211410999298,-0.08667267858982086,-0.9550778865814209,0.20923316478729248,-0.686561107635498,0.040228843688964844,-0.03728299215435982,0.20453155040740967
248,-1.4055400178227144,0.05196916577712447,2.857066982891824,-0.9850444793701172,-0.051945775747299194,-0.16428303718566895,0.7669993042945862,0.39548757672309875,0.539645791053772,0.811735212802887,0.1395617574453354,0.11672140657901764
249,-1.3543133519859594,0.012038080197139074,2.9223962359636713,-0.9765881299972534,-0.012037789449095726,-0.21478044986724854,0.817520797252655,-2.8453688621520996,-0.06688137352466583,0.004618585109710693,-0.3711561858654022,0.4554268419742584
250,-1.5025790297752992,0.039581890534336195,2.9034226368967766,-0.9968927502632141,-0.03957155719399452,-0.06811101734638214,0.5537278056144714,-0.9219810962677002,0.8086169362068176,-0.7838080525398254,-0.22979184985160828,-0.905186116695404
251,-1.4054448883494348,-0.0002650618017621472,3.0215841604554927,-0.9863606095314026,0.0002650617971085012,-0.1645990014076233,1.3611671924591064,2.179804563522339,0.9726343750953674,-0.2113170623779297,0.020410597324371338,-0.1402258425951004
252,-1.2378186066057395,-0.02107691738153136,-3.098691094238321,-0.9448632597923279,0.021075356751680374,-0.32678601145744324,0.697874903678894,1.4577409029006958,-0.06018294021487236,0.28743839263916016,-0.06807243078947067,0.5425758361816406
253,-1.175029035280156,0.001186276819199223,-3.0922523332803773,-0.9227002859115601,-0.0011862765531986952,-0.3855159878730774,0.3922106921672821,-1.042417049407959,0.312238872051239,0.4564375877380371,0.2014426290988922,0.34477508068084717
254,-1.309136813682726,-0.015992157209480076,-3.116915597705796,-0.9658384323120117,0.01599147543311119,-0.25865083932876587,-1.135195255279541,-2.181326150894165,-0.06067679822444916,-0.6892822980880737,0.01788303442299366,-0.7083901166915894
255,-1.373415988398504,-0.033265450668742674,-3.1364379280864156,-0.9800412654876709,0.033259317278862,-0.19599273800849915,0.6174125671386719,-3.5420594215393066,0.17490331828594208,-0.9133303761482239,-0.2786969542503357,0.47939425706863403
256,-1.4486264352280047,0.0314398221678934,3.034064895523936,-0.9920560121536255,-0.031434644013643265,-0.12180598080158234,-0.2766123116016388,0.8752595782279968,-0.2119830697774887,0.6788999438285828,-0.05760038644075394,-0.15594977140426636
257,-1.3647654854454014,0.019361406787652965,3.0490562989750214,-0.978667140007019,-0.019360197708010674,-0.20453795790672302,0.531550943851471,1.306344747543335,0.8432623147964478,0.7669362425804138,0.023922579362988472,0.1100860983133316
258,-1.530204784735857,0.052912758763207966,3.0822638129772053,-0.9977778196334839,-0.05288807302713394,-0.040523599833250046,-0.8657621741294861,-0.034183647483587265,-1.1777050495147705,-0.13953596353530884,0.04971424862742424,-0.5887793898582458
259,-1.5940839954930421,0.02635869354500019,-3.1197802406861412,-0.9993815422058105,-0.026355640962719917,0.02327747456729412,2.253079891204834,1.0627250671386719,0.4502386152744293,-0.7348102927207947,-0.12421809136867523,-0.44205498695373535
260,-1.3632163799476757,-0.006204806752283977,-3.0174679427587443,-0.9785136580467224,0.006204767152667046,-0.20608842372894287,0.9135547280311584,0.4002818763256073,0.38621947169303894,0.04539299011230469,-0.2908269762992859,0.18294091522693634
261,-1.3276872087564608,0.013909506881200252,-2.9480661075381995,-0.9705003499984741,-0.013909058645367622,-0.2406981885433197,-0.06490416079759598,0.23448044061660767,-0.5582172274589539,0.6224015951156616,0.008583739399909973,0.3899291157722473
262,-1.357715760596982,0.05324531039924316,-2.9836653721760373,-0.9759988784790039,-0.05322015658020973,-0.21117208898067474,-0.8431780338287354,-0.6781163215637207,-0.48576053977012634,0.4367533326148987,0.09908807277679443,0.018362045288085938
263,-1.548300345860903,0.06692857042778638,-3.0549407053966156,-0.9975085854530334,-0.06687861680984497,-0.022443721070885658,-0.3425757586956024,0.3797345459461212,0.5122278928756714,-1.2840158939361572,-0.08180302381515503,-1.0106067657470703
264,-1.4784218145289507,0.03751013092619394,-3.0233347178884498,-0.9950361251831055,-0.03750133514404297,-0.09217831492424011,0.3601195514202118,-2.1573448181152344,-0.16463756561279297,-0.5134782791137695,-0.33203601837158203,0.5348968505859375
265,-1.484739409030581,0.09485728289115986,-3.1012862914691075,-0.9918205738067627,-0.09471509605646133,-0.08556434512138367,-0.6334013938903809,0.28919336199760437,-0.5049514770507812,0.6155692338943481,0.09012218564748764,0.04732584208250046
266,-1.473154778801967,0.09546734963061453,-3.091184280856627,-0.990705132484436,-0.09532240033149719,-0.09704257547855377,0.8403540253639221,0.029803982004523277,0.5726951360702515,0.550778865814209,0.144242063164711,0.16833160817623138
267,-1.6061189566771508,0.08112879720181691,-3.0208912685401637,-0.9960891604423523,-0.08103983104228973,0.0351991280913353,-0.7993578314781189,-0.6882743835449219,-0.4104883074760437,-0.2764022946357727,-0.19091756641864777,-0.3576936721801758
268,-1.6376038718433117,0.044237312878527515,-2.9559012235330933,-0.9967929720878601,-0.044222887605428696,0.0666925460100174,0.8738495707511902,0.9279744625091553,0.2185308188199997,-0.7873865962028503,-0.111203134059906,-0.3310052156448364
269,-1.6091243463139833,0.06585990129515458,-2.89786345335604,-0.9970991015434265,-0.06581229716539383,0.038235560059547424,-0.2089671492576599,0.3644391894340515,-0.5864990949630737,0.13844138383865356,-0.09438971430063248,0.06747734546661377
270,-1.5477567407152388,0.1189404588748336,-2.9719610038580657,-0.9926713705062866,-0.11866021901369095,-0.02287478558719158,-0.8453575968742371,0.8698967099189758,-0.16441918909549713,0.5868028998374939,0.15975216031074524,-0.04325681924819946
271,-1.4961916890602547,0.08801165288276251,-2.987764099139735,-0.9933587312698364,-0.08789807558059692,-0.07424696534872055,0.25041115283966064,-0.2681167423725128,0.5724936127662659,0.11851119995117188,-0.03813952952623367,0.06976091116666794
272,-1.555928985115544,0.047328619209917,-2.963902329942539,-0.9987699389457703,-0.047310952097177505,-0.014850147999823093,0.02175777778029442,-0.872399628162384,0.258137971162796,-1.014200210571289,-0.01799667626619339,-0.6022763252258301
273,-1.5505708799778604,0.0555088678846874,-2.9671661591468004,-0.9982555508613586,-0.055480364710092545,-0.020192917436361313,0.008850154466927052,-2.4682021141052246,-0.25732046365737915,-0.2969561815261841,-0.19690001010894775,0.4428461194038391
274,-1.57689360189839,0.09449855319813534,-3.0496682065218383,-0.9955199360847473,-0.09435796737670898,0.006070034112781286,-0.1305699497461319,0.39627954363822937,-0.21705706417560577,0.47435587644577026,-0.020937450230121613,-0.07275092601776123
275,-1.5104868736484494,0.08241229543293326,-3.0271727302895397,-0.9947942495346069,-0.08231903612613678,-0.060068342834711075,0.6920592188835144,1.0262033939361572,0.5906450748443604,0.5526859760284424,0.07507110387086868,0.015390627086162567
276,-1.5853924901627636,0.06250089400463521,-2.952775474120059,-0.9979410767555237,-0.06246021017432213,0.014567145146429539,-0.34133148193359375,-1.4174495935440063,-0.42198464274406433,-0.26678359508514404,-0.15023204684257507,0.7931110858917236
277,-1.6512966000098082,0.03077897600515605,-2.9614110681972443,-0.9962896704673767,-0.03077411651611328,0.08037528395652771,0.4985806345939636,0.49944251775741577,0.2595413029193878,-0.4691646099090576,-0.07857037335634232,-0.32228800654411316
278,-1.4585202635658223,-0.021475053455822166,-2.8982851358827575,-0.9934746026992798,0.02147340215742588,-0.11201449483633041,0.9649644494056702,1.0934276580810547,0.4662075936794281,-0.002497076988220215,-0.28740358352661133,0.08610504865646362
279,-1.4186614071925652,-0.007850390695764523,-2.8650737851231836,-0.9884192943572998,0.00785030983388424,-0.15154406428337097,-0.08198437094688416,0.03444967046380043,-0.4324466586112976,0.4593208432197571,-0.12955442070960999,0.23299552500247955
280,-1.40648522616073,0.06146816266645821,-2.91152193617805,-0.9846682548522949,-0.061429463326931,-0.16326385736465454,-0.3744369149208069,0.13878999650478363,-0.3976306915283203,0.45866721868515015,0.0723242312669754,0.03983549773693085
281,-1.414496058227834,0.07679305043450997,-2.8579209966673567,-0.9848988056182861,-0.07671759277582169,-0.1552058905363083,0.39467641711235046,-0.39836224913597107,0.30456972122192383,-0.41921502351760864,-0.03909660875797272,-0.05977523326873779
282,-1.4719157527108981,0.07628102918716645,-2.8717792775208095,-0.9922215938568115,-0.07620707154273987,-0.09843245148658752,-0.09501881897449493,0.6960792541503906,-0.27084851264953613,-0.4426233768463135,0.19119730591773987,-0.27086079120635986
283,-1.5373879440854632,0.1248979811814072,-2.89480154970538,-0.9916567206382751,-0.12457350641489029,-0.033141978085041046,-1.0395832061767578,0.28146612644195557,-0.6033646464347839,0.31672996282577515,-0.03849715739488602,0.14785754680633545
284,-1.4981986894785342,0.1310939310396484,-2.883481316320354,-0.9888080358505249,-0.13071876764297485,-0.07191150635480881,0.6426352858543396,0.4149443209171295,0.06279800087213516,0.6577686071395874,0.14815956354141235,0.040875136852264404
285,-1.4521653004962025,0.1011862539165593,-2.8230926024288197,-0.9878925681114197,-0.1010136753320694,-0.11774759739637375,1.2600815296173096,-0.8077115416526794,0.544434666633606,-0.04987293481826782,-0.0326838344335556,0.10019999742507935
286,-1.6708788959044167,0.13295126714425182,-2.779065176680026,-0.9862149953842163,-0.13255994021892548,0.09903381019830704,-0.9843156933784485,0.20104430615901947,-0.052502699196338654,-0.43955087661743164,0.01573866605758667,-1.0226482152938843
287,-1.624045889351355,0.06676016774920461,-2.7577543410050604,-0.9963581562042236,-0.06671059131622314,0.05310583859682083,0.7127119898796082,2.8332295417785645,0.2416042983531952,-0.45664477348327637,-0.13285912573337555,-0.27339696884155273
288,-1.4110373872667068,0.058331965852139595,-2.706128464037039,-0.9855864644050598,-0.05829888954758644,-0.15880964696407318,0.13092897832393646,0.7277817130088806,-0.06439044326543808,0.3186401128768921,-0.21999089419841766,0.3457145094871521
289,-1.3710463843347136,0.08905568034534207,-2.733622840094664,-0.9762322902679443,-0.08893801271915436,-0.19763794541358948,-0.6323199272155762,0.47476926445961,-0.5514337420463562,0.6063896417617798,0.13797974586486816,0.3025115430355072
290,-1.395367645975794,0.09193180356816415,-2.781240957991369,-0.9804938435554504,-0.09180236607789993,-0.1737932562828064,-0.38753068447113037,-0.1505831629037857,0.20265750586986542,0.0045569539070129395,-0.12027955055236816,-0.1642499566078186
291,-1.503438852636228,0.09838572230458575,-2.8094717788717523,-0.9929074048995972,-0.09822707623243332,-0.06698106229305267,-0.2281959354877472,0.7724785208702087,-0.1353233903646469,-1.0411654710769653,0.024054095149040222,-0.42798352241516113
292,-1.627986841905376,0.16707156231946518,-2.823516241339832,-0.9844638705253601,-0.16629540920257568,0.056363459676504135,-0.8918550610542297,-0.16037943959236145,-0.7623875737190247,0.07072180509567261,-0.048258423805236816,-0.16604363918304443
293,-1.6367302946470434,0.2386191302407743,-2.7662559473294994,-0.9695540070533752,-0.23636111617088318,0.0640193372964859,0.7160946130752563,0.3387487530708313,-0.9625312685966492,0.6023817658424377,0.10284671187400818,-0.08678543567657471
294,-1.5527935171583938,0.3378011832110287,-2.7227763673689696,-0.9433329105377197,-0.3314133286476135,-0.016984477639198303,0.7586318850517273,0.6394058465957642,-1.4136016368865967,0.3312722444534302,0.2710800766944885,0.07473897933959961
295,-1.741053202094646,0.32082446932854075,-2.504688135290309,-0.9352547526359558,-0.3153490722179413,0.16079019010066986,-0.7421390414237976,1.5416131019592285,-1.1719413995742798,-0.4002707600593567,0.14774653315544128,1.3849709033966064
296,-1.6428912354054606,0.3339118876897342,-2.5782656086040707,-0.9423133730888367,-0.3277413547039032,0.0680539458990097,-0.8252105712890625,0.2738271951675415,-0.09777680784463882,-0.3500909209251404,-0.4237235486507416,-0.2502591609954834
297,-1.497040627328389,0.3671589249685124,-2.6406896914456803,-0.9308134317398071,-0.3589651584625244,-0.06877755373716354,0.2745814025402069,0.6768120527267456,0.02257945016026497,0.22614729404449463,-0.005307912826538086,0.05621957778930664
298,-1.415764420057088,0.3707197002578519,-2.668772542557438,-0.9208881855010986,-0.3622863292694092,-0.14392194151878357,-0.421177476644516,0.3984610140323639,0.018347015604376793,0.5470631718635559,0.20789796113967896,0.09895433485507965
299,-1.4027074317389168,0.3395264215395692,-2.7032130032110335,-0.9296233654022217,-0.33304059505462646,-0.15774783492088318,-0.6662211418151855,0.18696355819702148,0.6757733821868896,0.19982600212097168,0.07853925228118896,0.13972723484039307
300,-1.3676654413092315,0.29269716456892414,-2.73120543229304,-0.9377833008766174,-0.2885357141494751,-0.19315677881240845,-0.2262609452009201,0.3273661136627197,-0.04942545294761658,-0.2160404920578003,-0.5564807653427124,0.06891971826553345
301,-1.4493644394611,0.302690543937423,-2.7795976347662843,-0.9475089311599731,-0.29808950424194336,-0.11562669277191162,-0.41969525814056396,0.06869833916425705,-0.23152759671211243,-0.5811164975166321,0.02167654037475586,-0.3760420083999634
302,-1.5966071002073798,0.35603363673601873,-2.7559623949408754,-0.9369745254516602,-0.3485593795776367,0.024189408868551254,-0.922046959400177,-0.19273407757282257,-0.5384280681610107,0.12308597564697266,0.07429790496826172,0.17751657962799072
303,-1.530594244925585,0.3768294510372434,-2.825996656973418,-0.9290845394134521,-0.3679742217063904,-0.03737126663327217,-0.2430609166622162,0.4609511196613312,0.025517532601952553,0.7020644545555115,0.29494571685791016,-0.13509881496429443
304,-1.5243591732932587,0.346511708144364,-2.8101634163651146,-0.9395492672920227,-0.3396189212799072,-0.04366138204932213,1.66472589969635,-1.0694817304611206,0.6479656100273132,0.00023347139358520508,-0.0066792964935302734,0.08893418312072754
305,-1.7541137495178554,0.3765705718341403,-2.706138161472428,-0.9143496155738831,-0.36773350834846497,0.16951940953731537,-1.921168565750122,2.1372427940368652,-0.14628244936466217,-0.25563323497772217,-0.13945338129997253,0.6832485198974609
306,-1.6536448898711997,0.29134231638154046,-2.719442043611637,-0.9545736312866211,-0.2872382402420044,0.0792664960026741,0.1804107278585434,0.7432582974433899,1.2757599353790283,-0.39378440380096436,0.027930408716201782,-0.4643831253051758
307,-1.5776942011993969,0.22179000561484413,-2.657655698469622,-0.9754820466041565,-0.21997612714767456,0.006728859152644873,-0.3956035375595093,1.1940873861312866,-0.2179407924413681,0.005038321018218994,-0.19178228080272675,0.1856081485748291
308,-1.4592012662922467,0.2638023880960554,-2.735380933783166,-0.9594005346298218,-0.2607532739639282,-0.10751102864742279,-0.5683748126029968,0.7329320907592773,-0.2942427396774292,0.511432945728302,0.13764533400535583,0.058423444628715515
309,-1.375389180212524,0.2634169914196959,-2.8027532592944593,-0.9471311569213867,-0.26038119196891785,-0.18746839463710785,-0.6037889122962952,0.7162225246429443,0.30736780166625977,0.28055089712142944,0.06108611822128296,0.22926215827465057
310,-1.3345833478983031,0.22647242971846335,-2.8087603182637784,-0.9474048018455505,-0.22454144060611725,-0.22804656624794006,-0.6288822293281555,0.7753181457519531,-0.3450720012187958,-0.4164104461669922,-0.694373369216919,0.33401888608932495
311,-1.4429177979284105,0.24220631958719713,-2.8648546324227895,-0.962884247303009,-0.2398451268672943,-0.12380783259868622,-0.6396497488021851,-0.48461854457855225,-0.18299280107021332,-0.6534640789031982,0.10549144446849823,-0.4967976212501526
312,-1.4910702203999484,0.26185375200376476,-2.8826926871539755,-0.962843656539917,-0.25887155532836914,-0.0769268348813057,-0.366118848323822,-1.726426362991333,-0.6943048238754272,0.01608145236968994,-0.03879693150520325,0.4072338342666626
313,-1.4991964194322198,0.29142716507705024,-2.9555670830620593,-0.9553807973861694,-0.28731951117515564,-0.06852231174707413,-0.0014269044622778893,0.09870177507400513,0.02298777550458908,0.6649907231330872,0.20794326066970825,-0.05783570557832718
314,-1.4790289420270923,0.2725736822664036,-2.9418891139074566,-0.9590288996696472,-0.2692109942436218,-0.08825545758008957,0.5386273860931396,0.5247274041175842,0.36996030807495117,0.1816394329071045,0.018051326274871826,0.08447128534317017
315,-1.6582191992804962,0.3191412666248269,-2.861438244321607,-0.9458791613578796,-0.31375131011009216,0.08290278166532516,-0.6078733801841736,3.3628647327423096,-0.174026757478714,-0.29600316286087036,0.29145821928977966,-0.10304439067840576
316,-1.5982598882255175,0.23462613544797487,-2.824961520118128,-0.9722346663475037,-0.23247937858104706,0.026707742363214493,0.5034085512161255,0.803551197052002,1.0856993198394775,-0.4311773180961609,-0.10022327303886414,-0.6022235155105591
317,-1.4417119193345358,0.19890019154826089,-2.7912551540468424,-0.9721285700798035,-0.19759131968021393,-0.12618830800056458,-0.42110687494277954,2.2790637016296387,-0.20523704588413239,0.18617898225784302,-0.13978047668933868,0.24142266809940338
318,-1.337293371109707,0.22930231712087462,-2.8293333687483098,-0.9473974108695984,-0.22729815542697906,-0.22533032298088074,-0.3678593933582306,0.4111575186252594,-0.25399547815322876,0.4469853639602661,0.14458027482032776,0.2654914855957031
319,-1.294995188444369,0.23724828126336422,-2.838078962320979,-0.9352543950080872,-0.23502887785434723,-0.2646898329257965,0.12464413046836853,0.058097291737794876,0.14567063748836517,0.26862841844558716,-0.06170877814292908,0.2658952474594116
320,-1.2783720340216291,0.24489392174232205,-2.849380843700027,-0.9289774894714355,-0.2424534112215042,-0.27967318892478943,-0.03645370528101921,0.09741285443305969,-0.6171354055404663,-0.2578663229942322,-0.5174342393875122,0.1381784975528717
321,-1.3727595853387717,0.26771329506786146,-2.8815018059693442,-0.9455292820930481,-0.2645268738269806,-0.18973644077777863,-0.06657092273235321,-0.022899923846125603,0.08170749992132187,-0.4920470118522644,0.08621266484260559,-0.37486928701400757
322,-1.4723701765713817,0.3095061261191378,-2.8958864132182,-0.947874128818512,-0.304588258266449,-0.09359804540872574,-0.5450120568275452,-0.4149528741836548,-0.2886189818382263,0.29464542865753174,0.07886502146720886,-0.005584113299846649
323,-1.4497898010016412,0.3025918519901493,-2.8841292816647344,-0.9475871324539185,-0.29799529910087585,-0.11522718518972397,0.31696075201034546,0.44937148690223694,0.22689524292945862,0.5874339938163757,0.23357272148132324,-0.03461407870054245
324,-1.4112694875644665,0.2894929758483596,-2.867898694157447,-0.9462196230888367,-0.28546634316444397,-0.1522410809993744,0.16458526253700256,0.41550546884536743,0.1763097047805786,0.18677449226379395,0.02782168984413147,-0.04485665261745453
325,-1.604348811772299,0.3518670796413052,-2.8223149884377663,-0.9382025599479675,-0.34465110301971436,0.03149084374308586,-1.7691882848739624,3.7315595149993896,0.10734368115663528,0.06137150526046753,0.30296409130096436,-0.16466951370239258
326,-1.6056914025918887,0.26231556841941295,-2.754905228895898,-0.9652041792869568,-0.2593176066875458,0.0336945503950119,0.946597695350647,-0.023110130801796913,1.1497701406478882,-0.4587307572364807,-0.2733057141304016,-0.4165985584259033
327,-1.4381553847624389,0.23616397300083625,-2.7075885469996415,-0.9637025594711304,-0.23397481441497803,-0.12858137488365173,-0.14841672778129578,1.9936360120773315,-0.46560239791870117,0.21156632900238037,-0.09175454080104828,0.2584947347640991
328,-1.3382129427063796,0.2782681728247437,-2.760620423994221,-0.9356426000595093,-0.2746908664703369,-0.2216256856918335,-0.4222862124443054,0.09919052571058273,-0.38636475801467896,0.3766826391220093,0.2590658366680145,0.232474684715271
329,-1.3382314396980426,0.2702018521667678,-2.804154758428199,-0.9377722144126892,-0.26692596077919006,-0.22211182117462158,0.013039871118962765,0.07703254371881485,0.3992936313152313,0.0020728111267089844,-0.03213098645210266,0.13087953627109528
330,-1.3688048289893657,0.2639256717174656,-2.7967605248660123,-0.9457462430000305,-0.2608723044395447,-0.19367389380931854,-0.4943566918373108,-1.1806766986846924,-0.22497880458831787,-0.5621424913406372,-0.039237529039382935,0.10302145779132843
331,-1.4524079181820992,0.2954507040086975,-2.862429963506228,-0.9499745965003967,-0.29117104411125183,-0.11299438029527664,-0.46263670921325684,0.5657301545143127,-0.2889038920402527,-0.29404401779174805,0.27092260122299194,-0.24845577776432037
332,-1.4999393250937971,0.34020380146863277,-2.9550112288932455,-0.9403212070465088,-0.3336792290210724,-0.06674007326364517,-1.0331989526748657,0.3837769031524658,-0.5725878477096558,0.2528975009918213,0.12390139698982239,-0.03210639953613281
333,-1.464546534529979,0.34317717254425156,-3.0056702311838492,-0.93638014793396,-0.3364807069301605,-0.09986627846956253,-0.2557260990142822,0.38785749673843384,0.178386852145195,0.6200805902481079,0.26030877232551575,-0.0005823522806167603
334,-1.4676557278350002,0.2973465558958495,-2.990567940872146,-0.9510363340377808,-0.2929842472076416,-0.0984397679567337,0.6462032794952393,-2.6456856727600098,-0.11761540174484253,-0.2422773241996765,-0.1685636043548584,0.125981867313385
335,-1.6139240366374714,0.3207550282614743,-2.9477011316025816,-0.9481151700019836,-0.3152831792831421,0.04091540724039078,0.7794519066810608,-0.707633376121521,0.6284217238426208,-0.4904376268386841,-0.1899658441543579,-0.3786381483078003
336,-1.5565148888965445,0.24332580704688703,-2.86839542033033,-0.9704432487487793,-0.24093179404735565,-0.013860267587006092,0.5402929186820984,2.285111904144287,0.40651869773864746,-0.34971678256988525,-0.16922448575496674,-0.01381915993988514
337,-1.4439422231767256,0.24741124297900213,-2.82839599112401,-0.961759090423584,-0.2448948472738266,-0.12266175448894501,0.12956462800502777,0.3694413900375366,-0.3344702124595642,0.39047008752822876,0.001822352409362793,0.2114374041557312
338,-1.3949288938941746,0.30252435470031797,-2.8804801538408826,-0.9398631453514099,-0.29793086647987366,-0.16701678931713104,-0.5872854590415955,-0.043789930641651154,-0.5407600402832031,0.5420817732810974,0.23071590065956116,0.17861348390579224
339,-1.4036416541175203,0.3129837745952214,-2.873569427174422,-0.9381584525108337,-0.3078988194465637,-0.15829461812973022,0.08889163285493851,-0.41685187816619873,-0.03062162734568119,-0.10551220178604126,-0.13315647840499878,0.10726916790008545
340,-1.4947655453261954,0.30803710638440696,-2.8767875314377744,-0.9501775503158569,-0.3031887114048004,-0.07238227128982544,-0.33985695242881775,-0.854267954826355,0.004357796162366867,-0.8281579613685608,0.09380760788917542,-0.37592095136642456
341,-1.5502799597858956,0.28241806376165157,-2.9712273459804193,-0.9601821899414062,-0.2786787450313568,-0.019702214747667313,-1.5170038938522339,-2.0988457202911377,-0.17873874306678772,-0.013633668422698975,-0.0498429536819458,0.4377472400665283
342,-1.5554043276851572,0.29883366607061507,-3.0847202816473756,-0.9555673599243164,-0.2944057583808899,-0.01470925286412239,-0.46780818700790405,0.21531149744987488,0.04225046932697296,0.6264810562133789,0.1712062954902649,-0.1455233097076416
343,-1.4813834743194698,0.2793344398041377,-3.1248496419341985,-0.9573992490768433,-0.2757159471511841,-0.08583265542984009,0.3514704406261444,1.059485912322998,0.7225024104118347,0.22343629598617554,0.08073917031288147,-0.01771353930234909
344,-1.6046485524522471,0.3004278091997294,-3.090865827509515,-0.9546626806259155,-0.2959288954734802,0.03232980892062187,1.0573878288269043,0.5410202741622925,0.5391742587089539,-0.1065707802772522,0.031005829572677612,-1.1309473514556885
345,-1.6374625680626416,0.21908951783411654,-2.957386272018931,-0.9739275574684143,-0.21734099090099335,0.06502445042133331,1.8284286260604858,0.8771010041236877,0.3755917549133301,-0.5486250519752502,-0.16623447835445404,-0.2810431718826294
346,-1.5101125035100746,0.2381527517262231,-2.8704651555926306,-0.969986617565155,-0.2359079122543335,-0.058934859931468964,0.6919606328010559,1.2724679708480835,-0.5144321322441101,0.4383552074432373,-0.0732046365737915,0.10501641035079956
347,-1.439227815210743,0.3533453886329278,-2.8608794270455866,-0.9301116466522217,-0.34603846073150635,-0.12308443337678909,-0.6225255131721497,0.1910400241613388,-1.2570548057556152,0.4343078136444092,0.21449241042137146,0.0975717306137085
348,-1.411382983556013,0.49484150125423065,-2.881623949246374,-0.8688855767250061,-0.47489216923713684,-0.13969731330871582,-0.0285736583173275,0.3283257484436035,-0.17865969240665436,0.047062456607818604,0.007210284471511841,0.19833683967590332
349,-1.3996657437403504,0.5415125672858697,-2.82859674998343,-0.8444127440452576,-0.5154327154159546,-0.14593221247196198,0.994218111038208,-0.9426610469818115,-0.08067867159843445,-0.39135080575942993,-0.41460567712783813,0.09794330596923828
350,-1.5583800432046355,0.6520276599837499,-2.768517492644539,-0.7947936654090881,-0.6067993640899658,-0.009868890978395939,0.20555029809474945,-0.08318565040826797,-1.657626986503601,-0.3092254400253296,-0.0840575098991394,-0.3622167110443115
351,-1.5310883233575105,0.7786321694283885,-2.746835693733552,-0.711313784122467,-0.70230633020401,-0.028259705752134323,0.27253997325897217,0.6961914896965027,-0.8899394869804382,0.3246256113052368,0.370366632938385,0.013992726802825928
352,-1.5181538808898847,0.8478620908705138,-2.7387375795892215,-0.6606711745262146,-0.7498676776885986,-0.034811507910490036,-0.6480088829994202,-0.20742365717887878,-0.26949062943458557,0.3216209411621094,0.7296041250228882,-0.05713795870542526
353,-1.4244663981634482,0.8258440223303058,-2.8478024317776964,-0.6706914901733398,-0.7351202368736267,-0.09884877502918243,1.5503283739089966,-0.38151058554649353,0.06037874147295952,-0.04010862112045288,-0.1687951683998108,0.404024600982666
354,-2.331215959728247,0.8964392748217636,-2.0538233731697226,-0.4524035155773163,-0.781108558177948,0.43034908175468445,0.46455252170562744,-5.198964595794678,-3.087575674057007,0.23563718795776367,0.15685629844665527,-0.037816762924194336
355,-2.5229567511937034,0.8943919210501989,-1.810165131922229,-0.36302876472473145,-0.7798285484313965,0.5099781155586243,-0.8812077045440674,0.2047959715127945,-0.8324898481369019,-0.48267436027526855,-1.027346134185791,-0.08714175224304199
356,-2.3977987899971613,1.0933865845306274,-1.9227682108981008,-0.3111071288585663,-0.8881880640983582,0.33813393115997314,-1.465150237083435,0.37278521060943604,-1.0208946466445923,0.18529841303825378,0.6308180093765259,0.12800684571266174
357,-2.458911957644372,1.0519690934912682,-1.8546869906348,-0.31282734870910645,-0.868401288986206,0.3847319483757019,0.9029618501663208,-1.43891179561615,0.7842665910720825,0.2298041582107544,0.35115867853164673,-0.23003831505775452
358,-2.4303001042114705,1.0041602864382493,-1.8606534145711164,-0.3504285216331482,-0.8437114953994751,0.40663400292396545,0.2749210596084595,0.5135291814804077,0.29163163900375366,-0.30045047402381897,-0.013817369937896729,0.4596991240978241
359,-2.579745050976275,0.8523595087754372,-1.7786941807265155,-0.35066136717796326,-0.7528355717658997,0.5570241212844849,1.5729525089263916,-1.2908788919448853,1.4573428630828857,-0.3123025894165039,-0.7319210767745972,0.3355846405029297
360,-2.584345282617465,0.6959322310757743,-1.899639909341446,-0.40587082505226135,-0.6411011815071106,0.6513509750366211,0.7587962746620178,-0.3232327997684479,0.5823956727981567,-0.7038092613220215,-0.1449400782585144,-0.18995577096939087
361,-2.6221337023218387,0.6458005585100179,-1.8767193368726858,-0.39644259214401245,-0.6018379926681519,0.6932709813117981,-0.8148946166038513,-1.1593940258026123,0.08761939406394958,0.4773293733596802,0.3080757260322571,-0.21423643827438354
362,-2.5358706048923834,0.7239407100073656,-1.9681903723643208,-0.4265621304512024,-0.6623421907424927,0.6159118413925171,-0.508295476436615,1.5605086088180542,0.18213307857513428,0.37738311290740967,0.25938814878463745,-0.21324771642684937
363,-2.2804275268839773,0.8213236168840901,-2.149874934045414,-0.5167999863624573,-0.7320482134819031,0.4438730776309967,-1.4049477577209473,0.9579856395721436,0.5712766647338867,-0.017440736293792725,0.0192490816116333,0.9184621572494507
364,-2.3405575315978293,0.8177331134512227,-2.2215187817254978,-0.49107614159584045,-0.7295974493026733,0.47595351934432983,-0.035796042531728745,-0.5238845348358154,-0.21966427564620972,-0.33782708644866943,-0.7206894159317017,-0.1488509178161621
365,-2.202461914376471,0.9152060098193168,-2.374439529280272,-0.4919968247413635,-0.7926881909370422,0.3599787652492523,-0.8302350044250488,0.6411731243133545,-0.4499940872192383,-0.04090115427970886,0.021127521991729736,-0.019753575325012207
366,-1.952898971603557,1.0430157072025799,-2.5959826412617946,-0.4672980308532715,-0.863926887512207,0.1877850443124771,-1.8102682828903198,0.33856090903282166,-0.14845162630081177,0.2040380835533142,0.54301917552948,0.05884280800819397
367,-1.7768074639354576,1.1072996881836767,-2.787783857466479,-0.4376247823238373,-0.8944947123527527,0.09145302325487137,-1.4292839765548706,-0.34476688504219055,-0.21665062010288239,0.07075777649879456,0.20174574851989746,0.027702800929546356
368,-1.5641426096205204,1.2172867472944928,-2.9634343025228813,-0.3461848497390747,-0.9381635189056396,-0.00230345013551414,0.6799702048301697,0.5422394275665283,-2.1580731868743896,-0.004004389047622681,-0.14710259437561035,0.00820857286453247
369,-1.3172400649869103,1.4195776570752565,3.03504038295615,-0.1458256095647812,-0.9885882139205933,-0.03778830170631409,0.15361803770065308,-1.7704167366027832,-2.738556385040283,-0.24515032768249512,-0.6319407820701599,-0.4226762056350708
370,0.5570442551415318,1.510164167160411,1.1388830807646775,0.032034359872341156,-0.9981624484062195,-0.051432762295007706,-0.29005324840545654,3.361082077026367,-0.4791141450405121,0.0020232461392879486,0.23973971605300903,0.6486159563064575
371,-3.0835840212215158,1.54699411263563,-1.3967952236062824,-0.0013796553248539567,-0.9997167587280273,0.02375693805515766,-1.251380443572998,0.5778159499168396,0.9549996256828308,-0.02112707495689392,0.5157690644264221,0.0689249038696289
372,-1.8392984027882535,1.5420159612422146,-2.6123100544806777,-0.027742337435483932,-0.9995858669281006,0.007633197586983442,1.8771201372146606,3.6164777278900146,-0.4435439109802246,-0.2541790306568146,0.025174975395202637,0.0082664480432868
373,-2.7093107684256976,1.4384822186013502,-1.5289274177365197,-0.05527108907699585,-0.9912592768669128,0.11979365348815918,0.2848834693431854,0.5518201589584351,0.005762968212366104,-0.09434134513139725,-0.08399724960327148,0.6901123523712158
374,-2.6743705614906776,1.3339521020554204,-1.6088908189841105,-0.10568218678236008,-0.9720832705497742,0.20948898792266846,-0.7339726686477661,-1.294021487236023,0.4089285433292389,0.1653592735528946,-0.6919030547142029,-0.39540204405784607
375,-2.760846963709826,1.371918377590343,-1.6156532909669323,-0.07341977208852768,-0.9802888631820679,0.18342213332653046,0.2391781210899353,-0.8013249039649963,0.10400959849357605,0.16419431567192078,0.3209564685821533,-0.14013288915157318
376,-2.8829310174989042,1.387827424360056,-1.4381368081973316,-0.04654043912887573,-0.9833078384399414,0.17589712142944336,0.8666888475418091,0.17281949520111084,-0.30322980880737305,0.21600455045700073,0.7623147964477539,-0.02146291732788086
377,-2.8358873028707277,1.418739398777351,-1.5579860958197147,-0.04558809846639633,-0.9884616136550903,0.14444959163665771,-1.5719499588012695,-0.8717191815376282,0.46712779998779297,0.11234530806541443,0.11837482452392578,0.11623157560825348
378,3.1411492149381903,1.4667693434743547,-1.2863297984263415,4.6046730858506635e-05,-0.9945940971374512,0.10384013503789902,0.45087212324142456,-1.0880990028381348,-0.9746723771095276,0.3111111521720886,-0.47821474075317383,0.3806569576263428
379,3.0397759876448402,1.3288245051657028,-1.2582969105342707,0.02435488812625408,-0.970867395401001,0.2383762151002884,1.2433679103851318,-0.9922688007354736,0.12107138335704803,-0.29214662313461304,-0.5215794444084167,-0.22714568674564362
380,-3.1084384932586135,1.2607796416837034,-1.3333121103606513,-0.010112644173204899,-0.9523285031318665,0.30490708351135254,0.33033251762390137,0.7857372760772705,0.07115299999713898,-0.07422268390655518,0.4596374034881592,-0.20566391944885254
381,-3.0446923129786727,1.2887191658470296,-1.3457565124025785,-0.02693014219403267,-0.9604793190956116,0.27704545855522156,-0.3545110821723938,-0.3500034511089325,-0.18177402019500732,0.2637923061847687,0.6645504236221313,-0.023337632417678833
382,3.1344263203803786,1.3429150338178508,-1.1857762883020992,0.0016189593588933349,-0.9741472005844116,0.22590795159339905,-0.46748486161231995,1.9246234893798828,-0.2198764979839325,0.18072357773780823,0.04116392135620117,0.10015711188316345
383,3.090157607722471,1.2504124172439057,-1.0660693381678366,0.01619137078523636,-0.9491145610809326,0.3145149350166321,-2.8218188285827637,1.199805736541748,-0.5898256897926331,-0.11802852153778076,-0.6564153432846069,1.2160942554473877
384,-3.1199079437317594,1.295124381035803,-1.0552836618507104,-0.005901977885514498,-0.9622425436973572,0.2721296548843384,-0.32610446214675903,0.8689670562744141,-0.22252999246120453,0.2027708888053894,-0.4735637307167053,-0.4052473306655884
385,3.0763633135487107,1.3498985649213142,-0.8681663582055414,0.014282001182436943,-0.9757011532783508,0.21863994002342224,-1.7579421997070312,0.28196629881858826,-0.7950597405433655,0.2071993350982666,0.17464518547058105,-0.008373856544494629
386,2.597314656082054,1.4281850393071118,-0.449604242402176,0.07359389215707779,-0.989848256111145,0.12159059196710587,-0.7459685802459717,-1.6838372945785522,-0.40308669209480286,-0.09321669489145279,0.4392043948173523,-0.11313725262880325
387,1.2399133795129345,1.4559877469278015,0.6327296855335597,0.10834307968616486,-0.9934167265892029,-0.03721711412072182,-0.3733001947402954,-1.1214101314544678,-0.2911730110645294,-0.10310932993888855,0.14675229787826538,0.4040384292602539
388,1.328477356544705,1.430626708110238,0.5461931005483284,0.1356290727853775,-0.9901922941207886,-0.03352424502372742,-0.16750690340995789,-0.08158909529447556,-0.9344443082809448,0.4941926598548889,-0.43833547830581665,0.3654639720916748
389,2.007402287394757,1.3968556017134814,-0.15426160492251753,0.15682996809482574,-0.9849104285240173,0.07318327575922012,1.8138411045074463,-0.9030923843383789,0.2035694271326065,0.008453205227851868,-0.4285874366760254,-0.22529816627502441
390,2.479291805777671,1.3573984891689053,-0.6883207898646505,0.13023170828819275,-0.9773169755935669,0.16700692474842072,0.6293584704399109,0.0911528691649437,0.34784063696861267,-0.04394325613975525,0.2301703691482544,-0.2000575065612793
391,2.693294838067275,1.3314236550951695,-0.8933762420868843,0.10276366770267487,-0.9714869260787964,0.21366479992866516,0.8009281754493713,-0.03434237465262413,0.28454282879829407,-0.02619505673646927,0.5120906233787537,-0.13810326159000397
392,2.673897405391034,1.3361915153694708,-0.8806798026247042,0.10479962080717087,-0.9726063013076782,0.2074953019618988,-0.48574838042259216,0.44215402007102966,-0.14024336636066437,-0.06108318269252777,0.06608152389526367,0.1772245466709137
393,2.6966220637305662,1.2085183663824917,-0.8162055311170732,0.15254701673984528,-0.9350919127464294,0.3198942244052887,-2.0103538036346436,-0.23797433078289032,0.1637873351573944,0.23467521369457245,-0.728115975856781,1.0876222848892212
394,2.6695829063968475,1.310186280796293,-0.7359322269364283,0.11715690046548843,-0.96623295545578,0.2294958531856537,-0.3543936312198639,-0.48063310980796814,0.026254277676343918,0.34640514850616455,-0.5502923727035522,-0.2857092320919037
395,2.5330296534885894,1.347160320286821,-0.6072641489576135,0.12678727507591248,-0.9750975370407104,0.18196116387844086,-0.397580623626709,-0.33694830536842346,-0.045356325805187225,0.051343828439712524,0.44117724895477295,0.01727283000946045
396,2.4725110581907543,1.337737881483407,-0.6121836984304655,0.14325281977653503,-0.9729645848274231,0.18115831911563873,0.02626793459057808,-1.2090184688568115,0.02669132500886917,-0.11719083786010742,0.47716087102890015,-0.16387012600898743
397,2.3401076045812412,1.3489699405305227,-0.583729525038187,0.1580541729927063,-0.9754972457885742,0.1530490666627884,-0.04034821316599846,-0.2688295245170593,0.11273711919784546,-0.0647924542427063,-0.08289813995361328,0.04468953609466553
398,2.1846947822446405,1.385458327125256,-0.3039206359061629,0.15063151717185974,-0.9828740358352661,0.10615568608045578,-0.6527101993560791,0.8740392923355103,-0.7995926141738892,0.44772666692733765,-0.29810142517089844,0.2008054405450821
399,2.3397130589079036,1.3476741283601739,-0.4861653460981004,0.15902268886566162,-0.9752113223075867,0.15386538207530975,1.5818792581558228,-1.0563849210739136,0.33585983514785767,0.012776017189025879,-0.48905253410339355,-0.16886472702026367
400,2.538814820643724,1.3105917381444165,-0.7371375843621151,0.14585965871810913,-0.9663373827934265,0.21193675696849823,0.09267860651016235,0.32897645235061646,0.1841648817062378,-0.21499720215797424,0.12582218647003174,-0.18915534019470215
401,2.6219030291019214,1.3121346333479025,-0.7737756238882875,0.12702646851539612,-0.9667331576347351,0.2220161110162735,0.22082063555717468,0.28732168674468994,0.029141606763005257,0.0465269535779953,0.5257847309112549,-0.202744260430336
402,2.6569063599987173,1.31643105011391,-0.8006898702170406,0.11724251508712769,-0.9678232073783875,0.22264820337295532,0.12887078523635864,0.14989158511161804,-0.010488251224160194,0.031622178852558136,0.23765981197357178,0.2620014548301697
403,2.7970134932867676,1.1911005192705297,-0.8627918695571465,0.12520189583301544,-0.9287773966789246,0.3488514721393585,0.9264432191848755,0.4332968294620514,-0.04456974193453789,-0.15755046904087067,-0.09302747249603271,0.5786540508270264
404,2.842207415624295,1.204899322095589,-0.9078127563782232,0.1055232509970665,-0.9338032007217407,0.34187227487564087,0.09718361496925354,-0.7377500534057617,0.21047557890415192,0.1041020005941391,-0.5271649360656738,-0.3756856620311737
405,2.774530328549406,1.2422841410580556,-0.8279816417053486,0.11578567326068878,-0.9465234279632568,0.30114296078681946,-0.8288751840591431,0.6669180989265442,-0.41917404532432556,0.030591905117034912,0.30768370628356934,-0.09746861457824707
406,2.595615221231385,1.26825306158366,-0.6313615972372103,0.1547112762928009,-0.9545817971229553,0.25463348627090454,-0.5313092470169067,-0.20087319612503052,-0.2819426655769348,-0.10905696451663971,0.44022321701049805,-0.10180148482322693
407,2.448970910636934,1.2981185586132546,-0.5174735148964852,0.17197063565254211,-0.9630532264709473,0.20725513994693756,-0.575892448425293,-0.2662595808506012,0.10616956651210785,-0.017627984285354614,0.046610355377197266,0.06261181831359863
408,2.2564733092325717,1.3288556555892315,-0.2705566985895826,0.18543802201747894,-0.9708748459815979,0.1517057567834854,-0.620506227016449,0.178320974111557,-0.7713233828544617,0.44822895526885986,-0.32563382387161255,0.2645387351512909
409,2.3573409066769306,1.288444067753586,-0.3820432698084076,0.1967848390340805,-0.9604027271270752,0.1972365528345108,1.7606379985809326,-0.16760961711406708,0.5768333673477173,0.055687084794044495,-0.37594670057296753,0.011320576071739197
410,2.588861641352237,1.2230558700915584,-0.699515895130563,0.17891137301921844,-0.9401451349258423,0.2900313138961792,0.29005303978919983,-0.3843146860599518,0.004801641218364239,-0.21608175337314606,-0.09827661514282227,-0.3125074803829193
411,2.5879459351642446,1.2195699364358963,-0.681821645089064,0.18089890480041504,-0.9389514923095703,0.2926532030105591,-0.18041621148586273,0.18166682124137878,-0.050759777426719666,-0.03395678102970123,0.42990291118621826,-0.2347613275051117
412,2.582571186337334,1.226410805915097,-0.6734620738337587,0.1790582239627838,-0.941283106803894,0.28622424602508545,-0.4202095568180084,0.29361310601234436,0.01900828815996647,0.013309329748153687,0.24970901012420654,-0.17965686321258545
413,2.6765922543406653,1.1865919669657752,-0.6335866984690927,0.16807876527309418,-0.927096962928772,0.3350237011909485,2.7535459995269775,1.6356182098388672,-0.7429253458976746,0.050564467906951904,0.11354410648345947,1.5501234531402588
414,2.6593500887073223,1.190763227997241,-0.6672520097866522,0.17203493416309357,-0.9286523461341858,0.3286467492580414,-0.09526433050632477,2.080498218536377,0.5891658067703247,0.14514948427677155,-0.34138232469558716,-0.5623502731323242
415,2.6470370736595785,1.2360931763002019,-0.59738465989909,0.155914306640625,-0.9445078372955322,0.2891295850276947,-0.5788685083389282,0.15495774149894714,-0.329861044883728,0.056564345955848694,-0.15191256999969482,-0.007208198308944702
416,2.554330836821283,1.250225518857446,-0.49321559190921777,0.17459622025489807,-0.9490557312965393,0.26231515407562256,-0.018441982567310333,-0.2836076021194458,-0.158412367105484,-0.03476472198963165,0.5205432176589966,-0.11305370926856995
417,2.497593603008386,1.2505368827941588,-0.48705435735625613,0.18901291489601135,-0.9491537809371948,0.251755952835083,0.04826114699244499,-0.8458759784698486,0.09799811244010925,-0.028231069445610046,0.2588767409324646,-0.1540844738483429
418,2.4525535865053225,1.2783727202966508,-0.46233789778337053,0.18328340351581573,-0.9575480222702026,0.22250641882419586,-0.45996761322021484,0.630592942237854,-0.044394537806510925,0.02312225103378296,-0.14145100116729736,0.20750153064727783
419,2.3212785720808315,1.2743024033755157,-0.2921926197016191,0.21368084847927094,-0.9563667178153992,0.19925688207149506,0.6891452670097351,0.10153545439243317,0.3674143850803375,0.02785053849220276,-0.09722214937210083,0.6464309692382812
420,2.6475950339210916,1.194542634493165,-0.7107552448478306,0.1742209941148758,-0.9300476908683777,0.32350966334342957,0.9452286958694458,-1.4405696392059326,0.4781858026981354,-0.0359458327293396,-0.5776275396347046,-0.38196611404418945
421,2.6460863600810685,1.1830977580602806,-0.7568101301266437,0.17975810170173645,-0.9257816076278687,0.3325885832309723,-0.14532653987407684,0.029201459139585495,-0.01475207693874836,-0.07341960072517395,0.274963915348053,-0.24977916479110718
422,2.6114113645930845,1.202622760463847,-0.730237729067443,0.18200379610061646,-0.9329862594604492,0.3105016052722931,-0.24861577153205872,-0.04931248351931572,0.03715069591999054,-0.019696056842803955,0.3998899459838867,-0.2558445930480957
423,2.584875095655881,1.2290068562571892,-0.6839024356804128,0.17710669338703156,-0.9421563744544983,0.2845607399940491,-0.5560707449913025,0.7100263237953186,-0.168411523103714,-0.015577122569084167,-0.01952892541885376,0.20784035325050354
424,2.617155284041637,1.1530782816071754,-0.6557235928444864,0.20313233137130737,-0.9140170812606812,0.3511551320552826,0.3227011561393738,-1.6628154516220093,0.026530243456363678,0.10541562736034393,-0.20181232690811157,0.5470229387283325
425,2.7184745796425664,1.190971168512307,-0.7328956951096106,0.15223540365695953,-0.9287294745445251,0.33806222677230835,-0.31832781434059143,0.08420177549123764,0.19694137573242188,0.13798677921295166,-0.31112343072891235,-0.3354530334472656
426,2.6296209467830325,1.2487402270905332,-0.6265476943211189,0.15506109595298767,-0.948586642742157,0.2759338915348053,-0.9257572889328003,0.8583985567092896,-0.13415387272834778,0.15740841627120972,0.23661154508590698,-0.04473268985748291
427,2.4801394766846983,1.2731427055650846,-0.4872187672741909,0.1801500767469406,-0.9560272693634033,0.23142565786838531,-0.08614954352378845,-0.5688905119895935,0.09045543521642685,-0.0679522156715393,0.4169952869415283,0.07104933261871338
428,2.444633580348791,1.2942416091374258,-0.4686691342516219,0.17526313662528992,-0.9620018601417542,0.20936857163906097,-0.4002901017665863,0.2826206684112549,0.10429124534130096,-0.02778695523738861,0.13300710916519165,0.15395842492580414
429,2.449955326744312,1.3141286763579532,-0.4478648309879229,0.16191118955612183,-0.9672412872314453,0.19552308320999146,-0.015470198355615139,-0.21227294206619263,-0.36071038246154785,0.4252012372016907,-0.27822697162628174,0.1329987347126007
430,2.442305891835282,1.2677415770695817,-0.4684701119001519,0.1920957714319229,-0.9544292688369751,0.2283945530653,1.4932730197906494,0.0082683265209198,0.3738293945789337,-0.07118511199951172,-0.2839740514755249,0.1658315658569336
431,2.6551089667781254,1.191890575174103,-0.7434825582395443,0.17293772101402283,-0.9290699362754822,0.32698866724967957,0.22033919394016266,-0.01503592636436224,0.07073681056499481,-0.20818552374839783,-0.23822736740112305,-0.17879533767700195
432,2.6648553852542767,1.191896897921182,-0.7423778042084278,0.1697399765253067,-0.9290723204612732,0.32865357398986816,-0.014071132056415081,0.28412485122680664,0.1080416738986969,-0.09260678291320801,0.3640087842941284,-0.16240906715393066
433,2.6950588791325707,1.1921224367386427,-0.7688616896961351,0.15964695811271667,-0.929155707359314,0.333440363407135,-0.18081527948379517,0.29142439365386963,0.08508731424808502,0.004140898585319519,0.25445789098739624,-0.16058877110481262
434,2.7039527764742615,1.227713206160405,-0.7208371176815014,0.14256404340267181,-0.9417219758033752,0.30468878149986267,0.7144014835357666,1.4338774681091309,-0.42324548959732056,0.03729128837585449,0.08880150318145752,0.6404712200164795
435,2.6573990552265645,1.167823880892971,-0.7202204293938846,0.182546004652977,-0.9198994040489197,0.34707680344581604,-1.3492474555969238,0.7667295336723328,0.2075151801109314,-0.150868758559227,-0.4382702708244324,-0.46356233954429626
436,2.7672521841683047,1.222853412191151,-0.7496582254662739,0.12467658519744873,-0.9400761127471924,0.31735220551490784,-0.4772574305534363,0.540710985660553,-0.1681230366230011,0.12127982079982758,-0.26553595066070557,-0.2051544487476349
437,2.6600047637610316,1.2653258941546512,-0.6082182119934327,0.13929972052574158,-0.9537056088447571,0.26653560996055603,-0.48056307435035706,0.7994177937507629,-0.24300895631313324,0.13682331144809723,0.3763893246650696,0.012593358755111694
438,2.6605396579178744,1.248594952212505,-0.651234238642493,0.146520733833313,-0.9485406279563904,0.2807179391384125,0.2102680206298828,-0.7059447765350342,0.13316568732261658,-0.13919652998447418,0.20909959077835083,-0.060884565114974976
439,2.6440166046700115,1.2565069417513657,-0.6617576216386749,0.14755186438560486,-0.9510163068771362,0.27165487408638,-0.23981791734695435,0.22846820950508118,0.1133844405412674,-0.08319033682346344,0.138516366481781,0.1491062343120575
440,2.6468500503973624,1.2700849606007891,-0.6151513013014381,0.1406370997428894,-0.9551260471343994,0.260682612657547,0.15372444689273834,-0.3604699969291687,-0.5486000180244446,0.4561341106891632,-0.20849394798278809,0.2784104347229004
441,2.641292663323478,1.2299745478312945,-0.634430886301438,0.16034165024757385,-0.9424802660942078,0.2932942807674408,1.1367847919464111,-0.3122328817844391,0.5608025193214417,-0.08165210485458374,-0.43729567527770996,0.10976672172546387
442,2.765357167224363,1.1854600373854167,-0.7914382077422119,0.13810332119464874,-0.926672101020813,0.34958070516586304,-0.12047804892063141,0.5544701814651489,-0.14972597360610962,-0.06437282264232635,-0.0051975250244140625,-0.19352898001670837
443,2.8163536014464206,1.1896535389594796,-0.7250037423948393,0.11886128783226013,-0.9282401204109192,0.35248032212257385,-0.06208421662449837,1.1434264183044434,-0.33452701568603516,0.12834636867046356,0.4550802707672119,-0.15443643927574158
444,2.8868022644034346,1.148121866003608,-0.6795692270712388,0.10338830947875977,-0.9119951128959656,0.3969588875770569,-0.42820462584495544,0.7087013721466064,-0.25729694962501526,0.011693499982357025,0.12970727682113647,-0.18875256180763245
445,2.761136810065724,1.2189789452646913,-0.5195989712411576,0.12796659767627716,-0.9387480020523071,0.31996336579322815,-0.12637609243392944,0.7581493258476257,-0.3165132701396942,-0.26427340507507324,-0.00903630256652832,0.5958386659622192
446,2.7113244595902377,1.1723141295166366,-0.5526002216055919,0.16184882819652557,-0.9216510057449341,0.3526535630226135,-1.2096089124679565,-0.37886860966682434,0.42008188366889954,-0.06580999493598938,-0.5550336241722107,-0.5917129516601562
447,2.7699930008355347,1.2297558086007268,-0.5576400769285831,0.12144720554351807,-0.9424071311950684,0.31163913011550903,-0.8779710531234741,-0.03991272673010826,-0.26854225993156433,0.053540557622909546,-0.35510849952697754,-0.18357223272323608
448,2.5925492568714956,1.2915253080322584,-0.3766934658879019,0.14385651051998138,-0.9612566232681274,0.23514042794704437,-0.5405279397964478,-0.22432808578014374,-0.18673869967460632,0.16107511520385742,0.36140310764312744,-0.045351624488830566
449,2.5560261340204655,1.2914660387949548,-0.37380349943954716,0.15237823128700256,-0.961240291595459,0.2297782003879547,0.6926723122596741,-0.6874125003814697,0.3729611039161682,-0.06624236702919006,0.2509589195251465,-0.08187472820281982
450,2.713261602531902,1.2926413400072065,-0.5268013886264572,0.11404857039451599,-0.9615637063980103,0.2497764378786087,-0.14020811021327972,0.5514280200004578,0.3530859053134918,0.04885426163673401,0.18154966831207275,0.13625574111938477
451,2.5763616837216365,1.3165109018360035,-0.43165681487088625,0.13473522663116455,-0.9678432941436768,0.21242879331111908,-0.368722528219223,-1.3151789903640747,-0.4138246774673462,0.32772815227508545,-0.2886418104171753,0.3042033016681671
452,2.6481239716939173,1.2826029668351933,-0.5396215779711409,0.13463030755519867,-0.9587589502334595,0.25031110644340515,1.0895664691925049,0.06429927051067352,0.33824676275253296,0.03083595633506775,-0.4069940447807312,-0.08383780717849731
453,2.7421631632247654,1.2445836680395492,-0.6724182023221271,0.12462344765663147,-0.9472628235816956,0.2952316403388977,-0.17636935412883759,-0.3743966817855835,-0.14853881299495697,-0.12575262784957886,0.08488202095031738,-0.23950666189193726
454,2.761149009619119,1.183104807896241,-0.7168460344601261,0.14038331806659698,-0.9257842302322388,0.3510221540927887,0.37989184260368347,-0.6638206243515015,0.1910213828086853,-0.0021233856678009033,0.31517302989959717,0.17711517214775085
455,2.8015305431436346,1.1915273179642145,-0.7594661836155976,0.12349238246679306,-0.9289355278015137,0.34903907775878906,-0.23678094148635864,0.6592452526092529,0.085821732878685,-0.009417690336704254,0.18261295557022095,-0.13952067494392395
456,2.7888738895469425,1.2007007949746678,-0.6728939547702258,0.12495099008083344,-0.9322928190231323,0.3394368886947632,1.1391761302947998,0.6537083983421326,-0.3946627974510193,0.18936482071876526,-0.058597683906555176,1.3146463632583618
457,2.7389264387934498,1.2062447880061502,-0.6315455979434741,0.1397145688533783,-0.9342837333679199,0.328014999628067,-0.8953732252120972,0.6325198411941528,0.020716218277812004,-0.1017049252986908,-0.2646145820617676,-0.7384611368179321
458,2.7567548297417748,1.247539615791688,-0.5973535444959988,0.11925084888935089,-0.9482059478759766,0.2944223880767822,-0.4796721637248993,-0.017315862700343132,-0.20438052713871002,0.12720908224582672,-0.2272394895553589,-0.12050274014472961
459,2.622140196494941,1.278773334995321,-0.492044247317553,0.14291030168533325,-0.9576634168624878,0.24991527199745178,-0.17298057675361633,-0.38678818941116333,-0.06030610203742981,0.10058943927288055,0.44483065605163574,-0.07059404253959656
460,2.569161576671698,1.259538749180179,-0.490103646835275,0.16589176654815674,-0.9519491791725159,0.25743451714515686,0.1480053812265396,-0.6362809538841248,0.04012603312730789,0.005205020308494568,0.21072310209274292,0.01025041937828064
461,2.5773860028196705,1.2671067040093018,-0.4961894663552681,0.1599121391773224,-0.9542396068572998,0.25269559025764465,-0.09853019565343857,0.4596557915210724,0.2322063148021698,0.009109452366828918,0.04206913709640503,0.16106179356575012
462,2.5229504627351993,1.2564607701377628,-0.4227552332032618,0.17930525541305542,-0.9510020017623901,0.2518823444843292,0.379518985748291,-0.6756599545478821,-0.2669546902179718,0.194077268242836,-0.3055744767189026,0.3322088420391083
463,2.676224654417045,1.2041502766041108,-0.61450779612988,0.160871222615242,-0.9335349202156067,0.3203633725643158,0.7078245282173157,-0.6487544178962708,0.49780961871147156,-0.08242583274841309,-0.428678035736084,-0.23329681158065796
464,2.7167458523519934,1.1787096178944543,-0.7195648541162769,0.15750154852867126,-0.9241136908531189,0.34814774990081787,-0.23654967546463013,-0.17140041291713715,0.05371648818254471,-0.06176789104938507,0.20371592044830322,-0.26312580704689026
465,2.7376634038583982,1.1724283902709896,-0.7375874251277553,0.152463898062706,-0.921695351600647,0.3566969633102417,0.7605569958686829,-0.34607064723968506,0.03885979205369949,0.035142943263053894,0.3838381767272949,-0.009055942296981812
466,2.7328850128506,1.19693839938192,-0.7247672147813686,0.1451430320739746,-0.9309253096580505,0.33512935042381287,-0.6721332669258118,0.3763594627380371,-0.05816922336816788,0.0003952980041503906,0.07301521301269531,-0.0479130744934082
467,2.754322092216851,1.1723942336325748,-0.6657662108219695,0.14651282131671906,-0.9216820597648621,0.3592163920402527,0.8086631298065186,-0.5209293961524963,-0.16405515372753143,0.11329858005046844,-0.1504921317100525,0.83840012550354
468,2.755400512490215,1.1894533524830975,-0.6537300346284953,0.14018191397190094,-0.9281656742095947,0.34475716948509216,0.039007432758808136,0.5647597312927246,0.2262892723083496,0.19216977059841156,-0.4615132212638855,-0.510406494140625
469,2.699633639866157,1.221090630502304,-0.6010255113691987,0.14654293656349182,-0.939473569393158,0.30970072746276855,-0.41512489318847656,-0.3096635043621063,-0.14516456425189972,-0.034802839159965515,0.028050899505615234,0.026877611875534058
470,2.6033502774015203,1.2328839265967793,-0.5345862931451509,0.16994549334049225,-0.9434487819671631,0.28464531898498535,0.07914095371961594,-0.6479663252830505,0.00953841395676136,-0.06827619671821594,0.4662148952484131,-0.10756707191467285
471,2.5815249497736845,1.23308559057269,-0.5706654302566433,0.17601613700389862,-0.9435156583786011,0.28070786595344543,-0.20044264197349548,-0.18287350237369537,0.10516899824142456,-0.01495961844921112,0.09550833702087402,-0.03633829951286316
472,2.609554783458057,1.2666479620946283,-0.5699305297313194,0.1519235074520111,-0.9541023373603821,0.25808459520339966,-0.31083378195762634,0.6675865650177002,-0.21020816266536713,0.2002951055765152,-0.1478567123413086,0.22625991702079773
473,2.5379965786015486,1.2504306823116071,-0.5150717078894481,0.1787470579147339,-0.9491203427314758,0.25926825404167175,0.8590561747550964,-0.04876575618982315,0.4023674428462982,-0.11795604228973389,-0.14403456449508667,0.37279653549194336
474,2.7152989042532463,1.1881284626777397,-0.736328995739664,0.1543993353843689,-0.9276717901229858,0.33997970819473267,0.3584482967853546,-0.477666974067688,0.1505664736032486,0.010883882641792297,-0.4415757656097412,-0.40438708662986755
475,2.7053008147084454,1.1806744365772879,-0.7090959943556678,0.16070827841758728,-0.9248626828193665,0.3446764349937439,-0.19465696811676025,0.14636728167533875,-0.15288805961608887,-0.13569912314414978,0.39748847484588623,-0.19074583053588867
476,2.731345969427641,1.1560235096605829,-0.7440519597678974,0.16072361171245575,-0.9152079224586487,0.3695437014102936,-0.4300752580165863,-0.0007802755571901798,0.1382187008857727,0.021527349948883057,0.1876382827758789,-0.19487643241882324
477,2.694778190105204,1.2099431021151212,-0.6593706994356893,0.15256094932556152,-0.9355959296226501,0.3184109628200531,-0.1139686331152916,1.2521859407424927,-0.44828152656555176,-0.05798697471618652,-0.01713240146636963,0.372094988822937
478,2.660281722969378,1.1536728359467776,-0.6572921525218498,0.18755261600017548,-0.9142580628395081,0.35910481214523315,-2.2539193630218506,-1.0056445598602295,0.4965480864048004,-0.14212721586227417,-0.6790952086448669,-0.49293971061706543
479,2.698006021491262,1.2150693016139256,-0.6384869188089195,0.14947214722633362,-0.9373935461044312,0.3145659565925598,-0.7602867484092712,-0.08631335198879242,-0.07044418901205063,0.09854419529438019,-0.4191892147064209,-0.23682233691215515
480,2.55286428123339,1.2632564190153663,-0.4918822126123208,0.16809913516044617,-0.9530811309814453,0.251752644777298,-0.33472514152526855,0.030844684690237045,-0.1863299012184143,0.19170312583446503,0.31323421001434326,0.015779763460159302
481,2.455845541405194,1.2583891912522798,-0.43612565626997496,0.19463005661964417,-0.9515964984893799,0.2378726452589035,0.05458393320441246,-0.6915138363838196,-0.027733642607927322,-0.044926077127456665,0.3415195941925049,-0.018054485321044922
482,2.437224510370467,1.2706179260912964,-0.4405604433958668,0.19147494435310364,-0.9552837610244751,0.22532212734222412,-0.3338779807090759,0.2260499745607376,0.15101134777069092,-0.09095007181167603,0.18712592124938965,0.1486097276210785
483,2.4161260706345726,1.2753301837491613,-0.3866689251128366,0.19319729506969452,-0.9566665291786194,0.2178622931241989,0.028827842324972153,-0.3913484811782837,-0.66306072473526,0.5404452681541443,-0.20036166906356812,0.20811723172664642
484,2.4923326223955535,1.2215241233553644,-0.4830116999510075,0.20690183341503143,-0.9396220445632935,0.2725844979286194,1.2803645133972168,0.20627038180828094,0.2503012418746948,-0.06281307339668274,-0.2571096420288086,0.10694745182991028
485,2.6099946844445383,1.1651909542598995,-0.6423291129909612,0.20001482963562012,-0.9188637137413025,0.34012335538864136,-0.003080642782151699,0.16423112154006958,-0.14588519930839539,-0.14471691846847534,-0.08591246604919434,-0.2439013421535492
486,2.6063463580868906,1.178433817638413,-0.6021397208802498,0.19503037631511688,-0.924008309841156,0.32889533042907715,-0.32015618681907654,0.32044756412506104,-0.029203232377767563,-0.07979598641395569,0.3296172618865967,-0.16512271761894226
487,2.6054339298333553,1.1951961991934539,-0.5669144397786408,0.18739071488380432,-0.9302876591682434,0.31535574793815613,-0.4473760724067688,0.28224554657936096,-0.0434100404381752,-0.06089538335800171,0.28159093856811523,-0.02914673089981079
488,2.6321849337524386,1.1941764131304242,-0.4945213403867274,0.17935144901275635,-0.9299130439758301,0.32108384370803833,1.8345698118209839,3.0861876010894775,-0.8283392190933228,0.12876929342746735,0.0585598349571228,0.8994513750076294
489,2.636512610696145,1.1696669909915394,-0.4886634886919953,0.18893396854400635,-0.9206206202507019,0.34170398116111755,-0.5877876281738281,0.6516674757003784,0.0654146820306778,0.05969274044036865,-0.2706177830696106,-0.6171861886978149
490,2.6274474090195077,1.184968107291282,-0.4476277416326155,0.18507415056228638,-0.9264870882034302,0.32767295837402344,-0.3483980894088745,-0.21421828866004944,-0.3030831515789032,-0.012192055583000183,-0.23350149393081665,-0.1404019296169281
491,2.5155038584392306,1.20700110139584,-0.331916998470563,0.20850537717342377,-0.9345531463623047,0.28833281993865967,-0.31653979420661926,-0.038212619721889496,-0.23014403879642487,0.11014391481876373,0.47517210245132446,-0.13083162903785706
492,2.453593306024653,1.2114628233288514,-0.277921418206908,0.22329559922218323,-0.9361314177513123,0.2716563642024994,-0.017497068271040916,-0.11714243143796921,-0.03715815395116806,0.13237151503562927,0.20630353689193726,0.05999350547790527
493,2.4163647570573237,1.2186069938293713,-0.21318157910942773,0.22880998253822327,-0.9386197328567505,0.25814563035964966,-0.41487517952919006,0.5473580360412598,-0.2035169005393982,0.008662581443786621,-0.005792498588562012,0.11792254447937012
