,attitude.roll,attitude.pitch,attitude.yaw,gravity.x,gravity.y,gravity.z,rotationRate.x,rotationRate.y,rotationRate.z,userAcceleration.x,userAcceleration.y,userAcceleration.z
0,-1.2607642226936102,-1.0730529905266313,-1.5933818071231158,-0.4546811580657959,0.8786622285842896,-0.14566297829151154,-0.7687523365020752,4.307595729827881,0.5812904834747314,-0.5173189640045166,-0.44311535358428955,0.4689509868621826
1,-0.062101469201135885,0.8145116882357909,-1.6704329334934063,-0.04258810728788376,-0.7273905873298645,-0.6849008202552795,0.4526863098144531,-0.07705400139093399,0.017104892060160637,-0.022505905479192734,0.11873281002044678,0.29838043451309204
2,-0.0800418176787402,0.7822196541847214,-1.6669756418493724,-0.05671711266040802,-0.7048556804656982,-0.7070796489715576,-0.6370497345924377,-0.3071483075618744,0.25201430916786194,-0.041610509157180786,0.03504061698913574,0.17207598686218262
3,-0.2651720808563842,0.6875004184359134,-1.6178200916213248,-0.20254090428352356,-0.6346073746681213,-0.7458221316337585,-1.756771206855774,-2.5138087272644043,0.7061372399330139,-0.25421565771102905,0.2951756715774536,0.32353514432907104
4,-0.5808553485547758,0.3710469261243985,-1.6476159565081296,-0.5113965272903442,-0.36259132623672485,-0.7791027426719666,-3.485504388809204,-6.1864495277404785,1.2951860427856445,-0.155443012714386,0.9358640909194946,0.33527040481567383
5,-1.2162161979530797,0.024279780488827157,-1.6481036635798243,-0.9375158548355103,-0.024277394637465477,-0.3470942974090576,-1.8417993783950806,-4.997596740722656,4.292239665985107,0.2419898509979248,0.9552772045135498,0.060992032289505005
6,-1.5152157414298435,-0.5951626868570004,-1.9067675797997024,-0.8267785906791687,0.5606434941291809,-0.04600021615624428,-3.745044708251953,-1.6499501466751099,6.556971073150635,-0.648181676864624,1.3582102060317993,-0.7881367802619934
7,-1.7759681800485296,-1.1128788884658796,-1.9575870767833767,-0.4328084886074066,0.8969751000404358,0.09006749093532562,2.392442226409912,0.8848138451576233,1.9188580513000488,-1.9735329151153564,-0.23738360404968262,-0.9043375253677368
8,-1.5921141844785334,-1.2103458862082381,-1.9762847166573372,-0.3526151776313782,0.9357380270957947,0.007518139202147722,-0.5734714865684509,-0.9571300148963928,-0.30094411969184875,-1.556381344795227,-0.5738760232925415,-0.4391435384750366
9,-1.5296229557993206,-1.0094452681419397,-1.6695743576952928,-0.5318794846534729,0.8465366959571838,-0.021911654621362686,1.4768424034118652,-2.2583320140838623,-3.562068223953247,-0.9875907897949219,0.0015926957130432129,-0.2671660780906677
10,-1.5776480254975498,-0.5753026814762585,-1.4735624425110876,-0.8390079140663147,0.5440887808799744,0.005748719442635775,1.710500955581665,-1.4426634311676025,-4.747585296630859,-0.03832662105560303,0.22101736068725586,-0.4000663757324219
11,-1.6288016418082776,-0.10247264891839142,-1.3209857381799956,-0.9930812120437622,0.10229340195655823,0.05766867846250534,1.0088953971862793,-0.6831697821617126,-4.201314926147461,0.12540549039840698,0.7591720223426819,-0.33748435974121094
12,-1.6918394705202506,0.2553483714849812,-1.1907819648992768,-0.9604958891868591,-0.25258249044418335,0.11683259159326553,1.3478248119354248,0.24650926887989044,-3.445952892303467,0.16119474172592163,1.0179632902145386,-0.3327139616012573
13,-1.5924878468948833,0.4456690726855595,-1.144749142055747,-0.90211021900177,-0.43106168508529663,0.0195712111890316,-1.3254269361495972,0.6903864741325378,0.7104029655456543,0.5447340607643127,1.258133888244629,0.1490384340286255
14,-1.5448013339674405,0.13546950923570908,-1.2612685582657455,-0.9905032515525818,-0.1350555270910263,-0.025753924623131752,-0.6713845729827881,-0.06572669744491577,4.723540782928467,-0.07794761657714844,1.0859832763671875,-0.13972759246826172
15,-1.512802816949038,-0.3585838770229438,-1.4146283495131682,-0.9348204135894775,0.3509485423564911,-0.05427437648177147,-2.3860924243927,1.6370409727096558,4.336613178253174,-0.3464752435684204,0.3919713497161865,-0.24774283170700073
16,-1.499004180792108,-0.7956772009246247,-1.6757515522800221,-0.6979987025260925,0.7143376469612122,-0.050197094678878784,-1.81147301197052,0.9285616278648376,4.308937072753906,-0.6030267477035522,-0.04722338914871216,-0.4389844536781311
17,-1.451277815077962,-1.1479391629244389,-1.6141258805040894,-0.4074402153491974,0.9119201898574829,-0.0489298515021801,1.7119115591049194,-0.03551265969872475,2.1131770610809326,-1.39923095703125,-0.7500091791152954,-0.2831166386604309
18,-1.2013874548465933,-1.17218343235687,-1.4395941411524138,-0.3619568347930908,0.9216002821922302,-0.14014363288879395,-0.038587696850299835,-0.305075466632843,-0.6369284391403198,-1.2130858898162842,-0.7264098525047302,0.056189775466918945
19,-1.4018926534784817,-0.9863422922914834,-1.5153620289355068,-0.5438926219940186,0.8340134620666504,-0.09274914115667343,0.6617716550827026,-2.2277936935424805,-3.303744077682495,-1.1391823291778564,-0.03774881362915039,-0.3642210364341736
20,-1.581482580317147,-0.5466883139555028,-1.472338543623644,-0.8542020916938782,0.519861102104187,0.009128567762672901,0.4258633852005005,-1.527938723564148,-4.764700889587402,-0.4679872393608093,0.5576688051223755,-0.4460792541503906
21,-1.6580907742368898,-0.10204425911304518,-1.3444339866315909,-0.9910101294517517,0.10186725109815598,0.08673009276390076,1.4662683010101318,-0.9498636722564697,-4.198476314544678,0.14013421535491943,0.6750187277793884,-0.39617836475372314
22,-1.7683339463668666,0.23852663506449298,-1.1618513983358532,-0.9527907371520996,-0.2362712323665619,0.19069892168045044,0.823371946811676,-0.7135500311851501,-2.7704150676727295,0.37953317165374756,0.8798564076423645,-0.3321935832500458
23,-1.8287513525962802,0.38333253619881513,-1.0709521111671325,-0.8967384099960327,-0.374013215303421,0.2365892082452774,0.3516344726085663,0.13018593192100525,-0.5563759207725525,0.4381355047225952,0.8829548358917236,-0.3729264736175537
24,-1.7439806426529865,0.2336284538358616,-1.0462050813429433,-0.9582802653312683,-0.23150892555713654,0.16763845086097717,1.1403660774230957,1.420626163482666,3.4002747535705566,-0.04718238115310669,0.8549220561981201,-0.4168144464492798
25,-1.5843826950738091,-0.21629032156657443,-0.9122324563398038,-0.9766101241111755,0.2146078646183014,0.013269401155412197,1.7714564800262451,1.479878544807434,4.551995277404785,-0.7431011199951172,0.4716256856918335,-0.09365272521972656
26,-1.3370586716695507,-0.5139023586809107,-0.7703922443637667,-0.8471527099609375,0.4915792942047119,-0.20169807970523834,0.8139675259590149,2.3393990993499756,2.214907646179199,-0.532745361328125,-0.3872702121734619,0.13603949546813965
27,-1.1883656696206677,-0.6040192810746836,-0.6049944886028379,-0.7636018395423889,0.5679551362991333,-0.3071465492248535,1.3870186805725098,-0.3260883092880249,0.21241062879562378,-0.7499173879623413,-0.6930468082427979,0.3296838104724884
28,-1.1733468045568438,-0.43983709627041445,-0.5202020013600726,-0.8342913389205933,0.42579206824302673,-0.3502272069454193,2.294769763946533,-2.0329172611236572,-1.7924286127090454,-0.11981022357940674,-0.22075971961021423,0.1881178617477417
29,-1.3322479749287568,-0.3233167283812648,-0.41945260049451644,-0.9213361144065857,0.3177131712436676,-0.22404928505420685,1.78520667552948,-2.861537456512451,-0.6608178615570068,-0.1587114930152893,0.2211204171180725,-0.14231425523757935
30,-1.4856018619811948,-0.1957953336911387,-0.34811927107858776,-0.9773356914520264,0.19454672932624817,-0.08346562087535858,-0.2807636559009552,-1.425628900527954,-1.8167272806167603,-0.16722607612609863,0.09634682536125183,-0.2757872939109802
31,-1.5277123136489814,-0.1446896184595677,-0.4341525180146343,-0.988632321357727,0.14418530464172363,-0.042620621621608734,-0.3383715748786926,-2.2553951740264893,1.5746684074401855,0.5920107364654541,-0.06345106661319733,-0.13941675424575806
32,-1.552204798981218,-0.316259092834313,-0.4868240418915217,-0.9502412676811218,0.3110133707523346,-0.017668472602963448,0.690096914768219,0.36740195751190186,1.1805830001831055,0.4662020206451416,-0.15680807828903198,0.09359622001647949
33,-1.4017587715107933,-0.3983071867511569,-0.5236831144660795,-0.9085817337036133,0.3878585994243622,-0.1550641804933548,-0.36344674229621887,1.9224820137023926,-0.8017380833625793,-0.5284146666526794,-0.15888521075248718,0.2371869683265686
34,-1.383089031240124,-0.35753418206521376,-0.5679181995500965,-0.9203081727027893,0.3499654233455658,-0.17480644583702087,-0.19992966949939728,-0.11122701317071915,-0.517450749874115,-0.5352583527565002,0.14072677493095398,-0.27374088764190674
35,-1.4231427324010222,-0.5197537039928247,-0.5247860402018869,-0.8584975600242615,0.4966663718223572,-0.12768954038619995,0.5555764436721802,-1.9222524166107178,3.670487642288208,0.06993860006332397,0.3155589699745178,-0.10441184043884277
36,-1.6249579077212968,-0.683705581540914,-0.5644894471387888,-0.7741005420684814,0.6316700577735901,0.04196755588054657,-0.3358144760131836,-0.7019863128662109,0.38328152894973755,0.08676844835281372,0.03787028789520264,-0.2627469301223755
37,-1.8238214569506002,-0.7598762973978731,-0.636278195063524,-0.7018395662307739,0.6888317465782166,0.18147240579128265,-0.08900266885757446,-1.2573564052581787,1.234535574913025,0.29822927713394165,-0.3652995824813843,0.004364386200904846
38,-1.8612596542083455,-0.889685048401298,-0.5869421276012543,-0.6032810211181641,0.7768734693527222,0.18033123016357422,1.2163493633270264,0.07960662245750427,1.2464845180511475,0.10064136981964111,-0.4243955612182617,0.1386689841747284
39,-1.8636166527328002,-1.0634515722559066,-0.4545243513561597,-0.46517717838287354,0.8740376830101013,0.14024479687213898,1.9428625106811523,-4.675936222076416,1.485236644744873,-0.21074146032333374,-0.25353890657424927,0.11326481401920319
40,-2.314343555818406,-1.168441970768468,-0.563072911387217,-0.2882355749607086,0.9201416373252869,0.26506584882736206,1.136997938156128,-3.0952439308166504,2.642749071121216,0.15240183472633362,-0.5316832065582275,-0.42308589816093445
41,0.33428917853818196,-1.5429756081905097,2.2331207764890793,0.009125536307692528,0.9996130466461182,-0.02627381682395935,-0.5637860894203186,4.776365280151367,0.7157112956047058,-0.5475929975509644,2.5489556789398193,-0.25012385845184326
42,-1.6005595946169604,-1.5155117691146867,-0.0007165451823034627,-0.05523185804486275,0.9984722137451172,0.0016443661879748106,0.3577766418457031,1.9522318840026855,-1.2337729930877686,-0.16899600625038147,-0.4970531463623047,0.023410558700561523
43,-1.1055234767174387,-1.3715551377921287,0.1631715251064405,-0.1768856793642044,0.9802170395851135,-0.08880248665809631,0.6768346428871155,3.5055673122406006,-1.8196254968643188,-0.1533907949924469,-0.1970444917678833,0.14980709552764893
44,-0.8841298201656315,-1.180629775335951,0.1085786128939823,-0.2941429615020752,0.9248457551002502,-0.24112287163734436,1.3816889524459839,-1.3352419137954712,-1.5531299114227295,-0.5310828685760498,0.23033607006072998,0.3428837060928345
45,-1.2990932394553492,-1.1904619418201525,-0.2977557162542354,-0.3576127290725708,0.9285405278205872,-0.09962823241949081,-1.9558866024017334,-1.1819782257080078,0.5523021221160889,-0.0800856351852417,0.49086254835128784,-0.23337960243225098
46,-1.529740303022522,-1.2470796218129643,-0.32061597150160415,-0.3178246021270752,0.9480597376823425,-0.013055951334536076,0.4989183247089386,-1.342339277267456,0.6162425875663757,-0.050156354904174805,0.48823481798171997,-0.2763880491256714
47,-2.188456178644976,-1.225875954791058,-0.838786799700011,-0.27564895153045654,0.9411023855209351,0.1958160549402237,-2.985689401626587,-1.3552496433258057,-0.1936463713645935,-0.06137192249298096,-0.31683486700057983,-0.28912353515625
48,-2.3970527419132805,-1.118771718755309,-1.0145040153327607,-0.29598182439804077,0.8995646238327026,0.32121336460113525,0.14843569695949554,0.3312608301639557,-0.048994727432727814,0.24573466181755066,-0.5177288055419922,-0.30873170495033264
49,-2.24263184112293,-1.250934954260227,-0.8632051518409045,-0.24610215425491333,0.9492790102958679,0.19571179151535034,-0.24953511357307434,0.07299691438674927,0.7512613534927368,0.038323238492012024,0.19250565767288208,0.1970188468694687
50,-2.244115475066994,-1.1721015091656415,-1.282164835286866,-0.3034900426864624,0.9215684533119202,0.24208517372608185,1.5696643590927124,-1.7523249387741089,-0.2801607847213745,-0.6504741907119751,-0.42507803440093994,-1.1878554821014404
51,-2.265427198192966,-1.2216447296239628,-1.1418835256135087,-0.26283255219459534,0.939663290977478,0.21897928416728973,2.126089572906494,-1.4387298822402954,0.3214840590953827,-0.15013131499290466,0.9463993310928345,-0.5077213048934937
52,-2.46224335457763,-1.324639300405943,-1.1399173992457081,-0.1531001627445221,0.9698560237884521,0.1895776093006134,2.285153865814209,-1.3844802379608154,0.328044593334198,0.11950033903121948,-0.5878980159759521,-0.041933536529541016
53,-1.9926800852657274,-1.3355982929955825,-0.809029851898373,-0.21260307729244232,0.9724681973457336,0.09542346745729446,-0.12848059833049774,2.338376522064209,-0.581777811050415,-0.037412166595458984,-0.5665996670722961,0.04411816596984863
54,-1.5036915699471995,-1.3417308650806836,-0.4052025732563707,-0.22655634582042694,0.9738790392875671,-0.015225869603455067,1.7421976327896118,0.7137627601623535,-0.022993823513388634,-0.23674623668193817,-0.08598542213439941,0.12498235702514648
55,-1.1325752814233896,-1.2868357622061737,-0.13270517161836817,-0.2536867558956146,0.9599533677101135,-0.11887992918491364,-1.2353216409683228,0.5547821521759033,-0.990446925163269,-0.640264630317688,0.3398665189743042,0.49560415744781494
56,-1.7860922910700694,-1.2527087306371338,-0.7601618657971441,-0.3055301308631897,0.9498352408409119,0.06681495159864426,-1.513534665107727,-1.1307339668273926,0.13461899757385254,0.2571750283241272,0.5174803733825684,-0.2547268867492676
57,-2.3607226947050637,-1.218915947766968,-1.2374672310598218,-0.24260787665843964,0.9387262463569641,0.24481503665447235,-2.1051948070526123,-1.5327506065368652,0.5491752028465271,0.05059128999710083,-0.1904352903366089,-0.09462273120880127
58,-2.7147560765694796,-1.138897631894546,-1.45909074673512,-0.17329570651054382,0.908172607421875,0.3810390532016754,-0.7389926910400391,-0.580804705619812,0.040068238973617554,-0.0835554450750351,-0.42118847370147705,-0.23542457818984985
59,-2.5818904163039287,-1.1641472823421166,-1.404008821584638,-0.21000251173973083,0.9184513688087463,0.3351809084415436,1.7171443700790405,3.193699598312378,-0.005404096096754074,-0.026829153299331665,-0.20955848693847656,0.11989715695381165
60,-2.3815296756490554,-1.1484649745557787,-1.3209112999404469,-0.28239941596984863,0.9121358394622803,0.29708388447761536,0.3742294907569885,1.8356386423110962,-0.37721970677375793,-0.08176678419113159,0.16049599647521973,0.5610551834106445
61,-2.3708815824420633,-1.1704900848390236,-1.2259901990676116,-0.2714831233024597,0.9209417104721069,0.2795771658420563,-0.3322998881340027,-0.9725993871688843,0.04880937561392784,0.23852410912513733,0.36113226413726807,0.05996131896972656
62,-2.476173939795201,-1.2019275724774157,-1.2254410323862546,-0.2226060926914215,0.932735800743103,0.2836381196975708,0.6971868872642517,0.5705734491348267,0.0559411384165287,-0.07542863488197327,-0.12015938758850098,-0.24440786242485046
63,-2.1674106451271604,-1.272297364099061,-0.9979379802198468,-0.24328039586544037,0.9557790160179138,0.1652306765317917,1.25760018825531,1.3118541240692139,-0.1261756867170334,0.0049228668212890625,-0.4531697630882263,-0.047570109367370605
64,-1.611463947452535,-1.2924918306971502,-0.5600874098745242,-0.27449819445610046,0.96152263879776,0.01116934698075056,1.535292148590088,0.48220738768577576,-0.04600082337856293,-0.10936710238456726,-0.24187248945236206,0.16348278522491455
65,-1.2641500667184904,-1.2782436864775781,-0.2541634240764501,-0.27494409680366516,0.9575108289718628,-0.08705653250217438,0.6129727959632874,0.6731353402137756,-0.14420947432518005,-0.3714640140533447,0.11754715442657471,0.07047021389007568
66,-1.4089267119959104,-1.2383413627110444,-0.45806256965250247,-0.3220983147621155,0.9452439546585083,-0.052598122507333755,-2.332252264022827,-0.4833746552467346,-0.35353249311447144,-0.007872998714447021,0.4796980619430542,0.025925755500793457
67,-2.1129946612433947,-1.2393320733054816,-1.086164780525099,-0.27875375747680664,0.9455668330192566,0.1679273396730423,-1.1079460382461548,-1.6413358449935913,0.6611442565917969,0.10605481266975403,0.6343280673027039,-0.23708011209964752
68,-2.6255983514870245,-1.1498064424525785,-1.463689932566971,-0.20163503289222717,0.9126848578453064,0.3554574251174927,-2.042128562927246,-1.4020066261291504,0.22775651514530182,-0.038492605090141296,-0.41778111457824707,-0.2309761345386505
69,-2.7741241618065464,-1.0718676894353443,-1.5502041673955533,-0.17189772427082062,0.8780956864356995,0.44654130935668945,-0.21780075132846832,-0.1936163306236267,-0.033250197768211365,0.040931522846221924,-0.21703922748565674,-0.31717729568481445
70,-2.565028802445262,-1.1901693701928773,-1.4215447119244378,-0.2025236338376999,0.9284319281578064,0.3114462196826935,1.6741125583648682,3.583491086959839,0.06237486004829407,-0.1599489152431488,-0.16826939582824707,0.5881052017211914
71,-2.4301775795373746,-1.144147670182382,-1.3906458714128842,-0.27018728852272034,0.9103577136993408,0.31344515085220337,0.8081706166267395,0.4074666500091553,-0.11622131615877151,0.028076082468032837,-0.05278325080871582,0.1591196060180664
72,-2.5875223007715427,-1.1692995621670939,-1.3787975660942866,-0.20561876893043518,0.9204770922660828,0.33232948184013367,0.6024852395057678,-1.8240090608596802,0.5039709210395813,-0.01650339365005493,0.26564961671829224,-0.21111369132995605
73,-2.672598413713482,-1.196798809728582,-1.4076152686233963,-0.165129616856575,0.9308743476867676,0.3258914649486542,0.2913258671760559,0.616527259349823,0.126914843916893,-0.03810220956802368,-0.22729158401489258,-0.39690589904785156
74,-2.4556357293143427,-1.2697841026692174,-1.2834661490580919,-0.1877993941307068,0.9550368785858154,0.22942611575126648,0.9103025794029236,2.0370395183563232,-0.03080466203391552,-0.08305937051773071,-0.4066206216812134,0.03531387448310852
75,-1.8948197135017122,-1.3502823046081096,-0.8672268481489265,-0.2073490470647812,0.9757851362228394,0.0696403831243515,1.7432942390441895,0.7114872336387634,0.1629524827003479,-0.12950399518013,-0.07606589794158936,0.1086585521697998
76,-1.08933066033789,-1.33491739779543,-0.14594941522981564,-0.20713020861148834,0.9723092913627625,-0.10822039097547531,1.1789865493774414,1.1410664319992065,-0.30890387296676636,-0.49936699867248535,0.20861411094665527,0.4142048954963684
77,-1.4201765312410695,-1.3072180477349002,-0.5428983125786387,-0.2575877010822296,0.9654638767242432,-0.03909388557076454,-2.2598800659179688,0.008560344576835632,-0.3045334219932556,0.025638818740844727,0.3168390989303589,-0.11303627490997314
78,-2.2058979156504095,-1.287670764368288,-1.24255883383124,-0.2248864471912384,0.9601869583129883,0.1657317727804184,-0.8153491616249084,-1.2603169679641724,0.31611359119415283,0.1082025021314621,0.46435827016830444,-0.2503570318222046
79,-2.633192869485536,-1.1771139447383852,-1.5967913209087956,-0.18672482669353485,0.9235028028488159,0.33507686853408813,-1.2426072359085083,-1.5413588285446167,-0.06137983500957489,-0.07201847434043884,-0.4421337842941284,-0.40335988998413086
80,-2.748080261116823,-1.117706359775671,-1.6223780117982263,-0.1678469181060791,0.8990987539291382,0.4042879641056061,-0.09267181903123856,-0.3812403380870819,-0.2136998474597931,0.0985415130853653,-0.20628875494003296,-0.2549044191837311
81,-2.5942552366561626,-1.2118007878523818,-1.4987130446176289,-0.1828395575284958,0.9362502098083496,0.3000085949897766,1.3923853635787964,2.4076075553894043,-0.025032343342900276,-0.23247413337230682,-0.10061800479888916,0.3736059367656708
82,-2.3975115121976307,-1.195185270964385,-1.4138391642188344,-0.24845992028713226,0.9302836060523987,0.2698887288570404,-0.05962599068880081,2.400094985961914,-0.5069712400436401,-0.31622207164764404,0.24473464488983154,0.4543696343898773
83,-2.4658708675656515,-1.210469494985058,-1.3579324761156781,-0.22052516043186188,0.9357816576957703,0.2751028537750244,0.5076030492782593,-1.650641679763794,0.10991821438074112,-0.22144567966461182,0.2695254683494568,-0.6290457248687744
84,-2.4953480375935753,-1.2591247694638068,-1.2671469848800034,-0.18466252088546753,0.9518223404884338,0.24481454491615295,1.1823790073394775,-0.20488323271274567,0.0018773563206195831,-0.05223020911216736,-0.10732460021972656,-0.35098516941070557
85,-2.077558120102885,-1.3487039960559692,-0.8748126197718663,-0.19258762896060944,0.9754387140274048,0.10690828412771225,1.1356816291809082,0.8825955390930176,-0.2251889854669571,-0.07227444648742676,-0.3982292413711548,0.07342004776000977
86,-1.5531653419829266,-1.3597613680677898,-0.41134375930772366,-0.20943962037563324,0.9778146147727966,-0.0036930094938725233,0.8613836169242859,0.7399916648864746,0.024728666990995407,-0.032717376947402954,-0.1864633560180664,0.15722692012786865
87,-1.1156761649244882,-1.3322242227826635,-0.03966756771362362,-0.21226030588150024,0.9716764092445374,-0.10387715697288513,0.8137549757957458,1.2357274293899536,-0.44460591673851013,-0.5474442839622498,0.24988114833831787,0.22640520334243774
88,-1.4948809180608529,-1.2987050784830825,-0.4632479609313624,-0.26797255873680115,0.9632109999656677,-0.020382415503263474,-1.9704660177230835,-0.8925827741622925,-0.11961839348077774,0.19485241174697876,0.22473150491714478,-0.21538114547729492
89,-2.217772464571286,-1.2707625287168163,-1.0817004870989761,-0.23582392930984497,0.955326497554779,0.17815175652503967,-1.5893126726150513,-1.0892406702041626,0.3859856128692627,0.17089778184890747,0.17467820644378662,-0.06772388517856598
90,-2.6605941557569253,-1.1503297728195534,-1.4270388115550117,-0.18885338306427002,0.912898600101471,0.3618708550930023,-1.2618380784988403,-0.7508974671363831,-0.04430345818400383,0.0043441057205200195,-0.35912662744522095,-0.2737361192703247
91,-2.7317421620008564,-1.104549529235497,-1.4580180652858734,-0.1791280210018158,0.8932617902755737,0.4123065769672394,0.3690907061100006,-0.22684705257415771,-0.022913331165909767,0.09419755637645721,-0.2870604991912842,-0.2925860285758972
92,-2.4951813641190963,-1.2270643037958322,-1.29007094548429,-0.20298582315444946,0.9415035247802734,0.2690131962299347,1.1418200731277466,0.27505505084991455,0.014211451634764671,-0.21946904063224792,-0.06532847881317139,0.7625420093536377
93,-2.410828161706064,-1.1885184698162676,-1.2360875492582648,-0.24897801876068115,0.9278173446655273,0.2777857184410095,0.26013967394828796,0.4990209937095642,-0.3562771677970886,-0.29258692264556885,0.22591495513916016,0.1475377082824707
94,-2.4880896929523293,-1.224340810849367,-1.1991726300204115,-0.20644624531269073,0.9405822157859802,0.2696012556552887,0.4647751748561859,-1.9307167530059814,0.30342549085617065,-0.15518704056739807,0.3176268935203552,-0.4656766951084137
95,-2.4956010476713644,-1.2726125465657763,-1.1529029676388365,-0.17685596644878387,0.9558716416358948,0.23458850383758545,1.3423936367034912,0.8462832570075989,0.030614802613854408,-0.03400526940822601,-0.22392266988754272,-0.32034286856651306
96,-1.8803691538424814,-1.357728230086365,-0.6414162040883,-0.20140789449214935,0.9773867130279541,0.0644216388463974,1.2675400972366333,0.8586023449897766,-0.11029621213674545,0.0015482604503631592,-0.2925417423248291,0.1632699966430664
97,-1.3339391913704677,-1.3579185847738102,-0.16944377880343045,-0.20537473261356354,0.9774269461631775,-0.04957503080368042,1.0253993272781372,0.5800134539604187,0.03354810178279877,-0.14379213750362396,-0.22045373916625977,0.16685408353805542
98,-1.0087369089924245,-1.3160928661932072,0.07927136024291226,-0.21319733560085297,0.9677380323410034,-0.1342764049768448,0.9626592993736267,1.2257239818572998,-0.4259078800678253,-0.33193814754486084,0.21489441394805908,0.1817159652709961
99,-1.282323916484692,-1.290199678967575,-0.2690746265610167,-0.2654862105846405,0.9608903527259827,-0.07878301292657852,-2.2246973514556885,-0.4331819713115692,-0.2754038870334625,0.0405411422252655,0.35917794704437256,-0.1675090789794922
100,-2.040220723884872,-1.2948383669100088,-0.9089681517944128,-0.2429957091808319,0.9621646404266357,0.12325762957334518,-1.9065892696380615,-1.0547930002212524,0.37833210825920105,0.1384119689464569,0.35749173164367676,0.16884136199951172
101,-2.6507003611037696,-1.1795385173164776,-1.4118130973606167,-0.1797741949558258,0.9244301319122314,0.3363189399242401,-1.463742733001709,-1.3619719743728638,0.11046306788921356,0.010279521346092224,-0.3725501298904419,-0.3040771186351776
102,-2.7695976866907057,-1.105010979518629,-1.4788528183009182,-0.16324539482593536,0.8934690952301025,0.41840624809265137,-0.04195551574230194,-0.22130857408046722,-0.10325618088245392,0.06185077130794525,-0.24696952104568481,-0.33697012066841125
103,-2.552667594405972,-1.2257409123799377,-1.3422915650867175,-0.18788644671440125,0.9410567283630371,0.2812671661376953,1.3164243698120117,1.5294123888015747,0.13378888368606567,-0.19375115633010864,-0.07879769802093506,0.6363353729248047
104,-2.580127024330936,-1.1624783092353987,-1.3683166062044207,-0.21140897274017334,0.9177899956703186,0.33610695600509644,-1.0419394969940186,0.5567042827606201,-0.30879661440849304,-0.27563634514808655,0.44883304834365845,0.5102369785308838
105,-2.6622577141043373,-1.2173813650437912,-1.3569240116653394,-0.15961942076683044,0.9381962418556213,0.30709871649742126,0.9741973280906677,-1.2917932271957397,0.39376145601272583,-0.13847629725933075,0.2849789261817932,-0.5891574621200562
106,-2.629356365061809,-1.2953575444257146,-1.2893733512369043,-0.13329975306987762,0.9623059630393982,0.23706230521202087,1.8258419036865234,1.204033374786377,0.06615549325942993,-0.01330670714378357,-0.20485961437225342,-0.28544795513153076
107,-1.7312133799718041,-1.3957388784763842,-0.5234211606809299,-0.17192862927913666,0.984716534614563,0.027819326147437096,1.3516322374343872,0.9480628967285156,-0.4182805120944977,-0.18445563316345215,-0.266058087348938,0.14709210395812988
108,-1.1163129007769474,-1.359307510511208,0.0381141398554335,-0.18860739469528198,0.9777194857597351,-0.09215294569730759,0.722579300403595,0.8709937334060669,0.05590689927339554,-0.024069666862487793,-0.15968042612075806,0.3291219472885132
109,-0.9295809657569816,-1.3328342340384616,0.11134330663210111,-0.18890103697776794,0.9718203544616699,-0.14100228250026703,0.13425295054912567,0.9358607530593872,-0.6503199338912964,-0.6496456861495972,0.16253328323364258,0.2719379663467407
110,-1.6937368854635086,-1.3306128435754112,-0.6961031562794345,-0.2360859215259552,0.9712943434715271,0.02917165495455265,-2.499314308166504,-1.2292717695236206,0.5500853061676025,0.3827228844165802,0.49138277769088745,-0.24642634391784668
111,-2.4185037035670858,-1.3297084766697602,-1.3098762944143645,-0.15798814594745636,0.9710788130760193,0.1790136694908142,-0.6173956990242004,-0.753013551235199,0.4488454759120941,0.18725450336933136,-0.02111232280731201,-0.10581730306148529
112,-2.769808842818102,-1.220982880994103,-1.6234141933598951,-0.124503493309021,0.939436674118042,0.3193078935146332,-1.1793044805526733,-1.3733690977096558,-0.12090249359607697,-0.08014737814664841,-0.43650704622268677,-0.2993493378162384
113,-2.838044644891746,-1.1690124254804752,-1.6340291369530595,-0.11689124256372452,0.9203648567199707,0.3731825649738312,0.6745413541793823,-0.3141079545021057,0.000974239781498909,0.17739231884479523,-0.25431859493255615,-0.2481062114238739
114,-2.611627949975575,-1.263457908957025,-1.4988214323304005,-0.1529262512922287,0.9531421065330505,0.2610243856906891,-1.8871476650238037,-0.5235517621040344,-0.7870777249336243,-0.5945103168487549,0.40810978412628174,1.1961746215820312
115,-2.498945206818435,-1.2284665321444053,-1.4273159641867412,-0.20118023455142975,0.9419751763343811,0.2687179148197174,0.022463470697402954,-1.6092586517333984,0.06020347774028778,0.39344099164009094,0.48194456100463867,-0.5324661731719971
116,-2.781966447862944,-1.2342731525012796,-1.521272918534026,-0.11620810627937317,0.9439084529876709,0.3090837001800537,0.39795437455177307,-1.6405353546142578,0.29915502667427063,-0.13890360295772552,0.5001987218856812,-0.2523820102214813
117,-2.690649121848768,-1.2924092657898756,-1.5047045028238135,-0.11976432055234909,0.9614999294281006,0.24733488261699677,1.0632483959197998,0.8400811553001404,0.16229380667209625,-0.000886961817741394,-0.43293535709381104,-0.26820895075798035
118,-2.301883467484981,-1.3587605439801582,-1.2737289228002402,-0.1566697210073471,0.9776045083999634,0.14051350951194763,0.7760801911354065,1.965937852859497,-0.05817072466015816,-0.0533674955368042,-0.22525465488433838,0.03989124298095703
119,-1.4572726235571798,-1.4185196598642458,-0.5287929924595091,-0.15071244537830353,0.9884282946586609,-0.017183315008878708,1.5951566696166992,0.8242418766021729,0.04826222360134125,-0.24760299921035767,-0.06736201047897339,0.09706306457519531
120,-0.8709824845932367,-1.3491720364877402,-0.017562686707230272,-0.16814959049224854,0.9755417108535767,-0.14157694578170776,-0.5206679701805115,0.7587714791297913,-0.7457910180091858,-0.569383978843689,0.29781943559646606,0.5714780688285828
121,-1.6017648155298934,-1.368314985754213,-0.77206051950452,-0.2010042816400528,0.9795705676078796,0.0062267896719276905,-2.096480369567871,-0.8813235759735107,0.2665870785713196,0.2649691700935364,0.07432341575622559,-0.12402462959289551
122,-2.4936289832703116,-1.3214168369528028,-1.5441591018865113,-0.1489611715078354,0.9690657258033752,0.1967792809009552,-1.9946348667144775,-1.3113083839416504,0.3857187330722809,0.17110170423984528,0.09459388256072998,0.049940094351768494
123,-2.9258727010610674,-1.1538339887437117,-1.8453593730987798,-0.08668738603591919,0.9143233895301819,0.3955986797809601,-1.3409727811813354,-1.2673444747924805,-0.14702525734901428,-0.14521566033363342,-0.43567031621932983,-0.3256217837333679
124,-2.970031154630791,-1.1002953050140278,-1.834687131635008,-0.07739351689815521,0.8913412690162659,0.4466777741909027,0.6588200926780701,-0.25232335925102234,-0.025679707527160645,0.2089395523071289,-0.27503883838653564,-0.34065964818000793
125,-2.7315390662845456,-1.2699996271524474,-1.7270170766962454,-0.11811518669128418,0.9551007747650146,0.27171972393989563,-0.5831636786460876,-1.1963540315628052,-0.45014557242393494,-0.4939606189727783,0.2521136999130249,1.1975185871124268
126,-2.6226753743343707,-1.2217275331427437,-1.640497586332807,-0.1696227788925171,0.9396916031837463,0.296997606754303,0.06568096578121185,-1.4315319061279297,-0.23003274202346802,-0.17965088784694672,0.4121912121772766,-0.47067323327064514
127,-2.8507351739479074,-1.2355029866555465,-1.6646188053842914,-0.09436191618442535,0.9443138241767883,0.3152259886264801,0.7033098936080933,-1.7193293571472168,0.29567357897758484,-0.13621367514133453,0.45261311531066895,-0.4179023206233978
128,-2.8547432666573664,-1.2814416012495535,-1.6619085631677206,-0.08072997629642487,0.9584282040596008,0.27367502450942993,1.0552139282226562,0.8631631135940552,0.035489991307258606,0.01771117001771927,-0.28867417573928833,-0.3789607584476471
129,-2.444298609392391,-1.3894132331811844,-1.3782963529120105,-0.11583641916513443,0.9835951328277588,0.13828355073928833,1.156038761138916,1.6847615242004395,-0.19126498699188232,-0.15895907580852509,-0.45731961727142334,0.17282794415950775
130,-1.3808485041838927,-1.4457995297740647,-0.40485174213810954,-0.12242905795574188,0.9921980500221252,-0.02353891357779503,1.4290862083435059,0.6475582122802734,0.10347193479537964,-0.09456616640090942,-0.03716576099395752,0.23197400569915771
131,-0.7264989608608516,-1.3756823734877965,0.18543341999064433,-0.12878446280956268,0.9810255765914917,-0.1449243724346161,0.9781942367553711,0.9489661455154419,-0.5528252720832825,-0.5017544627189636,0.2811354994773865,0.3696253001689911
132,-1.4457932462778857,-1.396459810270854,-0.6144141884348844,-0.17210178077220917,0.9848418235778809,-0.021626010537147522,-2.8822021484375,-0.0806121677160263,0.1894780695438385,0.23074132204055786,0.23305368423461914,-0.17551755905151367
133,-2.630153872455108,-1.3609367740222222,-1.655903012834029,-0.10195990651845932,0.9780601859092712,0.18166601657867432,-1.1789345741271973,-0.7468644976615906,0.5104671120643616,0.21397468447685242,0.34567034244537354,0.022282958030700684
134,-3.0068613117582843,-1.1572746022308598,-1.9280762279294956,-0.0539763867855072,0.9157113432884216,0.3981952965259552,-1.34683096408844,-1.5967521667480469,-0.15568716824054718,-0.1947876513004303,-0.4755714535713196,-0.48892396688461304
135,-3.0311160635106256,-1.1049735440748216,-1.9012675757891162,-0.049520574510097504,0.8934522867202759,0.4464198350906372,0.3182344138622284,-0.4844200015068054,-0.14864005148410797,0.2077847421169281,-0.3132063150405884,-0.34800076484680176
136,-2.872924344835485,-1.289730788446426,-1.836573196879016,-0.07362978905439377,0.9607604146003723,0.2674286663532257,-0.07227279990911484,0.4314918518066406,-0.31332555413246155,-0.44265133142471313,0.14341133832931519,1.1556670665740967
137,-2.738720676950121,-1.2511288684159994,-1.7432533782217847,-0.12320584803819656,0.9493399858474731,0.2890916168689728,0.8532851338386536,-2.4805831909179688,0.06754059344530106,0.14319485425949097,0.39109885692596436,-1.346876621246338
138,-2.9887908335672386,-1.2849942329727606,-1.8089393992563139,-0.04291154071688652,0.9594358205795288,0.2786422669887543,0.5643996596336365,-2.039475917816162,0.17752458155155182,-0.045223236083984375,0.5036226511001587,-0.37709200382232666
139,-2.8196695361126807,-1.4006629053837572,-1.6564454102682309,-0.053569573909044266,0.9855622053146362,0.16061632335186005,1.7086834907531738,0.5080944895744324,-0.10279370844364166,-0.020954348146915436,-0.3714568614959717,-0.11114738881587982
140,-1.8147950387526013,-1.4890444673964307,-0.7386936740052056,-0.07924257218837738,0.9966601729393005,0.019728155806660652,1.0054750442504883,0.8471988439559937,-0.23361150920391083,-0.021923191845417023,-0.26364314556121826,0.1519789695739746
141,-0.6473101990314974,-1.4264735433405966,0.379455159136999,-0.08673092722892761,0.9896035194396973,-0.11472819000482559,1.3419325351715088,1.030856966972351,-0.07415436953306198,-0.1423950493335724,-0.04073578119277954,0.2928592562675476
142,-0.5893267785233389,-1.3689058236970517,0.3477823590110591,-0.11145046353340149,0.9796892404556274,-0.16669701039791107,-1.2416433095932007,0.4622460901737213,-1.0144667625427246,-0.5638883113861084,0.44380319118499756,0.5064949989318848
143,-1.8984836469680677,-1.4255934450439374,-0.9935845139708601,-0.1369936317205429,0.9894765615463257,0.04657001048326492,-2.3308751583099365,-1.1903325319290161,0.3428744673728943,0.3244478702545166,0.47280365228652954,-0.3821871280670166
144,-2.7823009233678215,-1.330149794055604,-1.7643783653674294,-0.08379954844713211,0.9711840748786926,0.22311177849769592,-2.986905336380005,-0.6431984901428223,0.45797407627105713,0.03692454844713211,-0.21523326635360718,0.331041544675827
145,-3.073958296966292,-1.1385546861264426,-1.944522011031532,-0.028310932219028473,0.9080290198326111,0.4179495871067047,-1.066208839416504,-0.6431909799575806,-0.06701541692018509,-0.10921651124954224,-0.3052152991294861,-0.3668173849582672
146,-3.0836380317347447,-1.1395223516951538,-1.9440625655421435,-0.024213122203946114,0.9084339141845703,0.4173266291618347,1.8535716533660889,0.3980492651462555,0.16054557263851166,0.14584094285964966,-0.1468372344970703,-0.1795947551727295
147,-2.9497816898718026,-1.2390697766954826,-1.903525996679957,-0.06208586320281029,0.9454814791679382,0.31970319151878357,-1.2704496383666992,1.4281727075576782,-0.5629857182502747,-0.07983613014221191,0.06007272005081177,0.6755512952804565
148,-2.897062798576276,-1.277519936102393,-1.8123894060755439,-0.06998884677886963,0.9573018550872803,0.28049033880233765,-0.2492007464170456,-2.130652666091919,0.2120043784379959,0.47535383701324463,0.3909189701080322,-0.21686124801635742
149,-3.097696686980995,-1.2868250484752572,-1.8677472431242048,-0.0122944051399827,0.9599503874778748,0.27990061044692993,0.29972726106643677,0.12997162342071533,-0.23300901055335999,-0.16778981685638428,0.2529861330986023,-0.27466675639152527
150,-2.6321323590336987,-1.4563625410410312,-1.4979480970236592,-0.0556882880628109,0.9934595823287964,0.09968361258506775,2.225761651992798,0.5209236145019531,-0.2503112256526947,-0.0902925431728363,-0.42003434896469116,0.034669987857341766
151,-0.999093921815416,-1.4701500097803286,0.042181024912206565,-0.08449921756982803,0.9949394464492798,-0.054364513605833054,1.4030832052230835,0.6633901000022888,-0.11841640621423721,0.062038272619247437,-0.058370232582092285,0.11611688137054443
152,-0.41588958706803725,-1.3878625642760387,0.5674191981897926,-0.0734945684671402,0.9833142161369324,-0.16640853881835938,0.3556121289730072,0.4504365026950836,-0.06736275553703308,-0.370658278465271,0.018425285816192627,0.07766342163085938
153,-0.7044771804226033,-1.3892109529454464,0.24010688948584627,-0.11695598810911179,0.9835586547851562,-0.13759998977184296,-1.5616743564605713,0.5419682860374451,-0.6205765008926392,0.066632479429245,0.38336944580078125,0.08352279663085938
154,-2.194578199734192,-1.4347511784191465,-1.192373310625503,-0.11008503288030624,0.9907601475715637,0.07922091335058212,-1.7628283500671387,-2.0459885597229004,0.329186350107193,0.19971512258052826,0.6311576962471008,-0.21929657459259033
155,-2.963101024966219,-1.263124074384067,-1.8465193113122262,-0.053768008947372437,0.9530410766601562,0.2980296015739441,-2.3605759143829346,-1.5226072072982788,0.2179415374994278,-0.025959163904190063,-0.28574371337890625,-0.23783373832702637
156,-3.088912297877322,-1.1332305011096002,-1.8449024858882792,-0.022312231361865997,0.9057857990264893,0.4231480062007904,-0.49366891384124756,0.1816989779472351,-0.25237858295440674,-0.0718802809715271,-0.26503872871398926,-0.3241337537765503
157,-3.0066009330737766,-1.2068620271542523,-1.787337308658995,-0.04790496081113815,0.9345036149024963,0.3527151048183441,2.1812286376953125,1.7365055084228516,0.04928547143936157,-0.01825713738799095,-0.12189692258834839,0.2623055875301361
158,-2.8696213409722686,-1.2297400722906748,-1.7121126577042614,-0.08985249698162079,0.9424018859863281,0.32218870520591736,0.48827069997787476,0.8950108289718628,-0.3186023533344269,-0.10446817427873611,0.10046017169952393,0.3294837772846222
159,-3.0148647322859854,-1.2326076209164967,-1.7044061362281049,-0.04193320497870445,0.9433571696281433,0.3291183412075043,0.00630915118381381,-2.047504186630249,0.29066962003707886,0.44070640206336975,0.3302938938140869,-0.341279536485672
160,-3.0717418126151466,-1.3282966254736344,-1.7534140458530976,-0.01675960049033165,0.9707407355308533,0.23954378068447113,1.2350869178771973,1.3766710758209229,-0.04692412167787552,-0.05987003073096275,0.0378955602645874,-0.2948111891746521
161,-1.657848692651137,-1.5115284881520827,-0.49158847540588596,-0.059008900076150894,0.9982441663742065,0.0051498799584805965,1.311531662940979,1.053343415260315,-0.32313695549964905,-0.1117369532585144,-0.43342483043670654,0.28527069091796875
162,-0.6808628430845801,-1.448649041113112,0.4053917555166086,-0.07669564336538315,0.9925493001937866,-0.09467551857233047,1.1308366060256958,0.5674270391464233,0.09295359253883362,0.11102793365716934,-0.06853818893432617,0.17356349527835846
163,-0.3245023832130687,-1.3810650223811158,0.6960630875274765,-0.06013110280036926,0.9820549488067627,-0.178752139210701,0.2714554965496063,0.7466084361076355,-0.2319008857011795,-0.38505932688713074,0.1251075267791748,0.1845352053642273
164,-0.7470679629072561,-1.3996608901571765,0.19487901166278704,-0.1157180517911911,0.9853920340538025,-0.12494732439517975,-1.6732587814331055,0.5870893001556396,-0.4789891839027405,0.3023330569267273,0.38803625106811523,-0.12538836896419525
165,-2.386991119878187,-1.4284993730949438,-1.3515838970233862,-0.09714466333389282,0.989892840385437,0.10332025587558746,-2.152756929397583,-0.9398937821388245,0.44095495343208313,0.22495228052139282,0.5921841859817505,0.22231757640838623
166,-3.021837223672041,-1.2359383376182809,-1.9719371301246105,-0.039261918514966965,0.9444569945335388,0.3262820541858673,-2.1125192642211914,-0.4417823255062103,0.30705246329307556,-0.02622881904244423,-0.361891508102417,-0.31782862544059753
167,-3.0352271449874864,-1.1143875117609605,-2.0214470208321917,-0.04678986594080925,0.8976410031318665,0.438236802816391,-0.27572208642959595,0.6030609011650085,-0.03642330318689346,0.029532164335250854,-0.26498109102249146,-0.24878358840942383
168,-2.963666730072034,-1.2678662364637339,-1.9912731359956384,-0.05279892310500145,0.9544664621353149,0.2936086058616638,2.348853349685669,1.1129645109176636,0.20355653762817383,-0.20545607805252075,-0.05493038892745972,0.4373483657836914
169,-2.7666381511563642,-1.2648543934271306,-1.8672734660597017,-0.11030537635087967,0.9535636901855469,0.2802658975124359,0.9617088437080383,-0.04429816082119942,-0.2867663502693176,-0.17593422532081604,-0.05300527811050415,0.2889173924922943
170,-2.9615590373089757,-1.2877223490076684,-1.9031700028276237,-0.05001375079154968,0.9602013826370239,0.27479439973831177,1.2203584909439087,1.193001389503479,0.47273966670036316,0.08813020586967468,0.3144873380661011,0.4242565631866455
171,-2.9387650645850614,-1.3877814109249276,-1.8706572478691734,-0.03666109964251518,0.9832994341850281,0.17826461791992188,1.7764272689819336,0.35051873326301575,0.02132302150130272,0.028009384870529175,-0.17185235023498535,-0.2865867614746094
172,-1.804442176689095,-1.5126643502915518,-0.8174819512502536,-0.05652044340968132,0.9983108043670654,0.01345143560320139,1.265903115272522,1.591944932937622,-0.3200188875198364,-0.08715632557868958,-0.43547511100769043,0.1509009599685669
173,-0.5010679776375448,-1.4307891967429751,0.40370904016394743,-0.06703470647335052,0.990215003490448,-0.1223953440785408,1.1171901226043701,0.1806277632713318,0.11483491957187653,-0.013226538896560669,-0.086986243724823,0.2559402585029602
174,-0.335195122254646,-1.366580080243893,0.48856891603381186,-0.0667116641998291,0.9792202115058899,-0.19151312112808228,-0.010854669846594334,1.0318748950958252,-0.668617308139801,-0.5043332576751709,0.33537018299102783,0.35998547077178955
175,-1.1515405239696515,-1.4391547039893817,-0.3866357279403072,-0.11989361047744751,0.9913477301597595,-0.053434211760759354,-2.298029899597168,-0.10277238488197327,-0.03218165785074234,0.3222251534461975,0.251404345035553,-0.18950092792510986
176,-2.7512443718794213,-1.3881914717949309,-1.888085699401225,-0.06909724324941635,0.9833739995956421,0.16793100535869598,-2.6163649559020996,-1.4799244403839111,0.457213431596756,0.25665831565856934,0.17968124151229858,0.3728252351284027
177,-3.1252947618546356,-1.168101718386449,-2.1797933065139876,-0.006386841181665659,0.9200083017349243,0.39184674620628357,-1.1803189516067505,-0.6282706260681152,0.01730230078101158,-0.22566881775856018,-0.4962870478630066,-0.4051980972290039
178,-3.097417172696966,-1.1092356843491078,-2.1695899346748573,-0.019666999578475952,0.8953585624694824,0.4449120759963989,0.7315621376037598,-0.1417841613292694,-0.02422424964606762,0.19146570563316345,-0.36154496669769287,-0.3472251296043396
179,-2.9845621208835103,-1.3091937832400218,-2.123685182640921,-0.04044600576162338,0.9659767746925354,0.2554472088813782,-0.7442308664321899,-0.8063520193099976,-0.4411610960960388,-0.4870656132698059,0.29142385721206665,1.2655640840530396
180,-2.8738256756084324,-1.2745514052349123,-2.003219920336532,-0.07723864912986755,0.9564394354820251,0.2815275490283966,0.39801204204559326,-1.9688867330551147,0.11744055896997452,0.44724902510643005,0.4589962959289551,-0.7251006364822388
181,-3.114432964386822,-1.2788965264242462,-2.064105377853018,-0.007814856246113777,0.9576988816261292,0.28766655921936035,0.5382883548736572,-1.1417522430419922,-0.012201471254229546,-0.07645943760871887,0.4755287766456604,-0.40325185656547546
182,-2.9207959704907056,-1.4349663892186169,-1.9062245017786954,-0.029656359925866127,0.9907892942428589,0.13212543725967407,2.1476047039031982,0.9977245330810547,-0.25514906644821167,-0.08698183298110962,-0.3598231077194214,-0.03175318241119385
183,-1.1913071446240149,-1.501599871369031,-0.286804735891284,-0.06422162801027298,0.9976068735122681,-0.025612903758883476,1.2063034772872925,1.03224515914917,-0.27733224630355835,-0.02107500284910202,-0.25380200147628784,0.10932266712188721
184,-0.3549083670223613,-1.39942910576789,0.4912596227801736,-0.059259697794914246,0.9853525161743164,-0.1599016636610031,0.6612860560417175,0.7767500877380371,0.10077095031738281,-0.15303584933280945,0.01887410879135132,0.46292591094970703
185,-0.43489972560491946,-1.3871249800551804,0.35406642276641076,-0.07694995403289795,0.9831798076629639,-0.16563883423805237,-1.1382057666778564,0.2284270077943802,-0.7276010513305664,-0.44728100299835205,0.38892102241516113,0.26546186208724976
186,-1.858286959252406,-1.4744785516991898,-1.069817260732851,-0.09222190827131271,0.9953650236129761,0.027268357574939728,-2.3115601539611816,-1.3382411003112793,0.6268269419670105,0.3937355875968933,0.34931570291519165,-0.2740030288696289
187,-2.9895388102723683,-1.319550600490406,-2.111022826695747,-0.037656739354133606,0.9686034917831421,0.24574241042137146,-2.5621044635772705,-0.3008534014225006,0.389774888753891,0.014387071132659912,-0.1414092779159546,-0.06283533573150635
188,3.1363973842490465,-1.1338319213338761,-2.1952096790292543,0.0021985808853060007,0.9060404896736145,0.42318516969680786,-1.1287025213241577,-0.41018229722976685,-0.06916580349206924,-0.12687814235687256,-0.2989238500595093,-0.374479204416275
189,-3.1305202890636408,-1.139859506155183,-2.1797623488120035,-0.0046250843442976475,0.9085748195648193,0.4176971912384033,1.9786068201065063,0.6944611668586731,0.005786437541246414,0.02777266502380371,-0.21414709091186523,-0.22409358620643616
190,-2.9878657002547,-1.2223348118956232,-2.12362562408625,-0.052283886820077896,0.9398991465568542,0.3374254107475281,-0.6432652473449707,1.9059518575668335,-0.5643179416656494,0.026389721781015396,0.2853357791900635,0.4152906835079193
191,-2.9687579337530847,-1.240325116656775,-2.052596484310117,-0.05580413341522217,0.9458895325660706,0.31965431571006775,-0.7389218211174011,-1.9898343086242676,0.038489315658807755,0.40745818614959717,0.41430938243865967,-0.37112224102020264
192,3.119697259876848,-1.282432539577895,-2.108834942530252,0.0062261843122541904,0.9587104916572571,0.2843150198459625,0.8541480898857117,0.43087315559387207,-0.0601578988134861,-0.15094053745269775,0.4503469467163086,-0.22491270303726196
193,-3.0016511977567446,-1.443016360722133,-1.9809179812377649,-0.017774783074855804,0.9918472170829773,0.12618562579154968,2.1007187366485596,0.8368508219718933,-0.15134772658348083,-0.0565202534198761,-0.4333299398422241,0.035267576575279236
194,-0.9917188852934113,-1.5199350616380265,-0.1035330299162946,-0.04255015403032303,0.9987068176269531,-0.02782144583761692,1.103294849395752,0.8361479043960571,-0.0735592171549797,-0.04386037215590477,-0.08910000324249268,0.17723548412322998
195,-0.13361190374075585,-1.4292670330318578,0.7219031270240581,-0.018790870904922485,0.9900014400482178,-0.1397998034954071,1.0655444860458374,0.5175232291221619,0.2147049456834793,-0.2758258283138275,0.05608004331588745,0.22672916948795319
196,-0.3319465715543407,-1.4147409793648325,0.4803514260540363,-0.050650011748075485,0.9878480434417725,-0.14693886041641235,-1.4639027118682861,0.7703408598899841,-0.8635076284408569,-0.3362060487270355,0.3281921148300171,0.25931990146636963
197,-2.1729595729894853,-1.4818847867925429,-1.3730331901574084,-0.0731777548789978,0.9960500001907349,0.05029633641242981,-1.987789511680603,-1.281937599182129,0.30754467844963074,0.2994808554649353,0.41375547647476196,-0.4185366630554199
198,-3.075008726039867,-1.2778355811913866,-2.160317840871151,-0.0192144475877285,0.9573930501937866,0.28814825415611267,-2.4960129261016846,0.12220180779695511,0.27976521849632263,0.07239130139350891,-0.23240220546722412,-0.08682382106781006
199,3.13490704843396,-1.1143354106862444,-2.1706204714150688,0.00294682034291327,0.8976180553436279,0.4407643675804138,-0.7584841847419739,-0.18059329688549042,-0.13301560282707214,-0.11010929942131042,-0.28931117057800293,-0.2624959945678711
200,3.108290959300622,-1.1609793324496518,-2.146718549221715,0.013266319409012794,0.9171937704086304,0.398220419883728,2.3767080307006836,0.5215883255004883,-0.093620665371418,0.011056182906031609,-0.19481223821640015,-0.1907772421836853
201,-2.996797997795693,-1.236052505117722,-2.0719679226601606,-0.047402944415807724,0.9444944858551025,0.32508939504623413,0.6826210618019104,1.1838116645812988,-0.43738529086112976,-0.18205875158309937,0.02788710594177246,0.2760763168334961
202,-2.9917926925604097,-1.2583509193383664,-1.9851700097394365,-0.04587455466389656,0.9515847563743591,0.3039446473121643,-0.572455644607544,-1.006500244140625,-0.006742104887962341,0.38675591349601746,0.4211418628692627,0.057780176401138306
203,-3.0420610212234753,-1.3208529262830253,-1.9751613336310831,-0.024578431621193886,0.9689264297485352,0.24612492322921753,1.4639575481414795,0.05647120624780655,-0.1576758623123169,-0.022616982460021973,0.13362789154052734,-0.49694883823394775
204,-2.4111575615352665,-1.5102973179584718,-1.3417969912536833,-0.040340717881917953,0.9981704950332642,0.0450381338596344,1.344726324081421,1.114317774772644,-0.2748708724975586,-0.07857102155685425,-0.49501192569732666,0.284765362739563
205,-0.5491525245989117,-1.4820956317830256,0.4307421836814705,-0.046238526701927185,0.9960686564445496,-0.07556057721376419,0.9743732213973999,-0.08786974102258682,0.25064554810523987,0.05427991971373558,-0.14812242984771729,0.07319550961256027
206,-0.1448072911299288,-1.365955086509221,0.8290224715659742,-0.029352696612477303,0.9790933132171631,-0.20128297805786133,1.1769254207611084,0.25438326597213745,-0.1138250082731247,-0.29614779353141785,0.2137015461921692,0.34920167922973633
207,-0.3738113395734867,-1.3937589235066996,0.5407763154560231,-0.06431110203266144,0.9843697547912598,-0.1639525443315506,-1.5330476760864258,0.8542066216468811,-0.5693696737289429,0.014277510344982147,0.31613689661026,-0.06569226086139679
208,-2.2843971710646875,-1.4959200392945744,-1.3536007721983172,-0.05655418336391449,0.9971981048583984,0.04896513372659683,-2.34061336517334,-1.6306895017623901,0.5720570087432861,0.24756371974945068,0.5250492095947266,-0.19718897342681885
209,3.1270325004935984,-1.256536478732622,-2.1375459876312166,0.004500564653426409,0.9510254263877869,0.3090796172618866,-2.6285500526428223,-0.9200396537780762,0.30591514706611633,-0.02729719877243042,-0.2672029137611389,-0.19827023148536682
210,3.0482710196316316,-1.1127422268500822,-2.111578804488679,0.04120732843875885,0.8969146609306335,0.44027984142303467,-0.8571120500564575,-0.17304913699626923,-0.11252687871456146,-0.22280216217041016,-0.27321159839630127,-0.3700130581855774
211,3.0407241613440696,-1.1760354329709275,-2.1192700205879493,0.038727056235075,0.923088550567627,0.3826330900192261,2.580087900161743,1.5614027976989746,0.0040078116580843925,-0.09460476040840149,-0.1171954870223999,0.0407983660697937
212,-3.100055707955676,-1.235362531949002,-2.0974151498973983,-0.013669158332049847,0.9442676305770874,0.32889506220817566,0.9779031276702881,1.4139509201049805,-0.22617828845977783,-0.4615963399410248,0.02870917320251465,0.46149495244026184
213,3.1313108027669574,-1.25912345789481,-2.0253043182235935,0.003152891295030713,0.9518219232559204,0.30663546919822693,0.4124467670917511,-2.666064739227295,0.20612043142318726,0.43277546763420105,0.20319223403930664,-0.37746676802635193
214,3.017548346828415,-1.3283822732511974,-2.100705654271526,0.029700227081775665,0.9707612991333008,0.23820309340953827,2.0556371212005615,-0.08493055403232574,-0.12154538184404373,-0.07076165080070496,0.08496391773223877,-0.4524516761302948
215,2.664986644984704,-1.5423145955409077,-2.4694213627026995,0.013065983541309834,0.9995944499969482,0.025306737050414085,0.8232936263084412,0.38225364685058594,-0.2832491397857666,-0.15196675062179565,-0.4165102243423462,0.16037750244140625
216,-0.0809281328042016,-1.4687875674968656,1.0091231714188882,-0.008232141844928265,0.9948016405105591,-0.10149946808815002,1.3960188627243042,0.553799569606781,0.06901145726442337,0.08075717091560364,-0.004506111145019531,0.28022563457489014
217,0.09364765263400479,-1.3908841423887355,1.1441050569653997,0.016733143478631973,0.9838594198226929,-0.17815929651260376,0.4296649396419525,0.6909396052360535,-0.20262010395526886,-0.4938296973705292,0.26102888584136963,0.06522893905639648
218,-0.2955206060099722,-1.441077234746535,0.7143662607868669,-0.03767317160964012,0.9915982484817505,-0.12374783307313919,-1.7144508361816406,0.17676080763339996,-0.2920665740966797,0.4660941958427429,0.32930922508239746,-0.09660433977842331
219,-2.8833128782971564,-1.4702474891532753,-1.7850073710654013,-0.025638854131102562,0.994949221611023,0.09705054759979248,-2.2112507820129395,-0.5259150266647339,0.32878047227859497,0.20581462979316711,0.34381115436553955,0.21050560474395752
220,3.110565735721969,-1.2471511776649702,-2.0916303714491558,0.009865738451480865,0.948082447052002,0.31787148118019104,-2.0216033458709717,-0.12281262874603271,0.2218664139509201,0.02559569478034973,-0.38887840509414673,-0.35234108567237854
221,3.1295958926643648,-1.1260234949212682,-2.0856075767446276,0.005161516834050417,0.9027084112167358,0.43022188544273376,-0.2333715260028839,-0.11073993891477585,-0.12806805968284607,0.08446863293647766,-0.24082797765731812,-0.19987523555755615
222,3.0960047638495705,-1.236894865307955,-2.1138814084601045,0.014935423620045185,0.9447709321975708,0.32739123702049255,2.6935276985168457,0.8301516771316528,0.3518483340740204,-0.04668894410133362,-0.11974340677261353,0.2664351463317871
223,-3.053212796233035,-1.2507823016916382,-2.033767981656869,-0.027766352519392967,0.9492310285568237,0.31335216760635376,0.4753997027873993,0.3161332309246063,-0.40688470005989075,-0.1330307424068451,0.06129753589630127,0.351595401763916
224,-3.129414723055528,-1.2709128573019641,-1.9871648017696246,-0.003597385250031948,0.9553709030151367,0.2953874170780182,0.46727752685546875,0.4231068193912506,0.239768385887146,0.3954583704471588,0.19833099842071533,0.39203622937202454
225,2.9606599139448115,-1.4637559323405895,-2.216278427486519,0.01922491192817688,0.9942766427993774,0.10509245097637177,2.0266754627227783,0.7879796624183655,0.06143169105052948,0.00749322772026062,-0.02046072483062744,0.48575830459594727
226,2.149540219076808,-1.556602538173507,-3.0405706070899,0.011882457882165909,0.9998992681503296,0.007763696834445,1.2711832523345947,0.440309077501297,-0.1927296221256256,-0.06133618950843811,-0.4697021245956421,-0.16834712028503418
227,0.033531962264242175,-1.4493795220878385,1.082305916089393,0.004060620442032814,0.9926380515098572,-0.12105162441730499,1.150246262550354,0.4183795750141144,0.06331043690443039,-0.07063472270965576,-0.0696948766708374,0.2466619610786438
228,0.03923304831473651,-1.375595502774274,1.015291334350711,0.007607829757034779,0.9810087084770203,-0.19381430745124817,0.43524959683418274,0.6596177220344543,-0.22956058382987976,-0.2584165632724762,0.26366591453552246,0.19445514678955078
229,-0.2683673259286768,-1.424262162722165,0.6608107815620073,-0.038715872913599014,0.9892830848693848,-0.1407843828201294,-1.6550408601760864,-0.15740624070167542,-0.17838290333747864,0.3212628662586212,0.3043724298477173,-0.0682763010263443
230,-2.8970540881968936,-1.4821704031212297,-1.878229105129244,-0.02142908237874508,0.9960752725601196,0.0858769342303276,-2.4152913093566895,-0.9643816947937012,0.40525615215301514,0.20641139149665833,0.4595215916633606,0.1619868278503418
231,3.0685142881031258,-1.2161806321985031,-2.140583338171219,0.025352435186505318,0.9377800226211548,0.34630340337753296,-2.554037094116211,-0.8727731704711914,0.03300517424941063,-0.06879419088363647,-0.3231102228164673,-0.35962438583374023
232,3.0844087629663983,-1.0590385521699173,-2.096427754462887,0.02798829972743988,0.8718850612640381,0.48891016840934753,-0.5336030125617981,0.038839928805828094,-0.10681483149528503,0.037670254707336426,-0.17651152610778809,-0.2933688163757324
233,3.051211151779235,-1.189574392580247,-2.122421274651699,0.03358111158013344,0.9282106757164001,0.3705362379550934,3.600553035736084,2.000715732574463,0.28170204162597656,-0.03901324048638344,-0.07434415817260742,0.3399587571620941
234,-3.0777537343965093,-1.2117474839068234,-2.0447347908064937,-0.022416697815060616,0.9362314939498901,0.3506675660610199,0.445516973733902,0.8387131690979004,-0.1073169931769371,0.02487337961792946,0.06701844930648804,0.46305304765701294
235,3.004589410958591,-1.2084619051388998,-2.0909879767610473,0.0484100840985775,0.9350719451904297,0.35113638639450073,0.7292546033859253,-0.6252281069755554,0.2995586395263672,-0.036584530025720596,0.13562196493148804,0.2782275378704071
236,2.8997077043977635,-1.3406817857344182,-2.159531104241367,0.05463472753763199,0.9736402630805969,0.22144834697246552,1.9253250360488892,2.250715970993042,-0.2879347801208496,-0.06679598242044449,-0.21678924560546875,-0.26942208409309387
237,1.0362153431136527,-1.5550553921063803,2.1342636840735287,0.013545150868594646,0.9998761415481567,-0.008019911125302315,0.7550303339958191,0.3021963834762573,-0.2548224925994873,-0.05005943775177002,-0.44523441791534424,0.19651174545288086
238,0.06862762254769837,-1.4331733553990227,1.104057258162964,0.009407510049641132,0.9905449151992798,-0.1368652582168579,1.116188883781433,0.3786664307117462,0.2047497034072876,0.029822856187820435,0.021341562271118164,0.3224579095840454
239,0.09597437215299662,-1.3680622079911027,1.0767807352822971,0.019294636324048042,0.9795197248458862,-0.20042182505130768,0.4057071805000305,0.46301332116127014,-0.29498526453971863,-0.3739089071750641,0.37440788745880127,0.14985418319702148
240,-0.2607969243798707,-1.4631552885088002,0.688393198720989,-0.027701925486326218,0.99421226978302,-0.10380110889673233,-2.32895565032959,-0.29412737488746643,0.0341964066028595,0.3690563142299652,0.10532087087631226,-0.14001907408237457
241,-3.101344693839673,-1.418501066625685,-2.067649357799226,-0.006104245316237211,0.9884254932403564,0.15158405900001526,-2.6627094745635986,0.037421565502882004,0.6957501769065857,0.3236091434955597,0.40631937980651855,0.20014619827270508
242,2.9986261631817395,-1.150320251995811,-2.1832283932772,0.058159638196229935,0.9128947257995605,0.4040306806564331,-2.08089542388916,-0.7630046010017395,-0.028729358687996864,-0.19551923871040344,-0.43135786056518555,-0.3567436933517456
243,3.03458490040366,-1.0436315862806556,-2.134931949981135,0.05373135581612587,0.8642368912696838,0.500207781791687,-0.11240193247795105,-0.42745906114578247,-0.12491102516651154,0.12571200728416443,-0.33039283752441406,-0.39399129152297974
244,2.9905659807303313,-1.2451413035969119,-2.217456183655205,0.0481344610452652,0.9474413394927979,0.3162880837917328,2.3435049057006836,1.743508219718933,0.14935548603534698,-0.2859121859073639,-0.06839770078659058,1.2498435974121094
245,-3.122964555604199,-1.1977045967129076,-2.1146954361746775,-0.006789477542042732,0.9312048554420471,0.3644329309463501,0.09600809961557388,-1.161070466041565,0.05185709893703461,-0.031128615140914917,0.4751366376876831,-0.3873363733291626
246,2.9589784198328877,-1.2261678714345203,-2.1361121932352045,0.06135336682200432,0.9412010312080383,0.33222952485084534,1.4233653545379639,-0.9671024084091187,-0.053020987659692764,-0.11575093865394592,0.3923255205154419,-0.41560351848602295
247,2.860018925971334,-1.4212200239665407,-2.2588369618092194,0.041407812386751175,0.9888343214988708,0.14315135776996613,3.8189854621887207,0.18903246521949768,-0.3416108191013336,-0.09713289141654968,-0.2163274884223938,-0.132729634642601
248,0.9361513995811307,-1.563446100150146,2.035708745689074,0.005932133179157972,0.9999729990959167,-0.004367551766335964,1.2266091108322144,1.1289865970611572,-0.2202463299036026,-0.009456902742385864,-0.378909707069397,-0.05295974016189575
249,0.018158349924807592,-1.4288936165389292,1.0648109580675682,0.0025679292157292366,0.9899486899375916,-0.14140309393405914,0.9197295308113098,0.2688905596733093,0.11726569384336472,-0.08697956800460815,0.007853984832763672,0.39659106731414795
250,0.04519108643648827,-1.374143145228825,1.0601247561904834,0.008826806209981441,0.9807260036468506,-0.19518886506557465,-0.020992591977119446,-0.20580904185771942,-0.35141482949256897,-0.5120464563369751,0.5106985569000244,0.45022428035736084
251,-0.3536916825571398,-1.511174933726775,0.6450166700963745,-0.020638586953282356,0.9982231855392456,-0.05589814484119415,-2.5467844009399414,-0.7515936493873596,0.19919084012508392,0.2598811388015747,0.039282917976379395,-0.23392730951309204
252,3.0705720231438858,-1.3655293462564804,-2.1231759537974955,0.01446382887661457,0.9790065884590149,0.20331420004367828,-2.440237522125244,0.43897852301597595,0.6211699843406677,0.3041549623012543,0.17271143198013306,0.010263055562973022
253,3.030847995019032,-1.1199275093397218,-2.129544235145485,0.04815817251801491,0.9000688791275024,0.4330785572528839,-1.8528409004211426,-0.26235657930374146,-0.03472128510475159,-0.2116408348083496,-0.4693741798400879,-0.39104050397872925
254,3.0567306507956196,-1.0350482001508907,-2.069919105402684,0.04326874762773514,0.8598869442939758,0.5086473226547241,0.09247700124979019,-0.7492018342018127,-0.1587345153093338,0.16129058599472046,-0.1829155683517456,-0.3562578558921814
255,3.002314131235882,-1.2341419385407841,-2.1636059072461036,0.0458594374358654,0.9438651204109192,0.3271324038505554,2.1419546604156494,1.1466665267944336,0.28413036465644836,-0.224616140127182,0.03030174970626831,0.9532172679901123
256,-3.135517663132156,-1.1777210133480753,-2.0519520215939333,-0.0023268938530236483,0.923735499382019,0.3830236792564392,-0.01969248801469803,-0.14955677092075348,-0.08161333948373795,0.10848230123519897,0.1972360610961914,0.4247155785560608
257,3.022238678344911,-1.2600496821476224,-2.1006442244141748,0.03640824928879738,0.9521055221557617,0.3035944402217865,1.9438549280166626,0.0827963575720787,0.4264664053916931,0.09315410256385803,0.06312274932861328,0.3112889528274536
258,2.501726523876769,-1.493842591988844,-2.7132933865725244,0.045902613550424576,0.9970405101776123,0.06166922673583031,1.2399617433547974,-0.3900718092918396,-0.08041290193796158,-0.33212700486183167,-0.11175614595413208,0.7217017412185669
259,0.8506695452287478,-1.5285077438399794,1.9361132389650033,0.03177860751748085,0.9991059899330139,-0.027879126369953156,1.3933370113372803,0.575398325920105,-0.19657741487026215,-0.02594975009560585,-0.4884706735610962,-0.03213369846343994
260,0.24764440594464185,-1.419841380076531,1.2751457272215123,0.03686175495386124,0.9886279106140137,-0.14579415321350098,1.1681160926818848,0.5125927925109863,0.12035012990236282,-0.21278032660484314,0.0029644370079040527,0.24410654604434967
261,0.18548788706266486,-1.3527782198506833,1.1645565548827042,0.03989049047231674,0.9763280153274536,-0.21258504688739777,0.3965752124786377,0.5027358531951904,-0.4055754542350769,-0.37051793932914734,0.4778498411178589,0.2704463601112366
262,0.07536250596083263,-1.4847799655650464,1.038323217261042,0.006468411535024643,0.9963029026985168,-0.08566807955503464,-2.4092037677764893,-0.5433763861656189,0.15852665901184082,0.24542367458343506,0.02017676830291748,-0.08524561673402786
263,2.9656515249420847,-1.391185858265271,-2.222535133805545,0.03126939386129379,0.9839133620262146,0.1758888065814972,-2.691516399383545,-0.10539675503969193,0.6122646927833557,0.3571278154850006,0.3559456467628479,0.1470329761505127
264,2.964941823958882,-1.1298348919448238,-2.1620643748487733,0.07500476390123367,0.9043417572975159,0.42016756534576416,-2.111285448074341,-0.7750440239906311,-0.118291474878788,-0.19683092832565308,-0.37998855113983154,-0.3668685555458069
265,2.9794646325816645,-1.0124237209929794,-2.0714571055197255,0.0855206772685051,0.8481184244155884,0.5228586792945862,-0.09899817407131195,-0.861656904220581,-0.18179674446582794,0.1437731385231018,-0.22107386589050293,-0.4311228394508362
266,2.9190927634844823,-1.222307376362027,-2.194356688260798,0.07535354793071747,0.9398897886276245,0.33306053280830383,1.8462146520614624,0.7362378835678101,0.09352350980043411,-0.23363295197486877,0.04956650733947754,1.0255210399627686
267,3.0320986512396004,-1.1801405033183259,-2.0871901158484927,0.04161148890852928,0.9246595501899719,0.37851443886756897,0.6004917621612549,-1.567381501197815,0.08996991813182831,-0.03567582368850708,0.2697679400444031,-0.19803345203399658
268,2.841070343537782,-1.2623356280619853,-2.193706173687099,0.08986921608448029,0.9528020024299622,0.28998616337776184,2.464885950088501,-0.3071596622467041,0.4625897705554962,-0.0057780444622039795,0.20988720655441284,-0.35759782791137695
269,2.2358466571591187,-1.4756169298305195,-2.8670088665098725,0.07478170096874237,0.9954738616943359,0.05864598974585533,1.3159173727035522,0.5180992484092712,-0.33399301767349243,-0.32339316606521606,-0.2781887650489807,0.8362362384796143
270,0.6754945934075232,-1.4981110944008584,1.845294209774476,0.04540862515568733,0.997359573841095,-0.05667316913604736,1.4039543867111206,-0.024623189121484756,-0.27903538942337036,-0.05531156435608864,-0.26478517055511475,0.19711506366729736
271,0.30334145444226485,-1.4094507938733012,1.4328351792056544,0.04798676073551178,0.9870120286941528,-0.15331172943115234,1.0094380378723145,0.25039324164390564,0.1474912464618683,-0.10693144798278809,0.030382931232452393,0.19882871210575104
272,0.20405834787816426,-1.3603544216086656,1.2858831785768134,0.04233107343316078,0.977938711643219,-0.2045585662126541,0.3030592203140259,0.3646024465560913,-0.6444051265716553,-0.408313125371933,0.4833955764770508,0.44540324807167053
273,0.2922756831887783,-1.5056512875675292,1.3224935143479937,0.018757056444883347,0.9978787899017334,-0.062338005751371384,-2.5390844345092773,-0.2694065272808075,0.2200772762298584,0.27891141176223755,0.12020891904830933,-0.1848238706588745
274,2.8657353857025583,-1.3868426636971602,-2.323876841686856,0.04982200637459755,0.9831281900405884,0.17600324749946594,-2.627652406692505,-0.24556921422481537,0.49298232793807983,0.36500343680381775,0.21468698978424072,0.05202417075634003
275,2.9425358194084237,-1.1488968652138765,-2.198773500227957,0.08097546547651291,0.9123127460479736,0.40140852332115173,-1.6751478910446167,0.09868111461400986,-0.0637432411313057,-0.2734498083591461,-0.48460865020751953,-0.34740760922431946
276,2.9861259316431226,-1.056916002630952,-2.135911492753436,0.0761137306690216,0.8708436489105225,0.48563137650489807,0.1587895303964615,-0.7868170738220215,-0.08815833926200867,0.1809816062450409,-0.2621859312057495,-0.39163726568222046
277,2.9198801808007873,-1.2499565237455335,-2.2406769076380266,0.06934859603643417,0.9489709138870239,0.30764415860176086,-0.20496338605880737,0.6403359770774841,-0.3554932475090027,-0.38410690426826477,0.2126653790473938,1.7941625118255615
278,3.042682764573181,-1.2221593249639986,-2.113082904622451,0.0337342768907547,0.9398391842842102,0.33994776010513306,0.6083312034606934,-2.047236680984497,0.0654442086815834,0.4471922516822815,0.5592453479766846,-1.0924806594848633
279,2.849334680866633,-1.2307043298749878,-2.1582290493802248,0.09610778093338013,0.9427239894866943,0.3194291889667511,1.2607094049453735,-1.4586846828460693,-0.07661759853363037,-0.17450742423534393,0.4718116521835327,-0.5636155605316162
280,2.3465967499034197,-1.4818734253620858,-2.79329502828387,0.0633947029709816,0.9960489869117737,0.062189340591430664,2.0596914291381836,1.813287615776062,-0.2772369384765625,-0.1216222420334816,-0.3008890748023987,1.4529626369476318
281,0.8120804522288038,-1.5170254760085935,1.8930775072508714,0.03900472819805145,0.9985547065734863,-0.0369768850505352,1.4556822776794434,0.752556324005127,-0.27821600437164307,-0.08491843938827515,-0.19522523880004883,-0.03811162710189819
282,0.32837678972003126,-1.4232093519740887,1.3429127776770655,0.04742554947733879,0.9891287684440613,-0.13919532299041748,0.7633745670318604,0.47171950340270996,0.10199954360723495,-0.18429690599441528,-0.013191819190979004,0.1777542680501938
283,0.24948345408474737,-1.3766966496150337,1.2123227057525963,0.04762355983257294,0.9812217354774475,-0.1869116872549057,0.537693202495575,0.5443980693817139,-0.4546250104904175,-0.42904752492904663,0.4668068289756775,0.3470984697341919
284,0.18055389264057153,-1.4776153566510684,1.0899140346540392,0.016708921641111374,0.9956617951393127,-0.09153475612401962,-2.139923572540283,0.07798732072114944,-0.012062245979905128,0.14443916082382202,0.017354071140289307,-0.21460235118865967
285,2.8056944844935545,-1.3926881733838326,-2.4701206688142046,0.05839778110384941,0.9841806292533875,0.1672673225402832,-3.4910695552825928,-0.7262142300605774,0.6987242698669434,0.3268256187438965,0.21825778484344482,0.1797328144311905
286,2.8609097063554523,-1.0991031552619535,-2.2758294890608606,0.12587295472621918,0.8908001780509949,0.4366133213043213,-2.5186243057250977,-0.7842320203781128,-0.01955403760075569,-0.22197279334068298,-0.3503338694572449,-0.2434217929840088
287,2.881315318095502,-0.961526225460402,-2.1913009008882547,0.14727267622947693,0.8200659155845642,0.5529944896697998,0.0214399266988039,-1.0468127727508545,-0.10629624873399734,0.07991544902324677,-0.14339959621429443,-0.48112553358078003
288,2.844080209431317,-1.1750774619454025,-2.343970244188828,0.11299837380647659,0.9227197170257568,0.3685377538204193,0.23258346319198608,3.4492037296295166,-0.23737019300460815,-0.2419046014547348,-0.15804064273834229,2.175041437149048
289,3.003440258874682,-1.0706449645653402,-2.2077183479745672,0.06604158878326416,0.8775100111961365,0.4749891757965088,0.00459596561267972,-2.356144428253174,-0.05627010017633438,0.13149869441986084,0.671058714389801,-0.2890608310699463
290,2.7456006078119333,-1.0858250116729757,-2.2232400267402723,0.17981767654418945,0.8846883177757263,0.4301068186759949,1.7657190561294556,-2.3001229763031006,-0.04369967430830002,-0.19266559183597565,0.5145272612571716,-0.5880048274993896
291,2.5654004135967616,-1.3159598878938144,-2.5036413109201936,0.13734622299671173,0.9677045345306396,0.2113865315914154,3.4793381690979004,3.424266815185547,-0.39059019088745117,-0.07737918198108673,-0.3076092004776001,-0.3250950276851654
292,1.2649676355061543,-1.4907317482222349,2.388553603240818,0.07626665383577347,0.9967965483665466,-0.024079998955130577,1.759648084640503,1.1151708364486694,-0.18935959041118622,-0.08285848796367645,-0.4994364380836487,0.008363429456949234
293,0.5895576283545378,-1.4232072570501317,1.643089416271256,0.08176127821207047,0.9891284704208374,-0.122229665517807,0.7195291519165039,0.30750513076782227,0.21576477587223053,-0.015889078378677368,0.1597820520401001,0.1575232744216919
294,0.4591849438749327,-1.3748653815798866,1.5198192871044411,0.08628541231155396,0.9808668494224548,-0.17451348900794983,0.08753747493028641,0.17518974840641022,-0.47164082527160645,-0.5736510753631592,0.4399857521057129,0.2864825129508972
295,0.475118252020242,-1.4499305920000154,1.4832708109808261,0.055154845118522644,0.9927046298980713,-0.10721719264984131,-2.172485113143921,0.02098706364631653,0.2047148197889328,0.22386738657951355,0.05191206932067871,-0.03906881809234619
296,2.5232996559826857,-1.4275203543879345,-2.7030852215646064,0.08276551961898804,0.9897535443305969,0.11635235697031021,-2.11775279045105,-0.6349815130233765,0.6703738570213318,0.26475340127944946,0.2886277437210083,-0.05438637733459473
297,2.7451494642832475,-1.1484548497270026,-2.2874356247398975,0.1582777053117752,0.912131667137146,0.3781058192253113,-3.205811023712158,-1.4337159395217896,-0.5108605623245239,-0.227186381816864,-0.3012765645980835,-0.17269206047058105
298,2.8658122071198044,-0.9926514524773036,-2.0633194531757444,0.1488029956817627,0.8374778628349304,0.5258216857910156,-0.5209144353866577,-0.4806632995605469,-0.056653112173080444,-0.10444572567939758,-0.20983809232711792,-0.4640998840332031
299,2.7859284777788917,-1.1533869788996598,-2.208063838081859,0.14116325974464417,0.9141422510147095,0.38002198934555054,3.7824859619140625,4.061579704284668,0.3870304226875305,0.04722170531749725,0.04624587297439575,0.7401561737060547
300,2.973335690692781,-1.14769278114828,-2.133198029476482,0.06875944882631302,0.9118190407752991,0.4047936499118805,0.20738495886325836,0.6061012148857117,0.07418646663427353,0.10339020937681198,-0.12298554182052612,0.38625237345695496
301,2.675247644462727,-1.1444454736434497,-2.155313947701675,0.1859428584575653,0.9104809165000916,0.3693913519382477,0.7119381427764893,-0.7383912801742554,0.16351452469825745,0.11685256659984589,0.1951863169670105,-0.1790226399898529
302,2.479640934459331,-1.2799007609745165,-2.415477905391487,0.17628979682922363,0.9579874277114868,0.22623386979103088,1.5285900831222534,1.3116211891174316,-0.21718569099903107,-0.04272963106632233,-0.25014758110046387,-0.2552103102207184
303,1.161812615953216,-1.470005110835475,2.3618213455929373,0.09232226759195328,0.9949248433113098,-0.040014635771512985,1.780535101890564,1.049128532409668,-0.35265451669692993,-0.14710134267807007,-0.4576324224472046,0.6966460943222046
304,0.5909580678636291,-1.420710305852874,1.700937119274938,0.0833079069852829,0.9887582063674927,-0.12416519969701767,1.220280647277832,0.6613954305648804,-0.043659012764692307,-0.1403605043888092,0.05308133363723755,0.045307762920856476
305,0.40741281781474875,-1.34525966154796,1.4744149895415135,0.08860989660024643,0.9746742248535156,-0.20532523095607758,0.3952144384384155,0.2441067099571228,-0.011518310755491257,-0.15730497241020203,0.24949264526367188,0.27389824390411377
306,0.46198696711032633,-1.4041799715355436,1.4733908670004108,0.07392216473817825,0.9861515760421753,-0.14846016466617584,-2.2420494556427,0.9085831046104431,0.08727554231882095,0.17400264739990234,0.22075754404067993,-0.028801187872886658
307,2.3673117850918333,-1.423999981823285,-2.8560822620814035,0.1022721603512764,0.9892447590827942,0.10457180440425873,-2.729271411895752,0.023759357631206512,0.4118499755859375,0.11933121085166931,0.4170510172843933,0.05263948440551758
308,2.7573596478864797,-1.156593830261956,-2.3492379023815886,0.15086153149604797,0.9154375791549683,0.3731154799461365,-2.827343702316284,-2.1314477920532227,-0.4070712625980377,-0.17242221534252167,-0.2713181972503662,-0.20217129588127136
309,2.8664348076919626,-1.0070995182686278,-2.133111975101304,0.14517277479171753,0.8452856540679932,0.514215350151062,-0.8200486898422241,-0.41046151518821716,-0.4029315412044525,0.030425384640693665,-0.2089635133743286,-0.43357259035110474
310,2.7907524435794655,-1.1057998046530746,-2.182787506903163,0.15411607921123505,0.8938231468200684,0.4211040735244751,3.761195421218872,1.6113855838775635,0.2515822649002075,-0.061739325523376465,-0.06490463018417358,0.0972522497177124
311,2.9245230648114537,-1.1676597448431754,-2.183549828059612,0.08449044823646545,0.9198350310325623,0.38309934735298157,0.5719138979911804,1.6877834796905518,-0.3638632893562317,-0.029940269887447357,0.328288197517395,0.35980528593063354
312,2.777643913332394,-1.1531747516327555,-2.1742305666548005,0.1443759948015213,0.9140561819076538,0.37902140617370605,0.5266478061676025,-1.6272480487823486,0.3343307375907898,0.010958477854728699,0.11775851249694824,0.0010293126106262207
313,2.5427927941782675,-1.252343517249165,-2.341284580122278,0.1764778047800064,0.9497209787368774,0.2586223781108856,2.0272088050842285,2.0011987686157227,-0.06758822500705719,0.020940378308296204,-0.18331784009933472,-0.2863171398639679
314,1.2635834097402092,-1.4532091864843677,2.5282205658382195,0.11182326078414917,0.9930946230888367,-0.03547673299908638,1.6568161249160767,0.21623456478118896,-0.5673995614051819,-0.25165480375289917,-0.44762343168258667,0.5923157334327698
315,0.5553311257976399,-1.404734169390451,1.7435934723858528,0.08715052902698517,0.9862433075904846,-0.14046014845371246,0.9678390026092529,0.04273976385593414,0.103487528860569,0.14621740579605103,-0.016242027282714844,0.18678580224514008
316,0.4640874932834549,-1.3510144566303741,1.6395399799957362,0.0975857824087143,0.9759450554847717,-0.19495712220668793,0.23320786654949188,0.5537049770355225,-0.27153927087783813,-0.3030606508255005,0.42917579412460327,0.23876512050628662
317,0.45992975937227654,-1.4108258407310807,1.5635475796693512,0.0707058310508728,0.987231969833374,-0.14273588359355927,-1.908077359199524,1.343764305114746,-0.18421970307826996,0.2082706093788147,0.21610653400421143,0.12961335480213165
318,2.2807836109541677,-1.4462009599215384,-2.8887196816871126,0.09424563497304916,0.9922480583190918,0.08100473880767822,-2.274759531021118,-0.4279654920101166,0.466472864151001,0.2828143239021301,0.31568968296051025,-0.09304391592741013
319,2.7431802890180847,-1.175677312165422,-2.3394444852201506,0.1493312120437622,0.9229507446289062,0.35477083921432495,-2.816663980484009,-0.8395786285400391,0.06667210906744003,0.006003245711326599,-0.2906569242477417,-0.2711678445339203
320,2.911856006405503,-1.0096811668920218,-2.1898491129399096,0.12117739021778107,0.8466622233390808,0.518149733543396,-0.4391101598739624,0.3210560381412506,0.008359064348042011,-0.05351993441581726,-0.2513558864593506,-0.3178476095199585
321,2.8043109915771702,-1.11861097380422,-2.2735025398404733,0.14459097385406494,0.8994944095611572,0.41231444478034973,3.557755470275879,1.2699036598205566,0.14032481610774994,-0.09962333738803864,-0.075672447681427,0.15659424662590027
322,2.944703113515479,-1.1472842929941651,-2.207800320979876,0.08039292693138123,0.9116512537002563,0.4030250310897827,0.23265178501605988,0.6724876165390015,-0.25276947021484375,0.18060865998268127,0.18222081661224365,0.044088125228881836
323,2.7506156774615844,-1.0901726507383505,-2.1521099988384176,0.17619110643863678,0.8867067694664001,0.4274434745311737,-0.19133442640304565,-1.9257409572601318,-0.09404461830854416,-0.001889944076538086,0.25108015537261963,-0.1528005599975586
324,2.5091550164701024,-1.255973375571843,-2.3998695915748494,0.18303734064102173,0.9508512020111084,0.24975931644439697,2.716954469680786,2.7876837253570557,-0.03739352151751518,0.11955972015857697,-0.1843256950378418,-0.2083011269569397
325,1.482105750296203,-1.4596765607339064,2.692823897455218,0.11045517772436142,0.993832528591156,-0.009822100400924683,0.49878793954849243,-0.5114383697509766,-0.3550354242324829,-0.384106308221817,-0.3906068801879883,0.27559971809387207
326,0.714617525073968,-1.4188299743062074,1.8800980611106881,0.0992046371102333,0.9884753227233887,-0.11434511840343475,1.0217702388763428,0.13950073719024658,0.06653791666030884,0.03713260591030121,0.05098378658294678,0.25193357467651367
327,0.499833391459169,-1.3453973220383453,1.646134574789755,0.10711689293384552,0.9747049808502197,-0.19615383446216583,0.5491151809692383,-0.13367809355258942,-0.16224154829978943,-0.23158283531665802,0.33355313539505005,0.30058494210243225
328,0.5781123182137056,-1.397152513829649,1.6975512149491894,0.09441044181585312,0.984961748123169,-0.14469614624977112,-1.936117172241211,0.1986609548330307,0.2229936122894287,-0.015965022146701813,0.21209019422531128,-0.10438834130764008
329,2.1953405811400484,-1.4207241990540849,-2.8694575624556293,0.12128638476133347,0.9887602925300598,0.08742222189903259,-2.6566660404205322,-0.7039302587509155,0.20116502046585083,-0.03811077028512955,0.3150421977043152,-0.025822408497333527
330,2.719558279635811,-1.1193035433940064,-2.187224643476706,0.17871986329555511,0.8997967839241028,0.39802661538124084,-3.247196674346924,-1.9755785465240479,-0.5650700330734253,0.006964370608329773,-0.27751272916793823,-0.17677420377731323
331,2.838489695124598,-0.9461779967382022,-1.9363085305715155,0.1745493859052658,0.8111863732337952,0.5581304430961609,-0.8739378452301025,-0.9914491772651672,-0.48323026299476624,-0.06322123110294342,-0.25312650203704834,-0.5909978151321411
332,2.7570495099943573,-1.0510277807615829,-1.9868247686726332,0.18632197380065918,0.8679341673851013,0.4604063928127289,3.5398478507995605,1.694138526916504,0.2159491926431656,0.005099490284919739,-0.041319966316223145,0.41816413402557373
333,2.8838629723684477,-1.0672449754512585,-1.941991972203844,0.1229923814535141,0.875874400138855,0.46660131216049194,0.009731283411383629,0.05160241201519966,-0.3397673964500427,0.0578700453042984,-0.003911018371582031,0.32362085580825806
334,2.7769262650305517,-1.0701135334989595,-1.89845956260394,0.1711948961019516,0.8772550225257874,0.4484596848487854,0.3385573923587799,0.2205212563276291,-0.005411459133028984,0.2866450846195221,0.16423362493515015,-0.014530181884765625
335,2.4821383533388413,-1.2718217829042546,-2.210107656815652,0.18046043813228607,0.9556390047073364,0.23278282582759857,3.5168771743774414,3.6693105697631836,0.23313483595848083,0.17247533798217773,-0.12128859758377075,-0.25235992670059204
336,1.8347320023456752,-1.4072294514294212,-2.9815994704235695,0.1571987420320511,0.9866527318954468,0.04248141869902611,1.211154580116272,0.7095680832862854,-0.1540297418832779,-0.05540740489959717,-0.3643384575843811,-0.0883951261639595
337,1.1231211402635286,-1.4106326386664574,2.519333336340497,0.14376385509967804,0.9872012138366699,-0.06903410702943802,1.1514904499053955,0.8054097294807434,-0.07920083403587341,-0.08576519787311554,-0.0681796669960022,0.12277556210756302
338,0.6569298542512194,-1.3318462561198179,1.9877742246947454,0.14453928172588348,0.9715870022773743,-0.18742196261882782,0.6989443302154541,0.6062712073326111,-0.09868846833705902,-0.2672504782676697,0.15158188343048096,0.4155256152153015
339,0.6016516647403563,-1.3569639770845463,1.90431897263593,0.12010996043682098,0.9772248268127441,-0.17494350671768188,-1.5426405668258667,0.9638977646827698,-0.009357074275612831,0.2363964021205902,0.48761892318725586,0.14300686120986938
340,1.8657297033856752,-1.4233779819325136,-3.064995931507989,0.140542671084404,0.9891535639762878,0.042695943266153336,-2.204023838043213,-0.8708987236022949,0.07775993645191193,-0.0007263720035552979,0.25494128465652466,-0.02377498149871826
341,2.6601245604314827,-1.1669037373634992,-2.149238842545886,0.18199105560779572,0.9195381999015808,0.34832271933555603,-3.186561107635498,-2.072687864303589,-0.32880157232284546,0.0587315708398819,-0.1996590495109558,-0.0923260748386383
342,2.8344500078026384,-0.9696948838498337,-1.8879496600222452,0.17098671197891235,0.8247131705284119,0.5390844345092773,-1.1866376399993896,-0.06738115102052689,-0.24385321140289307,-0.09580661356449127,-0.3372252583503723,-0.4474552869796753
343,2.783511616157692,-1.00250133687366,-1.90410962855732,0.18862555921077728,0.8428198099136353,0.5040585398674011,2.4436378479003906,0.20404693484306335,0.16928726434707642,0.01149342954158783,-0.03459233045578003,-0.004684269428253174
344,2.8510206037368824,-1.0184689244391563,-1.8622906192105146,0.15031808614730835,0.8513057231903076,0.5026757717132568,-0.48965442180633545,0.05297921970486641,-0.7822062969207764,0.06321336328983307,-0.020724117755889893,0.2586919665336609
345,2.748259107156066,-1.015390730915768,-1.7923355773061298,0.2020934820175171,0.8496866226196289,0.48702260851860046,-0.053064581006765366,-3.2993431091308594,-0.03539133816957474,0.4636322557926178,0.24796968698501587,-0.7118760943412781
346,2.508376702545761,-1.197487329291165,-2.0481134143938133,0.2158067375421524,0.9311256408691406,0.29399386048316956,3.456245183944702,2.0726065635681152,0.0264628604054451,0.009977549314498901,0.2113303542137146,-0.14874553680419922
347,2.019260260303484,-1.378969305988841,-2.681342795053785,0.17179954051971436,0.9816575646400452,0.0826634094119072,1.0365779399871826,-1.0956220626831055,-0.36259979009628296,-0.28237998485565186,-0.35528433322906494,-0.09323776513338089
348,1.184683846928179,-1.4206367043042194,2.7397520549086174,0.13858304917812347,0.988747239112854,-0.05633647367358208,0.8841007947921753,0.11575527489185333,-0.18083897233009338,0.04008212685585022,-0.10413414239883423,0.2244424819946289
349,0.7264877836665554,-1.3540371374345748,2.2458690367503595,0.14285744726657867,0.9765995740890503,-0.1607646644115448,1.592631459236145,-0.038212668150663376,0.08336200565099716,-0.10820470750331879,0.13236355781555176,0.2906627655029297
350,0.5228675957831058,-1.3280628402135424,2.0195751561807014,0.12002620100975037,0.9706845879554749,-0.2082429677248001,0.07218296825885773,0.16743141412734985,-0.681673526763916,-0.22782954573631287,0.5441621541976929,0.4455934166908264
351,1.4926122117492737,-1.4407803761069315,2.9506276496334567,0.12925280630588531,0.9915598034858704,-0.01012615766376257,-2.5661768913269043,-1.4949034452438354,0.32917219400405884,0.18681775033473969,0.06889533996582031,-0.6633357405662537
352,2.5880434902881,-1.2354316908653238,-2.114848679880434,0.173018217086792,0.9442903399467468,0.2799651324748993,-3.1429879665374756,-0.6490301489830017,0.23679588735103607,0.2616741955280304,0.0447995662689209,0.06936955451965332
353,2.8231923181079965,-0.9940557106875246,-1.7937255603601765,0.17070329189300537,0.8382444381713867,0.5178868770599365,-1.8467165231704712,0.007226691581308842,-0.4070452153682709,-0.42781388759613037,-0.43632781505584717,-0.37552231550216675
354,2.8602232790790763,-0.9462995865366836,-1.7115251627298302,0.16235150396823883,0.8112574815750122,0.5616970062255859,0.9999684691429138,-0.5660779476165771,0.011510646902024746,0.23359884321689606,-0.18779850006103516,-0.5073298811912537
355,2.836060977743093,-1.093913145113343,-1.832457944317187,0.1380709409713745,0.8884298801422119,0.4377538859844208,-2.834573268890381,1.0363287925720215,-0.7113690376281738,-0.598413348197937,0.8586097955703735,1.9896295070648193
356,2.9045417476799935,-1.0469466260752716,-1.6914088196383932,0.11746957898139954,0.865899920463562,0.48622873425483704,0.35300713777542114,-3.4241182804107666,-0.3608599007129669,-0.036567479372024536,0.347387433052063,-1.2198255062103271
357,2.6968333474070225,-1.1239889318496559,-1.7659339686334914,0.18590205907821655,0.9018312096595764,0.39005252718925476,3.0283732414245605,-0.49252748489379883,0.35556817054748535,0.006084054708480835,0.22054427862167358,-0.5095593929290771
358,1.970609331739117,-1.3834548538776927,-2.756289855415447,0.1715594083070755,0.9825028777122498,0.07249634712934494,1.040516972541809,-1.0637837648391724,-0.0735008493065834,-0.5432177782058716,0.09350121021270752,0.3880901336669922
359,1.197789109990093,-1.408540884627057,2.766296750949774,0.15043598413467407,0.9868654608726501,-0.05886963754892349,1.2105680704116821,0.08345192670822144,-0.266689270734787,-0.031280115246772766,-0.25914329290390015,0.235093355178833
360,0.734300286088769,-1.3609877665494219,2.2345182024609134,0.13955701887607574,0.9780707955360413,-0.15460096299648285,1.0636354684829712,0.5474618077278137,-0.04772726073861122,-0.05145278573036194,0.023424625396728516,0.15687453746795654
361,0.4850953518708913,-1.3112698749585634,1.9404463472274294,0.11966140568256378,0.966511607170105,-0.22701647877693176,0.6190953850746155,0.3890575170516968,-0.5932035446166992,-0.2551136612892151,0.5255079865455627,0.3007164001464844
362,0.7381162277861711,-1.4243691011497326,2.123965753618089,0.098178431391716,0.9892987012863159,-0.10793095082044601,-2.6264898777008057,0.6390009522438049,0.11387544125318527,0.3732418715953827,0.027073979377746582,0.023656725883483887
363,2.4395339795065785,-1.3723510945438433,-2.3930522938717393,0.12731412053108215,0.980374276638031,0.15052266418933868,-4.1696929931640625,-1.8053733110427856,0.40556955337524414,0.26588955521583557,0.22610747814178467,0.18198153376579285
364,2.7905275765810815,-1.0250171988409174,-1.860459045261152,0.17851205170154572,0.8547230958938599,0.4874235987663269,-2.4362704753875732,-0.22700130939483643,-0.2125186324119568,-0.1505121886730194,-0.34854328632354736,-0.3197143077850342
365,2.844142711959069,-0.9037450050726907,-1.7498003155747537,0.18132232129573822,0.7856493592262268,0.5915043354034424,0.20301030576229095,-0.40453431010246277,-0.12334703654050827,0.034314900636672974,-0.2309008240699768,-0.5607731342315674
366,2.784435806905387,-1.0802882495946342,-1.8799289328221047,0.16469316184520721,0.882093608379364,0.4413468837738037,1.8852958679199219,0.4830007255077362,0.16411517560482025,-0.11966449022293091,-0.1465590000152588,1.5029737949371338
367,2.9086756469064916,-1.029378420788701,-1.7239495015799644,0.11895176768302917,0.8569788336753845,0.5014356374740601,0.7436648011207581,-0.920049250125885,-0.3143080472946167,0.2625332176685333,0.03480583429336548,-0.33609145879745483
368,2.7571979224803207,-1.0938058108892317,-1.7903308983953083,0.1721646636724472,0.8883806467056274,0.4256049394607544,1.9802757501602173,0.009014775976538658,0.24498452246189117,-0.0011899322271347046,0.12106466293334961,0.13666623830795288
369,2.4136006146986917,-1.318934131953829,-2.27671832203216,0.16581600904464722,0.9684500098228455,0.18603672087192535,2.4962656497955322,0.5433127880096436,0.18127621710300446,-0.2090441882610321,-0.29507964849472046,1.0124495029449463
370,1.8221332114992315,-1.4097224982843257,-2.900685670248107,0.15533946454524994,0.9870556592941284,0.03988596424460411,1.7552603483200073,0.6396735310554504,-0.13100378215312958,-0.11726880073547363,-0.2988079786300659,-0.0873255729675293
371,1.1400653997931,-1.3993167439420604,2.6570878754981515,0.15505456924438477,0.9853333830833435,-0.07124850153923035,0.9968891143798828,1.0279383659362793,0.12494655698537827,-0.12417078018188477,-0.041256844997406006,0.08595800399780273
372,0.8708013465957007,-1.3523243335862407,2.341806365281082,0.16577166318893433,0.9762297868728638,-0.1396261304616928,0.13283051550388336,0.3064097464084625,-0.20052169263362885,-0.3261873126029968,0.3120698928833008,0.11867575347423553
373,0.9384295165895888,-1.4002595348244964,2.3694226259981797,0.13689421117305756,0.9854938387870789,-0.10030869394540787,-1.7426435947418213,1.0499241352081299,0.10583892464637756,0.07578279078006744,0.10047411918640137,-0.07875321805477142
374,2.263459214963174,-1.3666808095082135,-2.4820423861704928,0.15598852932453156,0.9792406558990479,0.12944282591342926,-2.6776087284088135,-1.4938913583755493,0.14020785689353943,0.10170191526412964,0.30162787437438965,-0.030382752418518066
375,2.664367706610073,-1.1350148766544776,-1.9604580910269938,0.19388610124588013,0.9065404534339905,0.3749571144580841,-2.443131685256958,-1.5177375078201294,-0.2154686003923416,-0.07218196988105774,-0.23400920629501343,-0.09709450602531433
376,2.7950134507993183,-0.9968645709868794,-1.7384010304511734,0.1844264417886734,0.8397727608680725,0.510654866695404,-1.0686137676239014,-0.5187581777572632,-0.5478724241256714,-0.0656062513589859,-0.12552416324615479,-0.3827710747718811
377,2.7818228485851444,-1.0157223965994313,-1.6883991596502637,0.1855371743440628,0.8498615026473999,0.49326619505882263,1.6988896131515503,0.23824813961982727,0.11552102118730545,0.111032634973526,-0.2118610143661499,-0.05622386932373047
378,2.7581858076600216,-1.0919776498932603,-1.7472565349128388,0.17235128581523895,0.887539803981781,0.4272800385951996,-1.0842548608779907,-0.20821931958198547,-0.5560915470123291,-0.22890035808086395,0.24748528003692627,0.4304165244102478
379,2.777299077991143,-1.0942956502829113,-1.623055491795422,0.16342000663280487,0.8886054158210754,0.4285721480846405,-0.5396844744682312,-2.219599485397339,-0.24241194128990173,0.7236801981925964,0.306584894657135,-0.7171616554260254
380,2.5984193044572312,-1.1554682920362487,-1.717217193087642,0.20854610204696655,0.9149839878082275,0.3454171419143677,2.1551766395568848,-0.014760248363018036,-0.012811725959181786,0.06417426466941833,0.392877459526062,-0.4748116433620453
381,2.009588733530276,-1.3796873212150378,-2.485819069233707,0.17195333540439606,0.9817941784858704,0.08069875091314316,0.7891123294830322,-0.977033257484436,-0.1823369562625885,-0.34910786151885986,-0.16486912965774536,0.27641797065734863
382,1.3095575877443801,-1.4182551418832803,3.068146270378299,0.14679460227489471,0.9883881211280823,-0.039245299994945526,0.9851408004760742,0.5076993107795715,-0.22889211773872375,-0.09087112545967102,-0.16407787799835205,0.24284332990646362
383,0.759347718006763,-1.3723884445175762,2.4498425317263566,0.13569894433021545,0.9803816676139832,-0.14295977354049683,0.7503926157951355,0.6292455792427063,-0.1446804404258728,-0.21771492063999176,0.07584691047668457,0.3744508624076843
384,0.5857915325824604,-1.3994566249587213,2.2330131238671203,0.0942642018198967,0.9853572249412537,-0.14207594096660614,-1.1478720903396606,0.9212641716003418,-0.6520507335662842,0.029713422060012817,0.6087742447853088,0.32582229375839233
385,2.280236907457647,-1.4506574506369665,-2.4029300000302154,0.09093313664197922,0.992792010307312,0.078071229159832,-2.4027085304260254,-0.6314265727996826,0.11922688782215118,0.3696381747722626,0.1614285111427307,-0.1095043495297432
386,2.773384988258915,-1.2120395702050004,-1.8725091548304336,0.12638002634048462,0.9363340735435486,0.3275768756866455,-2.8241937160491943,-0.8896895051002502,0.25752565264701843,0.18166442215442657,-0.14940780401229858,-0.2238934338092804
387,2.8758485909610747,-0.9946076826979057,-1.7399046273752319,0.14308761060237885,0.8385452628135681,0.52570641040802,-1.4098403453826904,0.06748659908771515,0.036547765135765076,-0.08862900733947754,-0.19750851392745972,-0.2598527669906616
388,2.8403643534416214,-1.0199354351392802,-1.7545431933328692,0.1552954912185669,0.8520742058753967,0.49985256791114807,2.5169970989227295,-0.10303341597318649,0.02308850735425949,0.008538082242012024,-0.24497288465499878,-0.18997719883918762
389,2.8591677653052057,-1.1348023003650227,-1.795550628842607,0.11769214272499084,0.9064506888389587,0.4055810570716858,-0.17209506034851074,0.6463409066200256,-0.637270450592041,0.08718763291835785,0.17170488834381104,0.6233649849891663
390,2.8443231402497346,-1.066997870105486,-1.736290366321873,0.1414041519165039,0.8757551312446594,0.46158164739608765,0.5719157457351685,-2.3704869747161865,0.19513195753097534,-0.24452301859855652,0.6238938570022583,-0.8880801200866699
391,2.6300386616781752,-1.251652745996375,-1.9325258183194598,0.1535927802324295,0.9495044946670532,0.27358850836753845,3.437385320663452,1.6969355344772339,-0.13255611062049866,0.00944739580154419,0.3079417943954468,-0.1751844882965088
392,2.212983547496748,-1.4315830482109035,-2.466956519942449,0.1111207976937294,0.9903254508972168,0.0831126943230629,1.74781334400177,1.0665321350097656,-0.31246837973594666,-0.1527467966079712,-0.4147486686706543,-0.08851432800292969
393,0.9486907542832539,-1.4618357009626604,2.4701542920047994,0.08837234973907471,0.9940696358680725,-0.06337115168571472,1.4004714488983154,0.179655060172081,-0.10265497118234634,-0.02179822325706482,-0.15549242496490479,0.15672439336776733
394,0.5134336565719807,-1.3758318176292266,1.9943540333571428,0.09515553712844849,0.9810545444488525,-0.1687527745962143,0.7531055808067322,-0.031119585037231445,0.01969677396118641,-0.17459282279014587,0.11324477195739746,0.239690899848938
395,0.34103079250487256,-1.3617649669301277,1.792134029061359,0.06940441578626633,0.9782323837280273,-0.19556209444999695,-0.7645409107208252,0.4271247088909149,-0.5825448036193848,-0.19582346081733704,0.44632816314697266,0.5746514797210693
396,1.5090933947485325,-1.5058055745011574,2.923640485889702,0.0648234635591507,0.9978888630867004,-0.004004881717264652,-3.100853204727173,-0.626617431640625,0.2619152367115021,0.1350513994693756,0.029973864555358887,-0.12220054864883423
397,2.7771095095378886,-1.2574679447017159,-2.0077169058259976,0.10987236350774765,0.9513129591941833,0.2879784405231476,-3.3011128902435303,-1.2544620037078857,0.34252312779426575,0.24942633509635925,0.17661666870117188,0.015991896390914917
398,2.8619221640042443,-1.002144892124525,-1.8180027397992367,0.14864590764045715,0.8426279425621033,0.5175736546516418,-1.7974509000778198,-0.4147641956806183,-0.13397139310836792,-0.22866304218769073,-0.45131635665893555,-0.5005753636360168
399,2.8713415816610857,-0.9252792503197721,-1.74925169389209,0.16061431169509888,0.7987887859344482,0.5797755122184753,0.6801021099090576,-0.5790581107139587,-0.10745174437761307,0.14472933113574982,-0.1962190866470337,-0.5209223628044128
400,2.7773796086915254,-1.1331822201775266,-1.87775327861658,0.15095625817775726,0.9057653546333313,0.3959815502166748,-1.9160796403884888,-0.3734131455421448,-0.2850375771522522,-0.34512433409690857,0.475628137588501,1.9410698413848877
401,2.828904203353992,-1.0857667963920103,-1.781180773551752,0.14342202246189117,0.8846611976623535,0.44362673163414,0.7293964624404907,-2.4790306091308594,-0.13230301439762115,-0.07388775050640106,0.3917364478111267,-1.3366930484771729
402,2.6995802376368134,-1.16749912028731,-1.8433426546042126,0.16787537932395935,0.9197719693183899,0.35473528504371643,1.9240515232086182,-0.1371212750673294,-0.0981849730014801,-0.08808718621730804,0.3688783645629883,-0.44908037781715393
403,2.366307005427358,-1.3946477202677066,-2.2836189798659903,0.1226528137922287,0.9845259189605713,0.12515889108181,3.504145622253418,-0.030778290703892708,-0.5611041784286499,-0.1393917053937912,-0.20171964168548584,0.14307533204555511
404,1.464446520773418,-1.48025317479781,3.0349534493476042,0.08990882337093353,0.9959037899971008,-0.00959799811244011,1.2668997049331665,0.32111069560050964,-0.18693231046199799,-0.02402135729789734,-0.21527940034866333,0.1123812198638916
405,0.5608336200630379,-1.4090475309783328,2.077935850364356,0.08565831184387207,0.9869471788406372,-0.13637439906597137,1.0199307203292847,0.15996335446834564,0.01348607987165451,-0.13329625129699707,-0.027947545051574707,0.1732243299484253
406,0.38893300195160674,-1.3571725033969846,1.9043124811204395,0.08039168268442154,0.9772690534591675,-0.19616904854774475,0.09354769438505173,0.11545851081609726,-0.38079482316970825,-0.39225077629089355,0.47587114572525024,0.33607685565948486
407,0.5663721277053203,-1.4685406299163508,2.0050520828560945,0.05477193742990494,0.9947764277458191,-0.08613807708024979,-2.349489212036133,0.47905614972114563,0.18158364295959473,0.33206889033317566,0.0015156269073486328,-0.2337166666984558
408,2.6866613083037914,-1.389354181523865,-2.1008947115482286,0.07928907126188278,0.983584463596344,0.1620950549840927,-2.591076612472534,-0.2834717929363251,0.45943236351013184,0.2910569906234741,0.27463996410369873,0.0297078937292099
409,2.845405468465813,-1.1129715075532534,-1.83875077717437,0.12900854647159576,0.8970160484313965,0.4227522313594818,-2.089506149291992,-0.9531564712524414,-0.0842910036444664,-0.13280795514583588,-0.30875909328460693,-0.3560253977775574
410,2.8862439135888125,-1.0070242038669723,-1.745417215069579,0.13497477769851685,0.845245361328125,0.5170511603355408,-0.04094574600458145,-0.4832272231578827,-0.12230514734983444,0.05716387927532196,-0.20678716897964478,-0.4116130471229553
411,2.802451352859494,-1.1917149362662982,-1.8405198169027286,0.12311305105686188,0.929004967212677,0.3489885628223419,2.3098933696746826,0.6129290461540222,-0.03399612754583359,-0.08395898342132568,-0.010776877403259277,0.812586784362793
412,2.889857397667859,-1.1446570261547027,-1.7568364116384,0.10296138375997543,0.910568356513977,0.40033021569252014,-0.4856383502483368,-0.6114525198936462,-0.18269102275371552,-0.02134212851524353,0.14306628704071045,0.3134300708770752
413,2.7515895887502113,-1.1667030083978158,-1.7542044215507266,0.14948566257953644,0.9194592833518982,0.3636603355407715,1.0210667848587036,-0.2296052724123001,0.149184912443161,0.21611495316028595,0.07581061124801636,-0.1795324981212616
414,2.6073432225952717,-1.30869552230388,-1.9729225986670476,0.1319376826286316,0.9658477902412415,0.22300349175930023,2.893263578414917,1.320785403251648,-0.24766847491264343,-0.09151716530323029,-0.10223084688186646,-0.2728844881057739
415,1.7744452528559704,-1.4847425758648032,-2.915115126474052,0.08417121320962906,0.996299684047699,0.017382342368364334,1.0197192430496216,1.0294268131256104,-0.36264297366142273,-0.09727853536605835,-0.3740310072898865,0.20063519477844238
416,0.4886296354639393,-1.432498342132519,1.9954063930642059,0.06471259891986847,0.9904520511627197,-0.12172506004571915,1.2864587306976318,0.19670796394348145,0.0366649404168129,-0.0010224059224128723,-0.060139000415802,0.32953453063964844
417,0.3379396203842469,-1.3668181274284914,1.82152778319198,0.06715966761112213,0.979268491268158,-0.19110921025276184,0.3605286478996277,0.05233820900321007,-0.0008826851844787598,-0.23869898915290833,0.22371912002563477,0.10324910283088684
418,0.2042265737961933,-1.4334711864917524,1.6437761325595364,0.02776324935257435,0.9905856847763062,-0.13404810428619385,-1.903963327407837,1.0087476968765259,-0.1643688976764679,0.3525162935256958,0.23484748601913452,0.00036588311195373535
419,2.675582368202348,-1.426635952344911,-2.1142739275312614,0.06455106288194656,0.9896268844604492,0.1283431351184845,-2.738656759262085,-1.7689909934997559,0.4816722273826599,0.15755587816238403,0.5361299514770508,0.09893655776977539
420,2.8565952566643933,-1.167312210196457,-1.8992252805693326,0.11038852483034134,0.9196986556053162,0.3767876625061035,-2.4845051765441895,-0.807043194770813,0.14652767777442932,-0.10155367851257324,-0.3150995969772339,-0.4579033851623535
421,2.907632722343155,-1.0018498323628646,-1.7774920067602638,0.12489793449640274,0.8424690365791321,0.5240671634674072,-0.7502284646034241,-0.3230825960636139,-0.1800219714641571,-0.01756761223077774,-0.3024604916572571,-0.3020671010017395
422,2.8069324261034314,-1.1435707095157552,-1.8488295510038457,0.1360916793346405,0.910118818283081,0.39136019349098206,3.996284246444702,0.41991639137268066,0.08836892992258072,-0.0008530020713806152,-0.030510663986206055,0.3777742385864258
423,2.860597510085138,-1.1757164104347935,-1.7972144174868936,0.10673242807388306,0.9229658246040344,0.36978715658187866,0.5470309257507324,-0.6514553427696228,-0.24686184525489807,0.20204447209835052,-0.1271892786026001,0.31772807240486145
424,2.698444050903783,-1.1513760589762678,-1.7894162393703927,0.17461489140987396,0.9133251905441284,0.3678947687149048,0.38411369919776917,-0.7441765069961548,0.23212631046772003,0.19835568964481354,0.20363330841064453,-0.3002678453922272
425,2.420223728362294,-1.3144096362481847,-2.119299050213798,0.16747263073921204,0.9673125743865967,0.19041955471038818,4.0580735206604,0.5186066627502441,-0.32755208015441895,-0.018607839941978455,0.07530534267425537,-0.4982350766658783
426,1.8574707700588695,-1.4448774577645334,-2.7686213798339474,0.12046052515506744,0.9920827150344849,0.03551112115383148,1.351241111755371,1.0479965209960938,-0.37138667702674866,-0.10784152895212173,-0.49791163206100464,-0.16904079914093018
427,0.6054110812000796,-1.4117245612205769,2.1583786838605468,0.09014665335416794,0.9873747229576111,-0.1302490085363388,1.336065411567688,0.28006261587142944,-0.03782815486192703,0.08935777097940445,-0.08699929714202881,0.3889617919921875
428,0.40594609361198825,-1.3457660565887732,1.9605488331443064,0.08811383694410324,0.9747873544692993,-0.20500172674655914,0.18557727336883545,0.2874777615070343,-0.131308451294899,-0.29300886392593384,0.10600793361663818,0.33380115032196045
429,0.21680962584610317,-1.411231598052743,1.7314240190347954,0.034179411828517914,0.9872965216636658,-0.15516920387744904,-1.7930701971054077,0.8188571333885193,-0.45847374200820923,0.3185427784919739,0.1915212869644165,0.10231272876262665
430,2.6385358680607696,-1.4723339355029283,-2.144966877892786,0.04739255830645561,0.995156466960907,0.0861247256398201,-2.4408557415008545,-1.432390809059143,0.21276086568832397,0.3668835461139679,0.572806179523468,-0.08757436275482178
431,2.905259623984289,-1.2276538983252114,-1.834539287637015,0.07877561450004578,0.9417020678520203,0.327095627784729,-2.1437807083129883,0.11110899597406387,0.10474435985088348,-0.08374995738267899,-0.41806626319885254,-0.4906698763370514
432,2.9661144272860427,-1.0755668892034727,-1.7163499963549997,0.08296584337949753,0.8798596858978271,0.46793562173843384,-0.5806161761283875,-0.3345727026462555,-0.205307736992836,0.054943084716796875,-0.33946967124938965,-0.22608375549316406
433,2.8885795007839494,-1.2067693119657166,-1.743491512386191,0.08912482112646103,0.9344706535339355,0.34470486640930176,3.033447265625,-0.7322938442230225,-0.2386435568332672,-0.11862009763717651,-0.04762983322143555,0.48573946952819824
434,2.92972738835719,-1.2193963533492365,-1.639087382092733,0.07238227128982544,0.9388917684555054,0.3365158140659332,-0.617792546749115,0.028614751994609833,-0.05724385380744934,0.23009267449378967,0.19367647171020508,0.4681411683559418
435,2.828526628547083,-1.177462239931869,-1.6310656831937513,0.11803850531578064,0.9236363172531128,0.36464110016822815,0.5709479451179504,-1.9648579359054565,0.05586022138595581,0.031345024704933167,0.30315518379211426,-0.6326922178268433
436,2.5247019523212657,-1.3972933159829999,-1.954078747792638,0.09986882656812668,0.9849860668182373,0.140813946723938,1.8799784183502197,0.6249984502792358,-0.25650733709335327,0.024429284036159515,-0.14857560396194458,0.399225115776062
437,2.0399459516079284,-1.4986471749776507,-2.5106979849985485,0.06429879367351532,0.9973983764648438,0.032592836767435074,1.4844393730163574,1.9078896045684814,-0.37252044677734375,-0.02381720393896103,-0.3611830472946167,0.0519104041159153
438,0.3421836349262096,-1.4225745887705632,2.0107412526722017,0.04955330491065979,0.9890352487564087,-0.1391182243824005,1.5735589265823364,-0.15147355198860168,-0.009569475427269936,-0.1461261808872223,-0.10385763645172119,0.3977241516113281
439,0.1815368417907653,-1.3632981052938045,1.8278399073325144,0.03719382733106613,0.9785493612289429,-0.20262743532657623,0.4132518768310547,-0.43143749237060547,-0.4264853000640869,-0.31713157892227173,0.43017256259918213,0.39664292335510254
440,-0.0580421339882982,-1.4785813130397,1.5029791586676438,-0.005341715179383755,0.9957512021064758,-0.09192831069231033,-2.652555227279663,0.29084354639053345,0.15731224417686462,0.26303213834762573,0.2983618378639221,-0.2388669103384018
441,2.876800179949784,-1.3915171314809165,-1.7741454431891077,0.04666817933320999,0.9839724898338318,0.1721058487892151,-2.4396402835845947,-2.1266562938690186,0.7670102715492249,0.2106102705001831,0.4606075882911682,0.05337333679199219
442,2.896487301197335,-1.1342165514373044,-1.6979652194547017,0.10260642319917679,0.9062031507492065,0.41020482778549194,-1.8498101234436035,-0.9571242928504944,0.05218624323606491,-0.23045982420444489,-0.458815336227417,-0.5682248473167419
443,2.9167893051662506,-1.0438520527386512,-1.6206980616723061,0.11210262030363083,0.8643478155136108,0.4902409017086029,0.23672635853290558,-0.5602287650108337,-0.18015062808990479,0.11941902339458466,-0.2864820957183838,-0.439169704914093
444,2.7980663229354548,-1.2317661964041,-1.691526071860779,0.11201342940330505,0.9430776834487915,0.3131408393383026,1.7211493253707886,-0.2607397735118866,-0.18433384597301483,-0.16596856713294983,0.11963582038879395,0.6862334609031677
445,2.859134780207274,-1.2058870571111047,-1.5940968513402858,0.09946424514055252,0.9341561198234558,0.3427233099937439,-1.0249327421188354,-1.1875364780426025,-0.22538286447525024,-0.04947642982006073,0.22108685970306396,0.3939557373523712
446,2.7568368121357976,-1.2159210393963193,-1.567308169854934,0.13041801750659943,0.9376898407936096,0.3220692574977875,1.1033426523208618,-0.6709803342819214,0.16023747622966766,0.12269476056098938,0.07520365715026855,0.7109201550483704
447,2.4816899429823756,-1.3848091292577436,-1.8432830564710447,0.11336129903793335,0.9827541708946228,0.14609374105930328,2.7436108589172363,0.36235883831977844,-0.4323575496673584,-0.03735727816820145,-0.18537569046020508,-0.12760008871555328
448,1.849075300964318,-1.4908842434376814,-2.548516446682298,0.07675570994615555,0.9968087077140808,0.021928487345576286,1.616063117980957,1.3640902042388916,-0.25789904594421387,-0.10532018542289734,-0.4241769313812256,-0.011781454086303711
449,0.4007325285070909,-1.4094025453015895,2.229210616507567,0.062685526907444,0.987004280090332,-0.14796294271945953,0.9940012097358704,0.08249900490045547,0.05668829753994942,-0.1038995161652565,-0.03238397836685181,0.49323880672454834
450,0.23767975547006812,-1.359796797133933,2.0600752964279736,0.049311716109514236,0.9778220653533936,-0.20354966819286346,-0.08217217773199081,-0.08339784294366837,-0.3867296874523163,-0.33805376291275024,0.26795125007629395,0.2543003559112549
451,0.01949308858808542,-1.4813200488135445,1.7570361343371719,0.0017417471390217543,0.9959996938705444,-0.08934071660041809,-2.689556360244751,0.6090614199638367,0.07256051898002625,0.39085161685943604,0.34601080417633057,-0.1772456169128418
452,2.89304103131021,-1.419080347209695,-1.5694793035711707,0.03717934712767601,0.988513171672821,0.1464909166097641,-2.2805798053741455,-0.8529329299926758,0.4348641037940979,0.15157189965248108,0.2326783537864685,0.1643000990152359
453,2.9238959844787575,-1.185730465393153,-1.5055231942488965,0.08112695068120956,0.9267736673355103,0.36675480008125305,-1.639151692390442,-0.8386046886444092,0.08267255872488022,-0.06789758801460266,-0.37269651889801025,-0.40770936012268066
454,2.9353787542306784,-1.100000821882662,-1.4477461777932727,0.09287621080875397,0.891207754611969,0.4439854621887207,0.3546060025691986,-0.7356386780738831,-0.200826957821846,0.018741853535175323,-0.32963836193084717,-0.3677524924278259
455,2.850966855393563,-1.2778027699558818,-1.5090341125240647,0.08276180177927017,0.9573835730552673,0.2767079472541809,1.205976963043213,-0.8401300311088562,-0.17983101308345795,-0.15591242909431458,0.001585543155670166,0.8128001689910889
456,2.9757658236301854,-1.2460299964654589,-1.378189547722829,0.05267109349370003,0.9477252960205078,0.3147102892398834,1.1615700721740723,-2.2102832794189453,-0.13395096361637115,0.034166693687438965,0.2832164764404297,-1.3559701442718506
457,2.8396826659198697,-1.2256381115791128,-1.352630082945377,0.10060500353574753,0.9410219192504883,0.3230418562889099,-0.08850419521331787,-0.18513639271259308,-0.06909974664449692,-0.04457475244998932,0.4396083950996399,-0.4129009544849396
458,2.8329422032906653,-1.3865501097809598,-1.4560311729412838,0.0556529276072979,0.9830746054649353,0.17454807460308075,2.5925750732421875,1.0365097522735596,-0.28326207399368286,0.01505628228187561,-0.2960019111633301,-0.18820476531982422
459,0.19902914003802957,-1.533496876747798,2.041696814198892,0.007372713182121515,0.999304473400116,-0.03655296191573143,1.66518235206604,1.3162513971328735,-0.3886818587779999,-0.05725368857383728,-0.36302828788757324,0.2723928689956665
460,0.02879846046188234,-1.4014758609466464,1.824455006728447,0.004852222744375467,0.985699474811554,-0.16844238340854645,1.027012586593628,-1.1396299600601196,0.13516420125961304,-0.07632440328598022,0.037921011447906494,0.22137512266635895
461,-0.1375416306705513,-1.3710670149672524,1.6944163792983529,-0.027202855795621872,0.9801203012466431,-0.1965303272008896,-1.1477775573730469,0.7642804980278015,-0.9580915570259094,-0.37100574374198914,0.35819751024246216,0.5377931594848633
462,-2.291393556852842,-1.5233551882715533,-0.5862260791584574,-0.03563563525676727,0.9988749027252197,0.031292542815208435,-2.543752431869507,0.001693956321105361,0.5147099494934082,0.3998781740665436,0.3976552486419678,-0.37443220615386963
463,2.974771305363479,-1.3056355243355389,-1.479454526661381,0.04351549968123436,0.9650503993034363,0.25842663645744324,-3.0095560550689697,-1.099587321281433,0.6192163825035095,0.05024978518486023,-0.1210867166519165,0.2901115417480469
464,2.913237958002678,-1.1166042763428778,-1.4768913413957216,0.09931914508342743,0.8986157774925232,0.42734724283218384,-0.9480326771736145,-0.2482490986585617,-0.04248817265033722,-0.2503811717033386,-0.39924126863479614,-0.3691653609275818
465,2.911937992037435,-1.1431146910485923,-1.4607868373603923,0.0944170206785202,0.9099297523498535,0.4038727879524231,1.8747013807296753,-0.025675149634480476,-0.2583106756210327,0.047855935990810394,-0.2404657006263733,-0.08140876889228821
466,2.9260237462308902,-1.21560046129427,-1.4428948526709426,0.0743899941444397,0.9375783801078796,0.3397248089313507,-0.2694973647594452,0.8823829889297485,-0.28810280561447144,-0.0519595742225647,0.08279210329055786,0.6149413585662842
467,2.9272088848638687,-1.2323321781021284,-1.3832793702864394,0.0706397071480751,0.9432657361030579,0.3244376480579376,-0.6899595856666565,-1.4996263980865479,0.12539350986480713,0.4517907202243805,0.42918604612350464,-0.17317724227905273
468,2.8479862203535555,-1.2438093225029347,-1.4139817406326607,0.092954620718956,0.9470143914222717,0.3074459135532379,1.6311919689178467,0.5509383082389832,-0.25907814502716064,-0.12280083447694778,0.21300441026687622,-0.4799465239048004
469,2.4554025726671624,-1.494966601931821,-1.849619643607554,0.04799952730536461,0.9971262812614441,0.05861099064350128,2.351527452468872,1.4669405221939087,-0.6525993943214417,-0.08851161599159241,-0.4462992548942566,0.2601757049560547
470,0.09103704298548353,-1.4726736197703558,1.9248977773421083,0.008906248025596142,0.9951898455619812,-0.09756061434745789,1.3922635316848755,0.5593669414520264,-0.003630591556429863,0.08479797840118408,-0.14394772052764893,0.22933554649353027
471,0.06702709315326809,-1.37659679506207,1.9062557402399216,0.012925298884510994,0.9812024831771851,-0.19254805147647858,0.6558858156204224,-0.36282211542129517,-0.11012915521860123,-0.29879871010780334,0.32716238498687744,0.11224102973937988
472,-0.28436586460701596,-1.4266981074752736,1.4721221607951276,-0.040286585688591,0.9896358251571655,-0.13783220946788788,-2.293274164199829,1.7779961824417114,-0.31819775700569153,0.3411898910999298,0.4317812919616699,-0.05241440236568451
473,-2.985434583757981,-1.4659906918742511,-1.2589943822207101,-0.01626996137201786,0.9945129156112671,0.10334077477455139,-2.2110540866851807,-1.00128173828125,0.5543465614318848,0.3874858021736145,0.4288879632949829,-0.07753825187683105
474,2.9717347543998973,-1.1736485519535897,-1.4694106568419847,0.06538385897874832,0.922167956829071,0.3812235891819,-2.2849442958831787,-0.23106399178504944,0.5465483069419861,-0.08055108785629272,-0.40436089038848877,-0.37536418437957764
475,2.953536209591985,-1.035104516432016,-1.4663771570296256,0.09542600065469742,0.8599157333374023,0.5014367699623108,-0.9441385269165039,-0.2191482037305832,0.07588808238506317,-0.11243954300880432,-0.19675344228744507,-0.34169256687164307
476,2.8965108887920223,-1.157021321307037,-1.5100187680661141,0.09755627065896988,0.9156095385551453,0.3900541663169861,3.7520155906677246,1.1362684965133667,-0.11843986809253693,-0.09833443909883499,-0.19833946228027344,0.3517213761806488
477,2.944407159077518,-1.2125851009911037,-1.4651100445381287,0.06868599355220795,0.9365254640579224,0.3438054919242859,0.6012465953826904,0.29113495349884033,-0.4002871811389923,0.027230769395828247,0.10629069805145264,0.10292601585388184
478,2.864454659836605,-1.1909037899832053,-1.4384522391845618,0.10145804286003113,0.9287045001983643,0.35667115449905396,0.019435761496424675,-1.9191741943359375,0.028490696102380753,-0.03799673914909363,0.22002291679382324,-0.34275519847869873
479,2.8867127770656946,-1.2538870845011605,-1.4305089710502354,0.07857123762369156,0.9502031207084656,0.30156320333480835,1.3861087560653687,-0.002108377870172262,-0.3337238132953644,-0.03734201937913895,-0.06638365983963013,-0.40729132294654846
480,2.835392829782015,-1.442262042781871,-1.5516054758956948,0.038638632744550705,0.9917508363723755,0.12221905589103699,1.838958501815796,1.4828600883483887,-0.23975151777267456,-0.04744294285774231,-0.3830777406692505,0.10451126098632812
481,0.5413455770785361,-1.5155702664704918,2.3650944585506304,0.0284431055188179,0.9984754323959351,-0.047305818647146225,1.374437928199768,-0.29202333092689514,0.17063602805137634,-0.007523298263549805,-0.06480538845062256,0.15248465538024902
482,0.14869701456714937,-1.3991343891741705,2.0268541275011316,0.02530703879892826,0.985302209854126,-0.16893576085567474,1.0468933582305908,-0.49433666467666626,-0.31818100810050964,-0.3555072546005249,0.299091100692749,0.20354270935058594
483,-0.19830967391039975,-1.4844937094339363,1.5908747493361541,-0.016981597989797592,0.9962782263755798,-0.08450622856616974,-2.6883249282836914,1.507959008216858,-0.1090468317270279,0.3871445655822754,0.2261948585510254,-0.022274725139141083
484,3.137863642571938,-1.4282014547822042,-1.332347646312972,0.0005299373297020793,0.9898505806922913,0.14211136102676392,-1.7887017726898193,-1.7471617460250854,0.3282708525657654,0.2709391713142395,0.25596851110458374,-0.08873607218265533
485,2.9975536050992804,-1.151859589339594,-1.3723546912565234,0.05839116498827934,0.9135220050811768,0.40257683396339417,-1.9763866662979126,-0.5083786845207214,0.27980419993400574,-0.06908756494522095,-0.43689846992492676,-0.3787578344345093
486,2.954126003917744,-1.036038934470365,-1.3688900670148432,0.09498041868209839,0.8603922724723816,0.5007031559944153,-0.4688766896724701,-0.35477590560913086,0.10405965149402618,-0.007410235702991486,-0.11535149812698364,-0.3502057194709778
487,2.860316860836805,-1.2049901567608239,-1.4361370896345007,0.09929165244102478,0.9338356852531433,0.34364569187164307,2.6875641345977783,0.06419740617275238,-0.17459434270858765,-0.2256649136543274,-0.056226253509521484,0.764218807220459
488,2.9531747299322344,-1.196885222448911,-1.3669859861944358,0.06841486692428589,0.9309058785438538,0.358794629573822,0.22724714875221252,-0.7075203061103821,-0.16970205307006836,-0.005014598369598389,0.12304913997650146,0.2363591194152832
489,2.8260212281161508,-1.220547601792048,-1.3790476560011173,0.10649403184652328,0.9392874240875244,0.326186865568161,0.6882674098014832,-1.21263587474823,0.14821144938468933,-0.003192029893398285,0.26348644495010376,-0.21559125185012817
490,2.774871609496218,-1.3174669645202857,-1.4466855811324102,0.08986454457044601,0.968083381652832,0.2339639514684677,1.8352532386779785,-0.1815146654844284,-0.18962246179580688,0.012842364609241486,-0.22981727123260498,-0.3522500693798065
491,1.5830063405184702,-1.512076742337547,-2.703249650520877,0.05868121236562729,0.9982764720916748,0.0007165339775383472,1.608089804649353,0.5329204797744751,-0.16865071654319763,-0.043071482330560684,-0.3178566098213196,0.3712317943572998
492,0.44941638234717407,-1.4262518833153623,2.408089625622885,0.0625777542591095,0.9895716309547424,-0.12973906099796295,1.4844318628311157,-0.25776582956314087,0.1860903650522232,-0.0793471559882164,-0.02260679006576538,0.16291163861751556
493,0.28739299310142186,-1.3628545679107502,2.24964062310448,0.05851796269416809,0.9784579277038574,-0.19797952473163605,0.5060814619064331,0.04576253890991211,-0.4351414442062378,-0.4514775574207306,0.43488752841949463,0.21651896834373474
494,0.03853582389998598,-1.4550587521504943,1.9449153442352807,0.00444900942966342,0.9933098554611206,-0.11539410799741745,-2.228584051132202,0.6344385743141174,0.01622716896235943,0.3526219129562378,0.07167738676071167,-0.14399005472660065
495,2.88978425340997,-1.4186356503644149,-1.4154225925512405,0.03776540979743004,0.9884458780288696,0.1467934101819992,-2.9179179668426514,-1.2761659622192383,0.6030917167663574,0.32046517729759216,0.5051910877227783,0.11233137547969818
496,2.905017662270997,-1.1480963635638222,-1.3386433023790727,0.09614609181880951,0.9119846820831299,0.3987981677055359,-2.4360384941101074,-1.0804715156555176,0.11955180764198303,-0.1570286750793457,-0.4040195941925049,-0.4998875856399536
