,attitude.roll,attitude.pitch,attitude.yaw,gravity.x,gravity.y,gravity.z,rotationRate.x,rotationRate.y,rotationRate.z,userAcceleration.x,userAcceleration.y,userAcceleration.z
0,0.26230034778852823,-1.359231979321242,2.5544442576753115,0.05445106327533722,0.9777036309242249,-0.20280767977237701,0.5998662710189819,0.7681725025177002,-0.0602361336350441,-0.312416136264801,0.04217863082885742,0.15199589729309082
1,-0.061427692068145155,0.7522624602670183,-0.853808151417046,-0.04482291266322136,-0.6832924485206604,-0.7287677526473999,0.37421321868896484,-0.14903658628463745,-0.39595863223075867,-0.14047980308532715,-0.2152366042137146,-0.2546917200088501
2,-0.11504998368033682,0.7555588541592264,-0.9039479122029381,-0.08355893194675446,-0.6856955885887146,-0.7230764031410217,-0.30592605471611023,-0.22114403545856476,-0.6900703310966492,-0.058210454881191254,0.2241782546043396,0.003105759620666504
3,-0.23780107090829267,0.7554615530773034,-0.9929541585172773,-0.17148159444332123,-0.6856247186660767,-0.7074692845344543,-0.10037767142057419,-1.650446891784668,0.3542369306087494,0.25064417719841003,0.29582369327545166,0.23006755113601685
4,-0.4644144696865231,0.7055142472121307,-0.8440748556890965,-0.3409759998321533,-0.6484254002571106,-0.6806465983390808,-0.24507489800453186,-0.5292283892631531,1.270548939704895,0.10045173764228821,0.31264054775238037,0.2622506618499756
5,-0.5987432942148843,0.5631886235046353,-0.7304877531276889,-0.4765600264072418,-0.5338850617408752,-0.6984677910804749,-1.3029308319091797,0.9633846282958984,1.5710152387619019,0.23446407914161682,0.008570730686187744,0.08396583795547485
6,-0.7030758928161123,0.45468153562276775,-0.6323825344569758,-0.5808765888214111,-0.4391762316226959,-0.6853514909744263,0.7192359566688538,-1.6196627616882324,1.1024820804595947,0.09488415718078613,0.14423909783363342,-0.5568817853927612
7,-0.6749924066572247,0.3268310593147388,-0.5366822132577395,-0.5918124318122864,-0.321043461561203,-0.7393842935562134,0.5851027369499207,-0.10959766060113907,1.4908373355865479,-0.23927277326583862,0.0007919669151306152,-0.8135179281234741
8,-0.7734579327709499,0.25632374665749985,-0.405728348876672,-0.6757888793945312,-0.25352612137794495,-0.6921228170394897,-1.1601440906524658,1.2411507368087769,0.9889870285987854,-0.6249160766601562,-0.057402223348617554,-0.22650206089019775
9,-0.8669700550625475,0.2092605406106571,-0.3200395009904033,-0.7457403540611267,-0.20773662626743317,-0.6330220103263855,3.767806053161621,-4.939558982849121,0.8015661835670471,0.2530646324157715,-0.22956499457359314,0.027110755443572998
10,-1.3699603879197173,0.32713809149095335,-0.09319925593648176,-0.9279319047927856,-0.32133421301841736,-0.18890881538391113,0.25561273097991943,-2.5510129928588867,0.3285558521747589,0.2741386294364929,0.17036378383636475,0.6268360614776611
11,-1.557503045337034,0.28803417855615476,-0.09942352831633702,-0.9587196111679077,-0.28406792879104614,-0.012745280750095844,0.24312780797481537,-1.3217395544052124,0.7867493033409119,0.07801264524459839,-0.10071301460266113,-0.12559086084365845
12,-1.62067641618946,0.1860829999927965,-0.026803849817158797,-0.9815141558647156,-0.18501093983650208,0.04899865761399269,0.8412851095199585,-0.1108270063996315,1.3454887866973877,-0.07660651206970215,-0.14290042221546173,0.39880096912384033
13,-1.599458137506372,0.19372285038792741,-0.17548426309297666,-0.9808912873268127,-0.19251343607902527,0.028121821582317352,-2.1636266708374023,-0.45966264605522156,-0.5490508675575256,-0.19275373220443726,0.14626404643058777,-0.48419177532196045
14,-1.486290381532242,0.22363875672517972,-0.3776601408704087,-0.9716172218322754,-0.2217792272567749,-0.08230344206094742,-1.4908806085586548,0.299876868724823,-0.023207886144518852,0.27053695917129517,0.1021198183298111,-0.2916741967201233
15,-1.4069058435927078,0.22660534330334686,-0.40689185669538075,-0.9613772630691528,-0.22467094659805298,-0.15898661315441132,-0.6730473041534424,1.4417622089385986,0.5336005091667175,0.30094635486602783,0.04042106866836548,0.06010967493057251
16,-1.4951156658100029,0.20998721845679666,-0.19326868303867847,-0.9752341508865356,-0.2084473967552185,-0.07394760102033615,2.6085281372070312,-2.396261215209961,0.39402756094932556,0.33795082569122314,0.121396005153656,0.31282395124435425
17,-1.6903812271747738,0.14725183038484463,0.023342817492257924,-0.9821135997772217,-0.1467202603816986,0.11800902336835861,1.9868707656860352,-1.1218290328979492,0.44487902522087097,-0.2902557849884033,-0.11963716149330139,0.19789373874664307
18,-1.8165019872652886,0.1307252651030283,0.147129714087979,-0.961689829826355,-0.13035325706005096,0.241165429353714,0.6041935086250305,-1.6495410203933716,0.13637636601924896,-0.09446251392364502,-0.03952282667160034,0.29254114627838135
19,-1.9692553678536087,0.10377070398901649,0.23342089879838598,-0.9167020916938782,-0.10358456522226334,0.38591140508651733,0.9057629704475403,-0.5134127736091614,0.16843047738075256,-0.11640948057174683,0.018501564860343933,-0.5295577049255371
20,-1.9645667727686604,0.08199324021206024,0.38081504133679406,-0.9203665852546692,-0.08190140128135681,0.3823840618133545,1.4832713603973389,0.16924428939819336,-0.0376686155796051,0.5042746663093567,0.08431228995323181,0.2696545124053955
21,-2.0425384360052554,0.053763040192694386,0.43330364931511267,-0.8894909620285034,-0.05373714491724968,0.45378226041793823,0.6446042656898499,-1.6788407564163208,0.17401617765426636,0.5069683194160461,-0.04129459708929062,-0.09727591276168823
22,-2.1009626891249256,0.0013633672545712168,0.4644217319162786,-0.8627219796180725,-0.0013633668422698975,0.5056763291358948,1.2206130027770996,-0.5070652961730957,-0.0744868591427803,-0.17223572731018066,-0.1739448606967926,0.1478269100189209
23,-2.180350664601128,-0.022224053110263667,0.5059158883608854,-0.8197007775306702,0.02222222462296486,0.5723607540130615,-0.04931872338056564,-0.765333354473114,0.13641357421875,-0.22911208868026733,0.06008368730545044,0.485759973526001
24,-2.259543256756352,-0.02506897983947339,0.4675554113758306,-0.7718003988265991,0.025066353380680084,0.6353704929351807,-0.535356342792511,-1.177443265914917,0.1299314647912979,-0.3473096489906311,-0.08979414403438568,-0.10405951738357544
25,-2.229169386695231,0.0043250258656293,0.4164362696925528,-0.7909812927246094,-0.00432501221075654,0.6118250489234924,-0.32431498169898987,2.2566466331481934,0.3186996281147003,-0.15452951192855835,0.271246999502182,-0.1330195665359497
26,-2.005289815251207,0.0004013456754592102,0.3731079889525729,-0.9070834517478943,-0.00040134566370397806,0.4209510385990143,-0.1662931889295578,0.5980063676834106,-0.012490121647715569,0.39727187156677246,-0.08869472146034241,-0.01679140329360962
27,-2.02990603435408,0.01350137096366683,0.37045769690184044,-0.8963657021522522,-0.013500960543751717,0.44310981035232544,0.23691418766975403,0.516761839389801,-0.019439108669757843,0.2684665322303772,0.09916380047798157,-0.26119446754455566
28,-1.9291096762394546,-0.016133339206481648,0.41430219839453564,-0.9363678693771362,0.016132639721035957,0.3506495952606201,0.6659711003303528,0.38740840554237366,0.002697332762181759,-0.06581413745880127,0.031718909740448,0.5672276020050049
29,-1.9539177191469748,-0.011402662585555516,0.4341911348269394,-0.9274420142173767,0.011402415111660957,0.3737930655479431,0.14664947986602783,-0.6632657051086426,-0.022822098806500435,-0.2444635033607483,-0.08772687613964081,0.2362837791442871
30,-2.0421404652110255,-0.016211973528283657,0.4356790555426148,-0.8908417224884033,0.016211263835430145,0.45402461290359497,0.540038526058197,-0.33993226289749146,-0.24691012501716614,-0.3176696300506592,-0.16704440116882324,-0.44435060024261475
31,-1.9686295526773008,-0.015981083109742195,0.5338680285069236,-0.9217849969863892,0.015980402007699013,0.3873722553253174,1.370967984199524,0.9550349712371826,-0.6141431331634521,0.19900661706924438,0.01665814220905304,0.03862261772155762
32,-1.9843822876379287,-0.019897103003117575,0.6327697421730447,-0.9155041575431824,0.01989579014480114,0.40181589126586914,0.5600121021270752,-0.6522637605667114,-0.16770097613334656,0.5178755521774292,-0.07609391957521439,-0.2547975480556488
33,-1.9282719702165863,-0.03789188151693181,0.6568037081800732,-0.9361107349395752,0.037882816046476364,0.34965944290161133,0.34633925557136536,1.8193564414978027,0.07810468226671219,-0.1313941478729248,0.02061939239501953,0.15836668014526367
34,-1.8803684983849065,-0.06607989179927053,0.6795194138947374,-0.9503852725028992,0.066031813621521,0.3039862811565399,-0.40999454259872437,-0.7367390394210815,0.2796210050582886,-0.22803574800491333,0.057945847511291504,0.5014336109161377
35,-1.95941951207067,-0.09189709867532471,0.6521669386708483,-0.9215267300605774,0.0917678102850914,0.37731578946113586,-0.395342081785202,-1.7346643209457397,0.36123770475387573,-0.5374118685722351,0.0333084911108017,0.08726847171783447
36,-2.054089216391388,-0.05623195238319661,0.5817568409580646,-0.8840702176094055,0.056202322244644165,0.4639630913734436,-0.5027692317962646,0.9931862354278564,-0.14887095987796783,-0.22037649154663086,0.05909311771392822,-0.5528606176376343
37,-1.961439912499052,-0.02263282673880918,0.5692518907197507,-0.9244272708892822,0.02263089455664158,0.38068604469299316,-0.2455752044916153,0.17925894260406494,-0.25126832723617554,0.542011559009552,-0.037035197019577026,0.024389028549194336
38,-1.9596650404751281,-0.014517853546145104,0.5652978207909133,-0.9252410531044006,0.01451734360307455,0.37910187244415283,0.026876583695411682,0.8338199853897095,0.10071594268083572,0.25093990564346313,0.005288571119308472,-0.30953705310821533
39,-1.81658489013979,-0.026955813481168,0.614617780444521,-0.969593346118927,0.026952549815177917,0.243232861161232,0.7457916140556335,0.47425052523612976,-0.02914080210030079,-0.0765644907951355,0.08950254321098328,0.6312482357025146
40,-1.859057176230683,-0.02575109609162382,0.6327861944603324,-0.9584217667579651,0.025748251006007195,0.28419098258018494,0.5429699420928955,0.20158474147319794,-0.22164928913116455,-0.37107640504837036,0.14820194244384766,0.2161446511745453
41,-1.9789101753802583,-0.03799942884575939,0.6465714118594241,-0.9172083735466003,0.03799028322100639,0.39659225940704346,0.06429382413625717,-1.5064473152160645,-0.004659982398152351,-0.3485691547393799,-0.020518962293863297,-0.36450305581092834
42,-1.968334987615091,-0.04424259366126171,0.6996242686456567,-0.9211146235466003,0.04422816261649132,0.3867713510990143,0.9684407114982605,1.2286449670791626,-0.3842700123786926,-0.06780749559402466,0.020698029547929764,-0.29176971316337585
43,-1.9048699425307554,-0.05865186124640175,0.7780858407795292,-0.9430899620056152,0.05861824005842209,0.3273303210735321,0.3680988550186157,-0.5828934907913208,0.070329450070858,0.590703547000885,-0.006951957941055298,0.08914303779602051
44,-1.8960452161164278,-0.07062406038521178,0.7775091673875933,-0.9452090859413147,0.070565365254879,0.3187480568885803,-0.28785401582717896,1.1844724416732788,0.09982912987470627,0.018298625946044922,-0.06517898291349411,-0.06987723708152771
45,-1.8449714594962128,-0.06947356760031702,0.7736496782142305,-0.9603267908096313,0.06941769272089005,0.2700998783111572,-0.2552684545516968,-0.8620989322662354,0.18499822914600372,-0.0843510627746582,0.006494767963886261,0.30904749035835266
46,-1.895026748252643,-0.08001447981098594,0.7655870803041342,-0.9448633193969727,0.07992912828922272,0.317560076713562,0.10305118560791016,-1.0349026918411255,0.17337201535701752,-0.4183720350265503,0.09373112767934799,0.2255459725856781
47,-2.008404389029535,-0.07074861468687989,0.7328261529839565,-0.9035020470619202,0.0706896111369133,0.4227140545845032,-0.6702272295951843,0.020687665790319443,-0.0671721026301384,-0.23434597253799438,0.0419202521443367,-0.5647276043891907
48,-1.8853641156332153,-0.03835093490838415,0.7042826827404028,-0.9502310156822205,0.03834153339266777,0.30917802453041077,-0.36368805170059204,0.20192162692546844,-0.30934131145477295,0.2647908926010132,-0.023998256772756577,0.256862074136734
49,-1.9308416917874462,-0.0010128433242803147,0.6815109387527424,-0.9358803033828735,0.0010128431022167206,0.3523164987564087,-0.09931700676679611,-0.4378512501716614,-0.20505563914775848,0.4587532877922058,0.05172151327133179,-0.3074098825454712
50,-1.8445106626142591,0.011330441599989364,0.6890992892792399,-0.9627118706703186,-0.011330199427902699,0.2702920436859131,0.1916828602552414,1.516855001449585,-0.06274377554655075,-0.09415781497955322,0.12932643294334412,0.2832205593585968
51,-1.835949299535765,0.02290456899759674,0.7007649862193253,-0.9647994041442871,-0.02290256693959236,0.26198819279670715,0.12177419662475586,-0.014501960948109627,-0.3280140161514282,-0.38773977756500244,0.16024693846702576,0.2735648453235626
52,-1.9364622346965827,0.011604279956540401,0.7295239488032836,-0.9338231682777405,-0.011604019440710545,0.35754725337028503,0.37105563282966614,-2.0459890365600586,0.11818893253803253,-0.2830807566642761,-0.13199642300605774,-0.35524311661720276
53,-1.9432977013113866,-0.0004144523132180808,0.7722667906644104,-0.9314196109771729,0.000414452311815694,0.3639462888240814,0.9150087237358093,1.717748761177063,-0.18138499557971954,-0.10951954126358032,0.0036291182041168213,-0.22300094366073608
54,-1.8657308085283348,-0.0068254818112334446,0.8236585650004102,-0.9567988514900208,0.006825428921729326,0.29067036509513855,0.16682296991348267,-0.5675569176673889,0.07933971285820007,0.5439265966415405,0.09961986541748047,0.06952854990959167
55,-1.8735395954044642,-0.026667325753450054,0.820301988836023,-0.9541828036308289,0.026664165779948235,0.29803383350372314,-0.4097188413143158,0.894395649433136,0.21239277720451355,0.17300915718078613,-0.07236424088478088,-0.07894816994667053
56,-1.797822983418042,-0.024921988334881583,0.7813369097624017,-0.9740372896194458,0.024919409304857254,0.22501155734062195,-0.18658064305782318,-0.41992059350013733,0.15317517518997192,0.0038225650787353516,0.025114145129919052,0.4797002971172333
57,-1.8366181409588884,-0.0449569990581348,0.7648952144664196,-0.9639022350311279,0.04494185745716095,0.2624369263648987,-0.03454258292913437,-0.6574876308441162,0.17218998074531555,-0.42130613327026367,0.05463699623942375,0.5111380219459534
58,-1.9259573927068185,-0.060995465153041536,0.7490289976174876,-0.9358468055725098,0.0609576515853405,0.34709468483924866,-0.43476906418800354,-0.5925004482269287,0.050919316709041595,-0.15355432033538818,-0.1111590638756752,-0.30559077858924866
59,-1.884086806864586,-0.01883569830612531,0.7110084190660231,-0.9511557817459106,0.018834585323929787,0.30813589692115784,-0.43465447425842285,0.6868306994438171,-0.42105865478515625,0.0742638111114502,0.003565307706594467,0.010253965854644775
60,-1.878614933098317,0.02320374074099447,0.6960778218788704,-0.9527404308319092,-0.023201659321784973,0.30289900302886963,0.03413595259189606,-0.20106278359889984,-0.27744990587234497,0.5490995645523071,0.03929966688156128,-0.20776042342185974
61,-1.8310818363619132,0.036698373350883266,0.7177944740886831,-0.9656659364700317,-0.03669013828039169,0.2571831941604614,0.19018152356147766,1.5307707786560059,-0.05666332691907883,0.08724802732467651,0.1110309362411499,-0.027965664863586426
62,-1.7919148625206691,0.043273535151671226,0.7378596673767803,-0.9747393727302551,-0.04326003044843674,0.219115749001503,0.0834934413433075,-0.06061512231826782,-0.0028909482061862946,-0.2311626672744751,0.07023757696151733,0.1774296760559082
63,-1.826176718254017,0.03756293128351311,0.7670686444951395,-0.9668846130371094,-0.03755410015583038,0.25243523716926575,0.2508355379104614,-0.7061266899108887,0.12665683031082153,-0.2960088849067688,-0.14587178826332092,0.055685460567474365
64,-1.8636318639521199,0.020188130104371878,0.7940049435114686,-0.9572340846061707,-0.020186759531497955,0.2886093854904175,0.4140268862247467,1.0569251775741577,0.06403858959674835,-0.19880229234695435,-0.13449159264564514,-0.44353187084198
65,-1.792157177783937,0.005235709480822562,0.8469597754888724,-0.9755860567092896,-0.005235685501247644,0.21955443918704987,0.2395789623260498,-0.03157913312315941,0.04817238450050354,0.3747714161872864,0.030076980590820312,0.26150938868522644
66,-1.7866653486228437,-0.007914206739903805,0.8618590078329064,-0.9767600297927856,0.007914124056696892,0.21418964862823486,0.01604665070772171,0.2806987166404724,0.10940098017454147,0.46398842334747314,-0.06618744134902954,-0.11068928241729736
67,-1.763326254707284,-0.007259580590353973,0.8361683340537364,-0.9814974069595337,0.007259516976773739,0.19133764505386353,-0.3368571996688843,-0.03389781713485718,0.06341733038425446,-0.03748446702957153,0.012134402990341187,0.39252471923828125
68,-1.7944338751555535,-0.013662186186028229,0.8173972007803139,-0.9750061631202698,0.013661760836839676,0.22175733745098114,-0.16813676059246063,-0.6743687987327576,0.190817192196846,-0.3224791884422302,-0.0028280019760131836,0.4543137550354004
69,-1.8464101462851656,-0.03458325276524215,0.7997961830499992,-0.9616830945014954,0.03457636013627052,0.27197495102882385,-0.3319030702114105,-0.3997892439365387,0.2900812029838562,-0.1930564045906067,-0.041183408349752426,-0.3865989148616791
70,-1.8317606237317725,-0.025293034865926437,0.7679009417786457,-0.9658325910568237,0.025290338322520256,0.25792980194091797,-0.23446528613567352,0.3938482105731964,-0.15736234188079834,-0.0041686296463012695,0.007775455713272095,-0.05271434783935547
71,-1.7945812093392404,0.0014783503339066322,0.7417626952631886,-0.9750634431838989,-0.0014783497899770737,0.22192147374153137,-0.2956582009792328,0.4010733962059021,-0.2561723291873932,0.5464745759963989,0.001417309045791626,-0.08091497421264648
72,-1.7521867484287847,0.02482458894566376,0.7539276209620746,-0.9832906723022461,-0.024822039529681206,0.18034176528453827,0.25260722637176514,0.5592412948608398,-0.18046285212039948,0.21444618701934814,0.09363916516304016,-0.04508782923221588
73,-1.7346478809981327,0.03670341442904816,0.7737965440562342,-0.9859418272972107,-0.036695174872875214,0.16300950944423676,0.13216379284858704,-0.15411503612995148,-0.024074703454971313,-0.18072986602783203,0.08451619744300842,0.34387218952178955
74,-1.755886572892871,0.03616209330345434,0.7886295058914764,-0.9822770357131958,-0.036154210567474365,0.183914914727211,0.2349364161491394,-0.35841992497444153,0.13757270574569702,-0.3565291166305542,-0.005700647830963135,0.2289116382598877
75,-1.8071833632334864,0.008091736221360907,0.8025102735556291,-0.9721584916114807,-0.008091648109257221,0.23418398201465607,0.24233777821063995,0.5164963006973267,0.06235359609127045,-0.13694173097610474,-0.18415385484695435,-0.5450665950775146
76,-1.740198946542532,0.0015842028843950774,0.8495327761787488,-0.985684335231781,-0.0015842021675780416,0.16859331727027893,0.3713890612125397,-0.008827988058328629,0.006982156075537205,0.25524622201919556,0.08772006630897522,0.25465500354766846
77,-1.7469148191809531,-0.01209447998746597,0.8832292497974515,-0.9844592213630676,0.012094184756278992,0.17519663274288177,0.22815261781215668,0.15838319063186646,0.06825748831033707,0.46828484535217285,-0.11817330121994019,-0.09247875213623047
78,-1.7133741014716448,-0.01109846825320833,0.8839184625187505,-0.9897920489311218,0.011098240502178669,0.1420864462852478,-0.1663980633020401,0.2575552761554718,-0.026572545990347862,-0.022109806537628174,0.048655182123184204,0.3357119560241699
79,-1.7403786559809953,-0.01740454943247726,0.875540556587918,-0.9855061173439026,0.017403671517968178,0.16874513030052185,0.1619318723678589,-0.851677417755127,0.21739830076694489,-0.3379954695701599,0.02471059560775757,0.36337459087371826
80,-1.8100363682964096,-0.047294253457920786,0.8760849825103395,-0.9704321026802063,0.04727662354707718,0.2366994321346283,-0.1372520923614502,-0.773884117603302,0.289299339056015,-0.13415169715881348,-0.025120876729488373,-0.3353627622127533
81,-1.7958809716620416,-0.027627104291502863,0.8293713594010343,-0.9744032025337219,0.02762359008193016,0.22310368716716766,-0.47582077980041504,0.9517796039581299,-0.4048555791378021,-0.2005997896194458,0.004679260775446892,-0.10832704603672028
82,-1.7664648072970144,0.007114214637150424,0.7958316730205841,-0.980893075466156,-0.007114154752343893,0.19441738724708557,-0.3790748417377472,0.19313189387321472,-0.2984057664871216,0.5610170364379883,0.045215338468551636,-0.06499232351779938
83,-1.7472258950942727,0.035958221559002176,0.7969030222883945,-0.9838401675224304,-0.03595047444105148,0.1754022240638733,0.16813595592975616,0.6188387870788574,-0.2525367736816406,0.29096919298171997,0.09385758638381958,-0.2148461490869522
84,-1.712178631547437,0.04969174570859832,0.8119422561836046,-0.9888002872467041,-0.049671296030282974,0.140737846493721,0.18329669535160065,-0.44137173891067505,-0.06583086401224136,-0.23977649211883545,0.13180935382843018,0.44588637351989746
85,-1.7504242682259739,0.04179486370505616,0.8324611657696067,-0.9830511212348938,-0.041782695800065994,0.1785075068473816,0.1744791567325592,-0.4603980481624603,0.18955746293067932,-0.453121542930603,-0.11623731255531311,0.08656813204288483
86,-1.8001040397782255,0.016930486987151615,0.853307308494157,-0.9736844897270203,-0.01692967861890793,0.22727084159851074,0.5170818567276001,0.48981156945228577,0.0956636518239975,-0.10254842042922974,-0.22954553365707397,-0.47153353691101074
87,-1.7409853941968414,0.006347784461820622,0.9166858145941668,-0.9855327606201172,-0.006347741931676865,0.16936525702476501,0.5773630142211914,-0.02224017307162285,-0.010873029008507729,0.360792338848114,0.06886300444602966,0.2606426179409027
88,-1.7413341565770564,-0.0055577659894608545,0.95501067041726,-0.9854783415794373,0.005557737313210964,0.16970977187156677,0.32982364296913147,0.18675978481769562,0.048584599047899246,0.45804309844970703,-0.09053394198417664,-0.06768953800201416
89,-1.7118488330195973,-0.002284488709945708,0.9413276731605945,-0.9900659918785095,0.0022844867780804634,0.14058488607406616,-0.44340968132019043,0.16681504249572754,-0.07304921746253967,-0.1838994026184082,0.10312321782112122,0.3721410036087036
90,-1.7595127173899656,-0.011697465188955564,0.9221477071582473,-0.9821786880493164,0.011697198264300823,0.18758539855480194,-0.15312553942203522,-1.0116068124771118,0.2571524977684021,-0.5401449203491211,-0.0025724470615386963,0.49478769302368164
91,-1.8423984353492213,-0.04094912965177022,0.8944695536411624,-0.9625346660614014,0.04093768820166588,0.2680502235889435,-0.4026840925216675,-0.7182821035385132,0.27894076704978943,-0.13234436511993408,-0.08529499173164368,-0.3850241005420685
92,-1.824453019857133,-0.022938684965288468,0.8410280688134152,-0.9677466750144958,0.02293667383491993,0.25087931752204895,-0.5418775677680969,0.8019610047340393,-0.3698279857635498,0.11500924825668335,-0.04670986533164978,-0.06206703186035156
93,-1.7997933451027937,0.015598482163021815,0.8111289710844589,-0.97377610206604,-0.01559785008430481,0.22697323560714722,-0.1694994568824768,-0.09360631555318832,-0.271837443113327,0.6250059604644775,0.06486847996711731,-0.132979154586792
94,-1.7745753116643195,0.03235826257832416,0.8192452811094009,-0.9787959456443787,-0.032352615147829056,0.20226557552814484,0.13589134812355042,0.9385409951210022,-0.12999050319194794,-0.016504108905792236,0.11180514842271805,-0.059534952044487
95,-1.750016345353625,0.04617646789466693,0.8328373345970557,-0.9829340577125549,-0.04616006091237068,0.17807209491729736,0.13923422992229462,-0.25102728605270386,-0.05182461440563202,-0.296835720539093,0.052263591438531876,0.33616435527801514
96,-1.802485283273594,0.04443164979696923,0.8516870602980118,-0.9723194241523743,-0.04441703110933304,0.2293950617313385,0.3487338721752167,-0.9410433173179626,0.149745911359787,-0.28854477405548096,-0.15185678005218506,-0.09180665016174316
97,-1.8662780251558588,0.015879805414414007,0.8807894141306728,-0.9565414190292358,-0.015879137441515923,0.29116401076316833,0.4438106119632721,1.0967330932617188,-0.1163131594657898,-0.19511568546295166,-0.16254189610481262,-0.5075794458389282
98,-1.7736827973449392,0.00925087891031655,0.9491699834202497,-0.9794472455978394,-0.009250747039914131,0.20148882269859314,0.3920445740222931,-0.13300305604934692,0.07795582711696625,0.3378303050994873,0.07268154621124268,0.38757672905921936
99,-1.7870061243371125,-0.006968623148083012,0.9732917934642169,-0.9766939878463745,0.006968566682189703,0.214524045586586,0.1127568855881691,0.2932386100292206,0.1446646749973297,0.48940443992614746,-0.043894827365875244,-0.15087959170341492
100,-1.730546177889588,-0.003145676189353759,0.9470614575941005,-0.9872621893882751,0.003145670983940363,0.1590704470872879,-0.4689439535140991,0.339093953371048,-0.012211978435516357,-0.08817720413208008,0.04580453038215637,0.4091362953186035
101,-1.7619348496094303,-0.01319654074233893,0.9204870977365673,-0.981702983379364,0.013196157291531563,0.18996024131774902,-0.09689062088727951,-0.5165914297103882,0.25456130504608154,-0.37822121381759644,0.006960717961192131,0.4530603587627411
102,-1.8408164483238378,-0.030139024927777314,0.9018441916338792,-0.9633277654647827,0.03013446182012558,0.2666296660900116,-0.3322411775588989,-0.7941645383834839,0.02994605153799057,-0.1570640206336975,-0.08428791165351868,-0.38726571202278137
103,-1.817815493221546,-0.0028956097182511998,0.8499347679364244,-0.9696416258811951,0.0028956057503819466,0.24451370537281036,-0.5981641411781311,0.7633819580078125,-0.16039520502090454,-0.03724020719528198,0.09303641319274902,-0.05922612547874451
104,-1.798606720590855,0.023612925152711215,0.7955523163615451,-0.97389155626297,-0.023610731586813927,0.22578205168247223,-0.4801858365535736,-0.07833737879991531,-0.1499767154455185,0.587249219417572,0.06078115105628967,-0.09522785246372223
105,-1.778871170759499,0.05106860301108001,0.7761291731223133,-0.9771547913551331,-0.05104640871286392,0.2063073366880417,-0.22505883872509003,1.131895899772644,-0.22528035938739777,0.14512360095977783,0.08785060048103333,-0.25489139556884766
106,-1.7393200063274825,0.07335625391188223,0.7829631081329016,-0.9831821918487549,-0.07329048216342926,0.1672760546207428,0.11852795630693436,-0.160129114985466,-0.10131127387285233,-0.18051403760910034,0.055651307106018066,0.2672790288925171
107,-1.7738050580643534,0.07340612411923203,0.804719549680766,-0.9768268465995789,-0.07334021478891373,0.2010742574930191,0.02696051262319088,-0.5688435435295105,0.09099271148443222,-0.36104869842529297,-0.043206438422203064,0.15419618785381317
108,-1.8524894362709796,0.04022235122504144,0.8377957590248181,-0.9598093628883362,-0.0402115061879158,0.2777576148509979,0.4659368693828583,0.32166457176208496,0.13322602212429047,-0.053816795349121094,-0.2237350344657898,-0.4724292755126953
109,-1.758839611001057,0.03372599503602941,0.8797796055147507,-0.9818131327629089,-0.03371960297226906,0.18683069944381714,0.4653293490409851,0.11566945165395737,0.005539917387068272,0.30610835552215576,0.12141186743974686,0.29951271414756775
110,-1.7600182143507914,0.015565812489628584,0.8995415785262746,-0.9820318818092346,-0.015565183945000172,0.18807193636894226,0.17552641034126282,0.17590147256851196,0.17574839293956757,0.5065833330154419,-0.043760985136032104,-0.09592413902282715
111,-1.7229853084375182,0.012736915611466485,0.8781051268799427,-0.9883613586425781,-0.01273657102137804,0.15158987045288086,-0.4410507380962372,0.16798296570777893,-0.010495327413082123,-0.1427878737449646,0.05117344856262207,0.37514352798461914
112,-1.7560331054669864,0.0024539983406698836,0.8599136253006125,-0.9828896522521973,-0.002453995868563652,0.1841786950826645,-0.10770858824253082,-0.7322081327438354,0.20943015813827515,-0.45441192388534546,-0.07158166170120239,0.4462839365005493
113,-1.8191312957285013,-0.017221277120448394,0.8480116970540856,-0.9691793918609619,0.017220426350831985,0.2457539290189743,-0.17914554476737976,-0.5545172691345215,0.07801130414009094,-0.13323771953582764,-0.03710263967514038,-0.32314643263816833
114,-1.826678698319399,0.0001687106127131572,0.8149838328251852,-0.9674403071403503,-0.0001687106123426929,0.25309914350509644,-0.5946361422538757,0.8099936842918396,-0.3850427269935608,-0.07850384712219238,-0.11508092284202576,-0.24376073479652405
115,-1.777431522376818,0.04806110141299917,0.7833523366396151,-0.9775967597961426,-0.048042602837085724,0.20493094623088837,-0.2623228132724762,0.18124374747276306,-0.29942503571510315,0.536831259727478,0.10169252008199692,0.0383552610874176
116,-1.757038654831177,0.07212969316974319,0.7796995778473378,-0.9801518321037292,-0.07206716388463974,0.1846860647201538,-0.013924650847911835,0.6714276671409607,-0.1640467792749405,0.1346927285194397,0.07766713947057724,-0.12767921388149261
117,-1.7200722135328128,0.0813476671264995,0.7885958166624704,-0.9856089353561401,-0.08125797659158707,0.14823029935359955,0.03256920352578163,-0.3418544828891754,0.021288059651851654,-0.30066120624542236,0.09016913175582886,0.5166409015655518
118,-1.7555652940293027,0.07246093319327662,0.7973059152790601,-0.9803993105888367,-0.07239753752946854,0.18323734402656555,-0.029860712587833405,-0.5334368348121643,0.2799707353115082,-0.3296746015548706,-0.08731619268655777,0.14343811571598053
119,-1.8599641793732962,0.026610549495776816,0.8088653463130931,-0.958142101764679,-0.026607409119606018,0.2850537598133087,0.4053768217563629,-0.03673098236322403,0.21331731975078583,-0.12333977222442627,-0.2387581765651703,-0.5737196207046509
120,-1.752953501171379,0.027186632399210583,0.8620760842682292,-0.9830918312072754,-0.027183283120393753,0.181084543466568,0.7261621356010437,0.9571734666824341,-0.1889091432094574,0.3491044044494629,0.14405032992362976,0.1630469411611557
121,-1.7520717435917694,0.008891327805256097,0.907405720698774,-0.9835756421089172,-0.0088912108913064,0.18027710914611816,0.27402710914611816,0.013184722512960434,0.20256096124649048,0.507684588432312,-0.04073038697242737,-0.06331850588321686
122,-1.7128984332572341,0.0022198422008063616,0.8925197896732495,-0.989918053150177,-0.002219840418547392,0.14162400364875793,-0.18392512202262878,0.26917994022369385,-0.031710781157016754,-0.0911213755607605,0.020560890436172485,0.35793352127075195
123,-1.73390535497319,-0.0063316332402968195,0.8869093959722545,-0.9867074489593506,0.006331590935587883,0.16238349676132202,-0.007302143611013889,-0.5000863671302795,0.1985272467136383,-0.3942282199859619,-0.013320088386535645,0.4992070198059082
124,-1.8257987426114624,-0.031702695772257455,0.883385801162461,-0.9671764969825745,0.031697385013103485,0.2521210014820099,-0.018508482724428177,-1.3270288705825806,0.21250800788402557,-0.1635608673095703,-0.05606567859649658,-0.379119873046875
125,-1.8337943102869363,-0.010527698761170427,0.8419861214286916,-0.9655614495277405,0.010527504608035088,0.2599622309207916,-0.7884746193885803,1.3599798679351807,-0.46464571356773376,-0.08225959539413452,-0.007307887077331543,-0.1898787021636963
126,-1.7889963795764205,0.031292343132658336,0.7983168159894571,-0.975810706615448,-0.031287238001823425,0.2163667380809784,-0.36975759267807007,-0.23027130961418152,-0.20316115021705627,0.5446126461029053,0.09026244282722473,-0.01646137237548828
127,-1.7959562607617412,0.0546427395663921,0.791398412911652,-0.9733036160469055,-0.05461554974317551,0.22292904555797577,0.030716441571712494,0.8556643724441528,-0.30358508229255676,0.23163485527038574,0.048313677310943604,-0.3286876678466797
128,-1.709225550893407,0.0712436889810365,0.7967190128072862,-0.987921416759491,-0.07118343561887741,0.13763748109340668,0.0903109610080719,-0.4658689796924591,0.013636499643325806,-0.26632046699523926,0.12025568634271622,0.5859495401382446
129,-1.7540522775763876,0.05873622889744544,0.8142692892540732,-0.9815598130226135,-0.058702461421489716,0.1819176822900772,0.22577190399169922,-0.5624079704284668,0.25599175691604614,-0.36212897300720215,-0.0856456607580185,0.1266150176525116
130,-1.8401740106238793,0.0172557252593006,0.8372453683018151,-0.9637932181358337,-0.017254868522286415,0.2660920023918152,0.4136606752872467,0.29042181372642517,0.1493033766746521,-0.16723406314849854,-0.25641149282455444,-0.523996114730835
131,-1.7551829984938552,0.011640618419440613,0.881395399927723,-0.9829822182655334,-0.011640355922281742,0.1833312064409256,0.36582452058792114,0.19714891910552979,0.030027344822883606,0.252635657787323,0.10525304079055786,0.25603044033050537
132,-1.768086170401384,-0.006263158477421692,0.9013380740254993,-0.9805821776390076,0.006263117305934429,0.1960086226463318,0.22185662388801575,-0.03072601929306984,0.16180647909641266,0.5514134764671326,-0.05904325842857361,-0.09894752502441406
133,-1.7250353164790204,-0.005612951212756498,0.8774562305224994,-0.9881131649017334,0.00561292190104723,0.1536257416009903,-0.5789278745651245,0.5063253045082092,-0.09698354452848434,-0.0504457950592041,0.05266037583351135,0.2816159725189209
134,-1.7445021782355148,-0.009015043775228177,0.8602511653930411,-0.9849110245704651,0.009014921262860298,0.1728265881538391,0.006471413187682629,-0.706636905670166,0.26215726137161255,-0.2467326521873474,0.026049792766571045,0.31653809547424316
135,-1.8167346950399659,-0.04002979793860761,0.8590677662179128,-0.9691323041915894,0.04001910984516144,0.24327152967453003,0.06341458857059479,-1.0009878873825073,0.22582343220710754,-0.24003511667251587,-0.028468221426010132,-0.3648688793182373
136,-1.813464344245413,-0.01594079375783407,0.8187891507474877,-0.9705769419670105,0.015940118581056595,0.24026279151439667,-0.5386149883270264,0.8300882577896118,-0.5536006093025208,-0.16742348670959473,0.0030570626258850098,-0.18641459941864014
137,-1.7853313378003646,0.02806275888765596,0.7962428003020595,-0.9766906499862671,-0.02805907651782036,0.21280927956104279,-0.104342021048069,0.05005485564470291,-0.32768771052360535,0.5784059166908264,0.07079896330833435,-0.054560333490371704
138,-1.7672684964509524,0.04843088655779698,0.815374777814624,-0.9796115159988403,-0.04841195419430733,0.19498173892498016,0.12934288382530212,0.7624441981315613,-0.2204609215259552,0.20139795541763306,0.07357370108366013,-0.1977892816066742
139,-1.7434707755238654,0.06689579330939535,0.8331396337671753,-0.9829253554344177,-0.06684590876102448,0.17143332958221436,0.18148471415042877,-0.22875618934631348,-0.0930822566151619,-0.13366705179214478,0.11340045928955078,0.40344154834747314
140,-1.7754067829155802,0.06275378593463518,0.8586719131318579,-0.9772127270698547,-0.06271260976791382,0.20278577506542206,0.274143785238266,-0.47768741846084595,0.14452990889549255,-0.45012474060058594,-0.11879067122936249,0.14818152785301208
141,-1.8583864388836255,0.017361169110727357,0.8926853183872607,-0.9587857723236084,-0.017360296100378036,0.2835994064807892,0.6229613423347473,0.17396299540996552,0.22727595269680023,-0.2413027286529541,-0.23445549607276917,-0.5495295524597168
142,-1.7834359529653445,0.012791329401376738,0.951736937126509,-0.9773972630500793,-0.012790980748832226,0.21102353930473328,0.48761752247810364,0.07253595441579819,0.04050380736589432,0.4294542074203491,0.1289408802986145,0.24129270017147064
143,-1.7891558063260005,-0.01296953628605552,0.9812001320509671,-0.9761722087860107,0.012969172559678555,0.2166101634502411,0.19758914411067963,0.08530574291944504,0.20905928313732147,0.5009371042251587,-0.07943645119667053,-0.08990117907524109
144,-1.740258036889354,-0.005593375868343234,0.946460125442319,-0.9856603741645813,0.005593346897512674,0.16864916682243347,-0.5997844338417053,0.40568453073501587,-0.09975235164165497,-0.023250818252563477,0.11046499013900757,0.29912424087524414
145,-1.761276758669908,-0.01951126992431383,0.9116931372191757,-0.9817264080047607,0.01951003260910511,0.18929460644721985,-0.13149887323379517,-0.7190240025520325,0.4694161117076874,-0.2618342638015747,0.06001877784729004,0.31441327929496765
146,-1.8537691913040688,-0.05555534545343757,0.8808009265703796,-0.9587482810020447,0.055526770651340485,0.2787807881832123,-0.29320353269577026,-1.4880479574203491,0.43334999680519104,-0.19042176008224487,-0.008010916411876678,-0.3558681905269623
147,-1.8571224899749372,-0.046970172813805194,0.8219830563630757,-0.9582300186157227,0.046952903270721436,0.28211838006973267,-0.6703191995620728,1.6514047384262085,-0.6519584059715271,-0.24185854196548462,-0.12504738569259644,-0.20788443088531494
148,-1.797856611968062,0.004521767202840104,0.793350706425429,-0.9743223786354065,-0.004521751776337624,0.2251119315624237,-0.07817758619785309,-0.14224497973918915,-0.3533110022544861,0.5643798112869263,0.01569119095802307,-0.033354759216308594
149,-1.7858911010447145,0.030720863004010553,0.8199951300883763,-0.9764950275421143,-0.030716031789779663,0.21333926916122437,0.1860598772764206,1.0227476358413696,-0.327923983335495,0.2625975012779236,0.03686533123254776,-0.24962477385997772
150,-1.7120097761611135,0.05465781916683014,0.8576469660744673,-0.988567590713501,-0.05463060736656189,0.1405344307422638,0.18496990203857422,-0.09069759398698807,-0.1290445774793625,-0.20764529705047607,0.06274827569723129,0.4893941879272461
151,-1.7403243362369176,0.06259990629361109,0.8809942535982416,-0.9837338924407959,-0.06255903095006943,0.16838666796684265,0.3587139844894409,-0.584338903427124,0.1476559340953827,-0.4019167423248291,-0.14721879363059998,0.09772658348083496
152,-1.8242459880662838,0.028344610385679876,0.9219819719623056,-0.9676643013954163,-0.028340814635157585,0.25064417719841003,0.44546473026275635,0.5648202896118164,-0.10325435549020767,-0.37730634212493896,-0.21256494522094727,-0.5409884452819824
153,-1.7192181339016939,0.04351644724749465,0.9770767411092358,-0.9880692362785339,-0.04350271448493004,0.14773745834827423,0.4599269926548004,-0.013511352241039276,0.11649806052446365,0.42784297466278076,0.13140860199928284,0.3659190833568573
154,-1.7413582102403549,0.022553734480484398,0.998578942284351,-0.9852389693260193,-0.022551821544766426,0.16969294846057892,0.06661073863506317,-0.027701465412974358,0.15396229922771454,0.4991244077682495,-0.09899967908859253,-0.1275329440832138
155,-1.6952600272982121,0.02805872412728501,0.9552647095359121,-0.9918738007545471,-0.028055042028427124,0.12409373372793198,-0.32483264803886414,-0.015303503721952438,0.034749407321214676,-0.035561442375183105,0.11420616507530212,0.43498826026916504
156,-1.745636845604792,0.009104326795041045,0.9301431714511795,-0.9847134947776794,-0.009104200638830662,0.173943892121315,-0.1688469797372818,-0.6999337673187256,0.28385496139526367,-0.5545015931129456,-0.00653606653213501,0.4632936716079712
157,-1.8269444495136375,-0.011557824354892375,0.896141950909178,-0.9673084616661072,0.011557566933333874,0.25333932042121887,-0.4614948034286499,-0.4893747568130493,0.10806906223297119,-0.2636790871620178,-0.14430904388427734,-0.417630672454834
158,-1.783608096541754,0.03245430431898868,0.8294892199614675,-0.9769260287284851,-0.03244860842823982,0.2110978066921234,-0.5549226403236389,0.4420386552810669,-0.2893429100513458,0.16515862941741943,0.033974505960941315,0.07060988247394562
159,-1.7694459175481043,0.06683172193403683,0.7950223080706456,-0.9781454801559448,-0.06678198277950287,0.19690510630607605,0.0025049224495887756,-0.12342289090156555,-0.2513004541397095,0.5562704801559448,0.030984878540039062,-0.18451499938964844
160,-1.723492035060815,0.08846963454114966,0.8064602397716293,-0.9844993352890015,-0.08835427463054657,0.1515081822872162,0.05531347170472145,1.255705714225769,-0.16611731052398682,0.14879071712493896,0.16309180855751038,0.041561245918273926
161,-1.7120856616728235,0.09244126389159656,0.829837293844088,-0.9858080148696899,-0.09230966120958328,0.14021845161914825,0.2644301950931549,-0.3247884511947632,-0.07927283644676208,-0.4708569049835205,0.10093087702989578,0.22731994092464447
162,-1.7740920731340766,0.07379423002404678,0.8543377208458567,-0.9767409563064575,-0.07372727245092392,0.20134882628917694,0.5120685696601868,-1.5975209474563599,0.5226573944091797,-0.3325088620185852,-0.11346754431724548,-0.23540639877319336
163,-1.8015523884568934,0.03746031258747207,0.8868705651216617,-0.9728109836578369,-0.037451550364494324,0.22855320572853088,0.6068267822265625,1.3110491037368774,-0.07525341212749481,-0.15908610820770264,-0.05887717381119728,-0.3424142301082611
164,-1.7426764416106457,0.02368568637559396,0.9415469321281474,-0.9849886298179626,-0.023683471605181694,0.1709870994091034,0.20279450714588165,-0.1626242846250534,0.16456672549247742,0.5144990682601929,0.09861937165260315,0.1680631786584854
165,-1.7464242517332933,0.005616672889489292,0.94746314159907,-0.9846015572547913,-0.005616643466055393,0.17472368478775024,-0.44040390849113464,0.5448079109191895,0.047994598746299744,0.3737921714782715,-0.1252121925354004,-0.07859325408935547
166,-1.6994603433328865,0.02274226010181054,0.8869665578013508,-0.9914778470993042,-0.022740298882126808,0.12827615439891815,-0.29075419902801514,-0.1628066599369049,0.05041729286313057,-0.20508599281311035,0.09392255544662476,0.46876978874206543
167,-1.7638478372554722,0.005674432291996156,0.874934168166297,-0.9814075231552124,-0.005674401763826609,0.19185151159763336,-0.07529924064874649,-0.7239773273468018,0.4192720651626587,-0.4443889260292053,0.07118037343025208,0.27221405506134033
168,-1.8562938441876442,-0.021975695214651737,0.838195699487439,-0.9592898488044739,0.021973926573991776,0.2815668284893036,-0.7923744320869446,-0.2381531000137329,0.16184328496456146,-0.2853847146034241,-0.07185491919517517,-0.44619396328926086
169,-1.7877244446395628,0.03262458146929105,0.774805684544699,-0.9760435223579407,-0.032618794590234756,0.2151162177324295,-0.45571574568748474,0.2140185534954071,-0.3370908200740814,0.28089892864227295,0.025447160005569458,0.17618024349212646
170,-1.7843128364231742,0.058763365976209396,0.7633950993007358,-0.9756051301956177,-0.05872955173254013,0.21153216063976288,0.1937561333179474,-0.07560408860445023,-0.09341542422771454,0.5806007385253906,0.06321563571691513,-0.2212671935558319
171,-1.7150029379697573,0.06835686233191553,0.7784688200149817,-0.987308919429779,-0.06830363720655441,0.14337168633937836,0.11258397251367569,0.7581397891044617,-0.1832379251718521,-0.007014632225036621,0.0926414281129837,0.22029098868370056
172,-1.7162208844827609,0.08264691388633255,0.8006603858114639,-0.9860672950744629,-0.08255285769701004,0.1444178968667984,0.11158835887908936,-0.3469778299331665,-0.1242852583527565,-0.38699495792388916,0.14567846059799194,0.3403080701828003
173,-1.793925142934068,0.0631229497792274,0.8316833670559258,-0.973267674446106,-0.0630810409784317,0.22084125876426697,0.7270832657814026,-1.5396052598953247,0.49152669310569763,-0.08270156383514404,-0.129988431930542,-0.3575141429901123
174,-1.8166870606486576,0.02148937126346772,0.860569971925009,-0.9696970582008362,-0.02148771658539772,0.24336418509483337,0.516706645488739,1.2992534637451172,-0.4946017265319824,-0.38061434030532837,-0.08823823928833008,-0.4766405522823334
175,-1.7489682535833957,0.03637738404625198,0.9155458759237176,-0.9835182428359985,-0.036369360983371735,0.17711348831653595,0.18825426697731018,-0.25736063718795776,0.06876295059919357,0.44920122623443604,0.04418185353279114,0.21029186248779297
176,-1.7417417819999308,0.025932067857161494,0.9203114536040878,-0.9850931763648987,-0.0259291622787714,0.17005692422389984,-0.40418878197669983,0.535458505153656,0.01879660040140152,0.23872464895248413,-0.06893470883369446,-0.07439957559108734
177,-1.7180377349646436,0.028392327011126796,0.8750466328684956,-0.9887809753417969,-0.02838851325213909,0.14665083587169647,-0.3004593551158905,-0.1769084483385086,0.20519927144050598,-0.10681545734405518,0.09958600997924805,0.32191598415374756
178,-1.7579302704838806,0.008544987311434604,0.8576863744690971,-0.9825055003166199,-0.00854488369077444,0.1860368400812149,0.0715789943933487,-0.414833128452301,0.3676230311393738,-0.6281358599662781,0.013748140074312687,0.2151625007390976
179,-1.8244452131872861,-0.010396011439990206,0.845877472711794,-0.9679508805274963,0.01039582397788763,0.25092417001724243,-0.4726561903953552,-0.3509646952152252,-0.043636761605739594,-0.11028087139129639,-0.0668991208076477,-0.4089137613773346
180,-1.7789378637667124,0.029377630490724196,0.7871930550572818,-0.9779943823814392,-0.029373405501246452,0.20655272901058197,-0.6044825911521912,0.4301217794418335,-0.2304823398590088,0.26302868127822876,0.0433199442923069,0.13361141085624695
181,-1.7757243935626406,0.059330193771862196,0.7432941612882575,-0.977353036403656,-0.05929539352655411,0.20313870906829834,-0.11916384100914001,-0.15245355665683746,-0.20252850651741028,0.5382965207099915,0.061111174523830414,-0.20332178473472595
182,-1.7221229956493334,0.08589395246446835,0.7307528727036121,-0.9849273562431335,-0.08578837662935257,0.150193989276886,-0.186247318983078,0.8298743963241577,-0.3319723904132843,-0.1577422022819519,0.18165934085845947,0.2425367683172226
183,-1.727250564407739,0.10291856576764961,0.7393542527209079,-0.9825592041015625,-0.10273697227239609,0.1549922525882721,0.19881325960159302,-0.38655784726142883,-0.09203732013702393,-0.3961639404296875,0.0894465446472168,0.2583225965499878
184,-1.7909991923520863,0.08152421084067743,0.7549918909436037,-0.972612202167511,-0.08143393695354462,0.21770216524600983,0.2390143871307373,-1.1719917058944702,0.3804982602596283,-0.17127829790115356,-0.09517128020524979,-0.37311288714408875
185,-1.7896325941414457,0.049157365944895434,0.7999605889318896,-0.9749715328216553,-0.04913756996393204,0.2168315351009369,0.6582278609275818,0.7489160895347595,-0.13971392810344696,0.011806309223175049,-0.05103638395667076,-0.13443399965763092
186,-1.7763421392009564,0.03933098868951888,0.8529215694967619,-0.9781925678253174,-0.039320848882198334,0.2039436548948288,0.3251369297504425,-0.08825626969337463,0.13617214560508728,0.6257451176643372,0.09411513805389404,-0.009607687592506409
187,-1.7635353023223688,0.028486174017472773,0.85436393244734,-0.9810850024223328,-0.02848232164978981,0.19147014617919922,-0.4724772870540619,0.6510196924209595,0.03004153072834015,0.15628653764724731,-0.08450901508331299,-0.020937934517860413
188,-1.7381605763377561,0.029127748060556936,0.8165089014709456,-0.9856091141700745,-0.02912363037467003,0.1665133684873581,-0.3110262155532837,-0.28263574838638306,0.14328911900520325,-0.12173652648925781,0.01697763428092003,0.279089093208313
189,-1.7909134407600125,0.007690112100599435,0.8044363954975099,-0.975843071937561,-0.007690036203712225,0.21833746135234833,-0.02045842818915844,-0.43289485573768616,0.4155530035495758,-0.517809271812439,0.07061728835105896,0.2312779426574707
190,-1.8653187795886046,-0.017401117259532344,0.7678559424705726,-0.9567960500717163,0.017400238662958145,0.29023897647857666,-0.6077170372009277,-0.30349788069725037,0.1383098065853119,-0.2304750680923462,-0.17584750056266785,-0.41003572940826416
191,-1.8202402932613972,0.027108084016858405,0.7196144728891354,-0.968693733215332,-0.027104763314127922,0.24677444994449615,-0.3690813183784485,0.24211423099040985,-0.3216680586338043,0.3338213562965393,0.05180874466896057,0.11058638989925385
192,-1.8133288077395469,0.06016677949595906,0.7057942254955286,-0.9689763784408569,-0.06013048440217972,0.2397271990776062,-0.036610208451747894,0.042831409722566605,-0.269793301820755,0.5266851186752319,0.02112901210784912,-0.21610665321350098
193,-1.7481554907609402,0.08346199513414028,0.7132453420642746,-0.980886697769165,-0.08336512744426727,0.1758166402578354,-0.018509598448872566,0.8054465651512146,-0.16168363392353058,-0.14293831586837769,0.18430200219154358,0.2810925245285034
194,-1.7598646787689731,0.09221393102204346,0.7274671327948792,-0.9780067801475525,-0.09208329766988754,0.1871454119682312,0.200856551527977,-0.2681960463523865,-0.06601099669933319,-0.304021418094635,0.06632646918296814,0.20209097862243652
195,-1.822091584165143,0.07291261464707785,0.7626419384916455,-0.9660177230834961,-0.07284802943468094,0.24799808859825134,0.5719427466392517,-1.2064728736877441,0.19671645760536194,-0.23288065195083618,-0.25344592332839966,-0.34795841574668884
196,-1.80778624082461,0.05331132765559759,0.8227657924280798,-0.9706681370735168,-0.053286079317331314,0.23444421589374542,0.8351612091064453,1.35524320602417,-0.24916371703147888,-0.17784571647644043,-0.03426886349916458,-0.2633138597011566
197,-1.7749222421258943,0.05170579876142346,0.8948996565392007,-0.9779298305511475,-0.051682762801647186,0.20244039595127106,0.46215203404426575,0.0426042303442955,-0.014228582382202148,0.51761794090271,0.10102969408035278,0.07736003398895264
198,-1.7604021084040649,0.04120375640997352,0.9137628860196785,-0.9812451601028442,-0.04119209945201874,0.18831180036067963,-0.30610886216163635,0.39640337228775024,0.0710224062204361,0.22999393939971924,-0.03613942861557007,-0.01843571662902832
199,-1.7427734866141071,0.034738104033919505,0.8735836705200809,-0.9846539497375488,-0.03473111614584923,0.17102743685245514,-0.31362584233283997,-0.23192338645458221,0.2068016529083252,-0.15055418014526367,0.016496866941452026,0.36391520500183105
200,-1.8029958471639482,0.007444273538502764,0.8555071978150306,-0.9731356501579285,-0.0074442047625780106,0.2301121950149536,0.06731953471899033,-0.5228698253631592,0.4553329348564148,-0.5532010197639465,-0.01875513792037964,0.1925715208053589
201,-1.8721435968603497,-0.01261618249511191,0.8006320802147568,-0.9548615217208862,0.012615847401320934,0.2967834174633026,-0.6628021001815796,-0.002389610279351473,0.12529495358467102,-0.16180717945098877,-0.0968748927116394,-0.5281982421875
202,-1.815390472994764,0.01744682312702723,0.7624578155265013,-0.970088005065918,-0.017445938661694527,0.2421257048845291,-0.35538262128829956,0.2780289947986603,-0.22556155920028687,0.26110368967056274,-0.040461182594299316,0.12806783616542816
203,-1.801472521961764,0.046612806732548945,0.7579833822940822,-0.9724546074867249,-0.04659592732787132,0.2283875197172165,0.18982470035552979,0.20660628378391266,-0.312109112739563,0.47379744052886963,-0.005940079689025879,-0.1734558343887329
204,-1.7330565950754797,0.06413946847502108,0.7918202515001066,-0.9848353862762451,-0.06409549713134766,0.16121700406074524,0.45844537019729614,0.623870313167572,-0.12858492136001587,0.022692501544952393,0.15453433990478516,0.23198674619197845
205,-1.7387300020779042,0.06474141930816764,0.8402012521117592,-0.9838668704032898,-0.06469620019197464,0.16679531335830688,0.4478221535682678,-0.45729967951774597,-0.053007978945970535,-0.41884320974349976,0.16154372692108154,0.3877701759338379
206,-1.8384804710443463,0.03367737587034568,0.8978663240720081,-0.9638394117355347,-0.03367101028561592,0.2643488347530365,0.682338297367096,-1.3461729288101196,0.4143235981464386,-0.16764581203460693,-0.21220910549163818,-0.4190881848335266
207,-1.7839040442215859,0.02733921151433277,0.9522414967847791,-0.9770131707191467,-0.02733580581843853,0.21141929924488068,0.876459538936615,1.2603336572647095,-0.4133792519569397,-0.12117719650268555,0.10935178399085999,-0.002038240432739258
208,-1.800136812698789,0.020624354643099165,0.9746305361198339,-0.973609447479248,-0.020622892305254936,0.22728697955608368,0.03775227069854736,-0.2335328608751297,0.09477381408214569,0.627540111541748,0.05355137586593628,-0.1278606653213501
209,-1.784859789193443,0.023424194223063008,0.9585158627878093,-0.9769077301025391,-0.023422053083777428,0.21237409114837646,-0.5741943120956421,0.5862545371055603,-0.16239941120147705,0.13857460021972656,-0.06713885068893433,-0.026049017906188965
210,-1.7399540079235254,0.037960644645952654,0.9173013614784709,-0.9850168228149414,-0.037951529026031494,0.1682308316230774,-0.29203903675079346,-0.18359248340129852,0.06884317845106125,-0.2782888412475586,0.025408808141946793,0.3608067035675049
211,-1.7954205949870063,0.016451360079255108,0.8935562080291939,-0.9747459888458252,-0.01645061746239662,0.22270995378494263,-0.22210267186164856,-0.5522587299346924,0.28312551975250244,-0.4088904857635498,0.0023972690105438232,0.04216742515563965
212,-1.84632312121615,0.008959031617961466,0.8320583047525331,-0.9622433185577393,-0.008958911523222923,0.2720429599285126,-0.8698174953460693,0.5164029598236084,-0.1374000757932663,-0.27271145582199097,-0.11681929230690002,-0.48472002148628235
213,-1.7857746149433584,0.05279628983106199,0.7670527788219051,-0.9756197333335876,-0.05277176573872566,0.21302898228168488,-0.5471628308296204,0.23558583855628967,-0.20130367577075958,0.27081626653671265,-0.00545579195022583,0.0983266830444336
214,-1.7603708148517594,0.08048243078561419,0.7408930175363304,-0.9789054989814758,-0.08039557188749313,0.18783104419708252,-0.003921653144061565,0.23659394681453705,-0.18595533072948456,0.5005425214767456,0.03126228600740433,-0.1642714887857437
215,-1.7003548055383366,0.09353831620660027,0.7515399108997921,-0.9872840642929077,-0.09340197592973709,0.12863153219223022,0.16956478357315063,0.40390247106552124,-0.0827331691980362,-0.16750097274780273,0.11947927623987198,0.395843505859375
216,-1.7134083348533655,0.09387655430526387,0.7751257624710927,-0.985489547252655,-0.09373872727155685,0.1415032595396042,0.32672351598739624,-0.48017147183418274,-0.008454687893390656,-0.3987113833427429,0.09955234080553055,0.38729000091552734
217,-1.7788281345302932,0.06493964911172105,0.8126298530798209,-0.9763768911361694,-0.06489401310682297,0.20609919726848602,0.49942314624786377,-1.009194016456604,0.607333242893219,-0.09683471918106079,-0.13856667280197144,-0.39990103244781494
218,-1.7442230123427847,0.03347919964034533,0.8733120472086806,-0.984447181224823,-0.0334729440510273,0.17246192693710327,0.928305983543396,1.4943679571151733,-0.5514601469039917,-0.08934420347213745,-0.020070131868124008,-0.18489791452884674
219,-1.7021178225664073,0.030257631425595323,0.9421601756122647,-0.9909359216690063,-0.030253015458583832,0.13088443875312805,0.4050061106681824,0.1443222165107727,0.10116792470216751,0.6040036082267761,0.05173739790916443,0.08568356931209564
220,-1.6816749420333637,0.010789172888904937,0.9524320446477667,-0.9938012361526489,-0.010788963176310062,0.1106451079249382,-0.5250443816184998,0.25110241770744324,0.09110721200704575,-0.001269996166229248,-0.0882405936717987,0.07188043743371964
221,-1.6781085474959552,0.012780749150923993,0.9100729934042158,-0.994166374206543,-0.012780400924384594,0.10709762573242188,-0.23394875228405,-0.41633689403533936,0.05149737745523453,-0.28232288360595703,-0.03015783429145813,0.2803535461425781
222,-1.7390613176346157,-0.007518769039239999,0.9054358198320049,-0.9858487844467163,0.0075186979956924915,0.16746734082698822,-0.12370678782463074,-0.7115115523338318,0.2640444338321686,-0.45487064123153687,-0.02326578088104725,0.021970480680465698
223,-1.792791102622352,-0.010905779196308113,0.8687397193629703,-0.9754021763801575,0.010905562900006771,0.2201627939939499,-0.7035520672798157,0.17848411202430725,-0.15223705768585205,-0.19230717420578003,-0.07154399156570435,-0.40947866439819336
224,-1.7514259728846735,0.0342104312411398,0.8152015852964927,-0.9831553101539612,-0.03420376032590866,0.17954392731189728,-0.5237217545509338,0.23038934171199799,-0.3437511622905731,0.36386191844940186,-0.014136083424091339,0.08655409514904022
225,-1.7359439880070506,0.0644968651567528,0.7966381445751567,-0.9843431115150452,-0.0644521564245224,0.16405615210533142,0.03080371581017971,0.19260220229625702,-0.1961159110069275,0.48182547092437744,0.036040306091308594,-0.2035917043685913
226,-1.672075831682809,0.08560838705558381,0.8094102708243494,-0.9912322759628296,-0.08550386130809784,0.10073618590831757,0.25597599148750305,0.31726691126823425,-0.18316073715686798,-0.1783081293106079,0.15689972043037415,0.3357110023498535
227,-1.6992642525449861,0.0904509584979383,0.8345556893108543,-0.9877050518989563,-0.0903276726603508,0.1275911182165146,0.1738232672214508,-0.5544668436050415,0.00850302167236805,-0.4319115877151489,0.1514543890953064,0.4423551559448242
228,-1.807706335884808,0.04530204885995098,0.8711366144292103,-0.9710704684257507,-0.04528655484318733,0.2344592660665512,0.489322304725647,-1.3402249813079834,0.7150123715400696,-0.150831937789917,-0.20044097304344177,-0.4020160436630249
229,-1.7729617231544705,0.03221941603999004,0.9294174658652617,-0.9791257381439209,-0.03221384063363075,0.20068690180778503,0.9116305708885193,1.7441000938415527,-0.5203898549079895,-0.0005953311920166016,0.06509652733802795,-0.16838407516479492
230,-1.7456375261627948,0.014098964543214113,0.9866821203845347,-0.9846564531326294,-0.014098497107625008,0.17393450438976288,0.4138694703578949,-0.20365357398986816,0.2164585292339325,0.5407781600952148,0.06878599524497986,-0.003173336386680603
231,-1.7268420746126443,-0.00858839240792708,0.9908426887614445,-0.9878131151199341,0.00858828704804182,0.15540750324726105,-0.7453780770301819,0.8224015831947327,0.008346661925315857,0.14722174406051636,-0.1370520293712616,-0.04467439651489258
232,-1.701455359047012,0.004546162309482279,0.9350341180890606,-0.9914661645889282,-0.0045461468398571014,0.13028626143932343,-0.33562469482421875,-0.5163391828536987,0.1342804729938507,-0.1977429986000061,0.050093621015548706,0.35135746002197266
233,-1.7752552987956463,-0.020822968645155034,0.9051693415944344,-0.978958785533905,0.020821463316679,0.20299343764781952,-0.5143479108810425,-0.7967506647109985,0.39687323570251465,-0.44767695665359497,0.002295583486557007,-0.05293846130371094
234,-1.8156924363791613,-0.02287437062884826,0.8381138856077713,-0.9699086546897888,0.022872375324368477,0.24239209294319153,-0.7113200426101685,0.749371349811554,-0.33259227871894836,-0.4593515396118164,-0.13673344254493713,-0.40502023696899414
235,-1.7869683836601964,0.02077644999885731,0.7894339517956639,-0.9765148758888245,-0.020774954929947853,0.2144460678100586,-0.5134748220443726,0.2108767181634903,-0.34460553526878357,0.47559934854507446,0.006004452705383301,-0.005492210388183594
236,-1.7808362847267576,0.043846082652133245,0.7792458011370355,-0.9770827293395996,-0.04383203387260437,0.20829860866069794,-0.06252714991569519,0.30140221118927,-0.11272706836462021,0.3213362693786621,0.02324792742729187,-0.19467246532440186
237,-1.7472772579142122,0.06347286288365175,0.7880865275287084,-0.9824851155281067,-0.06343024969100952,0.17521269619464874,0.29743316769599915,-0.3277689218521118,-0.16469992697238922,-0.12812578678131104,0.10549873858690262,0.4813271760940552
238,-1.7666815656124426,0.06139271466996231,0.8063693453339545,-0.9790279269218445,-0.06135415658354759,0.19426825642585754,0.1833527535200119,-0.14279352128505707,0.12568017840385437,-0.4886234402656555,0.05877542495727539,0.26540279388427734
239,-1.8313367777424605,0.018328357536470878,0.8121470582057819,-0.9660885334014893,-0.01832733117043972,0.25755950808525085,0.10603392869234085,0.019549746066331863,0.5480033159255981,-0.2016817331314087,-0.10894623398780823,-0.4504305422306061
240,-1.7709042725394533,0.007757414976915438,0.8406540661236647,-0.9800156950950623,-0.007757337298244238,0.19876915216445923,0.14713115990161896,0.06727761775255203,-0.11030522733926773,0.29071515798568726,0.033727794885635376,0.324912428855896
241,-1.7665190115507012,0.0007305466569313077,0.8626092239207562,-0.9809073209762573,-0.0007305465987883508,0.194475457072258,0.38907670974731445,0.04625251516699791,0.16248512268066406,0.6234395503997803,-0.007844895124435425,-0.07824918627738953
242,-1.7302640698238645,-0.01484396969534543,0.8502117011098961,-0.9872031807899475,0.014843424782156944,0.1587752401828766,-0.4927695691585541,0.6615139245986938,-0.15155602991580963,-0.16910779476165771,-0.02775236964225769,0.1632462739944458
243,-1.726065397987772,-0.015129665965172734,0.8292259450989917,-0.9878568649291992,0.015129088424146175,0.1546282321214676,0.06929831206798553,-0.6603865623474121,0.2415981888771057,-0.2525606155395508,0.07407379150390625,0.24181032180786133
244,-1.8023777746361316,-0.04235597989437235,0.8012717405745408,-0.9724316596984863,0.04234331473708153,0.22931118309497833,-0.4513244330883026,-1.1500040292739868,0.3671853840351105,-0.2621416449546814,0.059341248124837875,-0.2690603733062744
245,-1.8372434429679076,-0.04109924580311224,0.722889690604025,-0.963897705078125,0.04108767583966255,0.26308321952819824,-0.719605028629303,1.2788532972335815,-0.536665678024292,-0.40692126750946045,-0.06483037024736404,-0.352316677570343
246,-1.7964441738138477,0.011089738277526379,0.6876801077889033,-0.9745895266532898,-0.011089511215686798,0.2237240970134735,-0.4782634675502777,0.05163824185729027,-0.28091055154800415,0.5416060090065002,0.0377771258354187,-0.006347388029098511
247,-1.8050942867155018,0.027312982308418457,0.672906734580437,-0.972314715385437,-0.027309587225317955,0.232073575258255,-0.09939692169427872,0.3625967502593994,-0.13934320211410522,0.2479495406150818,0.0009424109011888504,-0.2253291755914688
248,-1.7497542581250616,0.04857969465388551,0.6825345908592243,-0.9828687906265259,-0.04856058955192566,0.17779424786567688,0.1538742482662201,-0.2500603497028351,-0.05711614340543747,-0.11030131578445435,0.09903666377067566,0.485673189163208
249,-1.7824287768347649,0.040124458152095255,0.7020522115900686,-0.9769024848937988,-0.04011369124054909,0.20988716185092926,0.251247763633728,-0.5992956757545471,0.2976560890674591,-0.4170490503311157,-0.07313701510429382,0.10043087601661682
250,-1.8722143673909166,-0.013475996920559723,0.7296460938741435,-0.9548295736312866,0.013475589454174042,0.2968476116657257,0.3724534213542938,0.43165478110313416,0.2773016393184662,-0.31892818212509155,-0.25590723752975464,-0.6060975193977356
251,-1.7798459116799366,-0.00934040737222521,0.7849467947137021,-0.9781859517097473,0.009340271353721619,0.2075212299823761,0.41415074467658997,-0.19463710486888885,0.07882985472679138,0.3982756733894348,0.10021781921386719,0.34419071674346924
252,-1.7885489340958207,-0.031924021496727115,0.8244013884362021,-0.9758880734443665,0.03191860020160675,0.21592581272125244,0.2929753363132477,0.19808587431907654,0.22810052335262299,0.5167357325553894,-0.08971890807151794,-0.14860400557518005
253,-1.729473265199119,-0.02802884954542737,0.7973600743930465,-0.9870492815971375,0.028025180101394653,0.15794983506202698,-0.5951662659645081,0.40035369992256165,-0.2714838981628418,-0.118480384349823,0.05327364429831505,0.3700653314590454
254,-1.7447303165678782,-0.030550304880289467,0.770619371836334,-0.9844520688056946,0.0305455531924963,0.17297756671905518,0.007772340439260006,-0.5923545360565186,0.24137726426124573,-0.3233788013458252,0.06701916456222534,0.3818320035934448
255,-1.8053742330802265,-0.0621656148543186,0.7562848607020224,-0.9707339406013489,0.06212558224797249,0.23198352754116058,-0.1493096500635147,-0.8657018542289734,0.34119123220443726,-0.19291669130325317,-0.003791205585002899,-0.2539866864681244
256,-1.8188173341700828,-0.04984793762009821,0.6965336828746882,-0.9681959748268127,0.049827296286821365,0.24518106877803802,-0.7128052711486816,0.9178217649459839,-0.4154488146305084,-0.14310163259506226,0.0024493038654327393,-0.19774150848388672
257,-1.783444144231421,-0.009610145369685266,0.6607087085757736,-0.9774304032325745,0.009609997272491455,0.21103906631469727,-0.3064418137073517,0.1254819631576538,-0.28703123331069946,0.49572569131851196,-0.005886852741241455,-0.010462284088134766
258,-1.7633409750010394,0.007558404013428978,0.6605588241219451,-0.9814923405647278,-0.007558331824839115,0.19135165214538574,-0.06296800076961517,0.7913429737091064,-0.13807639479637146,0.22329849004745483,0.043309688568115234,-0.17134739458560944
259,-1.7184380290361392,0.0274708163478704,0.6737607019033525,-0.9887475371360779,-0.027467360720038414,0.1470503956079483,0.2900729775428772,-0.20881053805351257,-0.15629559755325317,-0.14473628997802734,0.07869112491607666,0.3896317481994629
260,-1.7552825158289915,0.02702158145220838,0.7058274058674804,-0.9826716780662537,-0.027018293738365173,0.18337447941303253,0.3373257517814636,-0.44469907879829407,0.12137399613857269,-0.4128970503807068,-0.16957595944404602,0.04277607798576355
261,-1.8142128077941753,-0.005270714814049446,0.7457262327346936,-0.9705067276954651,0.005270690191537142,0.2410164326429367,0.6794736385345459,0.4964720606803894,0.028416790068149567,-0.2965678572654724,-0.22403594851493835,-0.5394020080566406
262,-1.743569146193332,0.00428960765189993,0.8373683026895994,-0.9851028919219971,-0.004289594478905201,0.17191298305988312,0.6246786713600159,0.039244748651981354,-0.11243244260549545,0.468058705329895,0.08946415781974792,0.3302079439163208
263,-1.7352326795296869,-0.007783189716797961,0.8962045831145637,-0.9864808320999146,0.007783111184835434,0.16369134187698364,0.36813870072364807,0.12205533683300018,0.18877914547920227,0.5326845645904541,-0.04991263151168823,-0.07595326006412506
264,-1.6886386941218836,-0.010211368563381023,0.8754284601292041,-0.9930127263069153,0.010211191140115261,0.11756366491317749,-0.3518275320529938,0.31036970019340515,-0.17408618330955505,-0.17584091424942017,-0.005511493422091007,0.38072729110717773
265,-1.7195393227412687,-0.018261771112002233,0.869558387416316,-0.988793134689331,0.018260756507515907,0.14817039668560028,-0.03246603533625603,-0.660446047782898,0.2888469994068146,-0.2828131914138794,-0.00867823138833046,0.3914872109889984
266,-1.7803783379698344,-0.04958934776190546,0.855696680529139,-0.9769155979156494,0.0495690256357193,0.20779532194137573,-0.1537013053894043,-0.7820958495140076,0.23941542208194733,-0.22262358665466309,-0.0803765058517456,-0.31591904163360596
267,-1.786312262815234,-0.035524671040130934,0.8145804644695019,-0.9762499332427979,0.03551720082759857,0.2137165516614914,-0.5569490194320679,1.0802950859069824,-0.5281766653060913,-0.07427191734313965,-0.10386130213737488,-0.30894672870635986
268,-1.729178710123011,0.017298642203949187,0.7919426503997089,-0.9873360395431519,-0.017297780141234398,0.15769745409488678,-0.1620844155550003,0.21766048669815063,-0.3780898451805115,0.5244454145431519,0.03519636392593384,0.033983469009399414
269,-1.70354526509961,0.03899202816080798,0.8045040034938062,-0.9904483556747437,-0.038982149213552475,0.13225878775119781,0.19720973074436188,0.802299976348877,-0.18103663623332977,0.10124242305755615,0.07732748985290527,-0.20254075527191162
270,-1.6660571937481858,0.05937984775441956,0.8324718470021529,-0.9937117695808411,-0.05934495851397514,0.09494923055171967,0.1484241932630539,-0.15511608123779297,-0.048464830964803696,-0.1917436718940735,0.13240402936935425,0.42914438247680664
271,-1.6856668688705498,0.06829410462301629,0.8485242164135014,-0.9910938143730164,-0.06824102997779846,0.11435089260339737,0.13386639952659607,-0.3324456810951233,0.00983539130538702,-0.29629015922546387,-0.0032311677932739258,0.24336087703704834
272,-1.7626587981082005,0.031155455285000654,0.8619588722332752,-0.9811744093894958,-0.031150415539741516,0.19059498608112335,0.13279715180397034,-0.26354873180389404,0.5065628290176392,-0.06704336404800415,-0.1845783293247223,-0.48859918117523193
273,-1.6778652649971577,0.03537413357451557,0.8834371391938162,-0.9936515092849731,-0.03536675497889519,0.10679762810468674,0.6232037544250488,0.7579833269119263,-0.3051517605781555,0.1962578296661377,0.12261649966239929,0.19427359104156494
274,-1.6857652465613582,0.025707933314476718,0.903347223211658,-0.9930700063705444,-0.02570510096848011,0.11467789858579636,0.1389644742012024,-0.12477373331785202,0.19038799405097961,0.5815557837486267,-0.04372239112854004,-0.07921648770570755
275,-1.6569105999421696,0.01844136821413899,0.8863122263373859,-0.9961249828338623,-0.01844032295048237,0.08599324524402618,-0.4236169457435608,0.5077625513076782,-0.10388042032718658,0.02778702974319458,-0.017341522499918938,0.16986608505249023
276,-1.6556338762148246,0.02056248331982365,0.8567503646320307,-0.9961928725242615,-0.020561033859848976,0.08471790701150894,-0.021457884460687637,-0.5099075436592102,0.2348683476448059,-0.3357163667678833,0.06995373964309692,0.2985217571258545
277,-1.7049764794629136,-0.009656433707478188,0.837489907560799,-0.9909651279449463,0.009656284004449844,0.1337716430425644,-0.06043073162436485,-0.7959467172622681,0.35957175493240356,-0.2717149257659912,-0.027860015630722046,-0.3313119411468506
278,-1.7229363184227133,-0.009568437737685363,0.8014755376051578,-0.9884039163589478,0.0095682917162776,0.15154683589935303,-0.5567671656608582,1.0107455253601074,-0.413232684135437,-0.19392341375350952,-0.06100565195083618,-0.3356441259384155
279,-1.6700684175018996,0.042461367097283875,0.7645750140390455,-0.9941797256469727,-0.042448610067367554,0.09901979565620422,-0.36738187074661255,0.1626271903514862,-0.3801145553588867,0.5341272354125977,0.048842042684555054,0.12195801734924316
280,-1.6465468254138165,0.07333054119655057,0.7472842342823844,-0.9944526553153992,-0.07326483726501465,0.07547470182180405,-0.10403483361005783,0.491759717464447,-0.1852281540632248,0.3794470429420471,0.03542303293943405,-0.16280078887939453
281,-1.5866705732575819,0.10054320626321256,0.7428120102361562,-0.9948244094848633,-0.10037389397621155,0.015793414786458015,0.14415879547595978,0.08234351873397827,-0.234458789229393,-0.31097692251205444,0.13873448967933655,0.5660394430160522
282,-1.6155513116661717,0.11106713085449804,0.7522157449597691,-0.9928430914878845,-0.11083891987800598,0.044464368373155594,0.10735030472278595,-0.4687405824661255,0.02017122693359852,-0.4145511984825134,-0.0003213435411453247,0.0562589131295681
283,-1.6647968746079849,0.0743919975576976,0.7539427089941816,-0.9928315877914429,-0.07432340085506439,0.09360257536172867,-0.1567336767911911,-0.07833698391914368,0.5822710394859314,-0.15436989068984985,-0.2953665554523468,-0.4528402090072632
284,-1.59376187996872,0.09521898492929501,0.7842311197763346,-0.995207667350769,-0.09507516026496887,0.022859513759613037,0.4034498333930969,0.3772660493850708,-0.4303974211215973,0.46192824840545654,0.14713817834854126,0.5289441347122192
285,-1.5981960311620842,0.08887353305541944,0.7892062007156698,-0.9956795573234558,-0.08875658363103867,0.027288153767585754,0.05034691467881203,0.05177032947540283,0.27833956480026245,0.5740944743156433,-0.026050537824630737,-0.034368276596069336
286,-1.5758325438639789,0.06255828387321222,0.7548603239836139,-0.9980311989784241,-0.06251748651266098,0.005026344209909439,-0.5569556355476379,0.34816861152648926,0.04312542825937271,-0.05267375707626343,0.03740149736404419,0.20198965072631836
287,-1.5936329155121742,0.04179817478999615,0.7213769730575117,-0.998866081237793,-0.04178600385785103,0.022814661264419556,-0.35943803191185,-0.6201944947242737,0.3320884704589844,-0.43575000762939453,-0.047233760356903076,0.4304780960083008
288,-1.6183529208689318,0.002685085699470176,0.6841090050240533,-0.9988657832145691,-0.0026850823778659105,0.047538500279188156,-0.1605823040008545,-0.5896624326705933,0.38826799392700195,-0.2274678349494934,-0.1069645881652832,-0.48148322105407715
289,-1.6092379750947072,-0.00793242666313316,0.6604891069853522,-0.9992298483848572,0.007932343520224094,0.03843097388744354,-0.3209604024887085,1.0646469593048096,-0.6133487820625305,-0.2574687600135803,-0.19527974724769592,-0.24631667137145996
290,-1.5475146605067138,0.049021330960594606,0.6564474943634361,-0.9985278844833374,-0.049001701176166534,-0.023251593112945557,-0.07982515543699265,0.2374342679977417,-0.3031596541404724,0.6157003045082092,0.09740258008241653,0.20762354135513306
291,-1.525968421526027,0.06702763018252413,0.6539546740556436,-0.9967520833015442,-0.06697744876146317,-0.044712264090776443,-0.06460165232419968,0.5008780360221863,-0.14615069329738617,0.23465192317962646,0.014471948146820068,-0.16888028383255005
292,-1.4894699680708474,0.09052653171949897,0.6763773094679433,-0.9926136136054993,-0.09040293842554092,-0.08090409636497498,0.16651798784732819,-0.05366222560405731,-0.1982443779706955,-0.42236435413360596,0.04944837838411331,0.3357105851173401
293,-1.4911432981004886,0.11361885994358088,0.6760581775277601,-0.9904022812843323,-0.11337456107139587,-0.0790558010339737,-0.12615889310836792,-0.1803225576877594,0.0034233108162879944,-0.299041748046875,-0.004255443811416626,0.2008209228515625
294,-1.5666722266041404,0.06735464238412676,0.6854890457191365,-0.9977239966392517,-0.06730372458696365,-0.004114737268537283,-0.23473891615867615,-0.22299040853977203,0.6525766849517822,0.13538885116577148,-0.25142186880111694,-0.5258077383041382
295,-1.4540889443819718,0.09071862749561606,0.7051686490125028,-0.9891131520271301,-0.09059424698352814,-0.11596378684043884,0.8164294362068176,1.2639892101287842,-0.6328669190406799,0.12706804275512695,0.08877848088741302,0.15000614523887634
296,-1.461584956430267,0.10138383838209843,0.7387359259178766,-0.9889380931854248,-0.10121024399995804,-0.10843472927808762,0.1864883005619049,-0.2674270272254944,0.19022582471370697,0.4435584545135498,0.02918878197669983,0.12285423278808594
297,-1.4572439904853194,0.0931497782815764,0.725132936886567,-0.9892524480819702,-0.09301512688398361,-0.11281724274158478,-0.36855772137641907,-0.07734047621488571,-0.03584600239992142,-0.09264141321182251,0.11210387945175171,0.19471120834350586
298,-1.4920061901297466,0.07989273220395296,0.6962172146615985,-0.9937177896499634,-0.07980776578187943,-0.07845757901668549,-0.3212251365184784,-0.33135226368904114,0.23077915608882904,-0.38006144762039185,-0.019969433546066284,0.2950866222381592
299,-1.5590505054985495,0.05888261294457986,0.6865009038439628,-0.9981979727745056,-0.05884859338402748,-0.011725194752216339,-0.05836886912584305,-0.6799032688140869,0.06005025655031204,0.003614962100982666,-0.18814542889595032,-0.45272183418273926
300,-1.5169904169870023,0.09208949709845238,0.6775159037417264,-0.9943215847015381,-0.0919593945145607,-0.053552065044641495,0.15395179390907288,1.0855051279067993,-0.8928714990615845,-0.005937695503234863,-0.015569262206554413,-0.19432693719863892
301,-1.4821939751338506,0.14759070599595187,0.6791613577333069,-0.985248327255249,-0.1470554620027542,-0.08752447366714478,-0.0965270921587944,-0.15815730392932892,-0.306498259305954,0.4058873653411865,0.1674106866121292,0.14883428812026978
302,-1.484531744811511,0.15616339461006393,0.6597145029398124,-0.9841579794883728,-0.1555294394493103,-0.08510919660329819,-0.11926056444644928,0.32095012068748474,-0.2926866114139557,-0.20859098434448242,0.07526823878288269,-0.05582099407911301
303,-1.5027537855521864,0.16147117581044287,0.6610665314760645,-0.9847079515457153,-0.16077041625976562,-0.06710562109947205,0.18955565989017487,-0.4706513285636902,0.02253442071378231,-0.42413604259490967,0.09288409352302551,0.08404291421175003
304,-1.536995763216014,0.15466264215640602,0.6672052407302697,-0.9874992966651917,-0.15404677391052246,-0.033390749245882034,-0.14216892421245575,-0.6913216710090637,0.29169565439224243,0.0227317214012146,-0.08836962282657623,-0.17771458625793457
305,-1.5598033162940406,0.11019725252639787,0.6420538434761461,-0.9938744902610779,-0.10997436195611954,-0.010926112532615662,-0.18590663373470306,0.590010404586792,0.23603126406669617,-0.06265944242477417,-0.17968323826789856,-0.49276649951934814
306,-1.4904462888021621,0.13025230476804525,0.6466777236365319,-0.9883302450180054,-0.12988431751728058,-0.07958371192216873,-0.010646813549101353,-0.004828134085983038,0.11820754408836365,0.5794708728790283,0.051789820194244385,0.41729122400283813
307,-1.4940625786816963,0.1080578879576097,0.6491826452999445,-0.9912419319152832,-0.10784772038459778,-0.0762113481760025,-0.13774487376213074,0.1112702265381813,0.2066533863544464,0.12031608819961548,-0.09016557037830353,-0.014746300876140594
308,-1.4769735415420226,0.0972899692518335,0.6347992636099618,-0.9908936619758606,-0.09713656455278397,-0.09324215352535248,-0.14781416952610016,-0.06015303358435631,0.23621636629104614,-0.08581221103668213,0.03538425266742706,0.25686216354370117
309,-1.5121291815878455,0.06295150018290306,0.6245827556486033,-0.9963021874427795,-0.06290993094444275,-0.05851735547184944,-0.3698204755783081,-0.4235883951187134,0.4126855432987213,-0.43573516607284546,0.04234108328819275,0.36816394329071045
310,-1.536017403329888,0.014747198704014284,0.59450305187884,-0.9992867112159729,-0.014746664091944695,-0.034768134355545044,-0.44053831696510315,-0.6750288605690002,0.39633387327194214,0.047138214111328125,-0.057885169982910156,-0.35642147064208984
311,-1.5327447835525774,0.010079580466560116,0.5501210295998239,-0.999225378036499,-0.010079409927129745,-0.03804042935371399,-0.5696906447410583,0.6472541093826294,-0.45804455876350403,0.06184744834899902,-0.06304070353507996,-0.2662045359611511
312,-1.4882100628325867,0.055464250317610264,0.5053042139911686,-0.9950593113899231,-0.05543581768870354,-0.08236557245254517,-0.49827608466148376,-0.01856468990445137,-0.1800801008939743,0.47461235523223877,0.17507997155189514,0.21043258905410767
313,-1.4820640293232374,0.06309275117539948,0.46518126395030257,-0.9940841197967529,-0.06305090337991714,-0.08843959867954254,-0.2615088224411011,0.14979760348796844,-0.17836585640907288,0.06749409437179565,0.01716773211956024,-0.04963719844818115
314,-1.4889275078206752,0.08198708222176886,0.45396942951727576,-0.9933028221130371,-0.08189526200294495,-0.08150269836187363,0.06327614933252335,-0.573339581489563,-0.08011144399642944,-0.2946152687072754,0.11296214163303375,0.28700804710388184
315,-1.5167318053172847,0.09263616125808684,0.4563859153457299,-0.9942575693130493,-0.09250372648239136,-0.05380649492144585,-0.1507062464952469,-0.17008882761001587,0.04396072402596474,-0.48964452743530273,0.03677860647439957,-0.041438885033130646
316,-1.5686272906209076,0.0675511781529411,0.4521158340559824,-0.9977169036865234,-0.06749981641769409,-0.0021640874911099672,-0.16041253507137299,-0.3041645586490631,0.42486754059791565,0.2443752884864807,-0.1882527470588684,-0.2749354839324951
317,-1.5159564302142472,0.054265950961385256,0.43590878278434836,-0.9970267415046692,-0.05423932150006294,-0.05473171919584274,0.0526898130774498,0.8144219517707825,-0.5482027530670166,0.11752551794052124,-0.002843804657459259,0.19874417781829834
318,-1.5085227333743305,0.05420893174789055,0.43275339671407076,-0.9965953826904297,-0.05418238416314125,-0.06214192509651184,-0.09199964255094528,-0.00854123942553997,0.2307414412498474,0.3966962695121765,-0.03209080174565315,0.07451684772968292
319,-1.4900869096642222,0.04075861328054522,0.41691376312265216,-0.9959169030189514,-0.04074732959270477,-0.08055485785007477,-0.1959642469882965,0.3141547739505768,-0.04080706462264061,-0.06295144557952881,-0.0015500299632549286,0.16159427165985107
320,-1.4838008347443679,0.03355166152425586,0.4145188552942444,-0.9956575632095337,-0.033545367419719696,-0.08683689683675766,-0.002023882232606411,-0.06967701017856598,0.1310262680053711,-0.34391146898269653,-0.02584182843565941,0.16203224658966064
321,-1.4943217898328494,0.009816657831228516,0.4115638664608989,-0.9970291256904602,-0.00981650035828352,-0.07639633119106293,0.14646866917610168,-0.4777922034263611,0.34011510014533997,-0.2821608781814575,-0.056894928216934204,-0.10976087301969528
322,-1.5429222141787562,-0.01688063910720296,0.4150424206920532,-0.9994692206382751,0.016879837960004807,-0.027866534888744354,-0.11148888617753983,0.19272392988204956,-0.19912955164909363,-0.11008894443511963,-0.2117956131696701,-0.5441702604293823
323,-1.4662012296890694,0.0440523752796628,0.3967081102271857,-0.9935701489448547,-0.04403812810778618,-0.10430320352315903,0.12829968333244324,0.42431357502937317,-0.49931633472442627,0.28640156984329224,0.15992863476276398,0.24204427003860474
324,-1.4729983863580558,0.0547114179436463,0.4013066761737623,-0.9937324523925781,-0.05468412861227989,-0.09749601781368256,0.04493195191025734,-0.09664934873580933,0.1338193267583847,0.3763465881347656,0.045650918036699295,-0.04647063463926315
325,-1.4435952952950792,0.0587260606265138,0.3986941163739255,-0.9902108311653137,-0.05869231000542641,-0.12663958966732025,0.061951614916324615,0.3672596216201782,-0.1276482492685318,0.016379714012145996,0.0704873651266098,0.17826010286808014
326,-1.457988931460813,0.06067084845600598,0.3984206587776823,-0.9918158650398254,-0.06063363328576088,-0.11236118525266647,0.10741617530584335,-0.3367232382297516,-0.07135732471942902,-0.40123534202575684,0.050867997109889984,0.11516879498958588
327,-1.5065711907048673,0.07011777205094931,0.4308857568086408,-0.9954861402511597,-0.07006032764911652,-0.06402328610420227,0.5855187773704529,-0.6719759106636047,0.1782406121492386,-0.13389313220977783,-0.21302072703838348,-0.31639355421066284
328,-1.5303407450990936,0.052204467729701325,0.48970111730365806,-0.9978204965591431,-0.052180759608745575,-0.040389444679021835,0.6619250178337097,0.9751692414283752,-0.44634687900543213,-0.18674975633621216,-0.15750552713871002,-0.43301451206207275
329,-1.4877196704752944,0.08266570243039219,0.579147756206748,-0.9931479692459106,-0.08257158100605011,-0.08269775658845901,0.7540068626403809,-0.2104460895061493,0.1145189180970192,0.4886009097099304,0.031897157430648804,0.4452008008956909
330,-1.5018386411787579,0.05896591030392118,0.6557294675276197,-0.9958896040916443,-0.05893174558877945,-0.06878330558538437,0.47880229353904724,-0.0011777360923588276,0.3348137140274048,0.248254656791687,-0.055905915796756744,0.02825593203306198
331,-1.5006691352275947,0.044599847010143696,0.67186285065342,-0.9965501427650452,-0.04458506405353546,-0.0700000524520874,0.11690273880958557,-0.2856312096118927,0.20999696850776672,-0.14012283086776733,0.12354928255081177,0.3239673376083374
332,-1.5539172811320492,0.011702105096221382,0.6802991650038511,-0.9997889399528503,-0.011701838113367558,-0.016877086833119392,-0.07117648422718048,-0.46221256256103516,0.3940331041812897,-0.42811310291290283,-0.03146529197692871,0.35862815380096436
333,-1.615697656224154,-0.03796619130432399,0.6839881935385278,-0.9982722997665405,0.037957072257995605,0.044853903353214264,-0.015030976384878159,-1.0317811965942383,0.294892281293869,-0.24184006452560425,-0.2118157148361206,-0.21665263175964355
334,-1.6423891112356634,-0.025654355568053018,0.6432246416958686,-0.9971100687980652,0.025651542469859123,0.07150810211896896,-0.048045411705970764,0.8561926484107971,-0.5908604860305786,-0.04219651222229004,-0.05328521132469177,-0.49663329124450684
335,-1.5904482749259652,0.027346632580364138,0.6380537637791611,-0.9994330406188965,-0.027343224734067917,0.019643334671854973,-0.14803270995616913,-0.0332043282687664,-0.21883326768875122,0.6260810494422913,0.08077949285507202,0.19399499893188477
336,-1.575798113673795,0.03679924571035226,0.6349597860511237,-0.9993104934692383,-0.036790940910577774,0.004998379852622747,0.07410962879657745,0.3152232766151428,-0.08285076916217804,0.06942468881607056,-0.012861162424087524,-0.10134232044219971
337,-1.5648310600911588,0.05504679796743499,0.6552023930191477,-0.9984676241874695,-0.05501900240778923,-0.0059561962261796,0.41109633445739746,-0.198046013712883,0.10834219306707382,-0.2664249539375305,0.07145270705223083,0.18938207626342773
338,-1.5896911474408018,0.053379663589469134,0.6847653061826972,-0.9983975291252136,-0.05335431545972824,0.01886678673326969,0.25618091225624084,-0.4046286642551422,0.2141122817993164,-0.40864598751068115,-0.11772724986076355,0.07964396476745605
339,-1.6590288627748666,0.012711497891403623,0.7401726915741951,-0.9960294961929321,-0.012711155228316784,0.08811097592115402,0.6082325577735901,-0.24695152044296265,0.14808696508407593,0.061199843883514404,-0.39431703090667725,-0.37915706634521484
340,-1.596977184339723,0.03450666588818227,0.8048702640795575,-0.9990622997283936,-0.034499816596508026,0.0261622853577137,0.8724200129508972,0.6331518888473511,-0.46095186471939087,0.2712637186050415,0.12487763166427612,0.11672103404998779
341,-1.5997669387252313,0.024931049378430572,0.880761400294521,-0.9992697834968567,-0.024928467348217964,0.028957558795809746,0.669690728187561,-0.14091679453849792,0.4088362455368042,0.3389456868171692,-0.03972303867340088,0.007648346945643425
342,-1.6014129234358698,-0.0027414034135267162,0.9364962780239862,-0.9995277523994446,0.002741399919614196,0.030611703172326088,0.2814144194126129,-0.018024148419499397,0.1748550534248352,0.16836607456207275,-0.02233368158340454,0.22433221340179443
343,-1.627152388780708,-0.024071688508687197,0.9526848712273414,-0.9981231093406677,0.02406936325132847,0.056309912353754044,0.13651366531848907,-0.5178530812263489,0.2525838315486908,-0.2008209228515625,0.009438930079340935,0.15716052055358887
344,-1.6915260874827007,-0.05739860710004549,0.9446756645076934,-0.9910861253738403,0.05736709386110306,0.12023834884166718,-0.3338797986507416,-0.46326929330825806,0.3574681878089905,-0.3967769742012024,-0.006051812320947647,-0.06085110455751419
345,-1.751957197416566,-0.07295969142403151,0.9121787331820458,-0.9810183644294739,0.07289498299360275,0.17969225347042084,-0.8041587471961975,0.08309157937765121,-0.3260539770126343,-0.17756617069244385,-0.19125741720199585,-0.26265430450439453
346,-1.7288501602186126,-0.012661687909492137,0.8618848427605905,-0.9874563813209534,0.012661349959671497,0.157383993268013,-0.44117870926856995,0.24368402361869812,-0.44752681255340576,0.3925771713256836,-0.009319661185145378,0.030650034546852112
347,-1.709223813713029,0.018009246546587553,0.8455901729433298,-0.990273654460907,-0.018008273094892502,0.1379634439945221,-0.11091809719800949,0.4118959307670593,-0.14358219504356384,0.4681178331375122,-0.007595958188176155,-0.1881037801504135
348,-1.638440487542988,0.043267523508927465,0.8467029740349438,-0.9967791438102722,-0.043254025280475616,0.06752932071685791,0.17300082743167877,0.27303817868232727,-0.26048848032951355,-0.16008108854293823,0.18383324146270752,0.4333862066268921
349,-1.6698390657058817,0.03966095387331788,0.8629974111080817,-0.9943168759346008,-0.039650555700063705,0.09880314767360687,0.10399004071950912,-0.09255963563919067,0.23962941765785217,-0.3129342794418335,0.07093104720115662,0.0059789568185806274
350,-1.6839783006090594,0.02125909807709091,0.8545974567936555,-0.9933772087097168,-0.021257497370243073,0.11291495710611343,0.2271273285150528,-0.2828938663005829,0.13307972252368927,-0.16165202856063843,-0.07923686504364014,-0.36581408977508545
351,-1.671235036698177,-0.005979826195445975,0.919621954179556,-0.9949426651000977,0.005979790352284908,0.10026814788579941,0.863935112953186,0.29252150654792786,-0.017457162961363792,0.2068108320236206,-0.04665973782539368,-0.05073808133602142
352,-1.661894825309431,-0.012877936859632429,0.9945556084388688,-0.9957709312438965,0.01287758070975542,0.09096501022577286,0.5864516496658325,0.033340342342853546,0.03379205986857414,0.5261358022689819,-0.06323158740997314,0.07280755788087845
353,-1.6424753057708779,-0.01643935669788516,1.0305264716486782,-0.9972972273826599,0.016438616439700127,0.07160792499780655,0.016032254323363304,0.1997620314359665,-0.11791539192199707,0.019483625888824463,-0.05106079950928688,0.13238678872585297
354,-1.6662271883394058,-0.023029216547943963,1.031072061471291,-0.995185911655426,0.02302718162536621,0.09526080638170242,-0.055978819727897644,-0.467738538980484,0.29136183857917786,0.0037308931350708008,0.06707596778869629,0.2345273345708847
355,-1.7294866716415842,-0.044307990573034965,1.0045269883601227,-0.9864659309387207,0.044293493032455444,0.15787003934383392,-0.386868417263031,-0.5904030799865723,0.30286747217178345,-0.655181348323822,-0.004269693046808243,-0.2592952251434326
356,-1.7577964044152863,-0.03092702130560911,0.9557218271353033,-0.9820963740348816,0.030922090634703636,0.18582318723201752,-0.6012171506881714,0.10781197249889374,-0.27996617555618286,-0.23543280363082886,0.007621610537171364,-0.2990434467792511
357,-1.7307886946773436,0.014893860257158779,0.9061160561358822,-0.9871191382408142,-0.014893309213221073,0.1592930257320404,-0.3644270896911621,0.26081904768943787,-0.3377860188484192,0.5138829946517944,0.017655132338404655,-0.0187748521566391
358,-1.6996604585315298,0.03204029038348795,0.8886831750129587,-0.9911994338035583,-0.03203480690717697,0.12844181060791016,-0.0771666020154953,0.5150396227836609,-0.0001634489744901657,0.4816933274269104,0.013190213590860367,-0.15255071222782135
359,-1.669611098506642,0.04886969442606969,0.897085772314936,-0.9939337372779846,-0.04885024577379227,0.09853626042604446,0.32860270142555237,-0.4341353178024292,-0.18162304162979126,-0.2660607695579529,0.11896437406539917,0.46671032905578613
360,-1.6988786271800238,0.04401747407177041,0.9345864127521444,-0.9908478856086731,-0.044003259390592575,0.12760865688323975,0.3483697772026062,-0.04107506200671196,0.13536903262138367,-0.47791725397109985,0.15273737907409668,0.24322567880153656
361,-1.7187347104449013,0.013606515074726402,0.9463301382982405,-0.988985538482666,-0.013606095686554909,0.14738571643829346,0.30337169766426086,-0.24158461391925812,0.508542001247406,0.045595645904541016,-0.08273792266845703,-0.48394882678985596
362,-1.6627355967841004,-0.007456025570325899,0.9910204719525383,-0.9957489371299744,0.007455956656485796,0.09180725365877151,0.46285492181777954,0.38891470432281494,-0.0689588189125061,0.057928502559661865,0.0908258855342865,0.13759338855743408
363,-1.6549809456027367,-0.015420285994706613,1.0144134210938245,-0.9963402152061462,0.015419675037264824,0.08407522737979889,0.023131389170885086,0.09437594562768936,0.17782479524612427,0.541368842124939,-0.02082127332687378,0.0019385814666748047
364,-1.6322281641319738,-0.021413814840334118,0.9904628443939016,-0.9978848695755005,0.021412178874015808,0.06137913092970848,-0.4637894332408905,0.20792324841022491,-0.04202253371477127,0.125280499458313,-0.036548882722854614,0.10829854011535645
365,-1.635708485796871,-0.01998106802925582,0.95352870196854,-0.997694730758667,0.01997973769903183,0.06485363095998764,-0.21396657824516296,-0.3839435577392578,0.03398741036653519,-0.26580923795700073,-0.005132945254445076,0.16097640991210938
366,-1.6836899661229718,-0.02815031541443721,0.937779767121703,-0.9932406544685364,0.028146598488092422,0.11260936409235,-0.2047528624534607,-0.3290514051914215,0.12795433402061462,-0.4146878719329834,-0.015954818576574326,-0.0577692836523056
367,-1.7072187112299806,-0.02297481971161921,0.8989489586684384,-0.9904475212097168,0.022972797974944115,0.13596373796463013,-0.6194941401481628,0.2065623551607132,-0.20130030810832977,-0.0697636604309082,-0.010216444730758667,-0.33065056800842285
368,-1.6824623605681333,0.012455877289148522,0.8404771250760535,-0.9936946630477905,-0.012455555610358715,0.11142545938491821,-0.5851077437400818,0.17630550265312195,-0.25843143463134766,0.3014644980430603,-0.01925221085548401,0.058542244136333466
369,-1.6580009604302977,0.03747821116195893,0.8042763070535828,-0.9955005645751953,-0.03746943920850754,0.0870329886674881,-0.0993802398443222,0.3868236243724823,-0.11852353811264038,0.3538227081298828,0.030557215213775635,-0.16686701774597168
370,-1.6153194253116692,0.05997910410224717,0.8029643462721182,-0.9972126483917236,-0.059943147003650665,0.04442835599184036,0.008719111792743206,0.12911547720432281,-0.19864007830619812,-0.006098508834838867,0.13168996572494507,0.32327795028686523
371,-1.633298223430853,0.06930290015573337,0.8017592007228833,-0.9956516623497009,-0.06924743950366974,0.06231128051877022,0.03601983189582825,-0.35799503326416016,-0.12748324871063232,-0.42051661014556885,0.14653319120407104,0.11244762688875198
372,-1.674611657847229,0.05846031709902806,0.8035781585296449,-0.9929167628288269,-0.05842702463269234,0.10345190763473511,0.07734984159469604,-0.5822508335113525,0.5515404343605042,-0.08949583768844604,-0.17599374055862427,-0.4102299213409424
373,-1.6684870967933303,0.02873800005023555,0.8030484375619477,-0.9948209524154663,-0.02873404510319233,0.0974951684474945,0.33432552218437195,1.1609653234481812,-0.3241099417209625,-0.18204349279403687,-0.1415387988090515,-0.3785468339920044
374,-1.626800575426602,0.045239054755322874,0.8338590411763829,-0.9974107146263123,-0.045223627239465714,0.055917710065841675,-0.001286601647734642,0.02896951138973236,0.1127035915851593,0.5477799773216248,0.049374017864465714,0.17699241638183594
375,-1.6048848699406963,0.028602512273800236,0.8205362728700589,-0.9990102052688599,-0.028598612174391747,0.03406799957156181,-0.48716598749160767,0.22534628212451935,0.17887984216213226,0.13414210081100464,-0.1459161639213562,-0.043696288019418716
376,-1.585894132125846,0.0258140717773999,0.7765651533463989,-0.9995529055595398,-0.025811204686760902,0.01509220153093338,-0.31810030341148376,-0.08580297231674194,0.22257627546787262,-0.16272425651550293,0.026452096179127693,0.4024035930633545
377,-1.6251863931600898,0.009675898336446618,0.7648590648100988,-0.9984743595123291,-0.009675747714936733,0.05436070263385773,-0.1449882686138153,-0.47754451632499695,0.122209832072258,-0.47445642948150635,-0.0980817973613739,0.42191195487976074
378,-1.646797387782016,-0.005545387165495329,0.763233583153135,-0.9970979690551758,0.005545358639210463,0.07592674344778061,-0.16023299098014832,-0.33975523710250854,0.18846555054187775,-0.05028057098388672,-0.026785582304000854,-0.2683553695678711
379,-1.623928709545653,0.013680353430583565,0.7336170556625594,-0.9984953999519348,-0.01367992628365755,0.05310241878032684,-0.25582394003868103,0.8819383978843689,-0.48483821749687195,0.05234360694885254,-0.06706959009170532,-0.20800960063934326
380,-1.5831554671806143,0.049088474325459486,0.7480112919964651,-0.9987192153930664,-0.049068763852119446,0.012343939393758774,0.22402448952198029,0.015984179452061653,-0.0042997077107429504,0.5409402251243591,0.12203627824783325,0.08979833126068115
381,-1.5660406269084952,0.035628039710836015,0.7927370317570208,-0.9993541240692139,-0.03562050312757492,-0.004752664361149073,0.5126397609710693,0.40492457151412964,0.010845731012523174,0.10398364067077637,0.006720364093780518,0.07024341821670532
382,-1.5429615461404813,0.04109177380668685,0.852809872990053,-0.9987688660621643,-0.041080210357904434,-0.02780769392848015,0.7264845371246338,0.20147790014743805,-0.11472785472869873,-0.2858380675315857,0.06808826327323914,0.07323312759399414
383,-1.5624755381035613,0.06066406864664262,0.9332292340299367,-0.9981258511543274,-0.06062686815857887,-0.008305385708808899,0.7824243307113647,0.2859870195388794,-0.26195046305656433,-0.34415918588638306,-0.16709527373313904,-0.0817214846611023
384,-1.5777115081193736,0.03347227280302021,1.0026934715497786,-0.9994158744812012,-0.033466022461652756,0.006911252159625292,0.5647023320198059,0.21676988899707794,0.4007493555545807,-0.13733327388763428,-0.31426653265953064,-0.5706930160522461
385,-1.472650263560972,0.08042839420117814,1.0531498743720171,-0.9919705986976624,-0.08034171164035797,-0.09767182171344757,0.8229456543922424,1.0388398170471191,-0.6487340331077576,0.18777132034301758,0.24496877193450928,0.002182304859161377
386,-1.456128928303665,0.10055713156575846,1.1047623797032458,-0.9884144067764282,-0.10038775205612183,-0.11383828520774841,0.42872026562690735,-0.022472746670246124,0.25675082206726074,0.4982258677482605,0.030899234116077423,0.1873093843460083
387,-1.4457439823560014,0.06890941556472546,1.1245387930309887,-0.9898363351821899,-0.06885489076375961,-0.12443064898252487,-0.2513259947299957,0.23261992633342743,0.10037052631378174,-0.09977847337722778,-0.0896076187491417,0.13889598846435547
388,-1.4669402870799764,0.032465688542626644,1.0998626720704001,-0.9940875768661499,-0.032459985464811325,-0.10361479967832565,-0.33838534355163574,-0.7160132527351379,0.5388437509536743,-0.28668928146362305,0.016346696764230728,0.32855987548828125
389,-1.527510160291229,-0.025178111640090206,1.051359268306031,-0.9987466931343079,0.02517545223236084,-0.04325893893837929,-0.13140445947647095,-0.6689735651016235,0.3064401149749756,-0.5963308215141296,-0.09319913387298584,-0.5881650447845459
390,-1.5300697883477432,-0.015977705017249395,1.0245462369296496,-0.9990432858467102,0.015977025032043457,-0.04071008414030075,-0.44569265842437744,0.17865866422653198,-0.14794455468654633,0.2296646237373352,0.019438624382019043,-0.27670323848724365
391,-1.4828874476206015,0.015262224383555827,0.9691139315878797,-0.9960224628448486,-0.015261631458997726,-0.08778546750545502,-0.5169480443000793,0.31071048974990845,-0.30859965085983276,0.3771870732307434,0.05902385711669922,0.10141158849000931
392,-1.4583297990836441,0.03099082382213481,0.9368932777794828,-0.993205189704895,-0.030985863879323006,-0.11217569559812546,-0.14609429240226746,0.3122406303882599,-0.14106948673725128,0.3312941789627075,0.012156516313552856,-0.06447529792785645
393,-1.3997821918389266,0.052686036687231014,0.9223235067491853,-0.9840452671051025,-0.05266166478395462,-0.169945627450943,0.07892294973134995,0.5127131342887878,-0.2561200261116028,-0.1879822015762329,0.04529166966676712,0.2303551584482193
394,-1.3905737728134868,0.08203907648847021,0.9373201204410919,-0.980495035648346,-0.08194708079099655,-0.17864567041397095,0.39490607380867004,-0.13183844089508057,-0.33027273416519165,-0.41743892431259155,0.09239932894706726,0.13225901126861572
395,-1.4346745047384168,0.12432006806054749,1.013873997209955,-0.9831034541130066,-0.12400007992982864,-0.13465453684329987,1.5585644245147705,0.03770150989294052,0.04269279167056084,0.11062103509902954,-0.17456866800785065,-0.47798585891723633
396,-1.4287962637271527,0.13307622341067507,1.0500805579713,-0.981182336807251,-0.13268378376960754,-0.14027203619480133,0.18899406492710114,1.4288501739501953,-0.8317232131958008,-0.707355260848999,-0.06258291006088257,-0.6848316788673401
397,-1.3470094478039676,0.1994672484668769,1.0609694508877272,-0.9557307362556458,-0.19814717769622803,-0.21752341091632843,-0.16028167307376862,-0.280752032995224,-0.130750373005867,0.17048293352127075,0.11085163056850433,0.48461323976516724
398,-1.367391504737785,0.1922600264084707,1.0264976821399265,-0.9613391757011414,-0.19107776880264282,-0.1982831507921219,-0.7674763202667236,0.06072017177939415,-0.09179254621267319,0.08612561225891113,-0.06696362793445587,-0.16737841069698334
399,-1.3124385068091888,0.2110015389634394,0.9560051442973994,-0.9453685283660889,-0.20943933725357056,-0.24982678890228271,-0.4373985230922699,0.27361759543418884,-0.27976280450820923,0.04163628816604614,0.06655605137348175,0.2370399385690689
400,-1.2920841704723194,0.21744860013585213,0.9090519649070855,-0.9387704133987427,-0.21573901176452637,-0.2686390280723572,-0.5314393639564514,-0.03755577281117439,-0.0872400626540184,-0.10416793823242188,0.13526415824890137,0.2156147062778473
401,-1.286423374861902,0.18917033158011423,0.8389918560226789,-0.9427147507667542,-0.18804408609867096,-0.2755506932735443,-0.848558247089386,0.12755253911018372,0.09165050089359283,-0.4968451261520386,-0.14236974716186523,-0.2484818696975708
402,-1.2741382297829211,0.1479190401742598,0.7669732133697643,-0.9458756446838379,-0.14738021790981293,-0.2891336977481842,-0.6125868558883667,0.25587955117225647,-0.23353877663612366,0.042662203311920166,-0.037129029631614685,-0.2393239438533783
403,-1.2450095437352735,0.14394433897295592,0.6961714980441052,-0.9376012086868286,-0.14344777166843414,-0.31674426794052124,-0.5432663559913635,0.17902562022209167,-0.1670243740081787,0.0023288726806640625,0.08320605754852295,0.0066093504428863525
404,-1.2280266949551757,0.14452588962166796,0.6282750570728125,-0.9320082068443298,-0.14402328431606293,-0.33259284496307373,-0.656182587146759,-0.03036920726299286,-0.12949953973293304,0.39094680547714233,0.12731491029262543,0.07348334789276123
405,-1.1968458942295102,0.1493543906210883,0.5612888203234023,-0.9205282926559448,-0.14879974722862244,-0.3612290024757385,-0.45312559604644775,0.4043578505516052,-0.3839791715145111,-0.007404446601867676,-0.043369442224502563,0.08766943216323853
406,-1.2163165418099702,0.1900190712705332,0.5669531594189399,-0.9209469556808472,-0.1888776272535324,-0.3408549427986145,0.9561830163002014,-0.9472656846046448,-0.33192211389541626,-0.34809601306915283,-0.036067456007003784,0.1991007924079895
407,-1.2743974942943197,0.23384106251065756,0.6391254846342989,-0.9303648471832275,-0.23171573877334595,-0.2841286361217499,0.2536105513572693,-0.20307046175003052,-0.2309814691543579,-0.05291152000427246,0.010417520999908447,-0.4852195382118225
408,-1.2702069909765847,0.2548482345708008,0.669956302373777,-0.9243118762969971,-0.25209856033325195,-0.2865201234817505,0.12138907611370087,0.4230068027973175,-0.08505042642354965,-0.043110549449920654,-0.04709577560424805,-0.3104799687862396
409,-1.2291745229746065,0.28475115718973704,0.6778949970438524,-0.9042711853981018,-0.2809186279773712,-0.32152506709098816,0.23765555024147034,-0.03487207740545273,-0.14240336418151855,0.3295794129371643,0.0792432427406311,0.41712138056755066
410,-1.2471480775603554,0.28806222648726937,0.6887386940627931,-0.9090169072151184,-0.28409484028816223,-0.30492356419563293,-0.0029464615508913994,0.015276310965418816,0.050244010984897614,0.3115742802619934,0.03497985005378723,0.03774222731590271
411,-1.2246172498565946,0.2856384494599488,0.6751367882813046,-0.9025617837905884,-0.28177008032798767,-0.325558066368103,-0.21961134672164917,0.11828240007162094,0.009672767482697964,0.06853151321411133,0.09478887915611267,0.22776445746421814
412,-1.2510455345523745,0.2651531666476206,0.6382510625965885,-0.9161375164985657,-0.2620570957660675,-0.3033449053764343,-0.5640157461166382,-0.7394222617149353,0.3133508861064911,-0.4411928057670593,0.07545739412307739,0.23715224862098694
413,-1.2738699046633868,0.19057196363249676,0.6156783631262712,-0.9389286041259766,-0.18942053616046906,-0.28728562593460083,-0.589463472366333,-0.46351978182792664,1.0450962781906128,-0.17725181579589844,-0.18722742795944214,-0.20654982328414917
414,-1.2973461915977722,0.15628731946182584,0.5758090486050821,-0.951109766960144,-0.15565185248851776,-0.2667635679244995,-0.3404177129268646,-0.015843259170651436,-0.0856672152876854,0.10160720348358154,-0.005496218800544739,-0.408605694770813
415,-1.2607447710241606,0.16959621914108516,0.5377863241509301,-0.9386549592018127,-0.16878437995910645,-0.3007303476333618,-0.15844684839248657,0.18614158034324646,-0.35008299350738525,0.16901689767837524,0.16039204597473145,0.1252238154411316
416,-1.2673459342252429,0.17392875692730891,0.5028784646401617,-0.9399130344390869,-0.17305316030979156,-0.2943063974380493,-0.39411038160324097,-0.22697508335113525,-0.008009843528270721,0.3451101779937744,0.15410172939300537,0.035410523414611816
417,-1.2667774119059205,0.17033303998765423,0.47006554918474813,-0.9403331875801086,-0.16951057314872742,-0.2950250506401062,-0.16928577423095703,0.09593035280704498,-0.06451501697301865,0.03260308504104614,0.04110787808895111,0.0815698504447937
418,-1.28739553443125,0.18244672426314582,0.4752910922615672,-0.9441748261451721,-0.181436225771904,-0.27498140931129456,0.4063205122947693,-0.6096780300140381,-0.121715247631073,-0.3724297285079956,0.02622382342815399,0.21303075551986694
419,-1.3694266644675535,0.21671300874769642,0.5221769441264058,-0.9568756818771362,-0.21502068638801575,-0.19533313810825348,0.39330941438674927,-0.9636098146438599,-0.1908114105463028,-0.07303154468536377,-0.09987494349479675,-0.3073066473007202
420,-1.3964209908618157,0.21912737531428378,0.52912805713312,-0.9612853527069092,-0.2173779457807541,-0.16934435069561005,0.05082922801375389,0.055811963975429535,0.0868871808052063,0.1583220362663269,-0.05021542310714722,-0.36878734827041626
421,-1.3447375267970385,0.22480051174689528,0.5324547889988497,-0.9500361680984497,-0.22291189432144165,-0.21849873661994934,0.13357944786548615,0.30332696437835693,-0.14368462562561035,0.08829605579376221,0.09916312992572784,0.27199602127075195
422,-1.3709653576330434,0.20201729338092175,0.5256110537209912,-0.960168719291687,-0.20064601302146912,-0.19446687400341034,-0.3441869616508484,-0.3117786943912506,0.38915571570396423,0.43085652589797974,0.057365983724594116,0.09340792894363403
423,-1.3717729951537947,0.1681780036921349,0.4892791813019373,-0.9664300680160522,-0.16738633811473846,-0.19492259621620178,-0.45682770013809204,0.22362534701824188,0.12008786201477051,0.15222108364105225,-0.02255508303642273,0.0871497392654419
424,-1.365164735679012,0.1396948832807079,0.4474192735617253,-0.9693959951400757,-0.13924098014831543,-0.2021964192390442,-0.44619351625442505,-0.40572163462638855,0.3716602623462677,-0.22231543064117432,0.05319666862487793,0.3273947834968567
425,-1.4248424113914067,0.07776635498390032,0.42629002619891243,-0.986377477645874,-0.07768799364566803,-0.14499671757221222,0.0039457897655665874,-0.8439419269561768,0.7610364556312561,-0.4766809940338135,-0.10203002393245697,-0.18398278951644897
426,-1.5002884203643394,0.048344609968664416,0.4401837192196429,-0.9963498711585999,-0.048325780779123306,-0.07036718726158142,-0.07629580795764923,-0.27067792415618896,-0.09948169440031052,0.15627723932266235,-0.1310718059539795,-0.3730684518814087
427,-1.4747577912233685,0.07231919747171808,0.41842014102492886,-0.9927899241447449,-0.0722561776638031,-0.09564031660556793,-0.0512191578745842,0.404182106256485,-0.305724173784256,0.2610548138618469,0.093999944627285,0.04240240156650543
428,-1.481743812780057,0.0800718722512825,0.4141832662229179,-0.9928461313247681,-0.0799863338470459,-0.08864990621805191,0.050045814365148544,-0.21575166285037994,-0.022285034880042076,0.38464605808258057,0.0507352352142334,-0.022632479667663574
429,-1.4523629421139266,0.08849732926230218,0.41518203527979375,-0.9891090393066406,-0.08838185667991638,-0.11769432574510574,0.025323297828435898,0.8262258172035217,-0.26526981592178345,-0.1138877272605896,0.029772847890853882,0.07211631536483765
430,-1.4428392033592141,0.1027433023743575,0.42769892194683573,-0.9865943193435669,-0.10256263613700867,-0.12693530321121216,0.21527376770973206,-0.4976721405982971,-0.03636903315782547,-0.3904656171798706,0.06374427676200867,0.33006030321121216
431,-1.486857861445503,0.11805979780543345,0.455202762127691,-0.9895427227020264,-0.1177857369184494,-0.0832563266158104,-0.04400768131017685,-0.5855687260627747,0.13641825318336487,-0.22617071866989136,-0.06098622828722,-0.1370500922203064
432,-1.5374415234222045,0.10585936727435724,0.4863111748905811,-0.993848979473114,-0.10566176474094391,-0.03316193446516991,0.35274624824523926,0.051886849105358124,0.11902782320976257,0.03108048439025879,-0.1751304566860199,-0.3825637698173523
433,-1.4909738161281627,0.12353884977199497,0.5352420217653701,-0.9892189502716064,-0.12322485446929932,-0.07913007587194443,0.5272852182388306,0.1650257557630539,-0.09165434539318085,0.3698037266731262,0.16289770603179932,0.33515727519989014
434,-1.5161475245846399,0.1094106641083837,0.5655049511192229,-0.9925366640090942,-0.10919250547885895,-0.054294999688863754,0.11204445362091064,-0.1844644844532013,0.2082957625389099,0.5316754579544067,-0.03437742590904236,0.03648799657821655
435,-1.488398516611417,0.09944483079802885,0.529309530065453,-0.9916833639144897,-0.09928100556135178,-0.08189796656370163,-0.5640610456466675,0.6867725253105164,-0.13308680057525635,-0.0734868049621582,0.05409973859786987,0.14426064491271973
436,-1.5000820497509892,0.08105457776356939,0.5038138883705734,-0.9942258596420288,-0.08096585422754288,-0.07042338699102402,-0.16175849735736847,-0.7034664750099182,0.3758786618709564,-0.3661867380142212,0.009631015360355377,0.3514444828033447
437,-1.5559402131094173,0.033728389812448134,0.49147631154671095,-0.9993208646774292,-0.03372199460864067,-0.014847117476165295,0.028639940544962883,-0.6973222494125366,0.33825886249542236,-0.5237960815429688,-0.14425651729106903,-0.3398281931877136
438,-1.5950341243519381,0.030379907299359576,0.46322324100850654,-0.9992449879646301,-0.03037523478269577,0.024224242195487022,-0.5071754455566406,0.18221122026443481,-0.15336096286773682,0.17891722917556763,-0.014912858605384827,-0.33590030670166016
439,-1.5489823477777518,0.0615171625650783,0.41704007556588235,-0.9978709816932678,-0.06147836893796921,-0.021770989522337914,-0.40675845742225647,0.1493106484413147,-0.303871214389801,0.4971690773963928,0.09433053433895111,0.18870216608047485
440,-1.5337864992123968,0.08284718770348758,0.3738774520591321,-0.9958876967430115,-0.08275245130062103,-0.03687446936964989,-0.48429787158966064,0.2883182168006897,-0.19890831410884857,0.274955689907074,0.05708716809749603,-0.08725577592849731
441,-1.4766884523419714,0.10718070038595645,0.3383211460908339,-0.9898621439933777,-0.10697560757398605,-0.093429796397686,0.03372512012720108,0.1743132472038269,-0.3083159923553467,-0.28920578956604004,0.05973439663648605,0.3269350528717041
442,-1.5160595995320707,0.12921641810741163,0.3554146526967681,-0.9901779294013977,-0.12885713577270508,-0.05425329506397247,0.39098265767097473,-0.539739191532135,-0.24596014618873596,-0.3204604387283325,0.08939790725708008,0.14525669813156128
443,-1.562981057392174,0.12233101340748806,0.39306000507533273,-0.9924964904785156,-0.12202613055706024,-0.007756785489618778,0.36879977583885193,-0.32033583521842957,0.30945390462875366,-0.13872897624969482,-0.14159995317459106,-0.3569282293319702
444,-1.5526623729179017,0.11768261021595855,0.41295398314101595,-0.9929201602935791,-0.11741116642951965,-0.018007541075348854,0.21423554420471191,0.9665579795837402,-0.19031047821044922,0.009018182754516602,0.013163134455680847,-0.3712441325187683
445,-1.511784160646615,0.13892465662356182,0.44801162678755174,-0.9886415004730225,-0.13847820460796356,-0.05840969458222389,0.21954572200775146,-0.21306884288787842,0.1528416872024536,0.5444429516792297,0.09070295095443726,0.2464742660522461
446,-1.5098373112458932,0.1181196166695765,0.460226350081755,-0.9911876320838928,-0.11784513294696808,-0.060496777296066284,-0.10075880587100983,0.28143665194511414,0.2213975191116333,0.17539161443710327,-0.08209078013896942,-0.007755763828754425
447,-1.4858808641848948,0.10712461617738328,0.44168043232363324,-0.9906851053237915,-0.10691984742879868,-0.08432726562023163,-0.07748059183359146,-0.2688497006893158,0.22994662821292877,-0.12972193956375122,0.11151275783777237,0.32962751388549805
448,-1.547857270365941,0.06242429322614135,0.4304246576523241,-0.9977896809577942,-0.06238375976681709,-0.022892368957400322,-0.2791902720928192,-0.6095474362373352,0.5758337378501892,-0.3222786784172058,0.03305637836456299,0.3716472387313843
449,-1.6307633954477954,0.0084419871745873,0.3981363529561035,-0.9981670379638672,-0.008441886864602566,0.059929005801677704,-0.34233248233795166,-1.1037039756774902,0.4380318224430084,-0.1678180694580078,-0.19837574660778046,-0.41257476806640625
450,-1.6216746476839858,0.02546017405244337,0.35319882006087905,-0.9983823299407959,-0.02545742318034172,0.05083989351987839,-0.3581303060054779,0.9090469479560852,-0.5951441526412964,0.0063931941986083984,-0.11844822764396667,-0.20428228378295898
451,-1.5965473618954105,0.06590059930602389,0.33063497958880994,-0.9974985122680664,-0.06585291028022766,0.025692299008369446,-0.08672574162483215,-0.24755854904651642,-0.1050802618265152,0.5278329849243164,0.11783960461616516,0.06599771976470947
452,-1.5839350820778726,0.07144141209827913,0.33392705004876916,-0.9973631501197815,-0.07138065993785858,0.01310486439615488,0.07252327352762222,0.7803343534469604,-0.11018307507038116,0.28851598501205444,-0.011276207864284515,-0.17637395858764648
453,-1.5455948139689037,0.08782659056154514,0.35417604965792426,-0.9958294034004211,-0.08771372586488724,-0.02510172128677368,0.22597424685955048,-0.34132659435272217,-0.005692070350050926,-0.25088995695114136,0.08965159952640533,0.3897410035133362
454,-1.5782032111158562,0.09805479622945287,0.3827205500259204,-0.9951692223548889,-0.09789774566888809,0.007371237967163324,0.41940921545028687,-0.42928773164749146,0.0018702894449234009,-0.40847158432006836,-0.0744350254535675,0.16836416721343994
455,-1.6649901903647142,0.06258637348150561,0.43066559991082265,-0.9936178922653198,-0.0625455230474472,0.09387049823999405,0.5840672850608826,-0.41796818375587463,0.5062158107757568,-0.07144564390182495,-0.339035302400589,-0.47823941707611084
456,-1.5901215778699997,0.07601400523495526,0.5092053200619902,-0.9969261288642883,-0.0759408250451088,0.019268246367573738,1.2423018217086792,1.129574179649353,-0.481663316488266,0.17545396089553833,0.1541878879070282,0.0049932003021240234
457,-1.5960359089382257,0.0680904116257733,0.5881515296236504,-0.9973651170730591,-0.06803780794143677,0.025178425014019012,0.6177036762237549,-0.1865658015012741,0.29157111048698425,0.5404101014137268,0.043043896555900574,0.03362894058227539
458,-1.5821294859510033,0.04496555948062699,0.5992869444792567,-0.998924970626831,-0.04495040699839592,0.011321460828185081,-0.3002159893512726,0.6198031306266785,-0.10722648352384567,-0.052985310554504395,-0.07420548796653748,-0.028258681297302246
459,-1.5689082753642836,0.037870957090557274,0.5739073753110566,-0.9992812275886536,-0.0378619059920311,-0.0018866965547204018,-0.04237870126962662,-0.4501950740814209,0.23961101472377777,-0.33949440717697144,0.014241307973861694,0.3097633123397827
460,-1.608964273117009,0.0022838579704063697,0.562516183680455,-0.9992690682411194,-0.002283856039866805,0.03815858066082001,-0.04957921430468559,-0.5721888542175293,0.3819549083709717,-0.4773239493370056,-0.15898630023002625,-0.15386605262756348
461,-1.6691125156688482,-0.0013605756433169238,0.5317516970759315,-0.9951699376106262,0.0013605752028524876,0.09815778583288193,-0.51214998960495,-0.11451626569032669,-0.22515004873275757,0.03847438097000122,-0.020281463861465454,-0.44032084941864014
462,-1.6273006633129248,0.039362245428491587,0.49262663355598274,-0.9976308345794678,-0.03935208171606064,0.05643053725361824,-0.10321037471294403,0.5374441742897034,-0.4397762417793274,0.2955281138420105,0.010039955377578735,-0.0077245235443115234
463,-1.606205976082676,0.05324908713882256,0.49828469229881184,-0.9979566931724548,-0.053223926573991776,0.03535207360982895,0.14288347959518433,0.2760445773601532,-0.011639745905995369,0.33995193243026733,0.004304260015487671,-0.07195794582366943
464,-1.5745024725738892,0.060305881846635614,0.5242188398514186,-0.998175323009491,-0.06026933342218399,0.0036994002293795347,0.26653021574020386,0.11389625817537308,-0.09194473922252655,0.09891384840011597,0.035138100385665894,0.3027580976486206
465,-1.5918813193950752,0.06466529970155942,0.534219335681265,-0.9976880550384521,-0.064620241522789,0.021039362996816635,0.0484626367688179,-0.284271240234375,-0.1842716932296753,-0.4665605425834656,-0.0016792044043540955,0.26512396335601807
466,-1.6264106744092326,0.07861629143243457,0.5467218869084014,-0.9953701496124268,-0.07853533327579498,0.05541400611400604,0.2072090208530426,-0.7701879739761353,0.180953711271286,-0.22589761018753052,0.005201585590839386,-0.24857497215270996
467,-1.6854143472404826,0.05229017115260885,0.5847558636480468,-0.9920806884765625,-0.05226634442806244,0.11421090364456177,0.4921320080757141,0.3364584743976593,-0.088140569627285,-0.110443115234375,-0.25786852836608887,-0.45063674449920654
468,-1.61632203268341,0.06423020651545558,0.66321680408587,-0.9969038963317871,-0.06418605148792267,0.04541613534092903,0.4690766930580139,0.15542760491371155,0.15538671612739563,0.5206924080848694,0.12364957481622696,0.42194533348083496
469,-1.6280105069242108,0.03692834725037559,0.678346989546903,-0.9976831674575806,-0.03691995516419411,0.05714398995041847,-0.06203990429639816,0.04621613398194313,0.29809921979904175,0.2359033226966858,-0.08402121067047119,-0.0535275936126709
470,-1.6009539857666462,0.03403821975859057,0.6520078902509719,-0.9989663362503052,-0.03403164818882942,0.03013562224805355,-0.2568129599094391,-0.1650213748216629,0.11347569525241852,-0.013149142265319824,0.07980802655220032,0.3965306282043457
471,-1.6356872933680016,0.005327452803033079,0.6384283966347886,-0.9978810548782349,-0.005327427759766579,0.064844511449337,-0.2514733076095581,-0.1884482055902481,0.2962818443775177,-0.4268777370452881,-0.07458284497261047,0.2817741632461548
472,-1.682450596790016,-0.02605816542932975,0.6320141060292198,-0.9934358596801758,0.026055216789245605,0.11138460785150528,0.02322728931903839,-0.598054051399231,0.19970469176769257,-0.25828850269317627,-0.1383293867111206,-0.15810702741146088
473,-1.7014835850546923,-0.008109458765655258,0.5805584033197583,-0.991439938545227,0.00810937024652958,0.1303112804889679,-0.7712065577507019,0.6084528565406799,-0.27809053659439087,0.044037044048309326,-0.015448869206011295,-0.348618745803833
474,-1.6608004679051613,0.02709678212486641,0.5185093729658464,-0.9955867528915405,-0.027093466371297836,0.08984968066215515,-0.5572348237037659,-0.11947838962078094,-0.07251068949699402,0.4383357763290405,0.07811886072158813,0.14208388328552246
475,-1.6679571819973764,0.033916460426356626,0.47405460056031273,-0.9947112202644348,-0.033909957855939865,0.09695227444171906,-0.4519641399383545,0.32943838834762573,0.01297786459326744,0.1528838872909546,0.019887134432792664,-0.18783366680145264
476,-1.6323722115084007,0.050354264148295955,0.4558318619405755,-0.9968395829200745,-0.05033298581838608,0.061458975076675415,0.038991786539554596,-0.3189433217048645,-0.032880961894989014,-0.165117084980011,0.09308812767267227,0.3913456201553345
477,-1.6805528683054796,0.04958792558312149,0.4783470593365993,-0.9927610158920288,-0.049567606300115585,0.10940167307853699,0.4158087372779846,-0.4106448292732239,-0.01747669279575348,-0.3144441843032837,0.030051618814468384,0.23140335083007812
478,-1.738859366738359,0.027063213595787818,0.5132559223647298,-0.9855495691299438,-0.02705991081893444,0.16721172630786896,0.3844975233078003,-0.8946044445037842,0.2703571021556854,-0.07308989763259888,-0.020318638533353806,-0.4070035219192505
479,-1.7059355214320988,0.008653653275406731,0.585299001891347,-0.9908455014228821,-0.008653544820845127,0.13472320139408112,0.7935878038406372,1.020918607711792,-0.196524977684021,-0.033110737800598145,-0.16470155119895935,-0.06778287887573242
480,-1.6808316603766675,0.015182431872590147,0.6606024200157754,-0.9938374757766724,-0.015181848779320717,0.10980074107646942,0.5576708316802979,-0.11451046168804169,-0.010532207787036896,0.4162161946296692,0.04119810834527016,0.08407733589410782
481,-1.663989308025698,0.005938152163680042,0.7001006302057924,-0.9956431984901428,-0.005938117392361164,0.09305650740861893,0.09060278534889221,0.44059741497039795,-0.013489954173564911,0.20485639572143555,-0.02967590093612671,0.021109819412231445
482,-1.6433565095309313,0.0038091228512728737,0.695952189013874,-0.997361421585083,-0.0038091137539595366,0.07249599695205688,-0.13085398077964783,-0.3801933228969574,0.19594410061836243,-0.23315304517745972,0.05626881122589111,0.3894028663635254
483,-1.7084101989689342,-0.016837902473644605,0.6863976585894047,-0.9904056191444397,0.0168371070176363,0.13716048002243042,-0.1850312352180481,-0.5790249705314636,0.29522448778152466,-0.5080378651618958,-0.054266899824142456,0.08859322965145111
484,-1.7794825046426384,-0.032917794929934685,0.662001356291029,-0.9777739644050598,0.03291185200214386,0.2070625275373459,-0.699880838394165,-0.008756427094340324,-0.18772612512111664,-0.24393624067306519,-0.11004501581192017,-0.29832541942596436
485,-1.7470429419802476,0.02377026842683501,0.6013746113091969,-0.9842305779457092,-0.023768030107021332,0.17528603971004486,-0.5650428533554077,0.21808075904846191,-0.4601166546344757,0.3201833963394165,-0.04817714914679527,0.07250140607357025
486,-1.7353777252803766,0.0515481489677684,0.5725580248766384,-0.9851766228675842,-0.05152532458305359,0.16362176835536957,-0.05784124881029129,0.10651582479476929,-0.010826187208294868,0.580177903175354,0.052776552736759186,-0.14918698370456696
487,-1.6752932514631023,0.05256518645652049,0.567355788892261,-0.9931714534759521,-0.05254098400473595,0.1041627749800682,0.25555384159088135,0.9407743215560913,-0.3600168824195862,-0.3782731890678406,0.12404368072748184,0.09374366700649261
