,attitude.roll,attitude.pitch,attitude.yaw,gravity.x,gravity.y,gravity.z,rotationRate.x,rotationRate.y,rotationRate.z,userAcceleration.x,userAcceleration.y,userAcceleration.z
0,2.4174259641127964,1.0844376726407448,-0.31536131263318284,0.30966416001319885,-0.8840407133102417,0.3501138985157013,0.29906225204467773,-0.2866436243057251,0.07321115583181381,-0.04237601161003113,0.304054319858551,-0.11090201139450073
1,0.14383629857746444,0.7898093640635104,2.14983662302484,0.10090919584035873,-0.7102190852165222,-0.696711003780365,0.4198930263519287,0.2793375551700592,0.3490179181098938,0.01920798420906067,-0.14245730638504028,-0.1579185128211975
2,0.16508343037289777,0.7962597400653898,2.1493641086496296,0.11493316292762756,-0.7147452235221863,-0.6898765563964844,-0.571912407875061,-0.21267485618591309,-0.7485347390174866,1.1280179023742676e-05,-0.15990382432937622,-0.18574905395507812
3,0.20361255029279487,0.6695312974268662,2.1504544502466896,0.1585542857646942,-0.6206185221672058,-0.7679147720336914,-1.7995586395263672,0.2730884552001953,-0.0466909259557724,-0.018478617072105408,0.048948049545288086,-0.06916707754135132
4,0.3464045973324641,0.5081743291860018,2.210800529212113,0.29661473631858826,-0.48658308386802673,-0.8217399716377258,-1.6815478801727295,1.7616544961929321,0.17532294988632202,-0.08189302682876587,0.008525252342224121,0.32218247652053833
5,0.389510575401391,0.43762229079857723,2.2202332377900458,0.3439501225948334,-0.42378702759742737,-0.83791583776474,0.3313179612159729,-0.26684901118278503,0.1479879766702652,0.015958935022354126,0.022969156503677368,-0.002996087074279785
6,0.40302502725140626,0.49337005934774975,2.2397768261889226,0.345429390668869,-0.4735967218875885,-0.8101757168769836,0.47087687253952026,0.8815006017684937,0.5838267207145691,0.0952749252319336,-0.036916583776474,-0.15141791105270386
7,0.5449278023604586,0.5162829343733272,2.3152838579178616,0.4507938623428345,-0.49365097284317017,-0.7437026500701904,-0.40840667486190796,2.325063705444336,0.1654973179101944,0.07641255855560303,-0.05297991633415222,-0.41984105110168457
8,0.8557171119488747,0.46199647997075893,2.3497287130099274,0.6758860349655151,-0.4457361698150635,-0.5869388580322266,-0.831549882888794,3.5340516567230225,-1.0974527597427368,-0.1492137312889099,-0.07400867342948914,0.018579542636871338
9,1.042180974855835,0.41552760205383144,2.3165472427089995,0.7900248169898987,-0.4036726951599121,-0.4614207148551941,-0.002067926339805126,0.7598868012428284,-0.569205105304718,-0.16117966175079346,0.03978109359741211,0.1994273066520691
10,1.1179204408288645,0.44330308136334257,2.300340200898997,0.812276303768158,-0.42892560362815857,-0.395259290933609,-0.26920026540756226,1.0712820291519165,0.42400062084198,-0.20560216903686523,0.023911595344543457,0.2578844726085663
11,1.171691119318907,0.5393655532797513,2.3425101466292264,0.7906009554862976,-0.5135917067527771,-0.33342716097831726,-0.4033435881137848,0.8743973970413208,1.1176890134811401,-0.029385745525360107,-0.18164443969726562,0.18022897839546204
12,1.22373624378535,0.601241956881693,2.4347738321695247,0.7754664421081543,-0.5656670928001404,-0.280486524105072,-0.9560073018074036,1.011703610420227,0.05036526545882225,0.1288914680480957,-0.2120887041091919,0.1413874626159668
13,1.2190040217662488,0.5471068209636663,2.5136616623677934,0.8017293214797974,-0.520218551158905,-0.29428353905677795,-1.0746121406555176,0.4242671728134155,-0.5138524770736694,0.06983745098114014,0.038635849952697754,0.046251893043518066
14,1.1744629953635988,0.49038212580193064,2.5696589595419392,0.8137708902359009,-0.4709630012512207,-0.34054502844810486,-0.4191712439060211,0.26986873149871826,0.1411277800798416,-0.12053358554840088,0.019638538360595703,-0.22210752964019775
15,1.1791696336225084,0.4769092294392933,2.5799420812041935,0.821155309677124,-0.4590354859828949,-0.3391024172306061,-0.19956481456756592,-0.03516441211104393,0.06438496708869934,-0.18805289268493652,0.0608726441860199,0.21738308668136597
16,1.1380840121185356,0.5197696518310679,2.578779449989578,0.7879377007484436,-0.49668022990226746,-0.36395466327667236,0.15640348196029663,-0.5874123573303223,0.43837493658065796,-0.1067243218421936,-0.13021183013916016,0.07010090351104736
17,1.0880714177318345,0.569940955945015,2.56912257736096,0.7457280158996582,-0.5395823121070862,-0.39082056283950806,0.277940571308136,-0.37343829870224,-0.09811034053564072,0.0832362174987793,-0.2919911742210388,-0.10089391469955444
18,1.0924806182936806,0.565377604914272,2.537160261279353,0.7496221661567688,-0.5357347130775452,-0.3886580467224121,0.08312452584505081,-0.32691413164138794,-0.4883425533771515,0.0833551287651062,-0.07595962285995483,-0.00019693374633789062
19,1.1043314056691647,0.5286768115494502,2.5150713232039035,0.7712247371673584,-0.5043912529945374,-0.38833218812942505,-0.025118064135313034,0.21406422555446625,-0.07361920177936554,-0.1244351863861084,0.05392122268676758,0.07255154848098755
20,1.0904070176225147,0.5297816258533282,2.528348119590349,0.7652481198310852,-0.5053449273109436,-0.39877521991729736,-0.005679541267454624,-0.1170169860124588,0.3598191738128662,-0.261128306388855,0.12646925449371338,0.16758936643600464
21,1.0804524910994275,0.5429058145932779,2.552738356341704,0.7553246021270752,-0.5166261792182922,-0.40321487188339233,-0.053424172103405,-0.5875111222267151,0.3788745105266571,-0.0853874683380127,-0.02466416358947754,-0.034559786319732666
22,1.0409060479589676,0.5669148383005173,2.6183924307998137,0.7278779149055481,-0.5370320677757263,-0.426368772983551,-0.24596142768859863,-0.18472610414028168,0.7588586807250977,0.19765925407409668,-0.22317606210708618,-0.07674401998519897
23,0.9574220841321205,0.563653076135881,2.6941209249682507,0.6912178993225098,-0.5342777371406555,-0.4865850806236267,-0.5040684342384338,-0.7152529954910278,0.04832146689295769,0.11891680955886841,0.04418081045150757,-0.025667846202850342
24,0.9202518454528552,0.4964261034456693,2.7206587537640585,0.6996989846229553,-0.4762860834598541,-0.5325156450271606,-0.4615761935710907,0.29420363903045654,-0.2689904272556305,-0.05016285181045532,0.08062568306922913,0.03926008939743042
25,0.925705491987164,0.45918884518603564,2.73271106343773,0.7162739038467407,-0.4432211220264435,-0.5389867424964905,-0.16228044033050537,0.002569223288446665,-0.15253791213035583,-0.144603431224823,0.06739714741706848,0.08712828159332275
26,0.9241854300592993,0.46211246999126027,2.7196091195907526,0.71441650390625,-0.4458400011062622,-0.5392918586730957,0.3064534664154053,-0.5887739658355713,0.16683848202228546,-0.0473175048828125,-0.06641280651092529,0.0818638801574707
27,0.8185949005465377,0.48843617174975656,2.6896459514797426,0.6448041796684265,-0.4692454934120178,-0.6033541560173035,0.5634455680847168,-1.686082124710083,0.06377911567687988,0.11578536033630371,-0.16375011205673218,-0.09980130195617676
28,0.6194958693925461,0.4660485600358818,2.597066017944078,0.5187016725540161,-0.4493597745895386,-0.7273406386375427,0.8805913329124451,-2.8936691284179688,-0.16213887929916382,0.1970422863960266,0.20651617646217346,-0.4435883164405823
29,0.38092746645975323,0.4913303984071892,2.510294190816534,0.3278020918369293,-0.4717993140220642,-0.8185055255889893,-0.061140771955251694,0.31408822536468506,-0.584354817867279,-0.035352110862731934,0.1330541968345642,0.09989285469055176
30,0.2595214022260578,0.5571679699431503,2.428210777720121,0.21780608594417572,-0.5287846326828003,-0.8203336596488953,1.0969083309173584,-2.9100983142852783,-0.8141488432884216,-0.09965729713439941,0.06256759166717529,0.40070170164108276
31,0.066178321823827,0.5725160479996951,2.361657440900487,0.055584970861673355,-0.541748583316803,-0.8387006521224976,0.2773452699184418,-2.643378496170044,-0.5349417328834534,-0.12609583139419556,-0.012465894222259521,0.08090341091156006
32,-0.0012683514808805795,0.5367340907824683,2.316312099671276,-0.0010899996850639582,-0.5113320350646973,-0.8593825101852417,-0.6611940264701843,0.28641101717948914,-0.6716951131820679,-0.03386788070201874,-0.20924901962280273,-0.3000565767288208
33,-0.041028770765511986,0.5943101709982334,2.336064890761214,-0.0339842326939106,-0.5599373579025269,-0.8278377056121826,-0.2861729562282562,-0.03462851047515869,0.30651912093162537,-0.0407533198595047,-0.11588966846466064,-0.08997845649719238
34,-0.02768836781829221,0.5586929405213137,2.360907702327255,-0.023475315421819687,-0.5300783514976501,-0.8476236462593079,-0.8100082278251648,-0.8407500386238098,-0.06482848525047302,0.020270973443984985,-0.033581316471099854,0.11378276348114014
35,-0.03284421880835648,0.5122621985927884,2.3619560974382408,-0.028623118996620178,-0.4901503026485443,-0.8711678385734558,-0.014131078496575356,-0.3738001883029938,0.02587532252073288,0.06353522837162018,0.0030440092086791992,0.2104012370109558
36,-0.03334247537507654,0.5312179362878073,2.384701599891504,-0.028742246329784393,-0.5065838098526001,-0.8617115020751953,-0.057069577276706696,1.5883780717849731,0.38228142261505127,0.018427297472953796,0.0626446008682251,0.1440601348876953
37,-0.05386313012341175,0.6120311336967283,2.3978278425136534,-0.0440647266805172,-0.574531078338623,-0.8172957301139832,0.2920071482658386,0.29785919189453125,0.09837260097265244,-0.011507779359817505,-0.04912614822387695,0.06703633069992065
38,-0.0051659234749091894,0.5955523121451174,2.408654034818912,-0.004276532679796219,-0.5609660744667053,-0.8278277516365051,-0.48000407218933105,-0.48455438017845154,0.029534218832850456,-0.10218404233455658,-0.05344432592391968,-0.24166077375411987
39,0.005664557957352952,0.5450619303803309,2.39085275168024,0.004843710456043482,-0.5184710621833801,-0.8550814986228943,-0.241106316447258,-0.20445701479911804,-0.08507873117923737,-0.038947105407714844,0.0038683414459228516,-0.1527157425880432
40,0.005554512423960553,0.5244344659769912,2.3802069735663145,0.004808001685887575,-0.5007235407829285,-0.8655939102172852,-0.3042979836463928,0.10013213753700256,0.10597370564937592,0.024717748165130615,0.09931057691574097,0.17922306060791016
41,-0.00034352300190033415,0.5335444985526401,2.396174576944846,-0.0002957766701001674,-0.5085883736610413,-0.8610097169876099,0.36844635009765625,0.20141616463661194,0.12719100713729858,-0.03598962724208832,0.09798967838287354,0.22523707151412964
42,0.021876631682889808,0.560647323120581,2.4228428463186344,0.01852608472108841,-0.5317345261573792,-0.8467084169387817,-0.09659106284379959,0.5496065616607666,-0.06553515791893005,-0.100160613656044,-0.14610660076141357,0.08761423826217651
43,0.038547865644125066,0.5781284363261482,2.4565659796011907,0.03227533772587776,-0.5464574694633484,-0.836864709854126,0.034177184104919434,0.22538794577121735,0.6553824543952942,0.09365545213222504,-0.2580011487007141,-0.13174796104431152
44,0.010707889872943346,0.5797638536629672,2.476860618939617,0.00895796436816454,-0.5478264093399048,-0.8365440964698792,0.24480843544006348,-0.2392045557498932,0.21159400045871735,0.21621598303318024,0.059423089027404785,-0.09340280294418335
45,-0.07561381029382423,0.5400404402424713,2.4998272600575127,-0.06479126960039139,-0.5141707062721252,-0.8552371263504028,0.35750457644462585,-0.5817524790763855,0.6151697039604187,0.1338830590248108,0.22657305002212524,-0.006518185138702393
46,-0.15131917959197239,0.578732960509368,2.545760392351531,-0.12619493901729584,-0.5469636917114258,-0.8275902271270752,-0.33038443326950073,0.21431970596313477,-0.07013501226902008,-0.04845716059207916,0.07664203643798828,0.2561638355255127
47,-0.1507895971330612,0.6112144677786652,2.5443374740366145,-0.12302195280790329,-0.5738624930381775,-0.8096588850021362,0.34670427441596985,0.522484540939331,0.04656438156962395,0.06215463578701019,-0.01143413782119751,0.15528571605682373
48,-0.1492565262156335,0.6463985629836871,2.5503417154595667,-0.11870335787534714,-0.6023154258728027,-0.789383053779602,0.3966905474662781,0.05071151256561279,-0.03374652564525604,-0.016489505767822266,-0.17493677139282227,-0.09756457805633545
49,-0.1545128314218845,0.6452739238610816,2.515712846456695,-0.12295511364936829,-0.6014173030853271,-0.7894170880317688,0.01600729301571846,0.0779084637761116,0.004092064686119556,-0.028000086545944214,0.04160284996032715,-0.2286950945854187
50,-0.19578057876096658,0.646434330595608,2.483683108563008,-0.15528278052806854,-0.6023439764976501,-0.7829872369766235,0.5752758979797363,-0.5573120713233948,-0.22266337275505066,0.0011232346296310425,0.045947492122650146,-0.09108197689056396
51,-0.26368237016142276,0.6920326620540896,2.504773794854246,-0.20067793130874634,-0.6381035447120667,-0.7433386445045471,0.05327284708619118,-0.21484442055225372,-0.15334461629390717,0.013345777988433838,0.18189626932144165,0.33730220794677734
52,-0.24166144858382219,0.6481863073595171,2.4940883709348465,-0.19077804684638977,-0.6037415862083435,-0.7740154266357422,-0.2553624212741852,0.13994041085243225,-0.34312689304351807,-0.07609817385673523,0.08378303050994873,0.1580486297607422
53,-0.24065936613367359,0.6431638084293478,2.500068143295372,-0.19072264432907104,-0.5997301340103149,-0.777141273021698,0.52796471118927,-0.29011523723602295,0.34132981300354004,-0.02503661811351776,-0.18673831224441528,-0.20158791542053223
54,-0.3140778716183887,0.6474007035904059,2.5610169466746764,-0.24642693996429443,-0.6031150817871094,-0.7586342096328735,-0.44203895330429077,-0.09981807321310043,0.31646186113357544,-0.11111700534820557,-0.20566171407699585,-0.2972128987312317
55,-0.30546829679107046,0.6382596857075344,2.591828128849124,-0.24153433740139008,-0.5957986116409302,-0.765953779220581,-0.5058841109275818,0.15084679424762726,0.27801254391670227,0.035891637206077576,0.10754793882369995,0.032906293869018555
56,-0.3462941826310773,0.6297154830020493,2.6275454889800587,-0.2743130028247833,-0.5889148116111755,-0.7602182030677795,0.6011351943016052,-0.6864442229270935,0.07307810336351395,0.09811973571777344,0.1615619659423828,0.29000335931777954
57,-0.511150854691068,0.6538886217942033,2.694771483163801,-0.3882751762866974,-0.6082774996757507,-0.6922722458839417,-0.4790263772010803,-0.8698473572731018,0.3737952709197998,0.07920843362808228,0.15362662076950073,0.46790701150894165
58,-1.0033422151255003,0.723983647270953,2.90256028049731,-0.631756603717804,-0.6623743772506714,-0.40267065167427063,2.405665874481201,-5.748795032501221,1.862388014793396,0.5257538557052612,0.49376481771469116,0.5765751004219055
59,-1.9243122125573957,0.43594738284200285,-2.981815607415274,-0.8504152894020081,-0.42226937413215637,0.3138185441493988,4.877018928527832,-8.042279243469238,4.722021102905273,-0.3682277202606201,0.980786919593811,-0.017401397228240967
60,-2.0784882716495066,-0.04769422616847659,-3.0952784633831896,-0.8728751540184021,0.047676146030426025,0.4856087565422058,-1.5536476373672485,2.152381420135498,5.982872486114502,-0.5294990539550781,1.2065352201461792,-0.13104024529457092
61,-2.015922947314745,-0.5532227952875599,2.842471495338377,-0.7679269909858704,0.5254320502281189,0.36634618043899536,-0.9032871127128601,0.39933153986930847,5.07298469543457,-1.0861685276031494,0.29727619886398315,-0.29955849051475525
62,-1.9937222605952591,-0.8231788161509699,2.571196235857678,-0.6199895143508911,0.7333107590675354,0.27904894948005676,-0.30265012383461,1.6446634531021118,1.2516602277755737,-0.5394495725631714,-0.6070749163627625,-0.23482897877693176
63,-1.875850461032346,-0.8867742667611935,2.5901058338461143,-0.6027405261993408,0.775037407875061,0.18979258835315704,-0.969268798828125,1.929915189743042,0.3313594162464142,-0.44604188203811646,-0.549954891204834,0.2685967981815338
64,-1.7987811831167473,-0.8225799072368207,2.449566115592884,-0.6627281308174133,0.7329034805297852,0.15376535058021545,-0.7556104063987732,1.4192510843276978,-1.0033142566680908,-0.6484290361404419,-0.42557626962661743,0.0036748498678207397
65,-1.752531025746533,-0.6476884887546087,2.498558031210344,-0.784347414970398,0.6033446192741394,0.14413343369960785,0.6888059973716736,-1.0327008962631226,-2.705894947052002,-0.967636227607727,0.2948792576789856,-0.09815871715545654
66,-1.7298568174535756,-0.36853319813417557,2.5681779096054616,-0.921081006526947,0.36024749279022217,0.14775578677654266,0.03590995445847511,0.3732450008392334,-2.907834053039551,-0.05264347791671753,0.20005524158477783,-0.1297656148672104
67,-1.6549131374847652,-0.09491919721311123,2.583043949468735,-0.9919787645339966,0.09477672725915909,0.08363945037126541,-0.028927337378263474,0.9702209830284119,-2.1178998947143555,0.4771014451980591,0.2057603895664215,-0.16124558448791504
68,-1.5428873522642457,0.12430479553091005,2.562116332213882,-0.9918975830078125,-0.1239849254488945,-0.027690034359693527,-1.79450523853302,3.1778604984283447,-2.5460493564605713,-0.005660891532897949,0.5241771936416626,0.8072615265846252
69,-1.4051920177729347,0.2207897657654419,2.4568493487786682,-0.9623759388923645,-0.21900027990341187,-0.16084669530391693,0.16448447108268738,0.011199683882296085,-0.2762354612350464,-0.09165555238723755,0.449148565530777,0.10681526362895966
70,-1.4292424984507914,0.19113485663288535,2.4372888458826956,-0.9719695448875427,-0.18997320532798767,-0.13851238787174225,-0.07618415355682373,-1.3383162021636963,1.5594810247421265,-0.22044390439987183,0.5315259099006653,0.12900613248348236
71,-1.5735165993677542,0.0289757738573361,2.4444640623040192,-0.9995765089988708,-0.0289717186242342,0.0027191273402422667,-0.7909776568412781,-1.7041507959365845,1.8569648265838623,0.06723403930664062,0.07686907052993774,0.20756220817565918
72,-1.7815749900633213,-0.18569247332800085,2.397968725790356,-0.9610574245452881,0.18462714552879333,0.20562459528446198,-0.03274233639240265,-1.8079521656036377,1.2645400762557983,0.012571096420288086,-0.15391120314598083,0.01565837860107422
73,-1.959217160790174,-0.36007773172683655,2.4887481977714057,-0.8661548495292664,0.3523469865322113,0.35443931818008423,1.5357928276062012,-2.303380250930786,1.3715276718139648,-0.08585613965988159,-0.3452059030532837,0.02126261591911316
74,-2.144256880435765,-0.49123319599498294,2.5609608269800215,-0.7406965494155884,0.4717136323451996,0.4783875346183777,0.7016485333442688,-2.313278913497925,0.4027453660964966,-0.41260844469070435,-0.6715885400772095,-0.004998892545700073
75,-2.2216368191407594,-0.5038349273240538,2.6941347223696748,-0.6967146396636963,0.48278746008872986,0.5305701494216919,0.021400943398475647,-0.9486479163169861,-1.462680697441101,-0.8505417108535767,-0.276275098323822,0.6169517040252686
76,-2.2333277940826832,-0.2944590169711265,2.78521093790368,-0.7545027732849121,0.2902221977710724,0.5886397957801819,-0.8824958205223083,-0.49425405263900757,-2.7835469245910645,-0.25576651096343994,0.0218048095703125,-0.028703272342681885
77,-2.265316692790219,-0.05820588888084829,2.9514434208474625,-0.7670595049858093,0.05817302688956261,0.6389330625534058,0.32194411754608154,-0.6381713151931763,-2.7046899795532227,0.1387178897857666,0.2375117838382721,-0.28264039754867554
78,-2.3765217201846016,0.1078493066747256,3.1322139240025137,-0.6885643005371094,-0.1076403558254242,0.7171423435211182,-0.14854463934898376,-1.328994631767273,-1.723954677581787,0.3715933561325073,0.7097216248512268,-0.3392736315727234
79,-2.426325252472149,0.1199262856607809,3.1321581287168603,-0.6511088013648987,-0.11963902413845062,0.7494956254959106,0.6557153463363647,-0.838813066482544,0.9276268482208252,0.29005545377731323,0.8455148935317993,-0.4740287661552429
80,-2.353937960408498,-0.16735985433584302,2.9852635856198435,-0.698798656463623,0.16657967865467072,0.6956520676612854,0.2903788983821869,2.3090758323669434,4.197714328765869,-0.49742937088012695,0.677246630191803,0.14715194702148438
81,-2.1915521986879463,-0.5491626459988534,2.775054393655621,-0.6938326358795166,0.521973192691803,0.49612554907798767,0.5338747501373291,1.5577936172485352,3.662611246109009,-0.6095426678657532,-0.05421489477157593,0.3198229670524597
82,-2.1786656168408336,-0.7886205830284337,2.647249023560135,-0.5785672068595886,0.7093816995620728,0.40253931283950806,0.8356420397758484,0.24527886509895325,0.9762279391288757,-0.41313207149505615,-0.8249059319496155,0.15756505727767944
83,-2.1193776469620804,-0.8551621920657111,2.6319291696437386,-0.5598240494728088,0.7546773552894592,0.34213924407958984,-0.4187304675579071,0.37769562005996704,0.2581435441970825,-0.24873918294906616,-0.8692556023597717,0.35981082916259766
84,-2.1344180481171566,-0.7625538310052111,2.583986302166085,-0.6112333536148071,0.6907703280448914,0.3863033652305603,-1.2087504863739014,-0.7659364938735962,-1.346466302871704,-0.42082536220550537,-0.43007391691207886,0.17154276371002197
85,-2.212489871496551,-0.6155025512088326,2.770052061423046,-0.6540713906288147,0.5773689150810242,0.4887087345123291,-2.664095640182495,-1.4339182376861572,-3.1696653366088867,-1.1428343057632446,0.1585167646408081,0.7169188261032104
86,-2.2694424673999127,-0.22388019897862077,2.8635635824733945,-0.7466039061546326,0.2220146507024765,0.627129852771759,-0.4065283238887787,-1.2757675647735596,-3.3770687580108643,0.18840700387954712,0.4627845287322998,-0.4627774953842163
87,-2.3135086311159636,0.00481268180331315,2.965470421655504,-0.7366284132003784,-0.004812663421034813,0.6762805581092834,-0.22080665826797485,-0.3503609597682953,-1.7122347354888916,0.6709546446800232,0.6000885367393494,-0.7302355766296387
88,-2.375563588793304,-0.012262076526550428,3.0483129984378037,-0.6932268142700195,0.01226176880300045,0.7206150889396667,1.4483517408370972,-0.5137723684310913,0.7973734736442566,0.1653338074684143,0.6747652292251587,-0.16728562116622925
89,-2.366176262217086,-0.18932140342586487,2.989497001062391,-0.6875057816505432,0.1881924718618393,0.7013696432113647,1.405564785003662,0.8764215707778931,2.663801670074463,-0.5710849165916443,0.7510470151901245,0.20755058526992798
90,-2.2202290274778393,-0.47391195954352927,2.8900121541739083,-0.708652675151825,0.45637059211730957,0.5380868315696716,0.8402103781700134,1.1490217447280884,2.1068899631500244,-0.5046346783638,-0.12710118293762207,0.32464516162872314
91,-2.1526402257210435,-0.5857189377413399,2.7920306145269786,-0.696193516254425,0.5527986288070679,0.45796096324920654,0.040482111275196075,0.709179699420929,0.1623632162809372,-0.07315462827682495,-0.7773774862289429,-0.029417872428894043
92,-2.1281270597471296,-0.5764038740162283,2.8410776117817713,-0.7115485072135925,0.545012354850769,0.4434635639190674,-0.4915351867675781,-0.13324984908103943,-0.53523850440979,0.11016923189163208,-0.3763875961303711,0.25476327538490295
93,-2.130898676489079,-0.5200745106297651,2.8417960178737514,-0.7351856827735901,0.496944785118103,0.46102917194366455,0.11843777447938919,-0.434326171875,-0.3044305741786957,0.06494337320327759,-0.03518331050872803,-0.07510387897491455
94,-2.1795202300526086,-0.52041052020853,2.936413048490305,-0.711772620677948,0.49723634123802185,0.49612054228782654,0.004234858322888613,-0.6796398162841797,-0.9535843729972839,-0.6392557621002197,0.28918635845184326,0.12057864665985107
95,-2.1729676055378935,-0.470294012892369,3.053122440154538,-0.7346384525299072,0.45314839482307434,0.5049383640289307,0.5988267064094543,-0.5115267634391785,-1.2019433975219727,0.3786662220954895,-0.18087056279182434,-0.08553528785705566
96,-2.211177981194318,-0.4498967764176519,-3.1212396522800314,-0.7220755219459534,0.4348725974559784,0.538045346736908,0.34447383880615234,-0.7473068833351135,-0.5634682774543762,0.40605074167251587,-0.1777772605419159,-0.16113805770874023
97,-2.26558710415202,-0.39849198871657526,-3.102422213641838,-0.7079980969429016,0.38802891969680786,0.5900614261627197,-0.6596475839614868,-0.29975712299346924,-0.1415102332830429,0.1781061291694641,0.3730490207672119,-0.25436800718307495
98,-2.3102164209310363,-0.40253113039617494,3.071107113369241,-0.6798041462898254,0.39174842834472656,0.6199995279312134,-1.6668609380722046,1.0222448110580444,1.5919175148010254,-0.5290275812149048,0.7811336517333984,-0.06004786491394043
99,-2.207741260679724,-0.48854794404854185,2.999614142503069,-0.7098705172538757,0.46934419870376587,0.5251664519309998,0.04896986111998558,1.3720648288726807,0.5378524661064148,-0.209639310836792,0.26120081543922424,0.43911272287368774
100,-2.111236886762794,-0.5645139505302066,2.9239077900734003,-0.7244427800178528,0.5350052118301392,0.43468642234802246,1.2793102264404297,0.5060749053955078,0.24879641830921173,0.12094241380691528,-0.5466018915176392,0.008199989795684814
101,-2.0461232411999624,-0.5877292413104002,3.0170559782132447,-0.7399467825889587,0.5544727444648743,0.38083991408348083,0.1513494849205017,-0.5608906149864197,-0.1468009054660797,0.49797284603118896,-0.4785143733024597,0.32866328954696655
102,-2.1270332756396977,-0.5470769558708012,2.975639365895209,-0.7252990007400513,0.5201930403709412,0.45093265175819397,-0.3173767328262329,-0.43858471512794495,-0.18382692337036133,-0.05117487907409668,-0.1522122025489807,-0.005116701126098633
103,-2.2023799823672734,-0.5215029762982678,3.0150577343761302,-0.6998078227043152,0.49818387627601624,0.5119395852088928,-0.18967902660369873,-0.5632297992706299,-0.7971384525299072,-0.8042205572128296,0.36743199825286865,0.31046348810195923
104,-2.237492795104988,-0.38043527384686326,3.0209167741948377,-0.7296814918518066,0.37132465839385986,0.5741798877716064,0.008138242177665234,-0.16765043139457703,-1.4342124462127686,0.04628628492355347,0.14257600903511047,-0.3256906270980835
105,-2.2350198087686723,-0.29678536196173716,3.0805964634204663,-0.7529719471931458,0.29244762659072876,0.5894977450370789,-0.4721335470676422,-0.10349886119365692,-0.7155094742774963,0.3674739599227905,-0.06336745619773865,-0.21588629484176636
106,-2.224380512370017,-0.2095981576971147,3.0347083448357637,-0.7765346169471741,0.20806686580181122,0.5947287678718567,-0.47812578082084656,-0.07682279497385025,-0.03927268460392952,0.4662166237831116,0.09961135685443878,-0.3468191623687744
107,-2.234706809216958,-0.2309137932229282,2.9942710912638724,-0.7666842937469482,0.22886715829372406,0.5998460650444031,-0.22130806744098663,-0.33152276277542114,0.8229081034660339,0.04712545871734619,0.2683863043785095,0.06711560487747192
108,-2.224044401071725,-0.30019132471842835,2.841238060590932,-0.7586011290550232,0.2957029938697815,0.5805894732475281,0.013289758004248142,1.0782313346862793,1.7285665273666382,-0.3236284852027893,0.3099183440208435,-0.2691422700881958
109,-2.15321315331202,-0.44140909726993627,2.82156434512074,-0.7550883889198303,0.4272139370441437,0.4973224997520447,-0.5399330854415894,0.9894174933433533,0.8384166955947876,-0.05516844987869263,-0.27360373735427856,0.2548442482948303
110,-2.1115229540260367,-0.4843190654635534,2.7829208465757653,-0.7587346434593201,0.46560585498809814,0.45555776357650757,0.07468882203102112,0.14962507784366608,0.5747400522232056,0.40047359466552734,-0.5614463090896606,0.08174991607666016
111,-2.1146468999923482,-0.5119139875403468,2.7639396338801734,-0.7460264563560486,0.48984676599502563,0.45110422372817993,0.0775517150759697,-0.22286656498908997,0.03802049160003662,-0.011099517345428467,-0.35460805892944336,0.14488881826400757
112,-2.1542085590538087,-0.5261262423765436,2.789019569317456,-0.7217172980308533,0.5021872520446777,0.4763740599155426,0.8351424932479858,-0.6039121150970459,-0.29186519980430603,-0.7840200662612915,0.17286163568496704,0.225835382938385
113,-2.1723825576041333,-0.45416755836931294,2.8894183861807794,-0.7408626079559326,0.4387144148349762,0.5085784792900085,0.31640589237213135,-0.37843966484069824,-1.4054616689682007,-0.4340488314628601,0.16487744450569153,-0.051440417766571045
114,-2.147192821509872,-0.35107722724663737,3.0100952012915814,-0.7872898578643799,0.34390953183174133,0.511762261390686,0.6770077347755432,-0.5277160406112671,-1.5360814332962036,0.22247064113616943,-0.1466439664363861,-0.23716521263122559
115,-2.164505140622176,-0.25094179596864497,3.115915166608369,-0.8029102683067322,0.24831636250019073,0.5419166684150696,-0.3049527406692505,-0.29569998383522034,-1.290195107460022,0.31717735528945923,-0.11008705198764801,-0.2519693374633789
116,-2.182709796727925,-0.1364888574507589,-3.133086017013835,-0.810937762260437,0.13606546819210052,0.5690924525260925,-0.04620771482586861,-0.2535015046596527,-0.7590235471725464,0.32975178956985474,0.3523378372192383,-0.2825934886932373
117,-2.2219571199445736,-0.2341017980112868,-3.1068253891769357,-0.7736854553222656,0.23196937143802643,0.5895774364471436,1.1141726970672607,0.6370983719825745,1.9689568281173706,-0.5368615984916687,0.7306008338928223,0.13936549425125122
118,-2.1416543521247764,-0.4700636992350092,-2.9909750111822357,-0.7501747608184814,0.4529430866241455,0.481747031211853,2.3035731315612793,-0.24002644419670105,0.7048612833023071,-0.2741629481315613,-0.034104615449905396,0.4835391938686371
119,-2.0880049916294507,-0.5899932204984047,-2.871475811222009,-0.7222590446472168,0.5563554167747498,0.41086524724960327,1.8024414777755737,-0.7164795398712158,0.02296658605337143,0.13781696557998657,-0.5075578689575195,0.09957164525985718
120,-2.0709800997242547,-0.6590353208284135,-2.645147107456857,-0.6937324404716492,0.6123544573783875,0.379153311252594,1.4038004875183105,-1.348374605178833,-0.3322144150733948,0.10068440437316895,-0.4182016849517822,0.1904725730419159
121,-2.115677737556744,-0.6515366850744644,-2.5427497132480905,-0.6800057888031006,0.6064090132713318,0.41214099526405334,-0.03728587180376053,-0.8901663422584534,-0.7920370101928711,-0.27754420042037964,-0.1456241011619568,-0.08911240100860596
122,-2.14873489407214,-0.5619287204661665,-2.450934790534794,-0.708793580532074,0.5328193306922913,0.46229368448257446,-0.3914734423160553,-0.49882516264915466,-1.0971046686172485,-0.3073960542678833,0.3959527015686035,-0.03500181436538696
123,-2.1463104040146295,-0.48711556587675237,-2.415893451531963,-0.7413361072540283,0.4680789113044739,0.4809608459472656,-0.6277737021446228,0.6116883754730225,-0.6316301226615906,0.13577574491500854,-0.0556337833404541,-0.00429147481918335
124,-2.1168814827347333,-0.3826360932180248,-2.480297173430192,-0.7927654385566711,0.37336722016334534,0.48178866505622864,-1.8489352464675903,0.593305766582489,-0.09574787318706512,0.3594004511833191,0.16180434823036194,0.060371458530426025
125,-2.1121775510280636,-0.2923488812928036,-2.6712427910289356,-0.8206350207328796,0.2882022261619568,0.4934549629688263,-1.2753851413726807,0.45484277606010437,0.5941187739372253,0.5495778918266296,0.1968441605567932,-0.2570810317993164
126,-2.1330275542710484,-0.3138892071039,-2.9225034950099467,-0.8047289848327637,0.3087601363658905,0.5070292949676514,-2.463860273361206,0.6930952668190002,2.13090443611145,0.04192674160003662,0.3657546639442444,-0.1457621455192566
127,-2.1650652825255383,-0.38047084025171085,2.9998915201162633,-0.7693077325820923,0.37135767936706543,0.5198644399642944,-0.8330307006835938,1.141579508781433,2.1711792945861816,-0.35235053300857544,0.4195968806743622,-0.5797094702720642
128,-2.1288876506861056,-0.5532700042364523,2.849268844970609,-0.721714973449707,0.5254721641540527,0.45056217908859253,-2.1454038619995117,1.64336359500885,2.6218950748443604,-0.04716002941131592,-0.3094230890274048,0.16497734189033508
129,-2.197051534018765,-0.6824524638647955,2.5304171246215796,-0.6287599205970764,0.6306980848312378,0.45484161376953125,-0.237599715590477,0.6004090905189514,1.7405319213867188,-0.3031248450279236,-0.8739995360374451,-0.29929354786872864
130,-2.1780900367873812,-0.6953543865990258,2.4667342147720204,-0.6305358409881592,0.6406576037406921,0.43815821409225464,-0.23751932382583618,0.23290809988975525,-0.45489180088043213,-0.1786988377571106,-0.8615895509719849,-0.020891249179840088
131,-2.159620959561188,-0.6139096135011538,2.578502010038653,-0.6797466278076172,0.5760675668716431,0.4539719820022583,0.9036708474159241,-1.4208402633666992,-1.6068333387374878,-0.8646716475486755,0.40479785203933716,0.4359816014766693
132,-2.1705976707849897,-0.4878981464736386,2.709745800802928,-0.7291345000267029,0.4687703251838684,0.4986151456832886,-0.05311540886759758,-0.476837694644928,-1.828171730041504,-0.37238216400146484,0.23772680759429932,0.17194753885269165
133,-2.1561033009560537,-0.3312756636367901,2.8125976657856144,-0.7882212996482849,0.325249582529068,0.5224173069000244,0.6278143525123596,-0.4139144718647003,-1.7114266157150269,0.47567564249038696,-0.09308716654777527,-0.29544275999069214
134,-2.181130886897845,-0.22776475499125828,2.86125602583126,-0.7982928156852722,0.22580057382583618,0.558339536190033,-0.6165236830711365,-0.5252941846847534,-0.5684757232666016,0.6469407677650452,0.0939321219921112,-0.3078358769416809
135,-2.2363706045947724,-0.19669507731099065,2.800595118566445,-0.7713958024978638,0.19542920589447021,0.6056041121482849,-0.4554833173751831,-0.4287201762199402,0.8106961250305176,-0.26290613412857056,0.7840325236320496,-0.13558757305145264
136,-2.2244039755953264,-0.3509183352933904,2.8373777773329625,-0.7455133199691772,0.34376031160354614,0.5709980726242065,2.110234022140503,0.1624673306941986,0.6249153017997742,-0.5048071146011353,0.48212164640426636,0.42031967639923096
137,-2.1489294402212913,-0.45812361054952505,2.7920787333983728,-0.7511260509490967,0.44226598739624023,0.4901123642921448,-0.13106229901313782,1.0708595514297485,1.6107125282287598,0.238278329372406,-0.22032701969146729,-0.08326733112335205
138,-2.1238679700843845,-0.5659899954906614,2.68284336573716,-0.7182217240333557,0.5362516641616821,0.44338661432266235,-0.5547934770584106,0.6544028520584106,1.08536696434021,0.1468258500099182,-0.5680967569351196,0.002612471580505371
139,-2.134047092397198,-0.5834527943114595,2.585892048481641,-0.7056450247764587,0.5509088039398193,0.4456058740615845,-0.7300255298614502,0.35591089725494385,0.12516286969184875,-0.09428173303604126,-0.42087340354919434,-0.016803383827209473
140,-2.1602923399027967,-0.5693787500637769,2.5790464272308418,-0.700084388256073,0.53910893201828,0.4682345986366272,0.7403793931007385,-1.1273497343063354,-0.5349864959716797,-0.9982799291610718,0.46337825059890747,0.3512082099914551
141,-2.1472517872606875,-0.4419761851967262,2.6684316503164123,-0.7578365206718445,0.4277265965938568,0.49268025159835815,-0.7100425958633423,-0.1401553899049759,-1.9952820539474487,-0.355948269367218,0.2905351221561432,0.19025731086730957
142,-2.1343818512292008,-0.264899196306509,2.743725000603917,-0.8158584833145142,0.2618119716644287,0.5155864357948303,-0.07653404772281647,-0.30114707350730896,-1.4000260829925537,0.5659958720207214,0.0025770366191864014,-0.20609241724014282
143,-2.147757055201391,-0.16229483493622163,2.7540223180387176,-0.8271107077598572,0.1615833044052124,0.5383111238479614,-1.2352453470230103,-0.031622033566236496,-0.40215978026390076,0.6515278220176697,0.1385723352432251,-0.2527581453323364
144,-2.16940888309045,-0.16306795386629908,2.675505105926685,-0.8151589632034302,0.16234621405601501,0.556021511554718,0.2178698629140854,0.024728665128350258,0.9223555326461792,0.14041513204574585,0.3208996653556824,-0.22362399101257324
145,-2.1940566870414058,-0.29467414480439125,2.5662619360891004,-0.7769808769226074,0.2904280424118042,0.5585269331932068,-0.5408555865287781,0.8612484335899353,2.136481761932373,-0.5817837715148926,0.6153336763381958,0.02826511859893799
146,-2.0963620801590523,-0.4976410101325125,2.565975248535514,-0.7601202130317688,0.4773539900779724,0.4408514201641083,1.0181611776351929,1.0169880390167236,1.0300061702728271,-0.3186912536621094,-0.03352171182632446,0.4652153551578522
147,-1.9947987976602604,-0.6133940118023621,2.5634802837383246,-0.7452914714813232,0.5756460428237915,0.3364110589027405,0.42231038212776184,0.5796045660972595,0.558623194694519,0.11594271659851074,-0.624397873878479,0.2951350212097168
148,-1.9851144945006478,-0.6377156949094166,2.5691276148719204,-0.7354783415794373,0.5953616499900818,0.32344481348991394,-0.09226955473423004,-0.36055511236190796,-0.05309806019067764,0.0747573971748352,-0.5134371519088745,0.25542786717414856
149,-2.0334090250584147,-0.5996368875071977,2.5442068896978784,-0.7387678623199463,0.564342737197876,0.3684287369251251,-0.07556259632110596,-0.2032567709684372,-0.573496401309967,-0.1473405957221985,-0.3558923602104187,0.009546786546707153
150,-2.0946579504612775,-0.5847305826727842,2.6189278294045235,-0.7220353484153748,0.5519747734069824,0.41712039709091187,1.506856918334961,-1.2602580785751343,-0.8086962699890137,-1.083308458328247,0.18009626865386963,0.2644593417644501
151,-2.1154138885562292,-0.38462623431164167,2.7087127615447426,-0.7928343415260315,0.375212699174881,0.4802386462688446,-0.2834848165512085,-0.3781442940235138,-2.6775577068328857,-0.1256226897239685,0.23527619242668152,-0.155104398727417
152,-2.0125570544772917,-0.10675471702489464,2.737564970693587,-0.8988540768623352,0.10655205696821213,0.4250980019569397,-1.2318445444107056,1.8448680639266968,-1.4877283573150635,0.9000288844108582,0.3632355332374573,-0.3302951455116272
153,-1.9932385595258928,-0.07362375248570092,2.7443776464609018,-0.9096196889877319,0.07355725765228271,0.4088786244392395,0.2769373655319214,-0.5820333361625671,0.012494751252233982,0.4755680561065674,0.17792284488677979,-0.2586100697517395
154,-2.0465081908561995,-0.11758310329259343,2.749790846745466,-0.8828285932540894,0.11731234192848206,0.4548090994358063,-0.12572698295116425,-0.08216001838445663,0.6485390663146973,-0.004164695739746094,0.34367090463638306,-0.014303147792816162
155,-2.0461366885587093,-0.213249381729749,2.6518807656846684,-0.8689968585968018,0.21163679659366608,0.4472748935222626,-0.10940644890069962,0.5915977954864502,1.7530803680419922,-0.42009633779525757,0.4324062168598175,0.05415952205657959
156,-1.9955062128699996,-0.35925277966108043,2.5600788894528868,-0.8529899716377258,0.3515748083591461,0.38575077056884766,-0.2832401394844055,1.1138243675231934,1.5678075551986694,-0.03305751085281372,-0.15737617015838623,0.06803041696548462
157,-1.9364592118563937,-0.47654568222570337,2.489567553752471,-0.8298377394676208,0.45871245861053467,0.3177298605442047,0.09538285434246063,0.5865256786346436,0.7650529146194458,0.01404184103012085,-0.5251187086105347,0.13713455200195312
158,-1.946184337436864,-0.4844907386864366,2.4180384966730535,-0.8232917189598083,0.4657577574253082,0.32443851232528687,-1.0753331184387207,0.11566103994846344,0.10222430527210236,0.1944313645362854,-0.4998917281627655,0.06797179579734802
159,-2.012957635183783,-0.4587576879243801,2.2912250408205637,-0.8103762269020081,0.4428345859050751,0.3836511969566345,-0.46604862809181213,-0.7271324396133423,0.3976808190345764,-0.3527250289916992,-0.0568481981754303,-0.20571833848953247
160,-2.038843933963404,-0.4682626096877989,2.3682550560183757,-0.7963817119598389,0.4513365924358368,0.4025806486606598,0.9987435936927795,-0.16453829407691956,-1.380150556564331,-0.8045703172683716,0.07759398221969604,0.10465198755264282
161,-1.9920698770290282,-0.3371649463127402,2.536370291591076,-0.8611878156661987,0.3308129906654358,0.38589906692504883,0.9217817187309265,-0.28143808245658875,-2.1840105056762695,0.06126117706298828,-0.014727205038070679,-0.031757891178131104
162,-1.9913927552282618,-0.19978068788006959,2.6822095575722673,-0.8946892023086548,0.1984543800354004,0.4001838266849518,0.22026488184928894,-0.1795293688774109,-1.3737151622772217,0.4150902032852173,0.028169140219688416,-0.03998485207557678
163,-1.9961126081142695,-0.09095369224253144,2.6777697739390143,-0.9071430563926697,0.09082834422588348,0.4109033942222595,-0.7054142355918884,-0.21187996864318848,-0.26446425914764404,0.42411088943481445,0.3040080666542053,-0.20872452855110168
164,-2.020777616757128,-0.08907493073183602,2.5907964129981464,-0.8968854546546936,0.08895718306303024,0.4332243502140045,-0.844464898109436,-0.04930455610156059,1.3690868616104126,-0.04079771041870117,0.7597824335098267,-0.06759321689605713
165,-1.9813253535246789,-0.28325131545443605,2.509485424937365,-0.8803727626800537,0.27947887778282166,0.38319131731987,1.153403401374817,0.728411853313446,2.351539373397827,-0.35874778032302856,0.38601794838905334,0.04568743705749512
166,-1.8872641574766709,-0.5189942435774672,2.4947900532171525,-0.8251982927322388,0.4960070848464966,0.27023088932037354,0.19501599669456482,0.7320110201835632,1.8843684196472168,-0.13139045238494873,-0.36493411660194397,0.16733011603355408
167,-1.8475650681808569,-0.6185542217013035,2.4426835803076443,-0.7837122678756714,0.5798578858375549,0.2226206213235855,-0.21251681447029114,0.2930794954299927,0.3892453908920288,-0.04067432880401611,-0.5883417725563049,0.14696252346038818
168,-1.8654215263148235,-0.587048781519337,2.380134813664462,-0.7967039942741394,0.5539063215255737,0.24176529049873352,-0.4749589264392853,-0.0390181764960289,-0.5650978684425354,-0.07915043830871582,-0.392819344997406,0.09012864530086517
169,-1.9008151543934073,-0.520177457472994,2.3215548243502937,-0.8209048509597778,0.49703413248062134,0.28119760751724243,-0.003876989707350731,-0.3717121183872223,-0.19603568315505981,-0.2695338726043701,-0.11791428923606873,-0.0705806314945221
170,-1.9877013827998005,-0.42541514803822067,2.3904036660616788,-0.8328485488891602,0.4126989543437958,0.36883988976478577,-0.9175422191619873,-0.12121903151273727,-2.5883777141571045,-0.8014593720436096,0.24892213940620422,0.21589207649230957
171,-1.9616839797002585,-0.15418157652566258,2.422186045088848,-0.9136037230491638,0.15357144176959991,0.37648963928222656,-0.19106265902519226,-0.1620228886604309,-2.2815639972686768,0.26986581087112427,0.19806736707687378,-0.2719058394432068
172,-1.9841559979830472,-0.008659130528156561,2.5074245732647964,-0.9157421588897705,0.00865902192890644,0.40167325735092163,0.08564735949039459,-0.2203252613544464,-0.8961370587348938,0.576920747756958,0.3448565900325775,-0.1053934097290039
173,-2.0083759121281592,0.031456652604459436,2.4694927609345463,-0.9053319692611694,-0.03145146369934082,0.42353877425193787,-0.5761359930038452,-0.4597248435020447,0.7155017256736755,0.4855014681816101,0.5016663074493408,-0.1620946228504181
174,-2.0392906419647505,-0.0900705469662603,2.342147564312156,-0.8886324763298035,0.08994881063699722,0.4497130513191223,-0.3555986285209656,-0.3735469877719879,2.5531585216522217,-0.044656217098236084,0.6191728711128235,-0.039617717266082764
175,-2.067201173585824,-0.37424667629619845,2.1375593227323355,-0.8184384107589722,0.36557143926620483,0.44330185651779175,0.6309012770652771,0.013306362554430962,3.5737297534942627,-0.7006047368049622,0.34451162815093994,-0.08833658695220947
176,-2.038756551928228,-0.6048390804528635,2.0369756397579386,-0.7341569066047668,0.5686297416687012,0.37104469537734985,-0.04359053820371628,0.9674203991889954,1.3512452840805054,-0.37549281120300293,-0.5370745062828064,-0.003979295492172241
177,-2.0044253279038045,-0.6826972219744659,2.019153714923237,-0.7040641903877258,0.630888044834137,0.3259962797164917,0.9342852830886841,-0.31319957971572876,0.23812179267406464,-0.10559755563735962,-0.9283429980278015,-0.005775392055511475
178,-2.005185295196656,-0.6296284122536732,2.118507893380077,-0.7331822514533997,0.5888444781303406,0.3401554226875305,-0.8683925867080688,-0.350419819355011,-1.52317476272583,-0.2789941430091858,-0.5355151295661926,0.22321432828903198
179,-2.047620769076001,-0.41149741086550706,2.116434896676131,-0.8142910003662109,0.39998218417167664,0.4206474721431732,-0.6980366110801697,-0.70870041847229,-2.298644542694092,-0.4571017026901245,0.18551281094551086,0.002387136220932007
180,-2.0817356448373507,-0.2001165217076947,2.1957356520227056,-0.8548776507377625,0.1987835317850113,0.4792380630970001,-0.3159218430519104,-0.22246196866035461,-2.7519686222076416,-0.518657386302948,0.5366137623786926,0.10033649206161499
181,-2.065266286658522,-0.003978206196498243,2.328007226310605,-0.88021320104599,0.00397819560021162,0.47456130385398865,0.8329533934593201,-0.02557622641324997,-1.2185240983963013,0.6248118281364441,0.4151044487953186,0.0362723171710968
182,-2.0459668169976437,0.0394454332648343,2.2853964876746913,-0.8885230422019958,-0.03943520411849022,0.4571341872215271,-0.7101330757141113,0.1557009518146515,0.7584154009819031,0.7483863830566406,0.300741970539093,-0.2459525167942047
183,-2.0857412872643746,-0.06359528374730346,2.1845988822524496,-0.8685604333877563,0.06355242431163788,0.4914913475513458,-0.30833274126052856,-0.6542498469352722,2.0783910751342773,0.20603913068771362,0.2903751730918884,-0.1468258500099182
184,-2.123146155445552,-0.23547169433785034,2.0000278445689625,-0.8278020024299622,0.23330168426036835,0.5102099776268005,-0.4203070402145386,0.03228805214166641,2.762896776199341,-0.3513820171356201,0.40378326177597046,-0.07776069641113281
185,-2.14333185858889,-0.44895180230219955,1.7624434144273182,-0.7572357654571533,0.4340214431285858,0.4880775511264801,1.0741736888885498,0.468980073928833,2.3603150844573975,-0.8622254133224487,-0.0017856955528259277,-0.35523444414138794
186,-2.045499061938057,-0.6015818070402472,1.8700649933864035,-0.7332818508148193,0.5659472942352295,0.3768308162689209,1.0145046710968018,0.6711859703063965,0.012114514596760273,-0.2288457751274109,-0.6089160442352295,0.3028719127178192
187,-1.9633164879010612,-0.6060882902765016,2.0043244787963355,-0.7593766450881958,0.5696568489074707,0.31438493728637695,0.6791598796844482,-0.5087727308273315,-0.8595585227012634,0.13611632585525513,-0.6364598870277405,0.32628580927848816
188,-2.0070446519670564,-0.5175797186937199,2.0542522770842355,-0.7876299023628235,0.4947783052921295,0.36719733476638794,-0.5786619186401367,-0.56427401304245,-1.0695676803588867,-0.0045760273933410645,-0.35455000400543213,-0.026056498289108276
189,-2.0553432390706687,-0.3954927383008454,2.072621273438995,-0.8165790438652039,0.38526293635368347,0.42985039949417114,-0.4053920805454254,-0.43774035573005676,-1.166037678718567,-0.3868512511253357,0.11701065301895142,-0.1627756953239441
190,-2.0557436479706013,-0.3300369973357881,2.1803573397360037,-0.8369525074958801,0.3240780234336853,0.44100314378738403,1.9541150331497192,-0.6174392104148865,-1.7065542936325073,-0.6400371193885803,0.2473483383655548,-0.10111358761787415
191,-2.0434212288647395,-0.20631421106955827,2.419848158067383,-0.8714939951896667,0.20485368371009827,0.4455709159374237,0.6983497738838196,-0.005237700417637825,-2.11616587638855,0.1058383584022522,0.16221179068088531,-0.02776998281478882
192,-2.04543288146434,-0.07788873543540967,2.5748927891542692,-0.8867623805999756,0.07781000435352325,0.45562970638275146,0.3609941005706787,-0.11202678084373474,-1.4368754625320435,0.43334734439849854,0.13128119707107544,-0.07086402177810669
193,-2.0471001149829178,0.03049887092729011,2.6186645761330087,-0.8882825374603271,-0.030494142323732376,0.4582843482494354,-0.5308242440223694,-0.023857934400439262,-0.5893460512161255,0.6135936975479126,0.2715219557285309,-0.21473878622055054
194,-2.0503343402952767,-0.0052619965361423915,2.565186326646875,-0.8871958255767822,0.005261972080916166,0.46136292815208435,0.3842222988605499,-0.28465327620506287,1.5353810787200928,0.104603111743927,0.5180076956748962,-0.22651496529579163
195,-2.013060608006841,-0.22167126589069008,2.4196202518241723,-0.881670355796814,0.21986030042171478,0.4175146520137787,0.15628908574581146,1.2394001483917236,2.86222505569458,-0.6383795142173767,0.5623509883880615,-0.14197155833244324
196,-1.9061475028645067,-0.46153042929827215,2.450056091008124,-0.8454951047897339,0.44531893730163574,0.29466763138771057,0.291151762008667,1.053368091583252,1.6572061777114868,-0.04656422138214111,-0.27570223808288574,0.36876916885375977
197,-1.8753831006308146,-0.6172125063076097,2.4091207036154874,-0.7779583930969238,0.5787642002105713,0.24456608295440674,0.6160515546798706,-0.2526160478591919,0.7371964454650879,-0.2221178412437439,-0.8526138067245483,0.07553277909755707
198,-1.897341887988255,-0.5951250567540034,2.434541815004855,-0.7843195796012878,0.5606123208999634,0.2656252682209015,-0.5241261720657349,-0.2706049084663391,-0.8578792810440063,-0.18154656887054443,-0.5526166558265686,0.10269144177436829
199,-1.9347265235068614,-0.47424339632426504,2.4383369327925792,-0.8313717246055603,0.4566654860973358,0.3166666030883789,-0.3513947129249573,-0.4837363064289093,-1.1625893115997314,-0.3261600136756897,-0.08476302027702332,0.0035085678100585938
200,-1.978698276694216,-0.3735985480802062,2.527063778039004,-0.8546345233917236,0.36496812105178833,0.36932098865509033,0.9392043352127075,-0.9430412650108337,-1.810538649559021,-0.6348826289176941,0.19672313332557678,0.04107937216758728
201,-1.9991861854147723,-0.22250247504068524,2.6834909361166064,-0.8872116804122925,0.22067110240459442,0.4051661789417267,0.8382155895233154,-0.5134170055389404,-2.032590389251709,0.14423078298568726,0.13768154382705688,-0.11520341038703918
202,-2.023859711743003,-0.08467112139377836,2.8001566676733343,-0.8958895802497864,0.08456999063491821,0.4361538589000702,-0.4357515275478363,-0.47322767972946167,-1.4248884916305542,0.3129883408546448,0.16419407725334167,-0.026256948709487915
203,-2.053362023589283,0.07314339783624174,2.7822224679137326,-0.8834389448165894,-0.07307819277048111,0.46281272172927856,-1.1507694721221924,-0.18803609907627106,-1.0155742168426514,0.42569035291671753,0.4723701775074005,-0.16270267963409424
204,-2.051942151628455,0.1138529121214485,2.660795487158921,-0.8807259202003479,-0.11360710114240646,0.4597989022731781,-1.3147376775741577,-0.1546798199415207,1.323962926864624,0.29410189390182495,0.6668755412101746,-0.10854166746139526
205,-2.0382441900985784,-0.04284105058029014,2.341323845510442,-0.8919022679328918,0.042827945202589035,0.4501960277557373,-2.7458689212799072,0.8678574562072754,4.165456771850586,-0.32310950756073,0.7733494639396667,-0.27078312635421753
206,-2.0085430477435793,-0.3449092781669116,2.031124218205372,-0.8523682355880737,0.3381113111972809,0.39893457293510437,-1.9587444067001343,0.7924976348876953,4.222249984741211,-0.36657994985580444,0.18499043583869934,-0.023003876209259033
207,-2.110205881399142,-0.56864396865511,1.5997627233649554,-0.7229885458946228,0.5384899377822876,0.43280068039894104,-0.7408888936042786,0.23968756198883057,2.3202593326568604,-0.679294228553772,-0.6462016701698303,-0.6907961964607239
208,-2.0981854293420072,-0.6494878954540853,1.5228001678298433,-0.6881827712059021,0.6047786474227905,0.40080806612968445,-0.17616188526153564,0.9632014632225037,0.1992846131324768,-0.3194770812988281,-0.9018368124961853,-0.23563173413276672
209,-2.0225665331459037,-0.5860473885609139,1.5445102028237216,-0.7495497465133667,0.5530722737312317,0.3637116849422455,-0.19427448511123657,0.4840039312839508,-1.2499617338180542,-0.4557724595069885,-0.24273914098739624,0.07847282290458679
210,-1.9765332146761985,-0.46441084723820847,1.6367192195077245,-0.8214964866638184,0.4478961229324341,0.3528919816017151,0.8663067817687988,-0.35631248354911804,-2.0951087474823,-0.6414093971252441,0.17348751425743103,0.2698802947998047
211,-1.9451203783619375,-0.2664817823935488,1.8255905762884694,-0.8979024887084961,0.2633390426635742,0.3527374863624573,-0.20085158944129944,0.10557705909013748,-2.004851818084717,0.2752370834350586,0.24595355987548828,0.334442138671875
212,-1.9445353672203822,-0.11419025099045674,1.779539116139462,-0.9249058365821838,0.11394225060939789,0.36272120475769043,-1.1108124256134033,0.002874743426218629,-0.7280674576759338,0.5688875913619995,0.2286023199558258,-0.15007463097572327
213,-1.982766644967034,-0.06719282506503664,1.6979215640846692,-0.9142661094665527,0.06714227795600891,0.3995121121406555,-0.6897611618041992,-0.6112945079803467,0.5484817624092102,0.39810681343078613,0.3041956424713135,-0.3091951906681061
214,-2.0482236991769573,-0.12383800383446741,1.5775534775164703,-0.8813783526420593,0.12352172285318375,0.4559769332408905,0.10594583302736282,-0.38664400577545166,1.1483509540557861,-0.1345367431640625,0.31577885150909424,-0.4262985587120056
215,-2.028912229297965,-0.2560558926935753,1.5033961135412768,-0.8676455616950989,0.2532670199871063,0.42783984541893005,0.6515896320343018,0.8677173256874084,1.7940137386322021,-0.13491785526275635,0.07464435696601868,-0.3449082374572754
216,-1.9592288779626246,-0.49715714918878606,1.6053352522544215,-0.8134642243385315,0.4769287705421448,0.3328889310359955,1.0671253204345703,1.0017101764678955,1.7788692712783813,-0.2247437834739685,-0.2353973686695099,0.47417891025543213
217,-1.9081094329828838,-0.6424930732762205,1.6049797901196579,-0.7554882168769836,0.599193274974823,0.2649622857570648,0.38552868366241455,-0.11963282525539398,0.4575360417366028,-0.27240484952926636,-0.6765706539154053,0.32715508341789246
218,-1.9338289348035524,-0.6133727676692602,1.6026743508261312,-0.7644163966178894,0.5756286978721619,0.2903781533241272,-0.31352025270462036,-0.4757062494754791,-0.6648592948913574,-0.06308311223983765,-0.5460417866706848,0.039059191942214966
219,-1.980635385462181,-0.5021865343755391,1.6194078252519561,-0.803942084312439,0.48134326934814453,0.3492645025253296,-0.4653092324733734,-0.42355334758758545,-1.5029817819595337,-0.13186413049697876,-0.2844744026660919,-0.15941467881202698
220,-2.0417462189548106,-0.33065868359401446,1.6263193795356792,-0.8428635001182556,0.3246661126613617,0.4291536211967468,0.13897830247879028,-0.48723095655441284,-1.562240719795227,-0.6929334998130798,0.6056927442550659,-0.15882903337478638
221,-2.0079589435543554,-0.18332972344322948,1.813461038295192,-0.890774667263031,0.1823045015335083,0.41627582907676697,0.7566988468170166,0.6450441479682922,-1.8747888803482056,0.2201661467552185,0.6121901273727417,0.17828285694122314
222,-1.9766909848765961,-0.11930806031891208,1.8478676689056095,-0.9122182726860046,0.11902521550655365,0.39203402400016785,-0.4525342285633087,0.01101952139288187,-0.10196517407894135,0.5614492893218994,0.26262760162353516,0.012873142957687378
223,-2.005036388443918,-0.1287473105184457,1.7702321613578371,-0.8996816873550415,0.12839192152023315,0.4172390401363373,-1.0885347127914429,-0.20891879498958588,0.8033269643783569,0.428047776222229,0.12710124254226685,-0.13685870170593262
224,-2.0564021525659233,-0.1766767089517863,1.6398934248887163,-0.8706254363059998,0.1757589876651764,0.4594786465167999,-0.744878888130188,-0.17155982553958893,1.117556095123291,0.0005080103874206543,0.1874307543039322,-0.139898419380188
225,-2.0776504137215466,-0.29465341000409695,1.4824819464757664,-0.8365972638130188,0.2904082238674164,0.46450868248939514,0.2635645568370819,0.14311209321022034,2.1310348510742188,-0.34331923723220825,0.146756112575531,-0.24508732557296753
226,-2.002415915953806,-0.5227895384719883,1.49238853696778,-0.786969006061554,0.499299019575119,0.3624643087387085,1.3366466760635376,0.7579996585845947,1.6500166654586792,-0.17203068733215332,-0.3648233115673065,0.221687912940979
227,-1.942301401636175,-0.7051182213772841,1.5858527415509058,-0.7095847725868225,0.6481238603591919,0.2764511704444885,1.5288552045822144,-0.761769711971283,0.1287647783756256,-0.43102502822875977,-1.1040868759155273,0.27602389454841614
228,-1.9284112700888976,-0.6207986545378685,1.6976788969112213,-0.7619531154632568,0.5816850066184998,0.28472840785980225,-0.15753737092018127,-0.7595928311347961,-1.564494013786316,-0.044824957847595215,-0.7028549313545227,0.12419191002845764
229,-1.9907292728360508,-0.4367896186907656,1.7469712408035916,-0.827387809753418,0.42303267121315,0.36942213773727417,-0.402335524559021,-0.4243258237838745,-2.174063205718994,-0.31221485137939453,-0.10990709066390991,-0.19815754890441895
230,-2.0268785712558475,-0.30207564046289254,1.8330867623398017,-0.8571341037750244,0.2975025177001953,0.4204917848110199,1.9812573194503784,-1.6414376497268677,-1.0114638805389404,-1.001798391342163,0.6265850067138672,-0.2619071304798126
231,-2.048872103687035,-0.11445595456778244,2.1091873848378535,-0.8820726275444031,0.1142062172293663,0.45706140995025635,0.31586071848869324,0.8818063139915466,-3.341374397277832,-0.10887902975082397,0.5441190004348755,-0.15650898218154907
232,-1.9910491590516834,0.06923666593428958,2.303714927188287,-0.9107984304428101,-0.06918136030435562,0.40701380372047424,0.6932849287986755,0.5009889006614685,-1.760630488395691,0.6570295095443726,0.3939189016819,-0.13011252880096436
233,-1.9970210638582664,0.1244064185738221,2.4180180752705733,-0.9034959673881531,-0.12408576160669327,0.4102409780025482,0.4520758092403412,-0.1489132046699524,-0.7028695344924927,0.5883410573005676,0.31633126735687256,-0.08197861909866333
234,-2.036935434287217,0.09511526649995082,2.4189731066845805,-0.8892722725868225,-0.0949719175696373,0.44740912318229675,-0.34583988785743713,-0.34003937244415283,1.5550814867019653,-0.04017096757888794,0.6501171588897705,3.9517879486083984e-05
235,-2.0184760351446642,-0.16337965177313282,2.3439132459522938,-0.8894495964050293,0.16265377402305603,0.42711061239242554,2.384812355041504,-0.2516600489616394,3.1708593368530273,-0.8360143899917603,0.6958515048027039,0.11762815713882446
236,-1.9343892820501858,-0.4348177176731051,2.483686164536753,-0.8476552963256836,0.42124509811401367,0.3225416839122772,1.3399243354797363,0.41542649269104004,1.125393033027649,-0.12420755624771118,-0.3757585883140564,0.4639420807361603
237,-1.90654887275336,-0.5290136271253243,2.554067107663058,-0.8151005506515503,0.5046820640563965,0.28444162011146545,0.9177771806716919,-0.5677475929260254,0.04022368788719177,0.014761865139007568,-0.7074256539344788,0.12753042578697205
238,-1.9400887276148413,-0.49735268851192194,2.660790451089058,-0.8195993304252625,0.4771006405353546,0.3172253668308258,0.41950127482414246,-0.7694453597068787,-1.0357859134674072,-0.10238248109817505,-0.4121745228767395,-0.020914942026138306
239,-2.010216066544644,-0.3813419648911705,2.731433163223589,-0.839989185333252,0.37216636538505554,0.3948552906513214,-0.5513627529144287,-0.6627448201179504,-1.8146398067474365,-0.9869457483291626,0.41532447934150696,0.31095534563064575
240,-2.039411026802072,-0.016889195854240122,2.6942531169467,-0.8920676708221436,0.016888393089175224,0.45158639550209045,-3.053246021270752,0.14751297235488892,-3.5666022300720215,0.0022208690643310547,1.2430450916290283,0.26936089992523193
241,-2.1663350685536638,0.18604995114861525,2.6412879025596343,-0.813559889793396,-0.18497847020626068,0.5512741804122925,-0.7818815112113953,-2.0578866004943848,-0.7272529602050781,0.600974440574646,1.0503044128417969,0.569193959236145
242,-2.4119329152228026,0.20798610759160735,2.3699762483116467,-0.6522495746612549,-0.20648983120918274,0.7293369174003601,-2.4306230545043945,-3.600693702697754,2.4508161544799805,-0.07974505424499512,0.7970201969146729,0.17511248588562012
243,-2.726250231522517,0.21364150791222472,2.036740180329452,-0.39432981610298157,-0.21202000975608826,0.8941766619682312,-2.470292568206787,-3.4993767738342285,3.6273460388183594,-0.6234161853790283,0.49122530221939087,0.006626129150390625
244,-2.943031400273317,0.26312082963743066,1.7030205030564056,-0.19046998023986816,-0.2600952386856079,0.9466105699539185,-0.47884878516197205,-1.9547107219696045,2.264749765396118,-1.1912438869476318,0.06035768985748291,-0.5361645221710205
245,-3.0246784662191004,0.21645094475132218,1.565557427576866,-0.11392612010240555,-0.21476474404335022,0.969998300075531,-0.7450792789459229,-0.3212960362434387,0.8389460444450378,-0.722255527973175,-0.12437708675861359,-0.21461206674575806
246,-3.027727938300953,0.262382416999221,1.517801699520701,-0.10973021388053894,-0.2593821585178375,0.9595209360122681,-0.21083678305149078,-0.4713869094848633,0.2355380803346634,-0.09838442504405975,-0.08285725116729736,-0.501284122467041
247,-2.9831967735626623,0.23733899926959762,1.4967954943849744,-0.15331263840198517,-0.23511706292629242,0.9597997069358826,0.6469007134437561,0.6060879230499268,0.19172172248363495,0.09995263814926147,-0.12080946564674377,-0.3422917127609253
248,-2.9231022092673884,0.1818087265973228,1.4898128860953368,-0.2131836712360382,-0.18080878257751465,0.960135817527771,0.5829342007637024,0.3958432674407959,-0.27055278420448303,-0.1685911864042282,-0.31797048449516296,-0.13137000799179077
249,-2.8606136364728765,0.2027172906061024,1.5507529056458915,-0.2716182768344879,-0.2013317197561264,0.9411106705665588,0.10454855114221573,0.41363972425460815,-0.8283941149711609,-0.0017277002334594727,-0.5436481833457947,0.019002914428710938
250,-2.8565927058079845,0.29929116538057104,1.6770601743465332,-0.26865875720977783,-0.2948429584503174,0.9170006513595581,-1.1680629253387451,0.04979058355093002,-1.823042392730713,-0.4604977071285248,-0.32927200198173523,0.19156569242477417
251,-2.856480654693252,0.3799941270570891,1.8871064646335722,-0.2612014412879944,-0.370915025472641,0.8911767601966858,-0.22755329310894012,0.7741464972496033,-2.6700544357299805,-0.5362686514854431,-0.05515614151954651,0.500180721282959
252,-2.885505596099562,0.5477608961654378,2.124353388912306,-0.2162378877401352,-0.5207770466804504,0.8258523344993591,-1.3034629821777344,0.41503387689590454,-2.4032199382781982,-0.19321641325950623,0.4259437322616577,0.18502706289291382
253,-3.002241543896716,0.6941961712978884,2.3429211735334206,-0.10675454139709473,-0.6397678256034851,0.7611179947853088,-1.004291296005249,-0.06429465860128403,-1.6173940896987915,-0.17919516563415527,0.6095707416534424,-0.03502845764160156
254,3.119108749417946,0.7299968855348917,2.505725346218811,0.01675305888056755,-0.6668673157691956,0.7449879050254822,-0.37618201971054077,-0.331072062253952,-0.9157921075820923,-0.14913831651210785,0.5254184007644653,-0.08678489923477173
255,3.0209917100493917,0.7292038120746531,2.5694393742204724,0.089714914560318,-0.6662760972976685,0.7402888536453247,0.3370893597602844,-0.6330325603485107,-0.0014399029314517975,-0.00693599134683609,0.18104654550552368,-0.13213449716567993
256,3.0173838373761224,0.7109963944689646,2.5334324543884477,0.09387271851301193,-0.6525890827178955,0.7518747448921204,0.296862930059433,-0.2680688202381134,0.4459889829158783,0.27307063341140747,-0.015837430953979492,-0.012784719467163086
257,3.0261461458677066,0.6600092306151952,2.447235818926989,0.09099873155355453,-0.6131241321563721,0.784727931022644,0.6100706458091736,-0.3757202625274658,0.29623186588287354,-0.02300558239221573,-0.0002028346061706543,0.01866251230239868
258,3.0352686201051724,0.607965948885542,2.417801974284298,0.08710768073797226,-0.5711990594863892,0.8161765933036804,0.643957793712616,-0.5430362820625305,0.17478081583976746,0.05255604535341263,0.03292989730834961,-0.11041170358657837
259,3.041712114160799,0.5913471976683534,2.4033963979467754,0.08278204500675201,-0.557479977607727,0.8260526061058044,0.20160891115665436,6.383704021573067e-05,0.24585196375846863,0.0633055791258812,0.050689876079559326,-0.32916557788848877
260,3.105290009273863,0.5966134026880255,2.37331684420927,0.03002452477812767,-0.5618441700935364,0.8266983032226562,0.031081700697541237,0.8622573018074036,0.6763821840286255,0.18205738067626953,0.018066585063934326,-0.4982526898384094
261,-2.9519212104943953,0.5537979948703536,2.258263592045569,-0.16035637259483337,-0.5259213447570801,0.8352801203727722,-0.0758829340338707,2.3919334411621094,1.8065088987350464,0.00253470242023468,-0.0665774941444397,-0.3385148048400879
262,-2.6704067933313906,0.4136840495702604,2.1302939532487453,-0.41565123200416565,-0.4019853472709656,0.8158684372901917,0.9075839519500732,2.716752052307129,1.5096452236175537,-0.4301891326904297,0.09828975796699524,-0.24180251359939575
263,-2.4261494898236595,0.22488999081778596,2.177880635958618,-0.639434278011322,-0.22299912571907043,0.7357957363128662,2.1481029987335205,2.8016090393066406,0.40592536330223083,-0.36445677280426025,0.37119245529174805,-0.26410073041915894
264,-2.2082675455029612,0.003311863148012541,2.306986146093331,-0.803598940372467,-0.0033118571154773235,0.5951619148254395,2.811664581298828,1.3509149551391602,1.055049180984497,-0.18538415431976318,0.4517219066619873,-0.18351036310195923
265,-2.090420498677651,-0.27227993768417197,2.5144214719027005,-0.8360286951065063,0.26892808079719543,0.4782610237598419,2.5720276832580566,0.9887686371803284,1.684187889099121,-0.16209441423416138,0.45829057693481445,0.48607921600341797
266,-1.9778667673247,-0.4457492679363335,2.4757925154774085,-0.8285571336746216,0.43113404512405396,0.3572345972061157,-1.933648943901062,1.443548560142517,1.5126947164535522,-0.3806713819503784,0.18054503202438354,0.6643871068954468
267,-1.9361971583705004,-0.48480968712432565,2.2231821011641983,-0.8263521194458008,0.4660399854183197,0.3161470293998718,0.05302700400352478,0.8476235270500183,1.014688491821289,-0.23448461294174194,-0.11150199174880981,-0.0167543888092041
268,-1.8824919594034455,-0.539552840009495,2.2198325435243764,-0.816598653793335,0.5137524008750916,0.2631065845489502,-1.2673507928848267,0.5253828763961792,0.09720709919929504,0.026300251483917236,-0.39075136184692383,0.4589545428752899
269,-1.9155698355575705,-0.478074802421979,2.102639097060048,-0.8356322646141052,0.4600706696510315,0.30008959770202637,-0.3602108657360077,-0.09720058739185333,-0.41585737466812134,0.08209222555160522,-0.31335747241973877,-0.06482958793640137
270,-1.9427210497410123,-0.4253287086835475,2.0928675923315163,-0.8486244678497314,0.4126202166080475,0.3310306668281555,-0.7446121573448181,-0.11558151990175247,-0.45941829681396484,0.061347246170043945,-0.2235027551651001,0.009301424026489258
271,-1.9714069404929093,-0.35168549899575097,2.0518340674722038,-0.8644627332687378,0.34448063373565674,0.3661113381385803,-0.27610310912132263,-0.05551404133439064,-0.6267755031585693,-0.05800741910934448,-0.10386475920677185,-0.21169233322143555
272,-1.9786833728972255,-0.33414466095700407,2.066400690355682,-0.8671897053718567,0.327961266040802,0.3747312128543854,1.3976129293441772,-0.047139815986156464,0.04970843344926834,-0.24557280540466309,-0.015201866626739502,-0.27858567237854004
273,-1.9633090959401467,-0.3002332701576395,2.2365012342051376,-0.8826202154159546,0.29574304819107056,0.36540064215660095,0.6199630498886108,-0.1405777931213379,-1.404381275177002,-0.10415035486221313,0.14786046743392944,0.27182161808013916
274,-1.9644151252068756,-0.19754319202293946,2.2744490465461724,-0.9055661559104919,0.19626089930534363,0.3760738968849182,-0.2354784607887268,-0.09861377626657486,-0.8280803561210632,0.25134557485580444,0.12281562387943268,-0.014745831489562988
275,-1.9800208535580968,-0.14138184932740536,2.2813341147756314,-0.9082757234573364,0.1409113109111786,0.39392784237861633,-0.5044769048690796,-0.2491993010044098,-0.2552999258041382,0.3444787859916687,0.14180351793766022,-0.05489283800125122
276,-2.021964988057717,-0.12929040097752295,2.1893769754747967,-0.8924268484115601,0.1289304941892624,0.432378351688385,-1.1231553554534912,0.007703597191721201,0.888892412185669,0.06622457504272461,0.3464112877845764,-0.254216730594635
277,-2.026036302675366,-0.23138349089273824,2.1034463429420436,-0.8742200136184692,0.2293243706226349,0.427960604429245,-0.273796945810318,0.560143768787384,1.682082176208496,-0.22897541522979736,0.3183899521827698,-0.08044162392616272
278,-1.9501312734251348,-0.40916115337465664,2.080062947956986,-0.8522339463233948,0.39783987402915955,0.33973607420921326,1.7762994766235352,0.660211980342865,1.5085124969482422,-0.35189807415008545,-0.038159698247909546,0.023209452629089355
279,-1.8290409224365796,-0.5193741656567566,2.177104986922193,-0.8393427133560181,0.4963369369506836,0.2217063307762146,-0.1648775339126587,0.7277992367744446,0.38234835863113403,-0.052991390228271484,-0.3436726927757263,0.480899840593338
280,-1.8093811110601143,-0.5217118953080971,2.169458855938531,-0.8424092531204224,0.49836501479148865,0.2048884630203247,0.3853010833263397,-0.16319410502910614,-0.17708446085453033,0.026399552822113037,-0.34127575159072876,0.16200914978981018
281,-1.8316546885750453,-0.4948398871758021,2.1651980327618743,-0.8502720594406128,0.47489073872566223,0.22697235643863678,-0.4871746301651001,-0.03543075546622276,-0.3041170835494995,-0.029397189617156982,-0.24590209126472473,0.024431467056274414
282,-1.8416098355884578,-0.4857368921939692,2.1851466005953264,-0.8521004319190979,0.4668601453304291,0.23657217621803284,0.7253621220588684,-0.24475246667861938,-0.15545368194580078,-0.2364768385887146,-0.22494730353355408,-0.0980987548828125
283,-1.8340061705838027,-0.51141463396767,2.3509294861640093,-0.8420194387435913,0.4894113838672638,0.22689181566238403,3.276157855987549,-1.4304476976394653,-0.7255513668060303,-0.5614230036735535,-0.1561441421508789,-0.16571927070617676
284,-1.8414033158305292,-0.4290529455958701,2.654270350244331,-0.8762674927711487,0.416009783744812,0.24308687448501587,1.6524996757507324,-1.2220709323883057,-1.503319263458252,-0.03718465566635132,-0.04143702983856201,0.024582862854003906
285,-1.9078882002529534,-0.31359552166832055,2.8278364551336286,-0.8976958394050598,0.30848079919815063,0.31461384892463684,0.2657115161418915,-1.0609219074249268,-1.5435210466384888,0.11090677976608276,-0.030023127794265747,-0.08063563704490662
286,-1.9693108475338912,-0.15209018846936526,2.8587420496329994,-0.9109995365142822,0.1515045166015625,0.38357025384902954,-0.5354242920875549,-0.37398532032966614,-1.5708805322647095,0.22087502479553223,0.131500244140625,-0.3864847421646118
287,-1.9983589425826123,-0.03208113382371357,2.8629824504632904,-0.9095109701156616,0.032075632363557816,0.41444075107574463,0.23101525008678436,0.008346004411578178,-0.7007603049278259,0.10694444179534912,0.4636213779449463,-0.49877607822418213
288,-2.014647506269257,-0.09821385979009073,3.012738220001315,-0.8987523317337036,0.09805604070425034,0.427351176738739,1.2571978569030762,0.09511152654886246,0.8271023631095886,-0.1478174328804016,0.5959289073944092,0.24235695600509644
289,-1.9334917309082755,-0.23213844356866922,3.016957505634422,-0.9098655581474304,0.23005913197994232,0.3452787697315216,0.6966243982315063,0.715282678604126,1.2587482929229736,-0.15008622407913208,0.23653936386108398,0.17974555492401123
290,-1.8506902354802277,-0.345659923440953,2.988895119447629,-0.9042387008666992,0.33881765604019165,0.2599138915538788,0.36260467767715454,0.7253211736679077,0.9406324028968811,0.17718780040740967,-0.25461962819099426,-0.07694575190544128
291,-1.8050763639636178,-0.43199738088011547,3.0249028131945184,-0.8833227753639221,0.41868552565574646,0.21081610023975372,0.7837978005409241,-0.05398988723754883,0.5057340264320374,0.10101991891860962,-0.3591304421424866,0.2014305591583252
292,-1.8397785183627722,-0.45939084806811237,3.047850918517112,-0.8640927672386169,0.4434022009372711,0.23819811642169952,-0.4452087879180908,-0.019651688635349274,0.07325330376625061,-0.08399683237075806,-0.22749033570289612,0.2300940752029419
293,-1.8674838867389125,-0.4494083449135549,3.010796166666876,-0.8613525032997131,0.434432715177536,0.2633245289325714,0.25885072350502014,-0.6074923276901245,-0.049860477447509766,-0.4203093647956848,0.047332972288131714,0.07915884256362915
294,-1.944822771878211,-0.3991839493789511,3.0570284481082783,-0.8576778769493103,0.388666570186615,0.3366408050060272,0.009852304123342037,-0.5011042952537537,-1.3805712461471558,-0.4476962685585022,0.171086847782135,-0.02679586410522461
295,-1.9537362265901943,-0.27367135930633907,3.132565513007091,-0.8930507898330688,0.2702679932117462,0.35974374413490295,0.47110339999198914,-0.36175537109375,-1.5408024787902832,0.23226886987686157,-0.08317995071411133,-0.15404009819030762
296,-1.98275850716967,-0.1762676529681899,-3.071975316069133,-0.9021382331848145,0.17535628378391266,0.394203782081604,0.24704909324645996,-0.22272485494613647,-0.8405221700668335,0.2936636209487915,-0.012468725442886353,-0.15653294324874878
297,-2.012977951843256,-0.11217131612663868,-3.03813733126465,-0.8981401920318604,0.11193623393774033,0.42522305250167847,0.23412100970745087,-0.18816576898097992,-0.23711901903152466,0.11618828773498535,0.2740958631038666,-0.10549032688140869
298,-2.0087626167188435,-0.1456154782418531,-3.049142875627516,-0.8960316181182861,0.1451014280319214,0.4196102023124695,0.05939245969057083,0.3910314738750458,0.9913679957389832,-0.041666626930236816,0.4101811647415161,0.02297094464302063
299,-1.98499700326321,-0.28583964296222814,-3.096031479095653,-0.8782946467399597,0.28196313977241516,0.386128693819046,0.20757992565631866,0.3062940537929535,1.640697956085205,-0.23802310228347778,0.24199315905570984,0.09614062309265137
300,-1.9469714598670582,-0.3835380171644994,3.0913457697933833,-0.8625030517578125,0.37420377135276794,0.3406752645969391,-0.9734182953834534,1.0446113348007202,0.7762395739555359,0.0559999942779541,-0.16344943642616272,-0.12430566549301147
301,-1.9254025329806927,-0.4350975893693674,3.068172709304389,-0.8504090309143066,0.4214988946914673,0.314870148897171,0.0499742329120636,0.32397037744522095,0.7763285636901855,0.17015695571899414,-0.21465075016021729,-0.016438722610473633
302,-1.8850912424399284,-0.5188913526532857,3.1092804578470314,-0.825831949710846,0.49591773748397827,0.2684529423713684,0.7302549481391907,-0.27772819995880127,0.3139519691467285,0.018672704696655273,-0.40767621994018555,0.12282821536064148
303,-1.8713021983297904,-0.5424332053244517,-3.121052667950905,-0.8180747032165527,0.5162214636802673,0.2535136938095093,0.14059430360794067,0.0691651776432991,-0.1380983144044876,-0.25739526748657227,-0.17558425664901733,0.2650104761123657
304,-1.8850155073645622,-0.5386541076376417,-3.0507385189247302,-0.816370964050293,0.512981116771698,0.26530906558036804,0.788411021232605,-1.3095356225967407,-0.5226516723632812,-0.5106401443481445,-0.0573994517326355,0.23073887825012207
305,-1.9420624353996232,-0.4230403637719628,-3.0289073803733806,-0.849719762802124,0.41053467988967896,0.33081328868865967,-0.47371524572372437,0.016689449548721313,-1.497377634048462,-0.046520352363586426,-0.09466254711151123,-0.22822847962379456
306,-1.9657715239955271,-0.26648913270848257,-2.9730391955663364,-0.8904253840446472,0.2633461356163025,0.3712029457092285,0.009370677173137665,-0.48554474115371704,-1.6111782789230347,0.27595382928848267,-0.0059608519077301025,-0.31746146082878113
307,-1.9817542095788079,-0.16118361647214463,-2.9359188091149617,-0.9048557877540588,0.1604865938425064,0.39430949091911316,0.21476154029369354,-0.22520828247070312,-0.8287076950073242,0.1747227907180786,0.2181907594203949,-0.33148911595344543
308,-1.9772914788188005,-0.14086520325710894,-2.854568108615503,-0.9094142317771912,0.14039979875087738,0.3914760947227478,0.6424490213394165,0.20180243253707886,0.001588970422744751,0.06952482461929321,0.4994164705276489,0.0634647011756897
309,-1.9444982664389223,-0.25454308457899844,-2.8518473265004087,-0.9009847640991211,0.2518032491207123,0.3533014953136444,-0.1092647910118103,0.07896693795919418,1.8236747980117798,-0.027314305305480957,0.32551309466362,0.21112123131752014
310,-1.9339847069807874,-0.42552099647902997,-2.909076116266572,-0.8514096736907959,0.41279536485671997,0.3235759735107422,0.14993637800216675,0.4963245987892151,1.0621215105056763,-0.4218294024467468,-0.011657088994979858,0.15861698985099792
311,-1.8735447686798306,-0.47722581563822175,-2.966512208168562,-0.8478745818138123,0.4593167006969452,0.26483383774757385,0.20350803434848785,0.5811169147491455,0.5629685521125793,0.18414777517318726,-0.3324246406555176,-0.14123761653900146
312,-1.8358943293080674,-0.5198026531552996,-2.9230607005946903,-0.8375982046127319,0.49670886993408203,0.22739766538143158,0.7368946075439453,0.06700801104307175,0.020519547164440155,0.08311212062835693,-0.38004016876220703,0.025699853897094727
313,-1.8358809366742352,-0.5126477699218528,-2.8830799600136765,-0.8410094380378723,0.49048635363578796,0.228311687707901,0.06206291913986206,-0.20063230395317078,-0.2496364414691925,-0.17998665571212769,-0.13970208168029785,0.17535948753356934
314,-1.8349948784188979,-0.4839506371012929,-2.9016349214878883,-0.8544503450393677,0.465279757976532,0.23114784061908722,0.7232031226158142,0.053165242075920105,0.008857198059558868,-0.25759488344192505,0.14333227276802063,0.014106735587120056
315,-1.8368715224849932,-0.4801656744955336,-2.761210602232903,-0.8557078242301941,0.461926132440567,0.23321227729320526,0.3896329402923584,-0.6838127970695496,-0.9036295413970947,-0.3916217088699341,0.15066838264465332,0.222689688205719
316,-1.8577082745840294,-0.3935047990946664,-2.727550330674457,-0.8858175873756409,0.3834276795387268,0.2613629698753357,0.18999755382537842,-0.4414929449558258,-0.9461867213249207,0.3011770248413086,-0.057667821645736694,-0.21816539764404297
317,-1.8628139035060307,-0.3255081630184528,-2.6823366868967984,-0.9073764085769653,0.3197903037071228,0.2727676331996918,-0.4255598187446594,-0.12362535297870636,-0.48201847076416016,0.35902130603790283,9.495019912719727e-05,-0.05496370792388916
318,-1.882360680971536,-0.2802840869167625,-2.7304690475056295,-0.9147109985351562,0.27662867307662964,0.294585645198822,-0.22937043011188507,0.12435279786586761,-0.2328309565782547,0.1588362455368042,0.11549171805381775,-0.2335047423839569
319,-1.8706988074850035,-0.3061537168030787,-2.732810802356712,-0.9109407067298889,0.30139344930648804,0.2816896438598633,0.024255413562059402,0.562511146068573,0.865382194519043,-0.000710904598236084,0.21659666299819946,0.0016050338745117188
320,-1.8104202313214313,-0.42014424619337354,-2.7570693175660415,-0.8869425058364868,0.4078921675682068,0.2166961282491684,0.23555514216423035,0.7852378487586975,1.2900599241256714,-0.16513586044311523,0.10716831684112549,0.0698792040348053
321,-1.7531822060734163,-0.5137823539173387,-2.703516775432187,-0.8564471006393433,0.49147477746009827,0.1579592376947403,0.7389214634895325,0.4291679561138153,0.10174626111984253,-0.2768690586090088,0.07354298233985901,0.12472511827945709
322,-1.6832981997701708,-0.5033543060618865,-2.607904317729403,-0.8704320192337036,0.48236650228500366,0.0983404666185379,1.9306312799453735,-0.029350141063332558,-0.37709078192710876,0.18786054849624634,-0.15007588267326355,-0.18252325057983398
323,-1.513057519435979,-0.45187794910333307,-2.231745245986712,-0.8981294631958008,0.43665575981140137,-0.051914628595113754,3.662379503250122,-0.13542106747627258,-0.15880991518497467,0.23270899057388306,-0.018442898988723755,0.38730281591415405
324,-1.436232968572293,-0.3567570293695413,-2.0106133796443135,-0.9285635352134705,0.3492372930049896,-0.12571030855178833,-0.2561910152435303,-0.48125848174095154,-1.4704946279525757,-0.15980011224746704,-0.2430819272994995,0.7255180478096008
325,-1.5438541019998744,-0.19123537093413032,-2.0585640376822596,-0.9814139604568481,0.19007189571857452,-0.026447875425219536,-0.2086034119129181,-1.9064372777938843,-1.4888181686401367,0.1078329086303711,0.16460344195365906,-0.05036485567688942
326,-1.688073408589221,-0.07912502805254577,-2.010909329856768,-0.9900237321853638,0.07904248684644699,0.11664234846830368,0.7148393392562866,-1.3277640342712402,-0.733283519744873,0.140322744846344,0.3337687849998474,-0.6776164770126343
327,-1.6612231689083607,-0.0016445205262493436,-2.0661031746075826,-0.995913028717041,0.0016445197397843003,0.09030354022979736,-3.060593843460083,1.5728771686553955,-0.38763847947120667,0.348513126373291,0.15501746535301208,0.23969829082489014
328,-1.560764491701839,-0.06252325061764119,-2.4418434125809196,-0.9979957938194275,0.062482524663209915,-0.010012065060436726,-3.5747060775756836,-0.5111843943595886,1.9191434383392334,0.15963220596313477,0.08729776740074158,-0.02387768030166626
329,-1.5217421647515421,-0.16543175268901478,-2.7337924240464497,-0.9851610064506531,0.1646782010793686,-0.04836504906415939,-0.00568750686943531,-0.17837224900722504,0.06693880259990692,-0.3733291029930115,-0.3283745050430298,-0.19424968957901
330,-1.4988289433501518,-0.12868391001731874,-2.762376250368485,-0.989164412021637,0.12832903861999512,-0.07131072878837585,-0.3277797996997833,0.25920745730400085,-0.4087636470794678,-0.09790211915969849,-0.04660297930240631,0.13544344902038574
331,-1.4924802858410686,-0.08725274012125624,-2.8364399512568466,-0.9931423664093018,0.08714207261800766,-0.07793838530778885,-1.1326104402542114,-0.07272100448608398,-0.8145769834518433,-0.06192654371261597,0.40104761719703674,-0.09970443695783615
332,-1.756005130158256,-0.0922379231935703,-2.628287350627265,-0.9787195920944214,0.09210719168186188,0.18336895108222961,3.4542315006256104,-3.1666626930236816,0.62380051612854,0.6236018538475037,0.3843790292739868,0.09197591245174408
333,-1.9095638756661633,-0.2959125431570509,-2.398475315213919,-0.902171790599823,0.2916128635406494,0.3178809583187103,1.5549373626708984,-1.3828246593475342,1.220870018005371,0.20495176315307617,0.043195515871047974,0.4290825426578522
334,-1.7728961620183246,-0.2579699775834715,-2.341618902615831,-0.9472306966781616,0.2551182210445404,0.19408482313156128,-2.965613603591919,4.566063404083252,-1.871152639389038,0.07131505012512207,-0.2337559163570404,0.8946449756622314
335,-1.5980008119277103,-0.05714525398400389,-2.6461830900468186,-0.9979983568191528,0.05711415782570839,0.027156731113791466,-2.1083436012268066,0.5995358228683472,-1.1615633964538574,0.3088655471801758,0.3325190246105194,-0.034755583852529526
336,-1.898259866423706,0.089479578983884,-2.6456450723502924,-0.9430730938911438,-0.08936022222042084,0.3203555941581726,0.7367936372756958,-4.597744464874268,-0.5795304775238037,-0.01151663064956665,0.26106739044189453,-0.22677353024482727
337,-2.233283406654108,-0.20401096802362523,-2.4731127970584486,-0.7721136212348938,0.20259873569011688,0.6023241281509399,3.1319966316223145,0.7574794888496399,2.403803825378418,-0.5758324861526489,0.2557294964790344,0.30958694219589233
338,-2.1077046095080756,-0.4809372397439607,-2.3877593049401455,-0.7618173956871033,0.46261030435562134,0.4534601867198944,1.7138497829437256,0.9993569254875183,2.6922097206115723,0.5442880988121033,-0.5079594254493713,-0.1930232048034668
339,-2.006705304603769,-0.7156761204862321,-2.258360895283393,-0.6840800046920776,0.6561278104782104,0.31863924860954285,0.5980490446090698,0.5081981420516968,0.4444107115268707,0.17352092266082764,-0.22468554973602295,-0.051488280296325684
340,-1.9499525247204195,-0.6621426413923063,-2.1431847407937767,-0.7326629161834717,0.6148081421852112,0.2919182777404785,-0.6949091553688049,-0.6524695754051208,-1.7372362613677979,-0.1693452000617981,0.10647493600845337,0.44445565342903137
341,-2.0308234214635514,-0.5060303115778786,-2.071520000568435,-0.7837448120117188,0.48470887541770935,0.3883318305015564,-0.7160457968711853,-1.0812623500823975,-0.7113582491874695,0.1401594877243042,0.04294008016586304,0.5284314751625061
342,-2.1506504259253516,-0.39998223827266416,-2.1990821485061587,-0.7705125212669373,0.38940197229385376,0.5046548247337341,0.061530712991952896,-0.9784160256385803,-0.3527446985244751,-0.11744219064712524,0.30807724595069885,-0.6604166030883789
343,-2.1741993093628382,-0.3762357236992446,-2.157811378115316,-0.7658153176307678,0.36742210388183594,0.5277571678161621,0.2966982126235962,-0.15858851373195648,-0.25090521574020386,0.23674744367599487,-0.049383193254470825,-0.16221767663955688
344,-2.1571080796320983,-0.3888156719650586,-2.107239972896624,-0.7708118557929993,0.3790927529335022,0.5119941234588623,0.4582805633544922,0.30496299266815186,-0.038870763033628464,0.2787463665008545,-0.11915922164916992,-0.08242863416671753
345,-2.1204682081641377,-0.40066590277577024,-2.075777385191599,-0.7851637005805969,0.3900316059589386,0.4810335636138916,0.1361571103334427,0.03946686163544655,-0.025973156094551086,0.2752455472946167,-0.06555342674255371,0.1714017391204834
346,-2.1375045740787715,-0.38052308404053253,-2.117863139665579,-0.7833251953125,0.3714061975479126,0.49845659732818604,-1.0058282613754272,1.2369295358657837,0.1498461663722992,-0.3796386122703552,0.2258991003036499,-0.21818318963050842
347,-2.1794956031181867,-0.4083849305664343,-2.102613155408302,-0.7529262900352478,0.39712759852409363,0.5247779488563538,0.04315520450472832,0.1227676272392273,-0.24181215465068817,-0.2324405312538147,0.37663036584854126,-0.11254644393920898
348,-2.0706298307516344,-0.3827734035777234,-2.0775192370038966,-0.8141478896141052,0.37349459528923035,0.4445950388908386,-0.7344008088111877,1.5198007822036743,-0.9284894466400146,0.18130499124526978,-0.2713370621204376,-0.041381657123565674
349,-1.96170296950774,-0.31870748600880566,-2.1529529184891856,-0.8780041933059692,0.3133394122123718,0.36183881759643555,-0.470554918050766,0.9930229783058167,0.03292392939329147,0.3926067352294922,-0.10717788338661194,-0.14386698603630066
350,-1.9308619638905022,-0.314590127589036,-2.209359602128632,-0.8899440765380859,0.30942675471305847,0.33504417538642883,0.3726803958415985,0.49311789870262146,-0.09157496690750122,0.011465132236480713,0.04401254653930664,0.024941176176071167
351,-1.8772630478924868,-0.3373680325968926,-2.1690989362426683,-0.899661123752594,0.33100464940071106,0.2846852242946625,0.03895498067140579,0.5056462287902832,-0.08069109916687012,-0.18786323070526123,-0.15737491846084595,0.5824564695358276
352,-2.003303070912749,-0.34554736959897675,-2.2873443219458065,-0.8542512059211731,0.3387117385864258,0.3943723440170288,-1.5325289964675903,-0.9530461430549622,0.7638325095176697,-0.5122650265693665,0.2967710793018341,0.018515288829803467
353,-2.1155942077927183,-0.3289460847534712,-2.411176787326323,-0.8093773722648621,0.3230457901954651,0.4904586672782898,-0.8547353148460388,-0.2648915648460388,0.07263299822807312,0.08528685569763184,0.09429728984832764,-0.2767287790775299
354,-2.132396241708671,-0.32006017430358247,-2.465151212723073,-0.803420901298523,0.3146236836910248,0.5054967999458313,-0.025607343763113022,0.14507903158664703,0.09207579493522644,0.3665616512298584,-0.1815822720527649,-0.35235947370529175
355,-2.1076797405906613,-0.3352683382210444,-2.4455539162080777,-0.81146240234375,0.3290225863456726,0.4829832911491394,0.4577242434024811,0.15096358954906464,-0.26485249400138855,-0.023406982421875,-0.04440036416053772,-0.01615595817565918
356,-2.0827285889055793,-0.33548663044799154,-2.3818758909166555,-0.8231968879699707,0.3292286992073059,0.46255290508270264,-0.2852347493171692,-0.4166889786720276,-0.029065361246466637,-0.18514961004257202,0.056925415992736816,1.3141652345657349
357,-2.1205733968936267,-0.35291636806392646,-2.354204748624971,-0.8000917434692383,0.34563589096069336,0.49029505252838135,0.6322417259216309,-0.1947486251592636,0.5107420086860657,-0.21860039234161377,0.09349682927131653,-0.15644794702529907
358,-2.0822613404772157,-0.38590300079136586,-2.3523911187476156,-0.8078985214233398,0.3763958811759949,0.4534602463245392,0.7000117301940918,0.5174281001091003,-0.23975268006324768,-0.25774478912353516,0.07305175065994263,-0.11836206912994385
359,-1.9982987300906279,-0.3835065637171431,-2.3024427480550864,-0.8439000248908997,0.3741745948791504,0.38448217511177063,-0.10561595112085342,0.6613941788673401,-0.04982972890138626,0.42115509510040283,-0.24613803625106812,-0.05010095238685608
360,-1.9815392088316908,-0.37932091023068537,-2.3385130252806547,-0.8516532778739929,0.37028974294662476,0.3709075152873993,-0.3522803485393524,0.12019668519496918,0.14065296947956085,0.12065035104751587,-0.06973734498023987,-0.09173271059989929
361,-1.9725705034840326,-0.399567281438354,-2.313846795162197,-0.8478707075119019,0.38901975750923157,0.36024847626686096,0.8995826840400696,-0.22882115840911865,0.020538967102766037,-0.16149818897247314,-0.01965022087097168,0.18317806720733643
362,-1.969881504201388,-0.39289211133014784,-2.298345525945243,-0.8512102365493774,0.38286176323890686,0.3589683771133423,-0.49604251980781555,-0.9448387622833252,0.2274317443370819,-0.08204793930053711,0.0584682822227478,0.5063728094100952
363,-2.097813689368681,-0.39711819517315844,-2.4114351268074876,-0.7970497012138367,0.386762410402298,0.46381711959838867,-0.6533185243606567,-0.4459713101387024,0.17061875760555267,-0.5929648280143738,0.37907615303993225,-0.26128730177879333
364,-2.1112604766437646,-0.3555066034501936,-2.4366254046142335,-0.8038527965545654,0.3480653464794159,0.48236051201820374,0.15189675986766815,0.0669320747256279,-0.07448852062225342,0.4155316948890686,-0.02871406078338623,-0.3849024772644043
365,-2.090286921960611,-0.3656368527990774,-2.4246150648763782,-0.8106892108917236,0.3575441241264343,0.46362149715423584,0.17509575188159943,0.2687355577945709,0.02688930183649063,0.2892507314682007,-0.1667025089263916,-0.141111820936203
366,-2.0685325386936695,-0.3762343215023329,-2.3746666701519223,-0.8172070980072021,0.3674207925796509,0.4440431594848633,0.4581056535243988,0.009868722409009933,-0.28766176104545593,0.1063307523727417,0.014003098011016846,0.25529760122299194
367,-2.1331819932112444,-0.35531948137876307,-2.3813950083311894,-0.7931411266326904,0.34788990020751953,0.49989932775497437,-0.5286211967468262,0.3536530137062073,-0.1444275677204132,-0.12755876779556274,0.07259643077850342,0.6182951927185059
368,-2.15063185582068,-0.3997861149976905,-2.375677849803046,-0.7705857753753662,0.38922134041786194,0.5046823620796204,0.31553515791893005,0.12208685278892517,0.3205184042453766,-0.5322859287261963,0.2199857532978058,-0.13657933473587036
369,-2.098842137755826,-0.398977959021038,-2.3328971866547175,-0.7959496378898621,0.38847678899765015,0.4642733931541443,0.11550814658403397,0.5363699793815613,-0.30208832025527954,0.1342523694038391,-0.16282987594604492,-0.010248124599456787
370,-2.050269490755151,-0.39003477331082753,-2.325100865044038,-0.8206027150154114,0.38022056221961975,0.4266653060913086,-0.11415436118841171,0.4037802219390869,-0.08909118175506592,0.21380650997161865,-0.20067048072814941,-0.13148421049118042
371,-2.0269077805282714,-0.3743930199226677,-2.353425689414446,-0.8355830907821655,0.365707665681839,0.40994957089424133,0.23465955257415771,0.2865513265132904,-0.03126969188451767,0.2837491035461426,0.044662147760391235,0.0005728602409362793
372,-2.008295282321862,-0.41087212823559005,-2.304588455753399,-0.8304258584976196,0.3994090259075165,0.38841405510902405,0.3434561789035797,0.39280325174331665,-0.04889317601919174,-0.4230685234069824,-0.09083044528961182,0.30756980180740356
373,-2.0652015073113335,-0.4120983172857674,-2.3159553077781214,-0.8065588474273682,0.40053287148475647,0.43478360772132874,-0.9953439831733704,-1.0724695920944214,0.47547951340675354,-0.2816370725631714,0.17681404948234558,0.17262312769889832
374,-2.1462429679719093,-0.3927644286668412,-2.394240965540931,-0.7750672698020935,0.38274380564689636,0.5027705430984497,-0.16705982387065887,-0.09483137726783752,-0.08726879209280014,-0.11224669218063354,0.0918198823928833,-0.32190805673599243
375,-2.139578182233308,-0.37601696762213466,-2.3867693312807234,-0.7836923003196716,0.36721864342689514,0.5009762644767761,0.4301718771457672,0.013719618320465088,-0.07673084735870361,0.3769690990447998,-0.049072831869125366,-0.4020381569862366
376,-2.1165031859758257,-0.3872076451197592,-2.354630212272582,-0.7914801239967346,0.37760427594184875,0.4805976152420044,0.6842688918113708,0.10585137456655502,-0.06779450178146362,0.1227179765701294,0.020985782146453857,-0.05176466703414917
377,-2.1224789719864248,-0.40576003715897413,-2.295367120039393,-0.7824927568435669,0.39471718668937683,0.48156383633613586,0.2720634639263153,-1.1198821067810059,-0.023648690432310104,-0.08512210845947266,-0.05298131704330444,0.8098486065864563
378,-2.133588360188022,-0.38536665273825765,-2.2961912607164834,-0.7837405800819397,0.37589892745018005,0.49441948533058167,0.17174309492111206,0.5586274266242981,-0.1428481638431549,-0.3128475546836853,0.36139044165611267,-0.6670421361923218
379,-2.096819391277595,-0.4234441801156151,-2.244761173617376,-0.7884297966957092,0.41090285778045654,0.4577522575855255,0.631101667881012,0.2737334668636322,-0.0688503310084343,-0.288535475730896,-0.02026262879371643,-0.06828704476356506
380,-2.041357161402135,-0.4184324062169603,-2.196881354168541,-0.8144177198410034,0.40632858872413635,0.41427120566368103,0.04470273107290268,0.19885291159152985,-0.22258557379245758,0.26317882537841797,-0.25616690516471863,-0.0794171690940857
381,-2.015187114848057,-0.4118877737799412,-2.1820633760492685,-0.8273627161979675,0.40033993124961853,0.393953412771225,0.18392035365104675,0.02081841044127941,-0.04078442230820656,0.13168388605117798,-0.09716299176216125,-0.07319822907447815
382,-1.9917166502173516,-0.41133418320635834,-2.1586833079773524,-0.8365821242332458,0.3998325765132904,0.374518483877182,0.4422011971473694,0.11987719684839249,-0.02365897223353386,0.15062332153320312,-0.035330623388290405,0.0799645185470581
383,-1.946447345068324,-0.42243530295908605,-2.103350450047087,-0.848491907119751,0.4099828898906708,0.33462709188461304,-0.037754423916339874,0.43011143803596497,-0.24444328248500824,-0.21104776859283447,-0.11199408769607544,0.4637736976146698
384,-2.013087906435801,-0.4074873276816673,-2.1566465999551414,-0.8297719359397888,0.396303653717041,0.3929659128189087,-1.2153702974319458,-0.6780463457107544,0.623489260673523,-0.31173819303512573,0.18722301721572876,-0.025961458683013916
385,-2.0641371342618915,-0.37608884443948565,-2.2422380841494807,-0.819197952747345,0.36728549003601074,0.44047218561172485,-0.20071882009506226,0.2545269727706909,-0.25866636633872986,0.10926765203475952,0.05503195524215698,-0.3058592975139618
386,-2.0109100566157085,-0.3583062090173075,-2.2397694406332818,-0.847247302532196,0.35068851709365845,0.39898523688316345,0.30873483419418335,0.271738737821579,0.02407035231590271,0.41414201259613037,-0.14193305373191833,-0.3307632803916931
387,-1.9861669343230686,-0.36051579724253247,-2.250500736938168,-0.8561481833457947,0.35275691747665405,0.3775881826877594,0.21391072869300842,0.22690001130104065,-0.07689259201288223,0.20858049392700195,0.008937418460845947,-0.06032752990722656
388,-1.991146026105857,-0.36906317154101026,-2.2316292491462693,-0.8514735698699951,0.36074185371398926,0.3806019127368927,0.14454282820224762,-0.4714854955673218,0.04198950529098511,-0.09396082162857056,-0.09732940793037415,0.5599498152732849
389,-2.015040323178329,-0.34187415508332836,-2.257229397832494,-0.8506811261177063,0.33525338768959045,0.4049034118652344,0.4260447323322296,0.6315255165100098,-0.18889351189136505,-0.08967220783233643,0.19315844774246216,-0.6073112487792969
390,-2.0213018642286276,-0.39845116611746334,-2.172284635853087,-0.8297061324119568,0.3879913091659546,0.4013112187385559,0.27854248881340027,0.044943664222955704,-0.07076538354158401,-0.3406888246536255,0.11391609907150269,-0.1370747685432434
391,-1.9526552673207942,-0.3933265551670246,-2.1289999323620257,-0.8571130037307739,0.38326308131217957,0.34419071674346924,0.11817572265863419,0.38425490260124207,-0.16399598121643066,0.2094840407371521,-0.17478212714195251,0.012697309255599976
392,-1.9079946986501612,-0.38887206295512483,-2.1141171147595283,-0.873227059841156,0.37914493680000305,0.30614274740219116,-0.010404440574347973,0.32288292050361633,-0.0018614158034324646,0.16843897104263306,-0.11652600765228271,0.052194565534591675
393,-1.8674227102746805,-0.40490578679703787,-2.1088579400600844,-0.8789988160133362,0.39393216371536255,0.26866042613983154,0.6784361004829407,0.40754953026771545,0.1703646034002304,0.04635727405548096,0.014225184917449951,0.13636887073516846
394,-1.845205657330632,-0.4192677558545376,-2.103916284764041,-0.8792132139205933,0.40709173679351807,0.2475082278251648,-0.1976833939552307,0.3753073811531067,-0.3175927698612213,-0.4440898895263672,-0.12814590334892273,0.4386337697505951
395,-1.9428682780246493,-0.43004681344139883,-2.1326220943645136,-0.8467527627944946,0.41691336035728455,0.33044418692588806,-0.6952529549598694,-0.7910855412483215,0.515899121761322,-0.3127474784851074,0.21165728569030762,-0.02284213900566101
396,-1.9974624491986697,-0.43338754135092117,-2.1754895219356616,-0.8261868953704834,0.4199475646018982,0.37557801604270935,-0.15044711530208588,-0.0034240479581058025,0.08166056871414185,0.005462586879730225,0.0076646506786346436,-0.3159620463848114
397,-1.978282866044084,-0.42113335165956134,-2.189633504723725,-0.8379004597663879,0.408795028924942,0.36167654395103455,-0.7397420406341553,0.317963570356369,-0.06425128877162933,0.2482548952102661,-0.20814189314842224,0.11822780966758728
398,-1.9688875149014962,-0.40716162311080806,-2.2161708835321057,-0.8464438915252686,0.3960045874118805,0.35596776008605957,0.2623147666454315,0.12940338253974915,-0.06605207920074463,0.16556626558303833,0.0043096840381622314,-0.06956031918525696
399,-1.9490432698585296,-0.42445398299054155,-2.1663067077825158,-0.8468497395515442,0.4118232727050781,0.3365223705768585,0.43652957677841187,-0.8377125263214111,-0.043486088514328,-0.040952444076538086,-0.06720346212387085,0.46528127789497375
400,-1.9782551541213793,-0.4048024472916037,-2.2033428992448756,-0.8439275622367859,0.39383718371391296,0.36425039172172546,-0.22938480973243713,1.2031983137130737,-0.01533084362745285,-0.15151000022888184,0.16425296664237976,-0.27040889859199524
401,-1.9523952364656998,-0.4390815245572877,-2.126169909154367,-0.8400360941886902,0.42510828375816345,0.3370794951915741,0.35174575448036194,0.1121048554778099,-0.16029570996761322,-0.23976749181747437,0.15626686811447144,-0.1638006865978241
402,-1.8918318197636708,-0.43777058593480167,-2.0514049590668977,-0.8594260215759277,0.4239213466644287,0.28579267859458923,0.8053705096244812,0.33433473110198975,-0.3716096580028534,0.18013536930084229,-0.2200486958026886,-0.03158119320869446
403,-1.8351801396048975,-0.4143221379763008,-2.0307348486156367,-0.8835831880569458,0.4025695025920868,0.23920460045337677,-0.44577527046203613,0.2967802882194519,-0.0818721204996109,0.23285675048828125,-0.15826097130775452,0.058402806520462036
404,-1.8054261829259244,-0.41542077767532654,-2.0164294977267763,-0.889877438545227,0.40357494354248047,0.21270951628684998,0.4264836609363556,0.1800445020198822,0.08667853474617004,0.11170977354049683,-0.032923728227615356,0.1782665103673935
405,-1.7766982563212244,-0.4086154229282119,-2.01894229539814,-0.898287832736969,0.3973391354084015,0.18761810660362244,-0.6043882966041565,0.17252545058727264,-0.11839776486158371,-0.2846803069114685,0.06590241193771362,0.4482766389846802
406,-1.8856747268241365,-0.4036840818598256,-2.0842781374011716,-0.8744059205055237,0.3928089439868927,0.28480708599090576,-0.8548257350921631,-0.9388374090194702,0.21806347370147705,-0.3339373469352722,0.16915693879127502,-0.22932618856430054
407,-1.9557464171136547,-0.3702564311915624,-2.1645467114721253,-0.8640109300613403,0.3618544936180115,0.35006603598594666,-0.6207394599914551,-0.05603545531630516,-0.12912039458751678,0.15984845161437988,0.09108737111091614,-0.3565816283226013
408,-1.9748977123360594,-0.3624586740703274,-2.1906974959140944,-0.8597171902656555,0.3545742332935333,0.36764615774154663,-0.11029386520385742,-0.2466375231742859,0.20722344517707825,0.2886568307876587,-0.09915730357170105,-0.03892609477043152
409,-1.9824009450882154,-0.3613265785136061,-2.225764850036017,-0.8573015928268433,0.35351547598838806,0.3742466866970062,0.08505765348672867,0.1123601645231247,0.047903187572956085,0.11612129211425781,0.014907985925674438,0.055623859167099
410,-2.024144860033783,-0.3669866143922434,-2.236374508216401,-0.8391245603561401,0.3588043451309204,0.4088144898414612,-0.712745726108551,-0.11025486886501312,-0.010686967521905899,-0.3449573516845703,0.0600188672542572,0.7572927474975586
411,-2.026910471364507,-0.3594166628126555,-2.2239595337250013,-0.8404054045677185,0.351728230714798,0.41231828927993774,1.3261386156082153,-0.3845761716365814,0.1824333369731903,-0.19636839628219604,0.0924399197101593,-0.5821789503097534
412,-2.032893279885501,-0.3879236581412998,-2.173588066766256,-0.8286089897155762,0.37826716899871826,0.4126996397972107,0.6081907749176025,0.1891745626926422,-0.2138892263174057,-0.26643794775009155,0.08541691303253174,-0.06374648213386536
413,-2.0227081811465997,-0.36295762345167437,-2.155571625183163,-0.8410047292709351,0.3550407290458679,0.4082365036010742,-0.26475057005882263,0.1954255849123001,-0.3773784935474396,0.35629409551620483,-0.1263725459575653,-0.1342344582080841
414,-2.073890393489081,-0.3244218204323553,-2.15906671690916,-0.8303937315940857,0.31876081228256226,0.4569879174232483,-0.2272886037826538,-0.5111324191093445,-0.4786272644996643,-0.018056094646453857,-0.019993692636489868,0.02670043706893921
415,-2.1569218278086724,-0.2915790476259233,-2.0731034594588484,-0.797926127910614,0.28746497631073,0.5297899842262268,0.3837575912475586,-0.5901429653167725,-0.5173113942146301,0.12229758501052856,-0.038548409938812256,0.18660998344421387
416,-2.2265127579052066,-0.2851834188342195,-2.0445482255424063,-0.760597825050354,0.28133347630500793,0.5851004719734192,-0.1081741526722908,-1.2656002044677734,-0.4578365683555603,-0.3135141134262085,-0.09159043431282043,0.5041482448577881
417,-2.299269889744492,-0.24598230400550003,-2.0712221796510866,-0.7237300872802734,0.2435091733932495,0.645691990852356,-0.5189799070358276,-0.28069356083869934,0.27027398347854614,0.09187889099121094,0.20047582685947418,-0.35353195667266846
418,-2.2582435435511647,-0.2749391344550715,-2.1621179742048833,-0.743840754032135,0.27148836851119995,0.6107330322265625,0.39305853843688965,1.1609556674957275,1.198925256729126,0.23581469058990479,0.02555444836616516,-0.5438233017921448
419,-2.151163516934953,-0.40673456559926224,-2.17464419729479,-0.7680372595787048,0.3956124186515808,0.5035969614982605,0.2943139970302582,0.53917396068573,1.3034770488739014,0.19452029466629028,-0.06284865736961365,-0.13174015283584595
420,-2.087603560596689,-0.5108105189373189,-2.1344713601705245,-0.7584209442138672,0.48888444900512695,0.4310334324836731,0.7014628052711487,0.19418230652809143,0.25896742939949036,0.019727587699890137,0.056251078844070435,0.3220335841178894
421,-2.102505487104702,-0.49961058054398483,-2.1077612642163333,-0.7565860748291016,0.47908374667167664,0.445035457611084,-1.217545986175537,-0.6793772578239441,-0.14183805882930756,-0.182134747505188,0.27387648820877075,1.031649112701416
422,-2.123649757123278,-0.46590875354247857,-2.1542203157517723,-0.7603215575218201,0.44923487305641174,0.4691474139690399,0.3834661543369293,-0.17428627610206604,0.2123573124408722,-0.22402304410934448,0.0005637407302856445,-0.25567692518234253
423,-2.0711926230060858,-0.42848579020732896,-2.20457204096983,-0.7980725765228271,0.4154939651489258,0.43639978766441345,0.29619044065475464,0.9479817152023315,0.15311816334724426,-0.036125361919403076,0.14113137125968933,-0.3290695250034332
424,-1.9641707016653032,-0.4306564078919142,-2.1604801813083365,-0.8392868638038635,0.4174673557281494,0.34830817580223083,-0.05683453381061554,0.5498969554901123,0.04862882196903229,0.325355589389801,-0.22384858131408691,-0.06620371341705322
425,-1.9337893712649543,-0.42857538249830784,-2.1819890769605887,-0.8502902388572693,0.41557544469833374,0.3229604661464691,-0.41843295097351074,0.22759270668029785,0.12818971276283264,0.08588600158691406,-0.08256769180297852,-0.03232625126838684
426,-1.9077373071459962,-0.45345720625914415,-2.1348905740296265,-0.848391056060791,0.4380759596824646,0.2971903681755066,0.9647578001022339,-0.03559550642967224,0.06041999161243439,-0.038373470306396484,0.07788476347923279,0.2943624258041382
427,-1.8954429473204117,-0.4635257719423406,-2.102221744184307,-0.8477570414543152,0.4471046030521393,0.2853162884712219,-0.13181443512439728,-0.8213468790054321,0.30370908975601196,-0.056738078594207764,0.06189802289009094,0.4439927935600281
428,-2.036502349120992,-0.47844386373318404,-2.1924570464049076,-0.7931750416755676,0.4603983461856842,0.3986304700374603,-1.211517095565796,-0.46872076392173767,0.24750147759914398,-0.28636884689331055,0.37996405363082886,-0.17939233779907227
429,-2.058762298148934,-0.45689766777669216,-2.2438405351834874,-0.7926855683326721,0.44116613268852234,0.4207402765750885,0.04568784683942795,0.49675601720809937,-0.1875213235616684,0.27361196279525757,-0.10400784015655518,-0.35235029458999634
430,-2.03917795468457,-0.46336471609548957,-2.252109644219354,-0.7982103228569031,0.44696053862571716,0.4038398265838623,-0.5038244724273682,0.37585189938545227,0.1512327343225479,0.26123833656311035,-0.15557873249053955,-0.061280012130737305
431,-2.0222367747581296,-0.48711876811777544,-2.211726293450124,-0.7951573133468628,0.4680817425251007,0.3855184018611908,0.5771546959877014,-0.33177661895751953,-0.06919430196285248,-0.03624832630157471,0.042217910289764404,0.4095560312271118
432,-2.0744612723531666,-0.46636879100168216,-2.2469410175439766,-0.7822883129119873,0.44964584708213806,0.43109622597694397,-0.36751657724380493,-0.5669551491737366,-0.38304638862609863,-0.08290040493011475,0.013443171977996826,0.4618024230003357
433,-2.0228609085597444,-0.47285116503999486,-2.187267046223482,-0.8008427023887634,0.4554264545440674,0.38889238238334656,0.5967314839363098,-0.7581493854522705,0.23649586737155914,0.13009703159332275,0.07252752780914307,-0.1641000211238861
434,-1.9285030774501242,-0.5095741358075624,-2.079594791254053,-0.8176963329315186,0.4878055453300476,0.3056442141532898,2.1428420543670654,0.7426663041114807,-0.4616473913192749,-0.23410719633102417,-0.02808871865272522,0.09447166323661804
435,-1.7943001148829387,-0.4858387403584902,-1.9596294893336927,-0.8622886538505554,0.4669502079486847,0.1959993541240692,-0.06560898572206497,0.20880214869976044,-0.4412713944911957,0.4584801197052002,-0.4048163890838623,0.16944873332977295
436,-1.8287642974885443,-0.4724114942518783,-2.01058409733577,-0.8610082268714905,0.4550349712371826,0.22717434167861938,-0.31816187500953674,-0.36406803131103516,0.14326399564743042,0.0060735344886779785,0.03728985786437988,-0.1386885643005371
437,-1.8119076902897748,-0.4858144855665022,-1.9330127441226321,-0.8587149977684021,0.46692875027656555,0.21115368604660034,0.3641658127307892,0.017999954521656036,0.14378458261489868,-0.19162362813949585,0.10260549187660217,0.3970615565776825
438,-1.8237386799126705,-0.49942822158223943,-1.9425174568586239,-0.8499233722686768,0.4789236783981323,0.21968689560890198,-0.18172487616539001,-1.1391644477844238,0.6509417295455933,0.023553192615509033,0.1703835427761078,0.4326874017715454
439,-1.9282644050184483,-0.5193973211816367,-2.0815953038352433,-0.8132409453392029,0.4963570237159729,0.3037576377391815,-1.2129474878311157,0.4560597836971283,0.4122850000858307,-0.12442684173583984,0.043895602226257324,-0.5282907485961914
440,-1.854703226759985,-0.5147884290975697,-1.9892101059380398,-0.8355535864830017,0.492350697517395,0.243805393576622,3.084428548812866,-0.5549230575561523,-0.8998678922653198,0.007687926292419434,-0.0015516877174377441,-0.13055464625358582
441,-1.801893863411971,-0.5056801441698137,-1.728384084977217,-0.8515880107879639,0.4844025671482086,0.20037981867790222,1.8885622024536133,-1.9068260192871094,0.046372197568416595,0.18976855278015137,0.11081227660179138,0.3120560646057129
442,-1.8105042067124544,-0.5135701338972579,-1.4862590496245442,-0.8460921049118042,0.4912899434566498,0.20679092407226562,2.3308019638061523,-1.1651275157928467,-0.9025163650512695,-0.36586785316467285,0.0009586215019226074,-0.28100964426994324
443,-1.7234697625736581,-0.5035957009302523,-1.1575060009359799,-0.8656650185585022,0.48257794976234436,0.13320060074329376,1.6688321828842163,-0.6688761115074158,-0.5211176872253418,-0.08565932512283325,-0.23794910311698914,0.14725588262081146
444,-1.6891706227668588,-0.4868203963065014,-0.9376734703214529,-0.8776398301124573,0.4678180515766144,0.10437798500061035,2.4210293292999268,-0.7766825556755066,-0.24685430526733398,0.4116974472999573,-0.05149722099304199,-0.09546685218811035
445,-1.685479827493157,-0.5053222276065654,-0.7896570954332153,-0.8692705035209656,0.4840894341468811,0.1001303493976593,0.6803840398788452,-0.6928280591964722,0.5699951648712158,0.22841668128967285,0.142177015542984,0.2355172485113144
446,-1.7632085754880624,-0.5813991157757773,-0.7497604687729618,-0.8202731013298035,0.5491936802864075,0.15980763733386993,-1.1618821620941162,-0.7951192259788513,1.1140680313110352,-0.5126585364341736,0.14923161268234253,0.12261725962162018
447,-1.9179101711431303,-0.5987999509457943,-0.8902552498446368,-0.77674800157547,0.5636516213417053,0.28099727630615234,-2.12743878364563,-1.8279459476470947,-0.28721174597740173,-0.593582808971405,-0.6074443459510803,0.22889041900634766
448,-1.9959313272283192,-0.4998439919058672,-1.0450787585724193,-0.7995308041572571,0.47928863763809204,0.3619842231273651,0.7209143042564392,0.3291054666042328,-0.6661067008972168,0.7238778471946716,-0.2407328188419342,-0.4375153183937073
449,-2.135160159861853,-0.36978425388055436,-1.1700962911704373,-0.7878163456916809,0.3614142835140228,0.49872347712516785,-3.07232403755188,3.756347417831421,0.47042226791381836,-0.5992685556411743,1.4958397150039673,-1.7335104942321777
450,-2.083047136386563,-0.38562114110167844,-1.4016228973179667,-0.8076342940330505,0.3761347234249115,0.4541468918323517,-3.2446746826171875,2.574549436569214,1.4790693521499634,-0.03880119323730469,0.8818761110305786,-1.1549372673034668
451,-1.994621114038314,-0.4389891951110793,-1.5987626238220738,-0.8250935673713684,0.42502471804618835,0.372255802154541,-1.202735424041748,0.5490520596504211,1.455039620399475,0.29941314458847046,-0.25075411796569824,0.4025549590587616
452,-2.058170217688558,-0.49471513055948096,-1.8645658175166795,-0.7776296138763428,0.47478094696998596,0.4121589660644531,-0.1005069762468338,0.36551716923713684,0.7168248891830444,-0.5579873323440552,-0.06613537669181824,0.2020224928855896
453,-2.035393303810082,-0.5021829106053868,-1.9873367127602009,-0.7836231589317322,0.48134008049964905,0.39274194836616516,-0.988415539264679,1.6491092443466187,0.558243989944458,0.43033653497695923,-0.19455119967460632,0.10083410143852234
454,-1.898517799880642,-0.5050727675304144,-2.1067538662149112,-0.82856285572052,0.48387113213539124,0.2816956341266632,-1.8279674053192139,2.277913808822632,0.803381085395813,0.3702346086502075,-0.21328699588775635,-0.04667973518371582
455,-1.9617918454626235,-0.5454648023384705,-2.3911727114093915,-0.7903682589530945,0.5188155174255371,0.3258049190044403,-2.353415012359619,2.6367480754852295,0.9926371574401855,-0.6290806531906128,0.24203360080718994,-0.1302940547466278
456,-1.906499266747797,-0.54637885074327,-2.581828781454928,-0.8067176938056946,0.5195966958999634,0.2814714312553406,-1.4818320274353027,1.4056642055511475,0.14774785935878754,-0.11871272325515747,-0.0730481743812561,-0.1287918984889984
457,-1.8369418036884586,-0.5288141926547446,-2.7028316653760216,-0.8330072164535522,0.5045098662376404,0.22708840668201447,-0.9619108438491821,1.0877536535263062,0.11721614748239517,0.4807426929473877,-0.1640404462814331,0.06966462731361389
458,-1.9117463669099126,-0.5413424974217825,-2.8618924875104725,-0.807685375213623,0.5152869820594788,0.286571741104126,-2.548703193664551,-0.3033108115196228,0.6103582978248596,0.2573925256729126,0.11731177568435669,0.13034409284591675
459,-2.1009862096651086,-0.5270152897837407,-3.129910788374216,-0.7456517815589905,0.5029558539390564,0.4370802938938141,-0.05556284636259079,0.6821025609970093,0.3130705952644348,-0.4256281852722168,0.09610426425933838,-0.10488110780715942
460,-2.0047863896590505,-0.5340198290758461,-3.087291986527956,-0.7809706330299377,0.5089975595474243,0.36194804310798645,-0.0680273249745369,0.8080602288246155,-0.31759390234947205,0.44121843576431274,-0.2039744257926941,-0.15011024475097656
461,-1.948094824036937,-0.5482966636410254,-3.0733356857043654,-0.7933872938156128,0.5212343335151672,0.3144063949584961,0.11525086313486099,0.26487141847610474,0.41553062200546265,0.08335006237030029,0.050741374492645264,0.053132057189941406
462,-1.916377694284099,-0.5596921578177698,-3.0458252642869756,-0.7973179221153259,0.5309253334999084,0.28705769777297974,0.29726526141166687,0.07591630518436432,-0.11464593559503555,-0.02108711004257202,-0.062297523021698,0.33856791257858276
463,-1.8979872945758876,-0.5682317357079265,-2.9923227810258926,-0.7981395125389099,0.5381425023078918,0.2708800137042999,0.1441735327243805,-0.5305153131484985,0.19102635979652405,-0.3300952911376953,-0.14951640367507935,0.02593398094177246
464,-1.9198239876732377,-0.544070419734347,-2.952632224482664,-0.8040205836296082,0.5176229476928711,0.2926047742366791,0.21422570943832397,-0.45903465151786804,-0.3578087091445923,-0.19448411464691162,-0.1409139633178711,-0.030199408531188965
465,-1.9307633630925436,-0.5003541728753497,-2.8604425407619014,-0.8211780786514282,0.479736328125,0.3090628683567047,0.7211712002754211,-0.7385063767433167,-0.7791587710380554,0.11863279342651367,-0.09458917379379272,-0.04803082346916199
466,-1.9286673211808447,-0.47349734752533806,-2.736691444678359,-0.8335940837860107,0.4560016393661499,0.3117426335811615,1.0961309671401978,-0.581891655921936,-0.4771607220172882,0.15755343437194824,-0.015526145696640015,-0.05443370342254639
467,-1.9226539435048928,-0.4887694783403366,-2.5996831343863374,-0.8288188576698303,0.4695397913455963,0.30428847670555115,1.0409064292907715,-0.5296633839607239,0.025472143664956093,-0.03385192155838013,0.03911188244819641,0.21301493048667908
468,-1.9477352824169925,-0.5223185540481666,-2.5517352015323116,-0.8058212995529175,0.49889087677001953,0.3189986050128937,0.38409438729286194,-0.4592423439025879,-0.25992533564567566,-0.08271336555480957,-0.23338791728019714,0.0009019672870635986
469,-1.980232623307718,-0.5141001033547729,-2.5156370254281235,-0.7987654805183411,0.49175146222114563,0.3466331958770752,0.28987279534339905,-0.5349981188774109,-0.4969778060913086,-0.16841304302215576,-0.27619048953056335,-0.020995348691940308
470,-2.027325275940867,-0.46798181592439275,-2.4416784680138415,-0.8010799884796143,0.45108601450920105,0.39343687891960144,0.5478039383888245,-0.46792933344841003,-0.4920450448989868,0.05844986438751221,-0.014776110649108887,0.04742008447647095
471,-2.016309517404639,-0.4634472350206285,-2.352726440988457,-0.8072028160095215,0.4470343589782715,0.38546618819236755,0.9176275730133057,-0.40924856066703796,-0.42113640904426575,0.06802123785018921,0.014910280704498291,-0.13046127557754517
472,-1.9993706822238526,-0.46201572335870333,-2.260876200767844,-0.8141971230506897,0.44575339555740356,0.3720039427280426,0.6462765336036682,-0.049121398478746414,-0.3047739267349243,0.16954386234283447,-0.08740076422691345,0.1538139283657074
473,-1.9794474349461584,-0.45801174680719126,-2.2334561544051557,-0.8230778574943542,0.44216564297676086,0.35641613602638245,-0.1763356775045395,0.6498029828071594,-0.09528591483831406,-0.04060006141662598,-0.06872206926345825,0.26344168186187744
474,-1.951598972135289,-0.48055302659876936,-2.193458417565897,-0.8232192993164062,0.4622696340084076,0.3295706808567047,0.8036012649536133,-0.11655410379171371,-0.38283371925354004,-0.45725250244140625,-0.15334022045135498,-0.18139255046844482
475,-1.9223059104976774,-0.4385782442013643,-2.167714386553098,-0.8499976396560669,0.42465269565582275,0.311728298664093,0.05783969536423683,0.25713205337524414,-0.45522674918174744,-0.10683536529541016,-0.09938099980354309,-0.04224270582199097
476,-1.8841503743723165,-0.39275192367827655,-2.07649556212892,-0.8788717985153198,0.38273224234580994,0.2847805619239807,0.9040051698684692,-0.2783395051956177,-0.7738072872161865,0.20641720294952393,-0.1991233229637146,0.18033772706985474
477,-1.8803024048004406,-0.35916643097265116,-1.9991851796122173,-0.8917063474655151,0.3514939844608307,0.28515252470970154,0.6746590733528137,-0.25320005416870117,-0.41814106702804565,0.16265666484832764,0.0146254301071167,-0.049312710762023926
478,-1.889135860647835,-0.3699549494321399,-1.897953444257727,-0.8854992985725403,0.3615734279155731,0.2918141782283783,1.091747760772705,-0.5589555501937866,-0.08686015754938126,-0.08547842502593994,-0.02394220232963562,0.16477453708648682
479,-1.9093620889354024,-0.39323317305097233,-1.8105048212591637,-0.8712399005889893,0.3831768035888672,0.3067844808101654,0.4792135953903198,-0.19943085312843323,-0.15093904733657837,-0.30045199394226074,0.11425969004631042,0.05321609973907471
480,-1.914789786828262,-0.3786074455431039,-1.7980112448722614,-0.8747446537017822,0.36962687969207764,0.3133653998374939,-0.21707874536514282,0.0005943456199020147,0.013864456675946712,0.05096840858459473,0.06590473651885986,-0.28705930709838867
481,-1.916904575981986,-0.3819513383342727,-1.7994742584993557,-0.8729124665260315,0.37273189425468445,0.31479355692863464,0.4023275375366211,0.025908244773745537,-0.01065133884549141,0.24000829458236694,0.04915839433670044,-0.12318894267082214
482,-1.8741720564606204,-0.3909982420895527,-1.7260808416252693,-0.882309079170227,0.3811115026473999,0.27619704604148865,1.0102627277374268,-0.06391431391239166,-0.1422429233789444,0.19863903522491455,0.0660625696182251,0.12513959407806396
483,-1.859778177387664,-0.4065838279158399,-1.6466863739896658,-0.8803920149803162,0.3954739570617676,0.26174435019493103,0.2877559959888458,-0.4809139370918274,-0.06552845239639282,-0.11930269002914429,0.057422131299972534,0.28418466448783875
484,-1.9005518895768803,-0.4158485301919459,-1.7228809672970375,-0.8654874563217163,0.4039662778377533,0.29621461033821106,-1.1453964710235596,0.25597384572029114,0.49494117498397827,-0.030737638473510742,0.04548141360282898,-0.19503352046012878
485,-1.9177386309879048,-0.4157525049782167,-1.8547224976364134,-0.8603052496910095,0.40387845039367676,0.3110581934452057,-0.921863853931427,0.4094347357749939,0.23646439611911774,0.05700629949569702,-0.14470788836479187,-0.19947075843811035
486,-1.911985457394967,-0.40516879971645064,-2.0185363851528217,-0.8660603761672974,0.39417389035224915,0.3075167238712311,-1.5172455310821533,0.9629128575325012,0.5032143592834473,0.1702747344970703,0.05254244804382324,-0.16828033328056335
487,-1.8863741932512716,-0.42751530798744775,-2.166292189843171,-0.865060567855835,0.41461101174354553,0.28243258595466614,-0.7769649028778076,0.818198025226593,0.678528904914856,0.04920351505279541,-0.06182771921157837,-0.10720059275627136
488,-1.8304653105688453,-0.4711454166967202,-2.23182740476177,-0.861176609992981,0.45390719175338745,0.22878631949424744,-0.12166164815425873,0.814163863658905,0.43379610776901245,-0.28784072399139404,-0.03697603940963745,0.21689236164093018
489,-1.7907380738825485,-0.4770053235267121,-2.261880201245781,-0.8669729828834534,0.45912083983421326,0.19381897151470184,-0.26312020421028137,-0.08176422119140625,-0.021117977797985077,-0.07933127880096436,-0.041060566902160645,0.5163860321044922
490,-1.9066979809361155,-0.4855743231884596,-2.39038036568471,-0.8349805474281311,0.46671637892723083,0.2915187478065491,-1.0891636610031128,-0.47508537769317627,0.37874627113342285,-0.30105143785476685,0.23616445064544678,-0.2503657639026642
491,-2.0154761224936726,-0.4723568246334259,-2.490336520341561,-0.8038963079452515,0.4549863040447235,0.38306477665901184,0.2404879927635193,-0.9295362234115601,0.05317826569080353,-0.0033548474311828613,-0.0032039284706115723,-0.3279499113559723
492,-2.1821786698715764,-0.49073890471621495,-2.498668846232898,-0.7222180962562561,0.47127771377563477,0.5062593221664429,-0.836285412311554,-0.6136242747306824,0.5279425382614136,-0.053004682064056396,0.05226662755012512,0.1674467921257019
493,-2.130027218000191,-0.5086830718029139,-2.4174450070074815,-0.7403380870819092,0.48702749609947205,0.4633617699146271,1.0903700590133667,0.6630494594573975,-0.8555400967597961,0.3629118800163269,-0.12380719184875488,-0.1546611189842224
494,-2.0226776088369287,-0.5129440486177653,-2.1909979860342013,-0.783848226070404,0.49074453115463257,0.3804622292518616,2.3123056888580322,-1.1411396265029907,-1.0252318382263184,0.06255006790161133,-0.02939513325691223,0.4073336720466614
495,-1.9489907464198921,-0.47040356883292933,-1.9735339050775174,-0.8283937573432922,0.4532460570335388,0.329137921333313,1.7535158395767212,-1.222415566444397,-1.2046470642089844,-0.2365628480911255,0.21090799570083618,0.02916896343231201
