,attitude.roll,attitude.pitch,attitude.yaw,gravity.x,gravity.y,gravity.z,rotationRate.x,rotationRate.y,rotationRate.z,userAcceleration.x,userAcceleration.y,userAcceleration.z
0,-2.136920854537285,-0.49276043558471677,-3.0908675003370822,-0.7435771226882935,0.4730597138404846,0.47255396842956543,2.1723275184631348,-2.0397093296051025,0.03876791149377823,-2.3358447551727295,0.2341545820236206,0.9320327639579773
1,0.06397285872228917,0.7046907428213459,1.238334993627225,0.04870205372571945,-0.6477982401847839,-0.7602536082267761,0.6203765273094177,1.8200544118881226,0.9683230519294739,0.43918249011039734,0.32531899213790894,0.15399140119552612
2,0.08855387681315967,0.7645435646992502,1.4231497814884475,0.06382569670677185,-0.6922076344490051,-0.7188705205917358,-1.980989694595337,2.65959095954895,0.6940962076187134,0.25253477692604065,-0.4358288049697876,-0.31234896183013916
3,0.23296660581263112,0.6336245605023509,1.5131643304838183,0.18605105578899384,-0.5920696258544922,-0.7841164469718933,-0.7937358617782593,0.8904056549072266,0.42697691917419434,-0.18151922523975372,0.19167906045913696,0.08898705244064331
4,0.35001940564146694,0.6040144767961761,1.5807344013804552,0.28224122524261475,-0.5679512023925781,-0.7731567025184631,1.0928065776824951,0.4557141363620758,-0.03835500031709671,-0.5015100240707397,0.6476478576660156,-0.07001340389251709
5,0.298975929052042,0.8064877167517885,1.4672338729135386,0.20383407175540924,-0.7218610048294067,-0.6613382697105408,2.2672159671783447,-1.846794843673706,0.48624110221862793,0.04796646535396576,-0.253312885761261,-0.015572071075439453
6,0.1447025407782037,0.7378082510429006,1.3274644479373572,0.10669859498739243,-0.6726677417755127,-0.7322113513946533,-2.1899240016937256,-1.9190407991409302,-2.059735059738159,-0.13291320204734802,-0.33206242322921753,-0.2421080470085144
7,0.02780473893405006,0.638912905523288,1.135440847193364,0.022317225113511086,-0.5963231325149536,-0.8024342060089111,0.6292359828948975,-2.278343677520752,-0.7312767505645752,0.24216336011886597,0.04293262958526611,0.22232556343078613
8,-0.20729629546605652,0.7715920773915266,1.0936844413446323,-0.14752838015556335,-0.697277307510376,-0.7014554142951965,1.4266207218170166,-1.3269113302230835,-0.5267316102981567,0.40924710035324097,0.2601587772369385,0.2514432668685913
9,-0.16158540107149413,0.8460090866068027,1.0846959572776533,-0.10666171461343765,-0.7486404776573181,-0.6543399691581726,-0.930842399597168,-0.7619540095329285,-0.018776332959532738,0.39113128185272217,-0.2195603847503662,-0.13504278659820557
10,-0.10192893339993742,0.7399439498957389,1.1311163087270613,-0.07514488697052002,-0.6742464900016785,-0.7346733212471008,-1.1203688383102417,1.0100017786026,0.6874843239784241,0.2223616987466812,-0.14917874336242676,-0.4015113115310669
11,-0.04656552288692872,0.7491898575213537,1.2510310086779595,-0.034084856510162354,-0.6810457706451416,-0.7314471006393433,0.21824336051940918,1.2060229778289795,0.728084146976471,-0.21168845891952515,0.2233278751373291,0.27841365337371826
12,0.023292098536769393,0.7986500340468138,1.2545811792205879,0.016248833388090134,-0.7164149284362793,-0.6974852085113525,1.281079888343811,-0.1357930302619934,-0.2963879108428955,-0.46658146381378174,0.4562067985534668,0.09552597999572754
13,-0.015002906563187883,0.8940206223826782,1.1730373577340822,-0.00939570739865303,-0.7795960903167725,-0.6262121200561523,-1.7294026613235474,-1.778852105140686,-0.386709988117218,0.06402215361595154,-0.45909714698791504,0.21843624114990234
14,-0.12683902934854935,0.7968985805904464,1.103996589939714,-0.08841385692358017,-0.7151918411254883,-0.693313479423523,0.5175606608390808,-1.3722962141036987,-0.337124228477478,0.08580459654331207,-0.025942742824554443,-0.29321300983428955
15,-0.166983155980069,0.808202991851046,1.0637042204652956,-0.11481646448373795,-0.7230469584465027,-0.6811903715133667,0.5701124668121338,-0.30273860692977905,-0.34771186113357544,0.14508989453315735,0.3227631449699402,0.1565169095993042
16,-0.11290508498435038,0.9101676582730631,1.0535459240402651,-0.0691329687833786,-0.7896066308021545,-0.609706461429596,1.5157731771469116,0.8846597075462341,0.3503471314907074,0.64460289478302,-0.15573632717132568,-0.05653798580169678
17,-0.1104980416612071,0.8008859940769085,1.1443627994469199,-0.07675804942846298,-0.7179731130599976,-0.691825807094574,-1.1394703388214111,1.1605154275894165,1.0358961820602417,0.2557894289493561,-0.3438097834587097,-0.6221237778663635
18,-0.09884373534971136,0.769260104632321,1.2632083910994159,-0.07089629024267197,-0.6956038475036621,-0.7149189114570618,-0.13757731020450592,1.3523176908493042,0.5127297043800354,-0.15629181265830994,0.1730208396911621,0.11332583427429199
19,-0.027195557132238153,0.8018937119626922,1.2752446848544292,-0.018908018246293068,-0.7186741828918457,-0.6950898766517639,0.7634673714637756,0.5705886483192444,-0.49305808544158936,-0.4658026695251465,0.5444798469543457,0.21611648797988892
20,0.023476869438465928,0.8573959621679671,1.1483289935187293,0.015362056903541088,-0.7561410069465637,-0.6542283892631531,-1.5670973062515259,-1.8564703464508057,-0.3043067157268524,0.30212756991386414,-0.291908860206604,0.3548509478569031
21,-0.12290963397480426,0.6732415830693692,1.1279836350527646,-0.09584956616163254,-0.6235235333442688,-0.7759067416191101,-0.3981756567955017,-1.398794174194336,-0.3852470815181732,-0.14859624207019806,-0.2351037859916687,-0.6264369487762451
22,-0.229733094249657,0.671166323572969,1.060654007152953,-0.17832496762275696,-0.6218997836112976,-0.7625226974487305,-0.27554744482040405,-0.8365148901939392,-0.7424958944320679,0.16668252646923065,0.08430212736129761,0.19854265451431274
23,-0.17590682110856481,0.730609826993971,0.9934133842027395,-0.13033509254455566,-0.6673239469528198,-0.733274519443512,1.3625311851501465,0.7742663621902466,-0.741543173789978,0.25687626004219055,0.3848838210105896,0.04264646768569946
24,-0.10323730457713329,0.7869174832459838,1.0066130743289807,-0.07275939732789993,-0.70818030834198,-0.7022725343704224,-2.265185594558716,0.12215308099985123,0.5951107144355774,0.46199584007263184,-0.3208876848220825,-0.22340184450149536
25,-0.027135221606682015,0.6749786054401059,1.107934827917049,-0.02118241973221302,-0.6248806118965149,-0.780432939529419,0.06354750692844391,2.236921787261963,1.2371141910552979,-0.13618147373199463,0.05754357576370239,-0.11217570304870605
26,-0.02661731467352963,0.684160971663179,1.2117864734018404,-0.020624643191695213,-0.63202303647995,-0.7746751308441162,0.6162590384483337,-0.021387849003076553,0.4881490170955658,-0.42964696884155273,0.37050265073776245,0.1826035976409912
27,-0.023451845205510514,0.7677688616489381,1.1752164105157223,-0.016871165484189987,-0.6945317387580872,-0.7192641496658325,1.6475839614868164,0.058180950582027435,-0.8088313937187195,-0.3502553105354309,0.15769708156585693,-0.016468822956085205
28,-0.03396007812619067,0.808199768483836,1.069315157181692,-0.02345515601336956,-0.723044753074646,-0.6904029250144958,-2.1970160007476807,-1.10752272605896,-0.07027000933885574,-0.1870398223400116,-0.2375417947769165,-0.21795278787612915
29,-0.10170022510986257,0.6994006893351795,1.0260560071177456,-0.07768978923559189,-0.6437591910362244,-0.7612742185592651,-1.522067666053772,-1.0684584379196167,-0.2017654925584793,0.28079953789711,-0.06678158044815063,0.17344462871551514
30,-0.14911154524735723,0.7033102783913355,1.0056835453028887,-0.11330721527338028,-0.6467459797859192,-0.7542420625686646,0.7610235214233398,-0.5533820986747742,-0.5791703462600708,0.36686253547668457,0.1597769856452942,0.37953197956085205
31,-0.05007739029720403,0.8140442917441155,1.0208402599325592,-0.03436694294214249,-0.7270697951316833,-0.6857028603553772,2.347568988800049,0.685103178024292,0.30770599842071533,0.5996288061141968,-0.23185354471206665,-0.1218685507774353
32,-0.025720001279955853,0.7363282446961039,1.1043786909396638,-0.01905485987663269,-0.6715719103813171,-0.7406942844390869,-1.0891610383987427,1.4932187795639038,0.8714939951896667,0.1609005630016327,-0.17811369895935059,-0.6549050211906433
33,-0.03534319904288748,0.7273064223635222,1.264665807946162,-0.026394741609692574,-0.6648600101470947,-0.7465014457702637,0.06251545250415802,0.0341423861682415,1.0321589708328247,-0.2900572717189789,0.2389567494392395,0.31977421045303345
34,-0.08814557282177889,0.741987072659142,1.3200310291148507,-0.06489039957523346,-0.6757539510726929,-0.7342655658721924,0.8534665703773499,-0.19512979686260223,-0.22716191411018372,-0.5724997520446777,0.45920121669769287,0.2596104145050049
35,-0.1323760411585129,0.8941711936948371,1.2262335476846407,-0.082647405564785,-0.7796903848648071,-0.6206870079040527,0.595718264579773,-2.588719129562378,0.765678882598877,-0.1426486372947693,0.07847273349761963,0.39230871200561523
36,-0.42932335793639087,0.6204110752427198,1.2353679600687961,-0.33868205547332764,-0.5813696980476379,-0.7397997975349426,-3.996650218963623,-2.6377811431884766,0.15582774579524994,-0.34277546405792236,-0.14519280195236206,-0.3514325022697449
37,-0.5943679071613271,0.46341791684588085,1.1121265536176779,-0.5009234547615051,-0.4470081329345703,-0.7411203384399414,-1.0559444427490234,-2.2811529636383057,-0.7514429688453674,0.2751086354255676,-0.1578807532787323,-0.1033773422241211
38,-0.5920197239564071,0.44725058392952316,1.0807242901838103,-0.5031493306159973,-0.43248820304870605,-0.7481943368911743,1.4341073036193848,1.5995285511016846,-0.0032769963145256042,0.8058837056159973,-0.23929524421691895,-0.5521138906478882
39,-0.6126542843591771,0.5536458846923082,1.3228728417686817,-0.4891375005245209,-0.5257919430732727,-0.6959075927734375,1.289568543434143,2.1562302112579346,1.9794615507125854,-0.4244519770145416,-0.0842239260673523,-0.717620849609375
40,-0.5976985292565954,0.43658916142015564,1.6253931230194612,-0.509955883026123,-0.422851026058197,-0.7490941286087036,0.30400216579437256,-0.054117534309625626,3.843409538269043,0.007300853729248047,0.21212714910507202,-0.1374720335006714
41,-0.8103626965731695,0.3431356044693252,2.033195555266119,-0.6822998523712158,-0.3364415466785431,-0.6490562558174133,2.2774505615234375,0.16859713196754456,1.6043117046356201,-0.04716181755065918,0.382111132144928,0.40047532320022583
42,-0.84880353836633,0.3511858091498868,2.1812812580465404,-0.7046843767166138,-0.34401148557662964,-0.620544970035553,0.2986001968383789,-0.8343219757080078,0.8051750063896179,0.05115044116973877,0.6322805285453796,0.2823644280433655
43,-1.0354106732211044,0.11943916603530198,2.022037044870888,-0.8539444804191589,-0.1191553846001625,-0.5065380930900574,-3.4683001041412354,-2.387150526046753,0.905550479888916,-0.9649489521980286,0.2939448058605194,-1.2179796695709229
44,-1.0637775185696992,-0.0074652551668502615,1.8291546428031216,-0.8741716146469116,0.007465185597538948,-0.48555973172187805,-2.7264225482940674,0.5887125134468079,-1.026511549949646,-0.04819166660308838,-0.6055181622505188,0.13463807106018066
45,-1.0722952521381572,0.008682939087804497,1.586480946289625,-0.8782671689987183,-0.00868283025920391,-0.4780915677547455,-0.25812727212905884,-0.40681084990501404,-0.9200698733329773,0.7905290126800537,-0.785796582698822,0.029452621936798096
46,-1.1470174717813428,0.07821511877418111,1.7128156258608223,-0.908754825592041,-0.07813539355993271,-0.4099508225917816,1.2828582525253296,-1.4337315559387207,1.1953336000442505,0.25515973567962646,-0.1440630853176117,-0.09261268377304077
47,-1.2780453845852975,-0.027660430628913362,1.9399452260000036,-0.9570874571800232,0.027656903490424156,-0.2884768545627594,2.256667375564575,1.681567668914795,1.7337547540664673,-0.5733996629714966,0.1442943811416626,-0.516424298286438
48,-1.1416151168433188,-0.09340518253283946,2.178755622559755,-0.9053429961204529,0.09326942265033722,-0.4143124520778656,1.5000059604644775,0.7675710916519165,0.5892662405967712,0.33161258697509766,0.07102193683385849,0.34824198484420776
49,-1.1286836293120028,-0.016052370283382703,2.2414590595080357,-0.9037333726882935,0.016051681712269783,-0.427794873714447,0.37766528129577637,-0.8407522439956665,-1.3820594549179077,0.35034286975860596,0.33937129378318787,0.509581983089447
50,-1.2007140573280932,0.05734665286979079,2.0581219607373282,-0.9307650327682495,-0.05731522664427757,-0.3610975742340088,-2.4750542640686035,-2.289818525314331,-0.4548274874687195,-0.5681363344192505,0.8108552694320679,-0.5920732021331787
51,-1.261578354199573,0.03543090945742497,1.8958496933118194,-0.9519739747047424,-0.03542349860072136,-0.30412280559539795,-2.2860631942749023,0.016933836042881012,-0.4025077521800995,-0.04051864147186279,-0.25437140464782715,0.18719470500946045
52,-1.2832749900378706,0.004008003407688964,1.726703209382135,-0.9589419960975647,-0.004007992800325155,-0.2835738956928253,-0.39974480867385864,-0.3918612003326416,0.0589495450258255,0.6690860986709595,-0.6850789189338684,-0.09971162676811218
53,-1.2845580180423692,0.021480950748170115,1.822603262632336,-0.9590914249420166,-0.021479299291968346,-0.28228044509887695,2.066904067993164,0.46665120124816895,0.1876036822795868,0.4205477833747864,-0.3605549931526184,-0.03145548701286316
54,-1.434107351767064,-0.04868612277710024,2.0591151876585116,-0.9894987344741821,0.04866689071059227,-0.13610225915908813,2.9668071269989014,-1.5421438217163086,1.377679705619812,-1.2512849569320679,-0.13320058584213257,-0.5744385123252869
55,-1.4074682443602318,-0.1370611599754101,2.287214752502906,-0.97743821144104,0.13663242757320404,-0.16107797622680664,2.4196009635925293,-0.024298682808876038,0.7168464064598083,0.09776902198791504,0.15389490127563477,0.19403696060180664
56,-1.4215338588351267,-0.11696187274733524,2.3404712806589765,-0.9821246266365051,0.11669538170099258,-0.14769281446933746,-0.033883485943078995,0.3491014838218689,-0.42513933777809143,0.9541248679161072,0.11032488197088242,0.17456354200839996
57,-1.4848086818892983,-0.07098181703240007,2.3084815102810667,-0.9937965273857117,0.07092222571372986,-0.08566545695066452,-1.6673104763031006,-1.0065574645996094,0.10716880857944489,-0.2367790937423706,1.0587621927261353,-0.008603334426879883
58,-1.5499038905404692,-0.1774540886791917,2.2061448190797686,-0.9840814471244812,0.17652422189712524,-0.020562851801514626,0.4241577684879303,-0.027843616902828217,1.4806535243988037,-0.7327001094818115,0.15945905447006226,-0.21262192726135254
59,-1.3893754254139659,-0.394899313341729,2.3283216632566366,-0.9078867435455322,0.3847152590751648,-0.16654080152511597,2.854820728302002,1.0840904712677002,2.5024125576019287,0.17905068397521973,-0.666361927986145,0.07367575168609619
60,-1.1689698740125942,-0.4634291287782884,2.643384918073926,-0.8232743144035339,0.44701817631721497,-0.3498486280441284,2.7855639457702637,-0.8467397093772888,0.37085744738578796,0.06550765037536621,-0.7824368476867676,0.6068218946456909
61,-1.2981482220401244,-0.3718992566204034,2.8517922874225836,-0.8972252011299133,0.36338549852371216,-0.25087419152259827,1.7893447875976562,-2.7588329315185547,-0.13165001571178436,-1.0093756914138794,0.41476693749427795,-0.17934730648994446
62,-1.3880979865492116,-0.25842741459625423,2.9644622001070986,-0.9507027268409729,0.2555605173110962,-0.17565050721168518,1.1839903593063354,-0.03227870538830757,-1.5272812843322754,0.06438076496124268,-0.02121603488922119,-0.27101999521255493
63,-1.4248224670723966,-0.18156442792016927,2.9997747681712337,-0.9731020331382751,0.18056850135326385,-0.14306506514549255,-0.12493619322776794,-0.40861451625823975,-0.5203667283058167,0.8654206991195679,0.02597448229789734,0.06133900582790375
64,-1.5484502645208824,-0.1572207654723917,2.883195250660043,-0.9874196648597717,0.15657386183738708,-0.02206861414015293,-1.0266342163085938,-1.3806709051132202,-1.074476718902588,-0.22952979803085327,0.029720693826675415,-0.08973252773284912
65,-1.6344722242044458,-0.16405526820821384,2.6307546273192934,-0.9845736622810364,0.1633203625679016,0.06277848035097122,-0.9861672520637512,-0.26701122522354126,0.6800354719161987,-1.4980008602142334,0.6391851305961609,-0.7061195373535156
66,-1.5083153774800344,-0.199161592863652,2.462114191687161,-0.9783201813697815,0.19784756004810333,-0.061206039041280746,-1.570167064666748,0.6757060289382935,0.9635528922080994,0.4420652389526367,0.057248860597610474,0.47362053394317627
67,-1.4632285181032807,-0.4448972226561598,2.4856507965114174,-0.8974376916885376,0.43036511540412903,-0.09690947085618973,2.371694326400757,-0.3735558092594147,3.6219611167907715,0.9938732385635376,-0.7317415475845337,-0.47697359323501587
68,-1.1873264896652371,-0.5034435396885547,2.91476901161736,-0.8123096823692322,0.4824446737766266,-0.3277195990085602,2.436997652053833,1.943605899810791,-0.3571949601173401,-0.9365153908729553,-0.1806105673313141,0.5445165038108826
69,-1.180019575097967,-0.38562210682033654,3.065439266262662,-0.8567140698432922,0.37613561749458313,-0.35293465852737427,1.1072828769683838,-0.8987557888031006,-1.419165849685669,-0.983678936958313,0.2481319010257721,0.10436901450157166
70,-1.3004025733323095,-0.22454883210755466,3.0003022470253824,-0.9394726753234863,0.22266654670238495,-0.2604050040245056,-2.0573678016662598,1.3982893228530884,-1.8206877708435059,0.7828870415687561,-0.22091178596019745,0.22460788488388062
71,-1.1927141060039737,-0.055368877647228004,2.5737702082168004,-0.9279499650001526,0.055340591818094254,-0.3685730993747711,-2.261967420578003,-4.075286865234375,-1.8428103923797607,1.3865376710891724,0.570025622844696,0.3596314489841461
72,-1.7955504962213233,-0.16005074798597874,2.5347710113516713,-0.9623897075653076,0.15936830639839172,0.22001832723617554,0.10335609316825867,-2.7504305839538574,2.9852161407470703,-1.5248082876205444,0.32520508766174316,-0.21475407481193542
73,-1.567732379603265,-0.01717845115044471,2.210369579411338,-0.9998477101325989,0.017177606001496315,-0.0030634901486337185,-5.086005687713623,3.3777849674224854,-2.585061550140381,0.3742374777793884,0.5717048048973083,0.24233657121658325
74,-1.5556759404802334,0.1521805293272057,1.9068000951239836,-0.9883298873901367,-0.15159381926059723,-0.014945068396627903,-1.9827953577041626,-0.8379207849502563,-2.0889201164245605,1.1579313278198242,-0.2613242566585541,0.18117427825927734
75,-1.8191146099396764,0.26574386857667687,1.9783142135409675,-0.9353014230728149,-0.26262709498405457,0.23714691400527954,2.3057026863098145,-2.2085392475128174,0.2772817611694336,0.7152848243713379,0.03421825170516968,-0.14948508143424988
76,-1.9077570519821867,-0.139877551280796,2.265603024715818,-0.9345462322235107,0.13942186534404755,0.327391117811203,4.84877347946167,3.2817928791046143,3.822669506072998,-2.2835018634796143,0.034467265009880066,-0.10691693425178528
77,-1.691988334974546,-0.34721920047559296,2.5965698458105977,-0.9334255456924438,0.3402842879295349,0.11368082463741302,1.146202564239502,-0.09747608006000519,-0.7262029647827148,0.0035396814346313477,0.027925550937652588,0.2558107376098633
78,-1.5402809905860155,-0.14624845911782614,2.7609277580544256,-0.9888640642166138,0.14572767913341522,-0.03018488921225071,0.619215190410614,1.1934068202972412,-1.5085169076919556,1.3760864734649658,0.2996763586997986,0.674975574016571
79,-1.5734474792065167,-0.1297178810856627,2.640414865947904,-0.9915948510169983,0.12935440242290497,0.002628875197842717,-4.343761920928955,-0.9182872772216797,-0.13032738864421844,-0.7279790043830872,1.076089859008789,-0.08627760410308838
80,-1.530552591789763,-0.2729790919567457,2.4011555182418194,-0.9621922373771667,0.26960140466690063,-0.03874312713742256,-0.006521397270262241,-0.23839539289474487,2.0212337970733643,-0.6609918475151062,0.0073150694370269775,-0.22521865367889404
81,-1.6780841444555192,-0.27257472258028514,2.3800388097007117,-0.9575434327125549,0.2692119777202606,0.10312873870134354,-0.003660888411104679,-0.5010373592376709,-0.4999379515647888,0.32241159677505493,-0.551896333694458,-0.15307080745697021
82,-1.6878283916048336,-0.2038806141615721,2.472305543274809,-0.9725895524024963,0.20247109234333038,0.1143466904759407,0.5789262056350708,-1.1539475917816162,-1.041340947151184,1.524148941040039,-0.5236380696296692,0.015551328659057617
83,-1.8180028275705806,-0.2736426731326356,2.6459219852202955,-0.9335237145423889,0.2702403664588928,0.23559187352657318,2.585723876953125,2.1178362369537354,3.0863876342773438,-2.0528502464294434,0.4054950773715973,-0.3901481628417969
84,-1.6464541992868922,-0.28785094832502794,2.962777470366438,-0.9561132788658142,0.2838922441005707,0.07247583568096161,1.4812183380126953,0.9139939546585083,-1.2808698415756226,-0.0010095834732055664,0.1809362769126892,0.7555118799209595
85,-1.6280800373300182,-0.1417194759182201,3.0118641714335843,-0.9883508682250977,0.14124555885791779,0.0566784143447876,0.41583380103111267,-0.651310384273529,-1.2522518634796143,1.1099328994750977,3.55839729309082e-05,0.0492023304104805
86,-1.6876062506601182,-0.037743959567719455,3.001137797490715,-0.9924782514572144,0.037735000252723694,0.11646147817373276,-0.743774950504303,-0.902812123298645,-0.24358747899532318,0.6352088451385498,0.40289306640625,-0.3095461130142212
87,-1.673666535811928,-0.1446940928652848,2.7746900449589864,-0.9843186736106873,0.1441897302865982,0.10161576420068741,-2.0421085357666016,3.3022379875183105,1.3441318273544312,-1.835932731628418,0.3160000741481781,-0.6060560941696167
88,-1.8202644294847488,-0.10342506563278767,2.7137404328966244,-0.9638656377792358,0.10324078053236008,0.24556927382946014,-3.37209153175354,0.7320156097412109,0.3019762337207794,0.3484329581260681,-0.5880735516548157,0.6451473236083984
89,-1.7319936076410571,-0.10385378153879557,2.466530073130587,-0.9817178845405579,0.10366719216108322,0.15963533520698547,-0.5221909880638123,1.7191241979599,0.24912786483764648,1.024579644203186,-0.32270708680152893,-0.2920662760734558
90,-1.5778051014718155,-0.08185978152806679,2.547248028071848,-0.9966267943382263,0.08176838606595993,0.0069852471351623535,-0.6184720396995544,2.3849198818206787,0.3601617217063904,0.048689842224121094,-0.14982257783412933,-0.06632673740386963
91,-1.3424139971132032,-0.22929037519988077,2.753807001717541,-0.948541522026062,0.22728653252124786,-0.22047676146030426,4.238153457641602,0.42132848501205444,-0.024012811481952667,-0.6964017748832703,0.16317062079906464,-0.021451354026794434
92,-1.1938343945381404,-0.1691059666580593,2.940431607595811,-0.916524350643158,0.16830113530158997,-0.3628467321395874,0.8510998487472534,0.32406100630760193,-0.5635567903518677,0.6455435752868652,0.03224511444568634,0.5261157751083374
93,-1.2406221087822944,-0.13601526783828594,2.913531590076071,-0.9372488260269165,0.13559627532958984,-0.3212134838104248,-1.2175644636154175,-1.7418129444122314,-0.49964219331741333,0.9029929637908936,0.19872377812862396,0.6717841625213623
94,-1.5200755294022297,-0.12517413550103806,2.5963348867837923,-0.9909000992774963,0.12484750896692276,-0.05030238628387451,-4.04902458190918,-1.9492030143737793,0.9440135359764099,-1.5142574310302734,0.9403838515281677,-1.485235333442688
95,-1.6117800956065813,-0.18118209280737183,2.4601997587836077,-0.9828054904937744,0.18019244074821472,0.04030163958668709,-1.9970778226852417,-1.3989368677139282,-0.01711871102452278,-0.5753304958343506,-0.4066633880138397,0.28716719150543213
96,-1.6390153244085497,-0.1784512367446011,2.2696060544091363,-0.9818307757377625,0.17750561237335205,0.06708360463380814,-1.052789568901062,0.6539632081985474,-0.010067945346236229,0.8593178987503052,-0.43948379158973694,-0.05277085304260254
97,-1.608971577938752,-0.18001222467304837,2.3214057234121426,-0.9831247329711914,0.17904159426689148,0.037549275904893875,1.6726553440093994,-0.45827850699424744,-0.1827607899904251,0.6914682388305664,-0.4424082934856415,0.12762713432312012
98,-1.6723951012332814,-0.29439869656696444,2.546312174845703,-0.9520419239997864,0.2901644706726074,0.09706048667430878,5.416032314300537,0.19484224915504456,0.4142015278339386,-2.4240567684173584,-0.10740995407104492,-0.7685387134552002
99,-1.5584733765121133,-0.20043857196061396,2.8214206997903557,-0.97990483045578,0.19909913837909698,-0.012075929902493954,1.3921977281570435,0.8511754870414734,-1.1521250009536743,0.04948502779006958,0.15693414211273193,0.03453683853149414
100,-1.4704097572049046,-0.1285179235303002,2.856347792703225,-0.9867598414421082,0.12816442549228668,-0.09939152747392654,-0.4455465078353882,0.5294690728187561,-0.07586289197206497,1.1823012828826904,0.33640462160110474,0.5250659584999084
101,-1.5719054497266256,-0.15023707300087039,2.740032782168475,-0.988735020160675,0.14967253804206848,0.0010966290719807148,-3.0917179584503174,-2.3852033615112305,0.4944004416465759,-0.29326266050338745,0.7571877837181091,-0.19016826152801514
102,-1.622658345158113,-0.24034373485039742,2.5909213241555418,-0.969950258731842,0.23803649842739105,0.05034872889518738,-1.5356866121292114,-0.388286828994751,0.7249675393104553,-0.5672506093978882,0.08151304721832275,0.5097403526306152
103,-1.6775131880754497,-0.2069917444344884,2.295000865065675,-0.9730862975120544,0.20551680028438568,0.10424073040485382,-1.568664789199829,1.0578279495239258,0.13261933624744415,0.5164822340011597,-0.2981529235839844,-0.1338733434677124
104,-1.6280467308316757,-0.2244814181437939,2.2337627621742264,-0.973312497138977,0.2226008176803589,0.05578349158167839,1.0617249011993408,-0.28382137417793274,0.04798710346221924,1.039840817451477,-0.5299586057662964,-0.17724347114562988
105,-1.6970119575327232,-0.2855220000606317,2.361669445442602,-0.9518822431564331,0.2816583514213562,0.12078447639942169,3.0621862411499023,-0.5457282662391663,2.7188098430633545,-1.7179481983184814,0.006442844867706299,-0.8891408443450928
106,-1.5531392486045914,-0.32867974633697433,2.8293141986359096,-0.9463218450546265,0.32279372215270996,-0.01671101525425911,3.38452410697937,0.1042092889547348,-0.7155830264091492,-0.34037554264068604,0.11772748827934265,0.13281512260437012
107,-1.4880958185127027,-0.20394590160917986,2.9387643528060603,-0.9759282469749451,0.202535018324852,-0.08089426904916763,-0.6938188076019287,0.7088750600814819,-1.0720118284225464,1.1195744276046753,0.1350657194852829,0.20812207460403442
108,-1.5094384314752274,-0.17060119671975582,2.90798197774501,-0.9836283922195435,0.1697748452425003,-0.060429222881793976,-0.8740026354789734,-1.2993630170822144,-0.06272297352552414,0.6815654635429382,0.2669164538383484,0.13057392835617065
109,-1.6583083497290285,-0.23104808738783508,2.647831358333889,-0.969701886177063,0.22899788618087769,0.08507787436246872,0.3613302409648895,1.2363362312316895,1.599534273147583,-0.834161639213562,0.5284331440925598,-0.9039255380630493
110,-1.684728425322028,-0.2527957441807487,2.402007636187981,-0.9619397521018982,0.25011181831359863,0.11007249355316162,-4.617984294891357,0.6824808716773987,-0.16708184778690338,0.006083488464355469,-0.282613068819046,-0.08034837990999222
111,-1.6365972144668384,-0.23979625572951402,2.2015715212298326,-0.9692842364311218,0.2375047206878662,0.06387197226285934,-0.7283311486244202,0.6901534795761108,0.3433528542518616,1.0338289737701416,-0.4271256923675537,-0.09632743149995804
112,-1.642643262370652,-0.2679490765810254,2.282557721294532,-0.9618279933929443,0.2647542655467987,0.0692235454916954,1.6187371015548706,-1.8093575239181519,0.238285094499588,0.1580103635787964,-0.3506612777709961,-0.1952611207962036
113,-1.616064768197839,-0.36616452361895363,2.6515676900286738,-0.9327508807182312,0.3580368757247925,0.0422530435025692,4.377020359039307,-0.09443174302577972,-0.13733036816120148,-1.125140905380249,0.13340291380882263,0.1555314064025879
114,-1.5314898493134823,-0.2624398170605119,2.893459390397011,-0.9650140404701233,0.25943759083747864,-0.037950847297906876,0.501879096031189,0.18541036546230316,-1.8929173946380615,0.36603015661239624,0.13094329833984375,0.2424948811531067
115,-1.4933945399015558,-0.16151926810574055,2.875541739200889,-0.9840289354324341,0.16081789135932922,-0.07631807029247284,0.026130210608243942,-0.07759584486484528,-0.3475569486618042,1.0684864521026611,0.3282415270805359,0.21985751390457153
116,-1.6295807694979596,-0.17754342900464695,2.7326960736396044,-0.9825804233551025,0.17661215364933014,0.057827066630125046,-3.6728310585021973,-2.669454336166382,0.8829433917999268,-1.0898377895355225,1.308739423751831,-0.3455773591995239
117,-1.665504978733963,-0.28404318083681,2.6188434041498843,-0.9556284546852112,0.2802391052246094,0.09077785909175873,-1.880202054977417,-1.6158705949783325,-0.15023282170295715,-1.1765738725662231,-0.429103821516037,0.9156002998352051
118,-1.7278142343222576,-0.22999424252840045,2.270872672038923,-0.9616894721984863,0.2279719114303589,0.1522558033466339,-1.6068791151046753,0.9278304576873779,0.18374721705913544,0.6933638453483582,-0.29083818197250366,-0.2522313892841339
119,-1.6643686165350149,-0.23736278238102038,2.211066162342889,-0.967709481716156,0.23514017462730408,0.09081599861383438,1.10797917842865,-0.5491326451301575,0.05189362168312073,0.9956788420677185,-0.6039756536483765,-0.023417949676513672
120,-1.7119303748366337,-0.2738105060783534,2.3598597607068084,-0.9531751871109009,0.2704019546508789,0.13542583584785461,2.7790307998657227,-0.2869005501270294,1.447296142578125,-1.8334155082702637,0.05107024312019348,-0.6048471927642822
121,-1.6131119718966191,-0.30980165538272414,2.715937200406872,-0.951541543006897,0.30486974120140076,0.04028914496302605,2.711240291595459,0.023130588233470917,-1.1615195274353027,-0.3771023154258728,-0.08447179198265076,0.02758193016052246
122,-1.5508156983753696,-0.158297904292404,2.81322995657645,-0.9872999787330627,0.15763762593269348,-0.019729500636458397,-0.7475097179412842,0.7619234919548035,-1.0178024768829346,1.1442670822143555,0.19554230570793152,0.13888537883758545
123,-1.5393058129897712,-0.1459834757070778,2.7707896827685254,-0.9888728260993958,0.14546550810337067,-0.031150411814451218,-0.4854264557361603,-0.6201006174087524,0.18403880298137665,0.6953700184822083,0.3058589696884155,0.11498218774795532
124,-1.6974428035757236,-0.2391115393460684,2.584742043177329,-0.9637677669525146,0.23683953285217285,0.1227145865559578,-0.39127349853515625,0.2920069992542267,1.1559972763061523,-1.4116289615631104,0.5081250667572021,-0.8487582206726074
125,-1.7054474585720667,-0.25619060252709613,2.416636027553662,-0.9586058259010315,0.2533973455429077,0.12986315786838531,-4.3088788986206055,0.8147962093353271,-0.01211811974644661,-0.043606579303741455,-0.2872566282749176,0.3227430582046509
126,-1.6636835225864988,-0.24541462065095201,2.206980863714226,-0.9658548831939697,0.24295854568481445,0.08997447043657303,-0.8392735123634338,0.9696508646011353,0.013535336591303349,0.8203776478767395,-0.538780689239502,-0.16935062408447266
127,-1.655001641729332,-0.22597718375534925,2.2102379393927825,-0.9711227416992188,0.22405880689620972,0.08196751773357391,0.1608557403087616,-0.30080512166023254,-0.6366064548492432,0.3975447416305542,-0.3572070002555847,0.046877749264240265
128,-1.6818390306746314,-0.3256508011573948,2.449062215942859,-0.941607654094696,0.319925457239151,0.10499054193496704,3.7299294471740723,-0.3380414843559265,-0.04238242655992508,-1.5066804885864258,0.08652296662330627,-0.017084583640098572
129,-1.5729228063173735,-0.2640058372666326,2.7481989968007654,-0.9653502106666565,0.26094967126846313,0.0020528004970401525,1.9724715948104858,0.22787347435951233,-1.0959059000015259,0.1053648591041565,-0.026101678609848022,0.25138044357299805
130,-1.5315243422778273,-0.18707289115921458,2.799601396733741,-0.9817951321601868,0.18598365783691406,-0.0385768786072731,-1.0113928318023682,0.4432370066642761,-1.1302762031555176,1.1335744857788086,0.16864584386348724,0.14517474174499512
131,-1.593141623437633,-0.22277589385032884,2.713789594196762,-0.9750444889068604,0.22093777358531952,0.021791284903883934,-2.508939504623413,-1.7930693626403809,1.2255300283432007,-0.6015546917915344,0.7684421539306641,0.1878798007965088
132,-1.645307600911292,-0.2672237118099216,2.5233101189443743,-0.9618313312530518,0.26405471563339233,0.07180020213127136,-1.081461787223816,0.05978793278336525,0.481390118598938,-0.5069795250892639,0.3389878571033478,0.04929351061582565
133,-1.7337254900018075,-0.2414091350379977,2.2128653624410974,-0.9581424593925476,0.23907113075256348,0.15750552713871002,-2.177489995956421,1.0072174072265625,0.40724101662635803,0.4342471957206726,-0.3506433963775635,-0.20520448684692383
134,-1.6863487179148868,-0.23861855606437543,2.0598179890048174,-0.965185821056366,0.2363605499267578,0.1120285838842392,0.13507811725139618,0.17272144556045532,0.1614793837070465,1.0577149391174316,-0.6087665557861328,-0.4139084815979004
135,-1.753448866443935,-0.2574018966099229,2.1913505043010013,-0.9509680271148682,0.2545689046382904,0.17565447092056274,2.713833808898926,-0.4418978691101074,1.2915602922439575,-1.4344689846038818,0.2998897135257721,-0.6100263595581055
136,-1.657508275417544,-0.30450571483545413,2.5971299841534,-0.9504110217094421,0.299821674823761,0.08261916786432266,2.4483492374420166,0.4804685115814209,-1.316341519355774,-0.40971165895462036,0.040678203105926514,0.11431074142456055
137,-1.577158363890271,-0.18861375196356348,2.82184590258293,-0.9822452664375305,0.18749740719795227,0.006249165162444115,1.5443339347839355,0.48246732354164124,-0.8663183450698853,0.7699191570281982,0.08194229006767273,0.10837483406066895
138,-1.5515360736746646,-0.15301974981456926,2.8476454394558384,-0.988132119178772,0.15242329239845276,-0.01903402805328369,-0.8892399668693542,-0.293866366147995,-0.07295086979866028,0.8255344033241272,0.21996746957302094,0.1271425485610962
139,-1.7269701899090866,-0.18866979633311196,2.5928539400456696,-0.9703003764152527,0.18755246698856354,0.1527796983718872,-1.5956742763519287,0.0020825595129281282,1.1705726385116577,-1.6676697731018066,0.7614679336547852,-0.8814784288406372
140,-1.7747231168385968,-0.24355642885108172,2.5117315740878574,-0.9503769278526306,0.24115560948848724,0.19653934240341187,-3.9283506870269775,-0.12720736861228943,0.11084799468517303,-0.3802047371864319,-0.6261959075927734,1.379541039466858
141,-1.7361789763817053,-0.20483274012235472,2.2419264415998494,-0.9657356142997742,0.20340339839458466,0.16118818521499634,-1.0795698165893555,1.0765947103500366,0.30706003308296204,0.8600075840950012,-0.32493966817855835,-0.13254739344120026
142,-1.6871730984734385,-0.20943671706727915,2.2227868493410163,-0.9715318083763123,0.20790895819664001,0.11357694864273071,0.6813176274299622,0.1915888786315918,-0.42978668212890625,0.5454912185668945,-0.5544208288192749,-0.059865958988666534
143,-1.7140061111311464,-0.326158009431343,2.4497041545251874,-0.9375830888748169,0.3204059600830078,0.13519659638404846,4.6216912269592285,-0.8862731456756592,1.279790997505188,-1.937783122062683,-0.05333137512207031,-0.3596838712692261
144,-1.5840072371862977,-0.27641175434072507,2.738585253146241,-0.9619568586349487,0.2729053795337677,0.012709065340459347,2.1614856719970703,0.4938559830188751,-1.2724919319152832,0.1171693205833435,0.0608195960521698,0.06195223331451416
145,-1.4963073471802422,-0.19805877031821217,2.8496303016631983,-0.9777316451072693,0.1967664211988449,-0.07296523451805115,-0.10568434745073318,0.7156009078025818,-0.24688641726970673,0.911279559135437,0.1141924262046814,0.35902172327041626
146,-1.51738323183919,-0.18126327432014225,2.8137520299352476,-0.9822139143943787,0.18027229607105255,-0.05251303315162659,-0.38708627223968506,-1.5082004070281982,-0.06362377107143402,0.48633384704589844,0.26255303621292114,0.1446760892868042
147,-1.6749585775557894,-0.2606338096129277,2.638385561675205,-0.9609899520874023,0.25769299268722534,0.10046247392892838,-0.3416007459163666,0.02932448871433735,0.3203277587890625,-1.0445795059204102,0.31438949704170227,-0.4028000831604004
148,-1.7049464201496043,-0.2575266041543888,2.445891199212952,-0.9583344459533691,0.2546895146369934,0.12933745980262756,-2.9817123413085938,0.8792924284934998,0.25663378834724426,-0.08139938116073608,-0.5352681875228882,0.3960531949996948
149,-1.6654107644854892,-0.25243416452153683,2.2556009948525033,-0.963976263999939,0.24976171553134918,0.09147920459508896,-0.4591823220252991,0.4560181200504303,0.21192502975463867,0.7857995629310608,-0.4860288202762604,0.08192157000303268
150,-1.678792699161811,-0.22718442040048226,2.2631969546709394,-0.9686282277107239,0.2252351939678192,0.10501693189144135,1.4519271850585938,-1.2455265522003174,-0.25666317343711853,0.3059847950935364,-0.011718958616256714,-0.89003586769104
151,-1.656412167593486,-0.3872724950968757,2.5857474283156416,-0.9225510358810425,0.3776642978191376,0.07917854189872742,4.553097248077393,-0.41168975830078125,-0.36384695768356323,-1.8630629777908325,0.011770516633987427,0.1472160816192627
152,-1.5839513611778835,-0.2961379127086708,2.8064035067751356,-0.956387996673584,0.2918284237384796,0.012582042254507542,0.6706911325454712,-0.10540936142206192,-1.5974699258804321,0.310697078704834,0.061153143644332886,0.025519132614135742
153,-1.5581594779951289,-0.18486868719431646,2.854384108267963,-0.9828819036483765,0.18381746113300323,-0.012421190738677979,0.34535345435142517,-0.17725035548210144,-0.5146062970161438,1.265261173248291,0.32448330521583557,0.17088371515274048
154,-1.6595861728325987,-0.20344506713007696,2.7941824969290123,-0.9755182862281799,0.2020445466041565,0.08684445172548294,-2.074756145477295,-2.6708734035491943,1.0870070457458496,-0.432669460773468,0.7968567609786987,-0.05443478375673294
155,-1.7167149428240585,-0.3143503477293715,2.681349056714207,-0.940890908241272,0.3091987073421478,0.13827629387378693,0.43751204013824463,0.061814188957214355,0.021421827375888824,-1.010418176651001,0.24431386590003967,0.3226611614227295
156,-1.7765691225499012,-0.23963029716392412,2.4133630182750987,-0.9509322047233582,0.23734350502490997,0.1984853744506836,-2.0178585052490234,1.1153000593185425,-0.1071789488196373,0.5770458579063416,-0.1804129183292389,-0.1581258326768875
157,-1.6737651448050195,-0.26479159909256045,2.3511991678664463,-0.9600349068641663,0.26170814037323,0.09920451790094376,0.5154915452003479,0.9767722487449646,0.1773453801870346,0.8075844645500183,-0.572529673576355,-0.10872603952884674
158,-1.711829502988901,-0.2605168845558848,2.4542100203370403,-0.9566634297370911,0.257580041885376,0.13582301139831543,1.9389739036560059,-1.8806047439575195,1.1964126825332642,-0.6860979795455933,0.1691625714302063,-0.7082564830780029
159,-1.6510649323206408,-0.33631881417590387,2.737348089623221,-0.9409366250038147,0.3300143778324127,0.07569029927253723,1.72500479221344,0.11036428809165955,-0.7660726308822632,-0.6079983711242676,0.05455288290977478,0.12958621978759766
160,-1.5736729984576945,-0.24203053986394713,2.8758978636841332,-0.9708493947982788,0.23967447876930237,0.002792822662740946,0.7069509029388428,0.657989501953125,-0.91822350025177,0.5212032794952393,0.03896629810333252,0.0878138542175293
161,-1.536832371520753,-0.20727657054891915,2.918419391946819,-0.9780306816101074,0.2057955265045166,-0.03323056921362877,-0.015898119658231735,-0.44226011633872986,0.3360523283481598,1.17256498336792,0.0636136382818222,0.21722102165222168
162,-1.7305959867404264,-0.26625278795741597,2.763411627881393,-0.9524716734886169,0.26311811804771423,0.1535135805606842,-3.4702062606811523,-1.1903704404830933,1.917942762374878,-1.4185304641723633,0.9569898843765259,-0.3476358652114868
163,-1.811998999656672,-0.2952044278837888,2.6790244406955064,-0.9290462136268616,0.2909354269504547,0.22853773832321167,-4.723339557647705,1.0985594987869263,-0.3324435353279114,-0.5815890431404114,-0.3668784499168396,1.8725669384002686
164,-1.7599802226787546,-0.243475698711187,2.3922066873720036,-0.9531903266906738,0.24107725918293,0.1825108528137207,-1.1864243745803833,1.3196218013763428,0.1847899854183197,0.804783284664154,-0.2315405160188675,-0.3993687629699707
165,-1.6824749811101414,-0.26343162166991296,2.426381199203226,-0.9594873189926147,0.2603953182697296,0.10760196298360825,1.0700311660766602,-0.46821409463882446,-0.6099578738212585,0.4266809821128845,-0.6933482885360718,0.24615775048732758
166,-1.7324715202054242,-0.2941338870225848,2.555725089331603,-0.9445726275444031,0.28991103172302246,0.15405862033367157,2.9829938411712646,0.16771826148033142,0.8901281952857971,-1.3234937191009521,-0.12134718894958496,-0.43570542335510254
167,-1.612343815960736,-0.27784316082597793,2.8520406885811536,-0.9608194231987,0.27428215742111206,0.03994261845946312,1.975319266319275,0.4224052131175995,-0.9021142721176147,-0.27245694398880005,-0.07492607831954956,0.22681152820587158
168,-1.5220344826719399,-0.1964356564997246,2.9672324484016537,-0.9796026349067688,0.19517478346824646,-0.04780512675642967,-0.08480238914489746,0.8314660787582397,-0.4099287986755371,0.8569983839988708,0.16754186153411865,0.31289607286453247
169,-1.5485952033527903,-0.16201131730535231,2.914565318130038,-0.9866615533828735,0.16130350530147552,-0.0219085942953825,-1.593759298324585,-1.1776412725448608,-0.06127285957336426,0.7596108913421631,0.2875337600708008,-0.041827380657196045
170,-1.7267736935672524,-0.2725925849721737,2.7638289738633306,-0.9513845443725586,0.2692292034626007,0.14960971474647522,1.099381685256958,-1.1982890367507935,0.8577280640602112,-1.1022348403930664,0.3703886866569519,-0.18156160414218903
171,-1.8204702804547228,-0.22888054901151184,2.514866544883742,-0.9437227249145508,0.22688740491867065,0.24064424633979797,-2.4031190872192383,0.925462007522583,0.5431662201881409,0.3114595413208008,-0.09416645765304565,-0.5675332546234131
172,-1.7161757525356731,-0.250926310233911,2.3790057579849653,-0.9584642052650452,0.24830137193202972,0.14033101499080658,0.20131860673427582,0.8467435836791992,0.4708477854728699,0.7627092599868774,-0.4348706007003784,-0.23717857897281647
173,-1.6956590774948832,-0.2340636416854233,2.4102234476614988,-0.9651590585708618,0.23193226754665375,0.12114263325929642,1.5850104093551636,-1.64599609375,-0.01036536879837513,0.3247934579849243,0.020570188760757446,-0.8944275379180908
174,-1.682657680283019,-0.35282344171564306,2.6938694528695653,-0.9325360059738159,0.34554868936538696,0.10475202649831772,3.3617584705352783,0.02954026311635971,-0.7991759181022644,-1.3511097431182861,-0.006681472063064575,0.3414454460144043
175,-1.584790509394481,-0.26505352473687993,2.96326581319239,-0.9649839997291565,0.2619609236717224,0.013505044393241405,1.504467487335205,0.6268264651298523,-0.9356671571731567,0.3448362946510315,0.07333570718765259,0.30306899547576904
176,-1.5393027037159104,-0.20932584408551683,3.005307612934303,-0.9776862263679504,0.2078005075454712,-0.030801067128777504,-0.19022142887115479,0.15269088745117188,-0.608071506023407,1.0020239353179932,0.1653684675693512,0.08590054512023926
177,-1.6771123575565081,-0.20505918397077394,2.8328258343613597,-0.9735209941864014,0.20362509787082672,0.10389261692762375,-3.402799606323242,-2.021782159805298,0.7896796464920044,-0.9368641376495361,0.904910683631897,-0.6687881946563721
178,-1.7532843718553772,-0.29990080394301094,2.768198817123564,-0.9395021796226501,0.2954254448413849,0.17337679862976074,-2.5526275634765625,-0.9074249267578125,-0.40151864290237427,-0.7489133477210999,-0.6130523681640625,2.0977566242218018
179,-1.7382790027417996,-0.2267039965610793,2.4011226176624327,-0.9607781171798706,0.22476708889007568,0.16243532299995422,-1.4947171211242676,1.4771896600723267,0.4302147626876831,0.8077629804611206,-0.19951379299163818,-0.19751524925231934
180,-1.6812970198653203,-0.23688463759721337,2.3591669362680907,-0.9661452174186707,0.23467540740966797,0.1071963757276535,0.17553026974201202,-0.358532190322876,-0.14992594718933105,0.7425581812858582,-0.5874433517456055,0.11620759963989258
181,-1.7367141249619347,-0.24153103553558208,2.423717186961269,-0.9576387405395508,0.2391895055770874,0.1603635549545288,2.33640193939209,-1.090842604637146,1.492303490638733,-1.3678312301635742,0.1200634241104126,-0.5015653371810913
182,-1.6449849909749552,-0.34019251231477143,2.8327517587848403,-0.9400973916053772,0.33366858959198,0.06987281143665314,3.9912540912628174,0.1993606835603714,-0.9910698533058167,-0.3344082236289978,0.02762901782989502,0.16680622100830078
183,-1.564303436919879,-0.23921350659055415,3.0418443002605917,-0.9715040922164917,0.23693859577178955,-0.006307957693934441,0.40390607714653015,0.2611798048019409,-0.5738634467124939,0.7881240248680115,0.11558519303798676,0.1335662603378296
184,-1.5533163939237487,-0.18273120009939162,3.0220403871981047,-0.9832008481025696,0.1817159801721573,-0.01718803495168686,-0.6161317229270935,-0.9044520258903503,-0.44056373834609985,0.7762153744697571,0.308228462934494,0.09601491689682007
185,-1.751174656407488,-0.20296270058592106,2.7818831811913003,-0.9635826945304871,0.20157210528850555,0.17571933567523956,-0.12026140093803406,-0.025106679648160934,1.208321452140808,-1.5647680759429932,0.5109981298446655,-1.2523488998413086
186,-1.7574772654371098,-0.2395911028884084,2.6587689019646836,-0.9545570611953735,0.2373054325580597,0.18029692769050598,-4.097905158996582,0.2993791103363037,-0.1359265148639679,-0.28534162044525146,-0.5199134349822998,0.8305215835571289
187,-1.7025048184247038,-0.2096544526116591,2.4319362724488403,-0.9696316719055176,0.20812192559242249,0.1284523457288742,-0.8484434485435486,1.1439580917358398,0.20814235508441925,0.8740504384040833,-0.3746258020401001,-0.18252943456172943
188,-1.7014782490306934,-0.1886932911459307,2.4358099888403326,-0.9738748669624329,0.1875755339860916,0.12799730896949768,-0.06860201060771942,0.38772886991500854,-0.8216784000396729,0.33711034059524536,-0.7434685230255127,0.4459468126296997
189,-1.899369430330256,-0.24366699112730358,2.7940582081573773,-0.9185439348220825,0.24126291275024414,0.31316041946411133,5.7732954025268555,-1.9255653619766235,-2.88199782371521,-1.546818733215332,0.28150323033332825,-0.25261351466178894
190,-1.8343189231228108,-0.14418385134819428,-3.093734760370707,-0.9554600715637207,0.14368480443954468,0.2577802538871765,0.350680947303772,0.662913978099823,-1.8263039588928223,0.21475273370742798,0.3120952248573303,0.22964653372764587
191,-1.7375370596037654,-0.057488710784115556,-3.0895904959833516,-0.9845019578933716,0.05745704844594002,0.16569501161575317,-0.13858662545681,0.7163713574409485,0.1313994824886322,1.0920305252075195,0.14406578242778778,-0.056320056319236755
192,-1.7866348398675689,-0.10411028089019242,3.103656003490191,-0.9715082049369812,0.10392230749130249,0.21300692856311798,-2.657010555267334,-2.281452178955078,1.4563536643981934,-0.07556509971618652,0.4662070870399475,-0.016229644417762756
193,-1.853738808730147,-0.19673748271712124,2.890947634035567,-0.9417147636413574,0.19547079503536224,0.27379679679870605,-0.5649033188819885,0.7220403552055359,0.9112814664840698,-0.6212278604507446,0.23154644668102264,0.26177147030830383
194,-1.8685880022337775,-0.15115920770699745,2.5835447976819643,-0.9450859427452087,0.15058422088623047,0.29006412625312805,-2.0782291889190674,0.669294536113739,0.3094116151332855,0.5039390325546265,-0.15139295160770416,-0.46607422828674316
195,-1.7956621350797792,-0.1529266757112757,2.4820591281854223,-0.9634472727775574,0.15233130753040314,0.22037330269813538,0.20714978873729706,0.24966107308864594,0.08784865587949753,0.9456556439399719,-0.42702001333236694,-0.283819317817688
196,-1.832333267974868,-0.1713613291722317,2.54243209087014,-0.9518454074859619,0.17052389681339264,0.2547784745693207,2.050525426864624,-0.258634090423584,1.6177563667297363,-0.9083535671234131,-0.027686357498168945,-0.573153018951416
197,-1.7389192194956935,-0.24445361237499005,2.876874802890504,-0.9565895795822144,0.242026224732399,0.16235719621181488,3.543027877807617,0.6255173683166504,-0.9590339064598083,-0.5653679370880127,0.1913081556558609,0.06800474226474762
198,-1.6324756117101866,-0.17135000139858833,3.1375119719427684,-0.983481764793396,0.17051273584365845,0.060737494379282,0.8568779826164246,0.4208948612213135,-0.8913644552230835,0.5542672872543335,0.07777827978134155,0.3156968355178833
199,-1.6084352941930111,-0.115771215075262,3.13514323964359,-0.9926025867462158,0.11551277339458466,0.03737819194793701,-0.43457111716270447,-0.6627241373062134,-0.09240655601024628,1.0508606433868408,0.26115044951438904,0.05284703150391579
200,-1.834647836023068,-0.14004636395721962,3.0070185200694213,-0.9559409618377686,0.13958902657032013,0.2582473158836365,-2.990892171859741,-3.2620604038238525,1.6252161264419556,-1.6305153369903564,0.6699202060699463,-0.5106581449508667
201,-1.8734754508367135,-0.1788232867895256,2.851483386858265,-0.939319908618927,0.17787174880504608,0.2933253347873688,-3.3665735721588135,1.1275875568389893,1.7244603633880615,-0.121745765209198,-0.03703312575817108,0.5522404909133911
202,-1.8237652340399828,-0.14173115478225803,2.42559731784658,-0.9584658145904541,0.1412571221590042,0.24776993691921234,-2.445935010910034,1.2128491401672363,0.6430805921554565,0.705215573310852,-0.12937051057815552,-0.22965773940086365
203,-1.7922085116682216,-0.16367523424427113,2.3167485582133565,-0.9625496864318848,0.16294541954994202,0.21667253971099854,0.08894240111112595,0.009553750045597553,0.013921316713094711,0.6650948524475098,-0.5499235391616821,-0.08334124088287354
204,-1.8875441303043994,-0.22787963050484253,2.397337043080706,-0.9256871938705444,0.22591248154640198,0.3034253716468811,2.429964542388916,0.5720832347869873,0.9211474061012268,-1.950213074684143,0.08533628284931183,-0.24644899368286133
205,-1.7705610036885688,-0.22775924924450475,2.7133409169023888,-0.9548016786575317,0.2257952094078064,0.19331398606300354,2.6700336933135986,0.26018771529197693,-0.42318692803382874,-0.14583003520965576,-0.2304033488035202,0.14010584354400635
206,-1.673939351482234,-0.16251381922045197,2.8053028381362872,-0.9815791845321655,0.16179941594600677,0.10160360485315323,-0.8715847730636597,1.0237674713134766,-1.0186657905578613,0.619076132774353,-0.02385994791984558,0.18196570873260498
207,-1.652936188381662,-0.12102710546858163,2.7342946124771665,-0.9893383383750916,0.12073186039924622,0.08144737035036087,-1.2514963150024414,-0.6652241349220276,0.07617643475532532,0.7014811635017395,0.35779905319213867,0.15573525428771973
208,-1.819946775421312,-0.12891824345393452,2.4110018654144776,-0.961080014705658,0.12856143712997437,0.24453449249267578,-1.4858182668685913,0.03540536016225815,0.9446037411689758,-1.2037911415100098,0.31925350427627563,-0.8252382278442383
209,-1.8122582993948237,-0.15263239227675846,2.1806793143421177,-0.9597009420394897,0.15204045176506042,0.23634245991706848,-3.688722610473633,0.9786602258682251,0.5459455847740173,0.10005134344100952,-0.19134710729122162,-0.3548269271850586
210,-1.7924748861681379,-0.15229945170267709,1.9979261079145976,-0.9642378091812134,0.1517113596200943,0.21732240915298462,-0.6518594622612,0.5512250065803528,0.35434556007385254,0.8222700953483582,-0.3218469023704529,-0.2871619462966919
211,-1.7862733428954845,-0.15656376419467827,2.044389153877938,-0.9649263620376587,0.1559249311685562,0.21119828522205353,1.9129765033721924,-0.8987897634506226,-0.2508019804954529,0.35031747817993164,-0.3838454484939575,-0.3379835784435272
212,-1.7967444704966102,-0.21151721394488754,2.272461666175133,-0.9528622031211853,0.20994354784488678,0.21903766691684723,2.495804786682129,0.08612113445997238,-1.5222859382629395,-0.743533730506897,0.3219168186187744,0.47276532649993896
213,-1.7185829394944032,-0.21197408524605335,2.4848273522020574,-0.9669608473777771,0.21039021015167236,0.14395342767238617,0.8697196245193481,0.8513321280479431,-0.2702347934246063,0.15858078002929688,-0.06472980976104736,0.15356241166591644
214,-1.6598980830358396,-0.18785130025429483,2.5141980177509424,-0.9785105586051941,0.1867484301328659,0.08741847425699234,-0.09646210819482803,0.21904510259628296,-0.13068720698356628,0.7590892314910889,0.0233498215675354,0.07211219519376755
215,-1.7236531507448385,-0.16723541964583158,2.411566290190312,-0.9745516180992126,0.16645698249340057,0.1501380205154419,-2.3336689472198486,-1.60381281375885,0.07551427185535431,0.2737153172492981,0.33250540494918823,-0.2974616289138794
216,-1.8081839139377154,-0.18814312882057135,2.2802430422492055,-0.9548037648200989,0.18703511357307434,0.2310144007205963,0.46294936537742615,-1.7161189317703247,-0.06174050271511078,-0.8877255320549011,0.28688761591911316,0.856067419052124
217,-1.7995850888576934,-0.16491434854906117,2.00231882249859,-0.9607277512550354,0.1641678363084793,0.22372090816497803,-1.311621904373169,0.8594943284988403,0.4972679018974304,0.4116097688674927,0.021089091897010803,-0.07601584494113922
218,-1.7565172376481728,-0.19080136034346135,1.956829268851049,-0.9649679064750671,0.18964576721191406,0.18130405247211456,0.309820294380188,0.13141578435897827,0.24348726868629456,0.6054862141609192,-0.5131473541259766,-0.16833415627479553
219,-1.790020385721164,-0.19099218773300128,2.0584245977435045,-0.9583181142807007,0.1898331344127655,0.21351788938045502,1.3324741125106812,-1.4215580224990845,0.39132022857666016,-0.5750986337661743,-0.001997441053390503,-0.2499406337738037
220,-1.7658166686500965,-0.2226468888725906,2.373662294347681,-0.9568280577659607,0.22081194818019867,0.18900315463542938,3.5309150218963623,-0.23564544320106506,-0.6115452647209167,-0.3999529480934143,0.12733256816864014,-0.04149651527404785
221,-1.7032821382051884,-0.20084704257441652,2.6825492753486637,-0.971310555934906,0.19949941337108612,0.12944310903549194,1.4453792572021484,0.34013742208480835,-0.9017407298088074,0.33204376697540283,-0.09303887188434601,0.1784028708934784
222,-1.6276631597954334,-0.10177455221531068,2.7131734854158664,-0.993217408657074,0.10159894824028015,0.05654209107160568,0.08333384990692139,0.07319121807813644,-0.25258710980415344,1.1490707397460938,0.23452165722846985,-0.011772751808166504
223,-1.7701389791543862,-0.14188468075903188,2.627152191713792,-0.9703471660614014,0.14140911400318146,0.19603513181209564,-2.076970338821411,-0.6946635246276855,1.0013785362243652,-1.2370197772979736,0.80704665184021,-0.49927306175231934
224,-1.728111143923235,-0.1674404626672034,2.52066513370532,-0.9738388061523438,0.1666591614484787,0.15447570383548737,-2.418347120285034,1.1584539413452148,1.0039979219436646,-0.01024627685546875,0.1642734557390213,0.32741212844848633
225,-1.709901900223901,-0.19434999715707588,2.252452558220657,-0.9716957807540894,0.1931288093328476,0.13604694604873657,-1.2252784967422485,0.6481961011886597,0.4557177424430847,0.4707953929901123,-0.4295484721660614,-0.2667231559753418
226,-1.6578200538863204,-0.2414224333453604,2.229553672092853,-0.9673245549201965,0.23908405005931854,0.08439333736896515,0.4172119200229645,-0.13832174241542816,-0.18037240207195282,0.7634975910186768,-0.6357668042182922,0.11490166187286377
227,-1.7596513484648872,-0.2681562509064077,2.2524451120975226,-0.9471161365509033,0.2649540305137634,0.1810249388217926,2.3027522563934326,-0.5997970700263977,0.6688956618309021,-1.3934903144836426,-0.021591663360595703,-1.1049294471740723
228,-1.6599430403366053,-0.2783243196007694,2.5642990709847755,-0.957699179649353,0.27474483847618103,0.08560261875391006,2.734691619873047,0.4207283854484558,-0.6021020412445068,-0.388171911239624,0.25049322843551636,0.25221168994903564
229,-1.5790072876231067,-0.21087444440885914,2.706599098303218,-0.9778154492378235,0.20931504666805267,0.008028985001146793,0.14333690702915192,0.4517501890659332,-0.690331220626831,0.7176987528800964,-0.009928420186042786,0.3397035598754883
230,-1.5747766033667103,-0.17810430363148846,2.6269766082176256,-0.9841736555099487,0.17716418206691742,0.003917303867638111,-1.630799412727356,-0.12021876126527786,-0.1777789145708084,0.7199676036834717,0.10288037359714508,-0.03574717044830322
231,-1.7166684973813389,-0.16919495048887928,2.384810129010985,-0.9752520322799683,0.16838884353637695,0.14327985048294067,-2.0395073890686035,-0.07869600504636765,0.8040120005607605,-1.1959823369979858,0.5352397561073303,-0.8572232723236084
232,-1.7847820454714598,-0.16060550832207998,2.2429930709258734,-0.9646165370941162,0.159915953874588,0.2096235156059265,-3.975154399871826,0.8693724870681763,0.20861168205738068,-0.06387174129486084,-0.18596269190311432,0.0835130512714386
233,-1.7322444002958022,-0.15783354835031224,2.0186343820427157,-0.9747272729873657,0.157179057598114,0.1587495356798172,-1.0938632488250732,0.9735545516014099,0.24062266945838928,0.7328602075576782,-0.3081342875957489,-0.23476886749267578
234,-1.6807636290965824,-0.15616773964895497,1.9894594078957697,-0.981863796710968,0.15553373098373413,0.10841026157140732,1.0421714782714844,-0.22954046726226807,-0.46651339530944824,0.3154362440109253,-0.329865425825119,0.04915201663970947
235,-1.712997706582154,-0.268148190055601,2.230497347157503,-0.9545304179191589,0.26494625210762024,0.1366579234600067,3.7247908115386963,-0.48687276244163513,0.1298028528690338,-1.280867099761963,-0.31958794593811035,-0.1444856971502304
236,-1.616353272449664,-0.21576030456912734,2.4595614216156148,-0.9758004546165466,0.21409016847610474,0.044485267251729965,1.614271640777588,0.6513359546661377,-0.8606171011924744,0.13908475637435913,-0.047097980976104736,0.17238783836364746
237,-1.5342325418041136,-0.15084091836762917,2.5004833418587498,-0.9879843592643738,0.1502695530653,-0.036140553653240204,-0.512622058391571,0.2969667911529541,-0.5062026977539062,0.7741324305534363,0.06843465566635132,0.3114548921585083
238,-1.6548391860933827,-0.1314252128570101,2.3563620195104256,-0.9878770112991333,0.13104720413684845,0.08322003483772278,-2.4080560207366943,-2.916133165359497,0.1829744130373001,-0.5361402630805969,0.9641218781471252,-0.4912705421447754
239,-1.7759196360512741,-0.16500426868538956,2.2479634752747355,-0.9657381772994995,0.16425654292106628,0.20092131197452545,-2.410259485244751,0.004198530688881874,-0.004155993461608887,-0.5008602142333984,-0.48261594772338867,2.0584628582000732
240,-1.7416698367727057,-0.14456062306052742,1.9662186757165787,-0.9751579165458679,0.14405764639377594,0.168269544839859,-1.4961947202682495,1.1894346475601196,0.3878468871116638,0.6760550737380981,-0.20260566473007202,-0.2705796957015991
241,-1.6825547616701138,-0.1747833928494249,1.9238679000748218,-0.9786207675933838,0.17389483749866486,0.10982675105333328,0.9466978311538696,0.06310175359249115,-0.06469810754060745,0.5158370137214661,-0.5674800276756287,-0.11316848546266556
242,-1.7482504225619138,-0.18061505873359437,2.0395643859046726,-0.968285083770752,0.17963466048240662,0.1736527681350708,1.6280871629714966,0.030882257968187332,1.017326831817627,-1.589332103729248,0.377494215965271,-0.4061204195022583
243,-1.6778773570765682,-0.1977777787208948,2.2987035281963277,-0.9748895168304443,0.19649091362953186,0.1047930121421814,2.1107165813446045,0.802878737449646,-0.2864789366722107,-0.2194157838821411,0.31243544816970825,0.20351074635982513
244,-1.5842004789926982,-0.15276582816910933,2.388675197595965,-0.988265335559845,0.15217232704162598,0.013247651979327202,-0.22830545902252197,0.9620003700256348,-0.9828608632087708,0.4717094302177429,-0.05721686780452728,0.3904082775115967
245,-1.589505789979625,-0.10877674771651089,2.2992697037715826,-0.9939157962799072,0.10856235772371292,0.0185978002846241,-1.767224669456482,-1.343961238861084,-0.04982934892177582,0.7643166780471802,0.3064156770706177,0.22841143608093262
246,-1.7603596175000413,-0.14626550904927138,2.0819479577044415,-0.9716001749038696,0.14574454724788666,0.18641802668571472,-0.36594483256340027,0.1534358263015747,0.9002684950828552,-1.0940889120101929,0.5170972347259521,-0.6820235252380371
247,-1.7631897293347798,-0.18149593204612544,1.9145449396905991,-0.9654272794723511,0.18050113320350647,0.18806804716587067,-3.0443215370178223,0.5441643595695496,0.43671122193336487,-0.15874874591827393,-0.22212707996368408,-0.07725870609283447
248,-1.7368710471780953,-0.19002557821359758,1.766916203213837,-0.968488335609436,0.18888401985168457,0.16233663260936737,-0.2596260607242584,0.6480454206466675,0.1373385637998581,0.6563392877578735,-0.30735325813293457,-0.1984999179840088
249,-1.7146092054682205,-0.19149631763345185,1.8344742486631656,-0.9715860486030579,0.19032807648181915,0.1406979113817215,1.6843667030334473,-1.459328293800354,-0.2580735683441162,0.3699777126312256,-0.14679470658302307,-0.21264313161373138
250,-1.7354512113022778,-0.2741664275590241,2.0694714360844757,-0.9496315121650696,0.27074459195137024,0.15779002010822296,2.2731053829193115,-0.5569362640380859,-0.4519892930984497,-1.0164940357208252,0.15584540367126465,0.370652437210083
251,-1.703836360656492,-0.2334216530359173,2.224112332293072,-0.9642833471298218,0.2313077300786972,0.12905056774616241,0.6494320631027222,0.24614250659942627,-0.7890550494194031,0.1922345757484436,-0.03858928382396698,0.12674769759178162
252,-1.684392938004817,-0.17958042811118122,2.2561164133055946,-0.9775773882865906,0.17861676216125488,0.1115296259522438,-0.35869497060775757,0.1838127225637436,-0.30235162377357483,1.1830520629882812,0.08742024004459381,0.0039031803607940674
253,-1.7695714942084282,-0.20569819908309325,2.1864956500712944,-0.9596428275108337,0.20425069332122803,0.1933058351278305,-2.409290075302124,-1.6577157974243164,0.8451576828956604,-0.7386603355407715,0.5762211084365845,-0.3826979398727417
254,-1.8458916604631872,-0.21611876087308485,2.0864156611998856,-0.940011203289032,0.21444030106067657,0.2653196156024933,-3.447347402572632,-1.3131829500198364,-0.3771035075187683,-0.677359402179718,0.02063658833503723,1.9410250186920166
255,-1.8213638183604086,-0.13573418517664465,1.7755780764832574,-0.9598614573478699,0.13531777262687683,0.24567319452762604,-1.703205943107605,0.5581758618354797,0.11080018430948257,0.6326213479042053,-0.15324686467647552,-0.27822014689445496
256,-1.7865035759177308,-0.12585432751823902,1.684448675134811,-0.9690994620323181,0.12552234530448914,0.21234549582004547,-0.442687064409256,0.37996706366539,0.04239005595445633,0.7164138555526733,-0.31381577253341675,-0.3167918622493744
257,-1.8024257435807274,-0.1469354094287179,1.7648936169640033,-0.9628058671951294,0.14640726149082184,0.22709006071090698,0.7556477189064026,-1.6311793327331543,0.9505037069320679,-0.9237297773361206,0.45840534567832947,-0.13034939765930176
258,-1.7574812187542785,-0.2138381661243941,1.970209350772214,-0.960244357585907,0.2122122049331665,0.18137507140636444,1.8358324766159058,-0.046327944844961166,-0.5433109402656555,-0.36226552724838257,0.2195504903793335,-0.019494518637657166
259,-1.6919988191457933,-0.20336549510410742,2.159447393625045,-0.9722075462341309,0.20196661353111267,0.11841437965631485,0.9820443391799927,0.37826892733573914,-0.7789629101753235,0.7844176292419434,-0.24505743384361267,0.21973562240600586
260,-1.6959037665801748,-0.13650732714808073,2.1197919477989644,-0.9829543232917786,0.13608376681804657,0.12362053990364075,-0.2948835492134094,-0.6515302658081055,0.11275599896907806,0.5478194355964661,0.17441731691360474,-0.36937856674194336
261,-1.6951319685347914,-0.2238973305845646,2.2483859922497174,-0.9675127267837524,0.2220313549041748,0.12092006951570511,2.1432855129241943,0.6228532195091248,0.21960999071598053,-0.8161484003067017,-0.07612672448158264,0.3933316767215729
262,-1.7609139891046965,-0.23224837636223283,2.276825648828098,-0.9556172490119934,0.23016610741615295,0.18390075862407684,-0.21835759282112122,-0.9080886840820312,0.10089395940303802,-0.6300914883613586,0.29360711574554443,-0.18861578404903412
263,-1.8214788357313203,-0.18621365278062582,2.2882700930186077,-0.9519959688186646,0.18513934314250946,0.24377670884132385,-1.0852750539779663,-0.24970974028110504,-0.7670814394950867,0.48771679401397705,-0.010609328746795654,0.034833431243896484
264,-1.8356724015806647,-0.13420806300176105,2.2322505993320276,-0.9564464092254639,0.1338055431842804,0.25943559408187866,-0.10542282462120056,0.14155080914497375,-0.04724639654159546,0.5232949256896973,-0.06250119209289551,-0.37178605794906616
265,-1.8245597831282125,-0.17811313800496276,2.270457676595463,-0.952660858631134,0.17717288434505463,0.24707700312137604,1.4754441976547241,-0.5383213758468628,0.6447513699531555,-0.13909024000167847,-0.10904237627983093,0.14800357818603516
266,-1.8704394427391255,-0.14653004707230985,2.3166104815645254,-0.9452029466629028,0.1460062563419342,0.2920159697532654,0.46140149235725403,1.0364439487457275,-0.29453355073928833,-0.2668483257293701,0.1491444855928421,-0.7956476211547852
267,-1.8052276694521945,-0.1715243508817722,2.4277129882501334,-0.9583737850189209,0.17068453133106232,0.22888125479221344,0.40064430236816406,0.3627523183822632,0.30082938075065613,-0.2302248477935791,0.14530974626541138,-0.35877931118011475
268,-1.747854987853623,-0.17833251258467547,2.5080015151900485,-0.9687548279762268,0.1773887723684311,0.17334164679050446,0.6343684196472168,0.6504217982292175,-0.6569358110427856,0.3142443299293518,-0.1601158231496811,0.06190299987792969
269,-1.6922351544468792,-0.1477525926488316,2.519575227901474,-0.9818200469017029,0.1472155898809433,0.11982066929340363,0.1731479912996292,0.16067339479923248,0.4452148973941803,0.34456729888916016,0.054215699434280396,-0.03153336048126221
270,-1.6765332438843719,-0.23171756957711456,2.5643966286805453,-0.9678376913070679,0.22964952886104584,0.1027192696928978,0.7403971552848816,-0.06572527438402176,0.7887954115867615,-0.26725447177886963,-0.06570908427238464,0.23955059051513672
271,-1.6717985513469842,-0.2603041269483635,2.5950798630298624,-0.961387038230896,0.25737443566322327,0.09743378311395645,0.09675697982311249,-0.6353265643119812,-0.4687895178794861,-0.5514150261878967,-0.5073286890983582,0.23607754707336426
272,-1.7837130736051603,-0.23841633257313477,2.5347600970349347,-0.9497706890106201,0.23616404831409454,0.2053343504667282,-0.29444462060928345,-1.0989162921905518,-0.03710102662444115,-0.4027683138847351,0.17940907180309296,-0.28480207920074463
273,-1.858167759887758,-0.1359830102418641,2.511048305430169,-0.9501392841339111,0.13556431233882904,0.2808159291744232,-0.7218031287193298,-0.20087102055549622,-0.6959396004676819,0.4415639042854309,0.14345788955688477,-0.2944726049900055
274,-1.8565874668046307,-0.11049396447948692,2.4636369203299995,-0.9535881876945496,0.11026926338672638,0.2801974415779114,-0.22159318625926971,0.5263214111328125,0.3336574137210846,0.36441570520401,-0.06621712446212769,-0.1522524058818817
275,-1.8049440196019106,-0.1517910252119367,2.4724613419169255,-0.9615281224250793,0.1512088030576706,0.22934630513191223,0.7185199856758118,0.4204767346382141,0.6786896586418152,0.12763524055480957,-0.0217074453830719,0.06260016560554504
276,-1.8201871630767568,-0.16329457844639272,2.4554331174268382,-0.9561715722084045,0.1625698357820511,0.24353033304214478,-0.746045708656311,1.7548282146453857,0.1571127027273178,-0.529317319393158,-0.5475032925605774,0.577072024345398
277,-1.7971382740790143,-0.16739513053590221,2.57221814435717,-0.9608725309371948,0.16661445796489716,0.22127746045589447,0.7104877829551697,-0.6243618130683899,-0.08427034318447113,-0.16928493976593018,0.048809126019477844,-0.15136170387268066
278,-1.7942877506008235,-0.1493161067859965,2.6542762672044704,-0.9642794728279114,0.14876188337802887,0.21916945278644562,0.5168913006782532,0.10736413300037384,-1.1163806915283203,0.18045061826705933,-0.10655605792999268,-0.05239090323448181
279,-1.7705104104807088,-0.058215117031354784,2.6404244898343694,-0.9784630537033081,0.0581822395324707,0.1980530470609665,-0.010572470724582672,0.06544193625450134,-0.08980438113212585,0.8360375165939331,0.2782435417175293,-0.16500258445739746
280,-1.7185597465989328,-0.22884729420301872,2.692368901258201,-0.9633154273033142,0.22685502469539642,0.14338788390159607,1.2809374332427979,0.32204943895339966,1.2444735765457153,-0.7565178871154785,-0.19230911135673523,0.26942336559295654
281,-1.6965844026501633,-0.23647902251532313,2.716002036173339,-0.9644878506660461,0.23428110778331757,0.12196502089500427,-1.1816054582595825,-0.11212272942066193,-0.5651806592941284,-0.19192993640899658,-0.29522472620010376,0.2469010353088379
282,-1.7782775783828888,-0.18692967851039177,2.5798480434566913,-0.9615060687065125,0.18584294617176056,0.20240730047225952,-1.4469188451766968,-1.042983889579773,0.14800390601158142,0.1837502121925354,0.25182491540908813,-0.2056116759777069
283,-1.859566644790563,-0.19983934605525086,2.4792111645770443,-0.9395172595977783,0.19851188361644745,0.2791062295436859,-0.7774455547332764,-0.6380922794342041,0.054105453193187714,-0.4594084620475769,0.12082406878471375,0.6135023832321167
284,-1.823110764773167,-0.17158657201525962,2.332591734720349,-0.954117476940155,0.1707458347082138,0.24597980082035065,-0.5126738548278809,1.20294988155365,0.18972444534301758,0.3948216438293457,-0.1180877536535263,-0.16640517115592957
285,-1.7409827845673627,-0.1778259342294371,2.376293717874653,-0.9700117111206055,0.17689020931720734,0.16669532656669617,1.5095800161361694,0.07755943387746811,-0.63025963306427,0.7662609815597534,-0.6276043057441711,-0.11289285123348236
286,-1.7720999528682195,-0.2351084343691879,2.5289650689585725,-0.952851414680481,0.232948437333107,0.19444608688354492,1.650648593902588,0.5322265028953552,0.03359120711684227,-1.896437644958496,0.3383558690547943,-0.2970461845397949
287,-1.697519183611531,-0.17136069254610345,2.5640835864363454,-0.9774525761604309,0.1705232709646225,0.12453290820121765,-1.356526494026184,0.20955030620098114,-0.13795222342014313,0.6090748310089111,0.1397184282541275,0.10759903490543365
288,-1.7122035616646263,-0.15271084555165815,2.4032741834601867,-0.9784971475601196,0.15211798250675201,0.1392962634563446,-2.982194662094116,-0.46652019023895264,0.3101045489311218,0.9343839883804321,0.11553643643856049,-0.09876896440982819
289,-1.831613402490571,-0.186596466791229,2.0948308607047466,-0.9494079351425171,0.18551552295684814,0.2533937990665436,-0.31265443563461304,-1.9905805587768555,0.9985307455062866,-1.6315550804138184,0.47088706493377686,-0.4715334475040436
290,-1.804272476963129,-0.1800551622263336,1.9681180553873183,-0.957140326499939,0.17908383905887604,0.22762049734592438,-0.9423436522483826,1.3397743701934814,0.35289350152015686,0.618959903717041,-0.4207983613014221,-0.38292446732521057
291,-1.6946520687190099,-0.1780849994577457,1.9645163474753078,-0.9766453504562378,0.17714518308639526,0.12158548831939697,0.9957546591758728,-0.45951953530311584,0.4206632971763611,0.9871283769607544,-0.23869918286800385,-0.03020063042640686
292,-1.7060693795532123,-0.2224543099994562,1.9892511971752116,-0.9664484858512878,0.22062411904335022,0.13153775036334991,1.758392333984375,1.1616523265838623,-0.11222584545612335,-1.8990757465362549,0.6022365689277649,-0.27040791511535645
293,-1.6947513305210642,-0.21198931670801852,2.023037680530018,-0.9701135158538818,0.21040509641170502,0.12087011337280273,-0.8257341980934143,-0.30486539006233215,-0.31714242696762085,0.24538201093673706,-0.06738445162773132,-0.28270483016967773
294,-1.7119396569837015,-0.1597822791578125,1.8720003248231445,-0.9774444103240967,0.15910325944423676,0.13888323307037354,-1.949018955230713,-0.8551303148269653,0.3849281072616577,1.1194427013397217,-0.04534904658794403,-0.15482868254184723
295,-1.9698716076719154,-0.13468629952396116,1.6447622594374407,-0.9130757451057434,0.13427945971488953,0.3850473463535309,-1.4051772356033325,-0.24403537809848785,0.3387639820575714,-1.2233682870864868,0.3085000514984131,0.09748119115829468
296,-1.8711070403550822,-0.18152914501694856,1.67061620035742,-0.939548671245575,0.18053379654884338,0.2909563481807709,0.9110168218612671,1.2263329029083252,0.21647760272026062,0.1098368763923645,-0.38381141424179077,0.12980470061302185
297,-1.7194481379218032,-0.20098442632951669,1.7652321538429854,-0.9690642356872559,0.19963403046131134,0.145123690366745,1.4935234785079956,0.7483563423156738,0.5300574898719788,1.2925047874450684,-0.42772242426872253,-0.3157017230987549
298,-1.7137776121638404,-0.3038431057372654,1.8906993859313619,-0.9444567561149597,0.2991894781589508,0.1359674632549286,1.434464931488037,-0.0784936249256134,1.5519567728042603,-1.4471142292022705,0.3207751214504242,-0.444896936416626
299,-1.6783033144343886,-0.3404787414260415,1.9933480109835733,-0.9371529817581177,0.3339383900165558,0.10114044696092606,-0.5906328558921814,0.09969436377286911,-0.2402234673500061,-0.13987338542938232,-0.16963177919387817,0.06733179092407227
300,-1.6927921513624422,-0.2789574198895574,1.925640965180039,-0.9541981220245361,0.2753535211086273,0.1169891431927681,-1.0296391248703003,-0.33784183859825134,-0.18860377371311188,1.2236530780792236,-0.15445813536643982,-0.1350860595703125
301,-1.8788515679186677,-0.27875225933398917,1.7592488982273804,-0.9161416888237,0.27515628933906555,0.29150211811065674,-1.793448805809021,-2.356412410736084,0.4495280086994171,-1.2433888912200928,0.23152706027030945,0.34996211528778076
302,-1.867574471917466,-0.2667726466617843,1.6880775186270225,-0.9224568605422974,0.26361963152885437,0.28209614753723145,0.2727065980434418,0.748569667339325,0.477212518453598,-0.2332897186279297,-0.06784933805465698,-0.05922624468803406
303,-1.7667261072347367,-0.2817935138661403,1.6935283009780073,-0.9421800971031189,0.2780788838863373,0.18700017035007477,0.49961525201797485,0.3879062235355377,-0.36358439922332764,0.7655137777328491,-0.5316494107246399,-0.09382998943328857
304,-1.7752481910120037,-0.258835398335256,1.7948344560332583,-0.9465548992156982,0.25595492124557495,0.1962672621011734,1.4270594120025635,-1.2292089462280273,0.30485859513282776,0.09090310335159302,0.04459741711616516,-0.3899470567703247
305,-1.7105539795384965,-0.30904967373909964,1.9848658627225884,-0.9433348774909973,0.3041534721851349,0.13270339369773865,1.625514268875122,-0.17277684807777405,-0.825560986995697,-0.9132936000823975,0.5113067626953125,0.6183494329452515
306,-1.7011090797109476,-0.2588342666133581,2.000938910416273,-0.9584928750991821,0.2559538185596466,0.1256157010793686,-1.0162467956542969,0.5203054547309875,-0.5364781022071838,0.8179593086242676,-0.1597318947315216,0.0010627657175064087
307,-1.7354117260390516,-0.2204021634813996,1.861058901939725,-0.9626179933547974,0.21862207353115082,0.15990878641605377,-1.9164822101593018,-0.43908530473709106,0.012663100846111774,0.7405111789703369,-0.006509691476821899,-0.22402621805667877
308,-1.8919687941848595,-0.2167009107894362,1.7005584070378592,-0.9266738891601562,0.21500886976718903,0.30829620361328125,-1.441469669342041,1.0082731246948242,-0.055604733526706696,-1.4572830200195312,0.1384609490633011,1.2565841674804688
309,-1.8139322989704743,-0.2365532443003043,1.681324679978446,-0.943558394908905,0.23435325920581818,0.23404309153556824,-0.09691476821899414,1.1057227849960327,0.1413794755935669,0.4290778636932373,-0.260293185710907,0.029567718505859375
310,-1.7759653430102598,-0.24154751354665713,1.7076464759547385,-0.9506043195724487,0.2392054945230484,0.19781804084777832,0.587738573551178,-0.094533272087574,-0.31761541962623596,0.4846467971801758,-0.38050195574760437,-0.009509354829788208
311,-1.799508524645945,-0.25612527145496244,1.786592391266875,-0.942187488079071,0.2533341348171234,0.21932746469974518,1.5795979499816895,-0.655756950378418,0.9117053747177124,-1.2154662609100342,0.2049178183078766,-0.601468563079834
312,-1.7586612659264782,-0.29522487612365766,1.9882534023959466,-0.9399031400680542,0.2909550070762634,0.1786818951368332,1.9599488973617554,-0.12013458460569382,0.0380912721157074,-0.252662718296051,0.004653513431549072,-0.1893630176782608
313,-1.7255002291558967,-0.28126618615437077,2.106775825767726,-0.9492310285568237,0.27757230401039124,0.14803260564804077,-0.14491041004657745,0.04888606444001198,-0.6074444055557251,0.9387179613113403,-0.1386105716228485,0.10849806666374207
314,-1.7900813635101422,-0.24283477584821683,2.0422859461518197,-0.9474159479141235,0.24045519530773163,0.21114948391914368,-0.9922927021980286,-1.6298255920410156,0.08960376679897308,0.18186736106872559,0.2925952970981598,-0.3911116421222687
315,-1.8999207498856663,-0.21998318714858695,1.9806311351785784,-0.9235204458236694,0.21821321547031403,0.3154255151748657,-0.23027580976486206,0.3765411376953125,0.27079907059669495,-0.5127742290496826,0.13907137513160706,-0.048030465841293335
316,-1.8006396879430093,-0.23310138334816444,1.9396765804936262,-0.9473679065704346,0.23099613189697266,0.22166338562965393,-0.30444785952568054,1.1725389957427979,0.04970943182706833,0.5224717855453491,-0.25982001423835754,-0.02429106831550598
317,-1.7663645303718922,-0.23153797263644116,1.9889060298402108,-0.9547607898712158,0.2294747233390808,0.18913835287094116,1.233773112297058,-0.09124802052974701,-0.35003721714019775,0.7855865955352783,-0.4242837131023407,-0.2461603879928589
318,-1.7796862040681136,-0.3046899349230538,2.1067843854915327,-0.9332029223442078,0.2999974191188812,0.19782237708568573,2.25661301612854,0.8679278492927551,0.5018431544303894,-1.77048659324646,0.2601526975631714,-0.45008066296577454
319,-1.670200019734022,-0.27431605324441527,2.259679824247633,-0.9578588008880615,0.27088862657546997,0.09552955627441406,0.41157251596450806,0.1493147760629654,0.09317997097969055,0.17934012413024902,-0.08340388536453247,-0.03925514221191406
320,-1.6455564320794847,-0.265397501435433,2.227258972606827,-0.9622929692268372,0.26229286193847656,0.07207544893026352,-1.3213573694229126,0.05134451016783714,-0.296673983335495,0.8051426410675049,-0.25486183166503906,0.15378522872924805
321,-1.7102895466192187,-0.23291643808760656,2.0928342141217153,-0.9635462760925293,0.23081618547439575,0.13528680801391602,-1.2801727056503296,-1.9098560810089111,0.09377217292785645,-0.2157139778137207,0.22868698835372925,-0.2511162757873535
322,-1.8554466111489967,-0.19353014074893532,1.978473567083782,-0.9418425559997559,0.19232432544231415,0.2755792737007141,-1.3387497663497925,0.44563859701156616,0.03694964945316315,-0.34107059240341187,0.23476918041706085,0.18567869067192078
323,-1.7938610114412104,-0.19178644922245044,1.8283406293265279,-0.957343578338623,0.19061289727687836,0.21716341376304626,-1.1987314224243164,1.0331870317459106,0.29646438360214233,0.5024486184120178,-0.19834913313388824,-0.08320654928684235
324,-1.7869145945976768,-0.1930019557419757,1.7805793595335568,-0.9586021900177002,0.19180597364902496,0.21045832335948944,0.2718258202075958,-0.1363709717988968,-0.14420220255851746,0.6384268999099731,-0.3509550988674164,-0.30693957209587097
325,-1.8259330380673628,-0.21487398447917802,1.8175917586448884,-0.945376455783844,0.21322430670261383,0.2465738207101822,0.1720770299434662,-0.24278178811073303,0.7870965600013733,-1.0950134992599487,0.2778492569923401,-0.4228891134262085
326,-1.766187457298178,-0.2409443831359417,1.896425491909474,-0.9526345133781433,0.2386198341846466,0.18854182958602905,0.06917619705200195,-0.005734424106776714,0.5365957021713257,-0.10406714677810669,0.05267046391963959,0.11548946797847748
327,-1.7448193792329378,-0.2635331691772442,1.8476852073719605,-0.9508932828903198,0.26049336791038513,0.1671682745218277,-1.475742220878601,0.10483332723379135,0.18414822220802307,0.7290915250778198,-0.16874223947525024,-0.004234910011291504
328,-1.7895764325569472,-0.23027762446438543,1.6400238076015579,-0.9503952860832214,0.22824782133102417,0.21130982041358948,-2.1542043685913086,0.04040820524096489,0.0876663476228714,0.5528275370597839,-0.01036757230758667,-0.42822885513305664
329,-1.8965748313419484,-0.17568737344758373,1.3850403626062953,-0.9328183531761169,0.17478497326374054,0.3151199221611023,-0.33813703060150146,0.6476732492446899,0.15709345042705536,-0.8553135395050049,0.34918659925460815,0.6781662702560425
330,-1.820478611134276,-0.21809528074645398,1.3656954147957798,-0.9460368156433105,0.21637041866779327,0.24124272167682648,-0.5746718645095825,0.7924660444259644,0.357179194688797,0.3154979348182678,-0.21450884640216827,0.16300831735134125
331,-1.7784069534620124,-0.22870481920105085,1.3197196743272144,-0.9530463218688965,0.22671626508235931,0.20075519382953644,-0.21609936654567719,0.060218051075935364,0.17218813300132751,0.572202205657959,-0.31939810514450073,-0.16063976287841797
332,-1.7769936582661485,-0.2593626109733449,1.3469256532430438,-0.9460788369178772,0.25646454095840454,0.19789151847362518,0.4966907799243927,-0.1462814062833786,0.3728732764720917,-0.48919349908828735,-0.005167514085769653,-0.2669069468975067
333,-1.7308444795758045,-0.28664933693727157,1.4636098784391516,-0.9469377994537354,0.28273987770080566,0.15286310017108917,1.4983408451080322,0.47728028893470764,0.10185452550649643,-0.28069281578063965,0.3009546101093292,0.028869152069091797
334,-1.7074583015387417,-0.3087565461102634,1.5366374254376072,-0.9438292384147644,0.3038742244243622,0.12979461252689362,-0.25649094581604004,-0.22413098812103271,0.09530410170555115,0.2797667980194092,-0.21093297004699707,0.027080997824668884
335,-1.7575890748667333,-0.28194173799479894,1.4400698524363458,-0.9438087940216064,0.2782212495803833,0.17837607860565186,-1.7257769107818604,-0.1664472222328186,-0.2193811982870102,0.5545570850372314,-0.1259537935256958,-0.22705161571502686
336,-1.9131851379016955,-0.20267460713037969,1.2231645228016246,-0.9226750731468201,0.20128990709781647,0.32886621356010437,-1.898958683013916,0.038120780140161514,-1.154597520828247,-1.3459253311157227,0.21495459973812103,1.3254153728485107
337,-1.8569726497196197,-0.2123247094384626,1.2637564712616656,-0.9377872347831726,0.21073296666145325,0.2759470045566559,0.6129280924797058,0.8189178109169006,0.20501413941383362,0.021084964275360107,-0.07822564244270325,0.186195969581604
338,-1.7929970908788853,-0.24049296942554865,1.3323473352613504,-0.9473428726196289,0.2381814420223236,0.21403448283672333,0.9221834540367126,0.11803188174962997,-0.004020364955067635,0.6657268404960632,-0.43427222967147827,-0.05596880614757538
339,-1.794068771010156,-0.26613274887434,1.5093099556623064,-0.9408470988273621,0.26300230622291565,0.213626891374588,2.648491144180298,-0.741322934627533,-0.18042466044425964,-0.011667490005493164,-0.4287585914134979,-0.3807564079761505
340,-1.770643053568985,-0.3071069215311243,1.8699668274484935,-0.934240460395813,0.30230218172073364,0.18923084437847137,4.657622337341309,-0.8497446179389954,-0.4920564591884613,-0.9543399810791016,0.33894845843315125,-0.18619439005851746
341,-1.7078698128183558,-0.2788104499666726,2.2230354595613666,-0.9523659944534302,0.27521222829818726,0.13136792182922363,2.207038164138794,-0.32757052779197693,-1.0686571598052979,0.21226882934570312,0.031062215566635132,0.07540394365787506
342,-1.720403397152316,-0.22819246026739162,2.318964335425319,-0.9631960988044739,0.22621721029281616,0.14518576860427856,0.1959231048822403,-0.6010615825653076,0.04539918899536133,0.8967594504356384,0.036508604884147644,-0.05805803835391998
343,-1.7859399214377871,-0.2652748451680349,2.278518178178791,-0.9427727460861206,0.262174516916275,0.2060200423002243,0.9389840960502625,0.2214495688676834,1.507845401763916,-0.607550859451294,0.6228657960891724,-0.4855458438396454
344,-1.8632554574515874,-0.28685308005524507,2.2770889674208057,-0.9184119701385498,0.2829352915287018,0.2765272855758667,-0.8029036521911621,0.4180906414985657,-0.04443952441215515,-0.15707337856292725,0.012551188468933105,-0.3379133641719818
345,-1.8060119132846069,-0.3050556121534411,2.259349153177313,-0.9275655746459961,0.3003462255001068,0.22229263186454773,-0.12442757934331894,0.23410332202911377,0.11700498312711716,0.6118613481521606,-0.3478621244430542,-0.106219083070755
346,-1.805031342672138,-0.32724151642359045,2.3408602817202535,-0.9210741519927979,0.3214321434497833,0.21978212893009186,1.6096936464309692,-0.5251579284667969,-0.19886766374111176,0.405311644077301,-0.6382655501365662,-0.2109472155570984
347,-1.7820809442336618,-0.38190975380649733,2.559075485003878,-0.9073189496994019,0.3726933002471924,0.19460701942443848,3.6464884281158447,-0.14606893062591553,-0.17609909176826477,-1.6731863021850586,-0.08169296383857727,-0.313366174697876
348,-1.6788412319875419,-0.3114161489043013,2.8257672603568076,-0.9463497996330261,0.30640697479248047,0.10264801234006882,1.8501708507537842,0.026598691940307617,-1.0225269794464111,0.3425138592720032,0.035939186811447144,0.3616921901702881
349,-1.6614470788019475,-0.2615152858147581,2.8666260403038533,-0.9620330333709717,0.2585446238517761,0.08744868636131287,0.27611252665519714,-0.3638989329338074,0.10473111271858215,0.8436553478240967,-0.12535065412521362,-0.0512852668762207
350,-1.7811340856089726,-0.25508878454305106,2.7837975975190887,-0.9463145732879639,0.25233131647109985,0.20203396677970886,-1.6959534883499146,-1.05947744846344,0.5266847014427185,-0.38737988471984863,0.49982017278671265,-0.44506072998046875
351,-1.7662682377609227,-0.3284862993278438,2.8464908496129193,-0.9285063147544861,0.32261064648628235,0.1838444024324417,0.7815012335777283,-1.3467810153961182,-0.6754783987998962,-0.7043672800064087,-0.014398336410522461,1.4888393878936768
352,-1.7550385568145495,-0.2661842537734885,2.678120912534847,-0.9484530687332153,0.26305198669433594,0.176749587059021,0.017859749495983124,0.9338493347167969,0.1294076293706894,0.7362796068191528,-0.39093589782714844,-0.1991037130355835
353,-1.7090442623038942,-0.27267843489081894,2.7827882898548966,-0.9538644552230835,0.2693118751049042,0.13271638751029968,1.936928629875183,-0.6607440114021301,-0.27437567710876465,0.6718820929527283,-0.39528846740722656,-0.021540895104408264
354,-1.7421763405154136,-0.32000800736148594,2.9694873771339703,-0.9353269338607788,0.31457415223121643,0.1618843525648117,2.8135604858398438,0.22393949329853058,0.23790667951107025,-1.8969483375549316,0.17031961679458618,-0.6117135286331177
355,-1.6533870214852584,-0.26530553787506367,3.138727117510046,-0.9617230296134949,0.2622041404247284,0.07961047440767288,0.700562059879303,0.7410633563995361,-1.2117849588394165,0.13405585289001465,0.261660635471344,0.24088513851165771
356,-1.6223240659841953,-0.194519168094792,-3.1395293313726547,-0.979838490486145,0.19329479336738586,0.05053359270095825,-0.6696524024009705,-0.07649033516645432,-0.3340243399143219,1.29243004322052,-0.011684685945510864,0.17805838584899902
357,-1.716587750291426,-0.19456206445356114,3.007563648414058,-0.9707239270210266,0.1933368742465973,0.1425345242023468,-1.8500925302505493,-0.8416014313697815,0.8255707621574402,-0.29961615800857544,0.5216747522354126,-0.3981955051422119
358,-1.7553792514979485,-0.2710693776834808,2.97567877145497,-0.9471181631088257,0.2677619159221649,0.17683471739292145,-2.20882248878479,-0.2982032597064972,-0.5629143714904785,-0.9791207313537598,0.057158708572387695,1.8795465230941772
359,-1.7363409670638106,-0.23588416943637905,2.7762619905966517,-0.959015429019928,0.23370276391506195,0.16022621095180511,-0.42512863874435425,0.5974698066711426,0.48366647958755493,0.6338048577308655,-0.39398109912872314,-0.10958230495452881
360,-1.716831108716051,-0.2339921173617649,2.774001376921324,-0.9623944163322449,0.23186269402503967,0.14155073463916779,0.9351421594619751,-0.20131555199623108,-0.2793195843696594,0.8099133968353271,-0.4756523668766022,-0.181254044175148
361,-1.7563840413541096,-0.27361205152794665,2.8822183334352687,-0.9462680220603943,0.2702108919620514,0.17766012251377106,2.2123587131500244,0.4558526277542114,0.7310678958892822,-1.5204527378082275,0.3420938551425934,-0.6481343507766724
362,-1.6101296041017712,-0.290481244228721,3.1337784654240677,-0.9573650360107422,0.2864133417606354,0.03767573460936546,1.6326148509979248,0.5081892013549805,-0.3640502393245697,-0.26283448934555054,0.21489888429641724,0.5853406190872192
363,-1.5931786567949755,-0.2381753046951763,3.1398509681160114,-0.9715268015861511,0.23592983186244965,0.02174866572022438,-1.1244938373565674,-0.06906445324420929,-0.6887420415878296,1.1954647302627563,-0.07755887508392334,0.19182860851287842
364,-1.6764159137247572,-0.22476402867699646,3.011670346051315,-0.9694143533706665,0.22287632524967194,0.1027715802192688,-1.4863229990005493,-0.7809629440307617,0.42653289437294006,0.1759573221206665,0.23092004656791687,-0.4134862422943115
365,-1.7812407672819113,-0.29361479334592455,2.9520862443886005,-0.9360863566398621,0.2894141972064972,0.19995470345020294,-1.4572397470474243,-0.69167160987854,-1.0055140256881714,-1.5897619724273682,0.2515098750591278,1.847454309463501
366,-1.707580070038003,-0.2529468574235495,2.7975011728263133,-0.9591361880302429,0.25025811791419983,0.13201861083507538,-0.3100477457046509,1.1590317487716675,0.187888503074646,0.6633139252662659,-0.31933462619781494,-0.014770016074180603
367,-1.6513700207939703,-0.2768478045842112,2.8323423619434913,-0.9588011503219604,0.2733248472213745,0.07742176949977875,1.3487980365753174,-0.3966759145259857,0.06767021119594574,0.8461453914642334,-0.4822176396846771,-0.046812646090984344
368,-1.661530906807645,-0.33288310270521193,2.9711892470796064,-0.9412165284156799,0.3267692029476166,0.08563601970672607,1.619296908378601,0.517121434211731,0.840935230255127,-1.5369787216186523,0.14425435662269592,-0.2579535245895386
369,-1.571862499729746,-0.31644761307151853,3.096502249052475,-0.9503463506698608,0.3111925423145294,0.0010132339084520936,0.533409595489502,0.027007410302758217,-0.8364244699478149,-0.22453463077545166,0.12725350260734558,0.36330556869506836
370,-1.5724229250287851,-0.25406383633364066,3.0987395331116345,-0.9678976535797119,0.2513394057750702,0.0015743819531053305,-0.3940386474132538,-0.22884540259838104,-0.5281552076339722,1.2536184787750244,-0.17806673049926758,0.15789520740509033
371,-1.6869559358647144,-0.24695190494494282,2.912285421117586,-0.9631275534629822,0.24444948136806488,0.1123824417591095,-2.3347129821777344,-0.8041428923606873,0.4716603755950928,-0.14250904321670532,0.4282342195510864,-0.4862685203552246
372,-1.7057895130768659,-0.3328861181741326,2.876525042690072,-0.9365048408508301,0.3267720639705658,0.127195343375206,0.47568029165267944,-1.9926789999008179,0.0777680054306984,-1.059131145477295,0.017756134271621704,0.8686695098876953
373,-1.7054078166451325,-0.279190004901816,2.6456973362571303,-0.9525830149650574,0.2755770981311798,0.12900878489017487,-0.7420552968978882,0.8602795004844666,0.236015185713768,0.7811961770057678,-0.4023776352405548,-0.03203915059566498
374,-1.6333467066500291,-0.30230345477013804,2.668449621432296,-0.9527863264083862,0.2977199852466583,0.05967499315738678,1.1677885055541992,-0.5382037162780762,-0.021560125052928925,0.7031830549240112,-0.4709224998950958,0.22662568092346191
375,-1.6478034670124977,-0.33589556500688716,2.78365018630847,-0.9413174986839294,0.3296148180961609,0.07263179868459702,2.2367475032806396,0.0011979325208812952,0.4545004069805145,-1.3626222610473633,-0.009409159421920776,-0.4743499755859375
376,-1.568442967610877,-0.299074352463101,2.8795772287205965,-0.9556068778038025,0.2946357727050781,-0.0022488904651254416,1.3773767948150635,0.5821020603179932,-0.8725811243057251,-0.37578338384628296,0.1275138556957245,0.1882535219192505
377,-1.526249033161849,-0.23170324884911253,2.94776921777072,-0.9723110795021057,0.2296355813741684,-0.04334250092506409,0.3596140146255493,-0.0763663500547409,-0.5763379335403442,1.0603238344192505,-0.08791196346282959,0.3139876127243042
378,-1.6119751408095422,-0.2046117388242993,2.8312523064981523,-0.9783099293708801,0.2031870186328888,0.040308427065610886,-1.4894059896469116,-0.5265071392059326,0.269664466381073,0.19051390886306763,0.3523702323436737,-0.46726465225219727
379,-1.7630830366319332,-0.27756968752625794,2.738832346875767,-0.9439994692802429,0.27401918172836304,0.18378931283950806,-0.7266066670417786,-1.8435285091400146,-0.7611435055732727,-1.4899756908416748,0.2530498802661896,1.9257993698120117
380,-1.7182134384805294,-0.23232059670035923,2.5400018913523588,-0.9625798463821411,0.23023639619350433,0.14293767511844635,-1.0145691633224487,1.0026167631149292,0.3187549114227295,0.6341649889945984,-0.3044246435165405,-0.041436195373535156
381,-1.6491760095787666,-0.25415660301492526,2.5396630430539457,-0.9649041891098022,0.2514292001724243,0.07578413933515549,1.678451418876648,-1.021384358406067,0.08750784397125244,0.904113233089447,-0.5215097665786743,0.016348473727703094
382,-1.6545894983273688,-0.32372073707630217,2.6542610732999434,-0.9447320103645325,0.31809622049331665,0.0793478861451149,1.9607387781143188,0.8735341429710388,1.0718919038772583,-1.9876867532730103,0.20067206025123596,-0.4788839817047119
383,-1.5697143173901085,-0.2979187995556146,2.867528470545179,-0.9559488892555237,0.2935313284397125,-0.0010343460598960519,1.7645206451416016,0.08283783495426178,-0.5013586282730103,-0.13340651988983154,0.0029011666774749756,0.33486610651016235
384,-1.5482461744975833,-0.25252608828907225,2.9452153293903236,-0.9680382013320923,0.24985072016716003,-0.021833108738064766,-0.2805515229701996,-0.2597126364707947,-0.2028331458568573,1.1286979913711548,-0.09018275141716003,0.2328163981437683
385,-1.6274695711279343,-0.25671304328257316,2.87946510827275,-0.96567702293396,0.2539026737213135,0.054786715656518936,-1.286942958831787,-1.0915262699127197,0.39072734117507935,0.1435486078262329,0.3145788013935089,-0.32082366943359375
386,-1.632631547104624,-0.3140304791307436,2.801899428245135,-0.9492785930633545,0.3088945150375366,0.05877377837896347,0.8409523963928223,1.1364223957061768,0.20828412473201752,-0.435685396194458,0.4778944253921509,0.3169586658477783
387,-1.7313291800774868,-0.27314810526830274,2.5762348882047332,-0.9505453109741211,0.26976415514945984,0.15391822159290314,-1.2471762895584106,0.9433746933937073,0.21358749270439148,0.6056662201881409,-0.3211252987384796,-0.4912443161010742
388,-1.6431429364974717,-0.2916426738047593,2.563966640022549,-0.9552675485610962,0.2875259220600128,0.06923119723796844,1.0188987255096436,-0.2603267729282379,-0.05408449470996857,0.9989229440689087,-0.6166427135467529,-0.019548535346984863
389,-1.7601905526560164,-0.2992907576295168,2.597316371119996,-0.9384591579437256,0.29484257102012634,0.1798948496580124,1.7495396137237549,-1.1157265901565552,1.1238445043563843,-2.245210886001587,-0.10387882590293884,-0.9009488821029663
390,-1.6418912783515807,-0.2989604341042066,2.9344802172419695,-0.9532290697097778,0.2945269048213959,0.0678841844201088,2.562697172164917,0.43598446249961853,-0.8801513910293579,-0.30659759044647217,0.07069221138954163,0.18150544166564941
391,-1.5821557095120626,-0.20428942303944475,3.0776918650747076,-0.9791421890258789,0.2028714120388031,0.01112292893230915,0.06098709627985954,0.24630160629749298,-0.24754148721694946,1.1151132583618164,0.1591891348361969,0.1620185375213623
392,-1.6045908914363916,-0.22098991950326816,3.0576458181752386,-0.9751238822937012,0.21919557452201843,0.03296643868088722,-1.1721470355987549,-0.7810981869697571,0.4871522784233093,0.8045001029968262,0.0012939125299453735,-0.0587080754339695
393,-1.7692634182192344,-0.27837346140875757,2.86405719264631,-0.942629337310791,0.2747920751571655,0.18957655131816864,-0.15921945869922638,0.059595175087451935,1.0758897066116333,-1.637052059173584,0.7072025537490845,-0.7873702049255371
394,-1.8652008802047197,-0.23692826380389553,2.7194616464134613,-0.9302406907081604,0.23471781611442566,0.2820637822151184,-2.224754810333252,1.1788499355316162,0.47990313172340393,0.2558937072753906,-0.04891154170036316,-0.7081655263900757
395,-1.7616615274539558,-0.2628457660995168,2.6648906735759494,-0.9481186866760254,0.25982964038848877,0.18319283425807953,0.5304703712463379,1.028221845626831,0.446914941072464,0.7215866446495056,-0.327426016330719,-0.3418384790420532
396,-1.7486107597728182,-0.25339823511554593,2.7373518356846684,-0.9528020620346069,0.2506951093673706,0.17123043537139893,-1.3389376401901245,1.3645514249801636,-0.2705644369125366,0.07244640588760376,-0.23384949564933777,0.6839636564254761
397,-1.7321707908158903,-0.3263603986860761,2.9154355974693242,-0.9349087476730347,0.32059767842292786,0.1521938294172287,3.3861255645751953,0.848820686340332,-0.46270179748535156,-0.8997317552566528,0.11113452911376953,-0.17207598686218262
398,-1.6050117059516376,-0.30092507444291466,-3.068991481435688,-0.9545037150382996,0.29640382528305054,0.032671455293893814,1.3364602327346802,0.1023240014910698,-1.0322823524475098,0.17406249046325684,-0.17062565684318542,0.531644344329834
399,-1.5975468831735709,-0.22296110663571497,-3.047251701307968,-0.9748980402946472,0.22111840546131134,0.02608528733253479,-0.7806931138038635,-0.31609803438186646,-0.49375852942466736,1.1675708293914795,-0.02562279999256134,0.1643596887588501
400,-1.7749613969329188,-0.24438018479127321,3.0733405823236812,-0.9501352310180664,0.24195496737957,0.19672544300556183,-2.905728816986084,-1.3589478731155396,1.5437467098236084,-1.2961111068725586,1.303821325302124,-0.40923452377319336
401,-1.7804382993531476,-0.3054679204939248,3.0679375204447137,-0.9328254461288452,0.30073946714401245,0.19847558438777924,-1.9540331363677979,-2.0173072814941406,0.09135539829730988,-0.5131279230117798,-0.12997835874557495,1.2889206409454346
402,-1.8086197800719863,-0.23035735874614413,2.762146162360549,-0.9461812973022461,0.22832545638084412,0.2293647825717926,-0.9477063417434692,1.176337718963623,0.18536607921123505,0.8758384585380554,-0.2845999002456665,-0.2288307398557663
403,-1.7361430192636211,-0.23620052815147646,2.7487024606726385,-0.9589741826057434,0.23401035368442535,0.16002419590950012,0.7253585457801819,-1.1429033279418945,-0.33079782128334045,0.7095692753791809,-0.49011385440826416,0.011805057525634766
404,-1.8042282839671977,-0.31078496061268385,2.8409218882398726,-0.926271378993988,0.30580610036849976,0.22023619711399078,3.396615743637085,-0.6216365098953247,0.16069485247135162,-1.7924327850341797,0.11364278197288513,-0.4545806646347046
405,-1.6962986471667334,-0.2977356948423581,3.127596416579968,-0.9484841227531433,0.2933562695980072,0.11966589838266373,2.8766047954559326,0.14514051377773285,-0.8012872338294983,-0.2395499348640442,-0.04244077205657959,0.1824580430984497
406,-1.634320941247111,-0.22654122495016019,-3.011352962455826,-0.9724838137626648,0.22460848093032837,0.061859890818595886,0.05053700506687164,0.3287779986858368,-0.40787258744239807,1.1013898849487305,0.05325411260128021,0.2736351490020752
407,-1.6678388104066217,-0.2166944977802585,-3.0624246464271616,-0.9720185995101929,0.2150026112794876,0.09462432563304901,-1.076064944267273,-0.3000752031803131,0.09383268654346466,0.5620454549789429,0.026467740535736084,-0.267659068107605
408,-1.690112249723474,-0.29276185279879763,3.0598716810737847,-0.9506433606147766,0.2885976731777191,0.11396823078393936,1.5240110158920288,0.7181695699691772,0.6197444796562195,-1.2648413181304932,0.31940406560897827,-0.5849155187606812
409,-1.7849071634002895,-0.22941344590531776,2.8749431060166892,-0.9515640735626221,0.22740638256072998,0.20691172778606415,-2.3103246688842773,0.8558769822120667,0.29159408807754517,0.3854781985282898,-0.06091773509979248,-0.5944391489028931
410,-1.6911695925750487,-0.26422707830486003,2.7664021873426665,-0.9583097696304321,0.26116323471069336,0.11591528356075287,-0.05865906924009323,0.9220022559165955,0.4485858380794525,0.7808957099914551,-0.37633657455444336,-0.23641394078731537
411,-1.6475882419500387,-0.2559902916476599,2.7785608745244867,-0.9645621180534363,0.25320354104042053,0.07421651482582092,-0.026495646685361862,-1.211038589477539,-0.0972505435347557,0.04082542657852173,0.08395469188690186,-0.22508013248443604
412,-1.6553943524298984,-0.31882849182936096,2.9308966611976124,-0.9462072849273682,0.3134543001651764,0.08023878186941147,2.775470018386841,0.5989276766777039,-0.1302083134651184,-0.9471185207366943,0.1595681607723236,-0.007225394248962402
413,-1.5797036601856018,-0.2745754579244113,3.128763479802177,-0.962502121925354,0.2711383104324341,0.008573553524911404,0.788040041923523,0.06375476717948914,-0.8131830096244812,0.30178141593933105,-0.05032840371131897,0.2473011016845703
414,-1.5469462923644455,-0.2204350794523615,3.1339514308029597,-0.9755247831344604,0.21865420043468475,-0.023270711302757263,-0.4982663691043854,-0.0019679791294038296,-0.06975441426038742,1.02783203125,0.021793782711029053,0.16183578968048096
415,-1.621316687275186,-0.2435321187029467,3.0555101566587735,-0.969254195690155,0.24113202095031738,0.049008775502443314,-1.5561710596084595,-1.0842010974884033,1.2185819149017334,-0.6149439215660095,0.7920558452606201,-0.24024724960327148
416,-1.6428814161596594,-0.3096721472360788,2.9960169036958817,-0.9499601125717163,0.3047463893890381,0.06859681755304337,-1.066260814666748,-1.7135586738586426,-0.1138610914349556,-0.572180449962616,0.0353110134601593,0.7620153427124023
417,-1.6904156347810735,-0.2629885219893325,2.755262802182997,-0.9587171673774719,0.25996747612953186,0.1152312159538269,-0.9880757331848145,0.8925133943557739,0.2508354187011719,0.7038038969039917,-0.27888840436935425,-0.20458662509918213
418,-1.6206499501219176,-0.279268320768576,2.7492643244297015,-0.960063099861145,0.27565237879753113,0.047902315855026245,0.7955262064933777,0.17057523131370544,-0.20688605308532715,0.64362633228302,-0.39467093348503113,0.024973630905151367
419,-1.715317366373272,-0.27488209118498014,2.8170639815477596,-0.952423632144928,0.27143344283103943,0.13861162960529327,2.181703567504883,-0.6987826824188232,0.4899302124977112,-1.2869868278503418,0.043141722679138184,-0.4063727855682373
420,-1.6344989815435582,-0.3033026696113413,3.1064025299770313,-0.9524195194244385,0.29867374897003174,0.06075385585427284,2.4948012828826904,-0.3261866867542267,-0.5923219323158264,-0.49191635847091675,0.07782158255577087,-0.055443767458200455
421,-1.5810634586797032,-0.2177991834612578,-3.0245571564051708,-0.9763239622116089,0.21608132123947144,0.010024399496614933,0.4578118324279785,0.4255397319793701,-0.7978307008743286,0.7361201047897339,0.11288289725780487,0.19972288608551025
422,-1.5725839790109841,-0.1943948338265835,-3.0168157751834195,-0.9811631441116333,0.19317279756069183,0.0017539802938699722,-0.34052807092666626,-0.8273231983184814,0.2995266020298004,0.8926622271537781,0.22462809085845947,0.16446006298065186
423,-1.6869565116144276,-0.2880755330669601,3.1335746814069343,-0.9523313045501709,0.28410759568214417,0.111123226583004,-0.7443139553070068,0.35909780859947205,1.0840096473693848,-1.5924687385559082,0.4970203936100006,-0.8745661973953247
424,-1.7377793088246436,-0.2889951946683109,3.0030016552665653,-0.9451983571052551,0.28498923778533936,0.1593155413866043,-3.4993457794189453,-0.2933465540409088,-0.23954157531261444,-0.4000166058540344,-0.23570331931114197,0.9537672996520996
425,-1.7047982821525622,-0.2517909314480703,2.763547532320128,-0.9597856998443604,0.24913881719112396,0.12938854098320007,-1.3043737411499023,0.8652384877204895,0.1687103509902954,0.9480974078178406,-0.30234622955322266,-0.03037428855895996
426,-1.7143815718825446,-0.25472369760209523,2.743484547756255,-0.9577744603157043,0.2519780397415161,0.1384752243757248,-0.4618181586265564,-0.09647924453020096,-0.4339420795440674,0.045832812786102295,-0.42563825845718384,0.5144788026809692
427,-1.7011090349447862,-0.33277072206576114,2.8734367631224673,-0.9371272921562195,0.32666298747062683,0.1228155791759491,2.289513111114502,0.46489477157592773,0.13818885385990143,-1.0786807537078857,-0.1665678322315216,-0.3398871421813965
428,-1.6116750425500173,-0.31742949897651584,3.0691909981994527,-0.9492473602294922,0.3121255040168762,0.03882564231753349,1.1992911100387573,0.32557690143585205,-0.5632907152175903,0.03780925273895264,-0.14636924862861633,0.24402642250061035
429,-1.5401919985478718,-0.25720675129006415,3.0987866870785763,-0.9666512608528137,0.2543801963329315,-0.029592951759696007,-0.2521485686302185,0.41758620738983154,-0.37753644585609436,0.979560375213623,-0.010193824768066406,0.26697397232055664
430,-1.6037070947449468,-0.2745646076496456,3.061867303420216,-0.9620221853256226,0.2711278796195984,0.03167232498526573,-0.6148297190666199,-1.4625531435012817,0.4870067536830902,0.28250253200531006,0.013097584247589111,-0.15433764457702637
431,-1.7705097047122034,-0.3526007893167511,3.0643686139865722,-0.9198240041732788,0.34533974528312683,0.18618309497833252,-0.45164817571640015,-0.9234187006950378,-1.0460809469223022,-1.1044983863830566,0.10419940948486328,1.49510657787323
432,-1.7981863931270856,-0.2841318033680037,2.9235979772362417,-0.9351955652236938,0.28032416105270386,0.21639679372310638,-0.5364172458648682,0.5335744619369507,0.22999994456768036,0.5303189158439636,-0.13100165128707886,-0.3426938056945801
433,-1.7432877280035943,-0.28161101338618144,2.914503349632043,-0.9463537931442261,0.27790355682373047,0.16487634181976318,0.38079318404197693,0.440899133682251,-0.02474021166563034,0.7391699552536011,-0.35392284393310547,-0.10631310939788818
434,-1.7523008282894077,-0.27616767055702485,2.9499775170982674,-0.9463032484054565,0.27267053723335266,0.17366960644721985,0.2923032343387604,0.23695656657218933,0.15958361327648163,-0.5390025973320007,0.34140416979789734,-0.88736891746521
435,-1.699544990649963,-0.35241861957720655,-3.0733363692883335,-0.9307726621627808,0.345168799161911,0.1205022931098938,2.205909252166748,0.13857343792915344,-0.5671664476394653,-0.5308667421340942,0.06077602505683899,-0.09041202068328857
436,-1.633763933182661,-0.29361527385096853,-2.8951541300602464,-0.9553070068359375,0.2894146740436554,0.06023302301764488,0.8436496257781982,0.24257202446460724,-0.804925262928009,0.47116076946258545,-0.11071896553039551,0.1048671081662178
437,-1.6034607178471767,-0.24413435190415367,-2.8405409359167613,-0.9698293805122375,0.2417164295911789,0.03169015794992447,0.05362806096673012,-0.18790394067764282,-0.1926324963569641,0.8060720562934875,0.07609361410140991,0.12324762344360352
438,-1.6725186958056324,-0.27025022474520677,-2.883451400995097,-0.9587225317955017,0.2669726014137268,0.09786129742860794,-0.5560945868492126,-0.2902752161026001,0.8804882764816284,-0.8445001244544983,0.3503064513206482,-0.47116756439208984
439,-1.706547196267307,-0.30590190079431534,-2.849918060622843,-0.9448027610778809,0.3011533319950104,0.12905150651931763,-0.8910618424415588,-1.8703325986862183,-0.20052558183670044,-0.6568512320518494,0.014245867729187012,0.7536388635635376
440,-1.7364781447512547,-0.257075077948156,-3.0133698845690544,-0.9538941383361816,0.2542528510093689,0.15950508415699005,-0.5297830104827881,0.8892605900764465,0.1811935007572174,0.5865997076034546,-0.07563343644142151,-0.2601367235183716
441,-1.6510182329965517,-0.27120432350098517,-2.9716796209421528,-0.9603505730628967,0.26789194345474243,0.07720685005187988,1.353675127029419,0.24559229612350464,0.12311112135648727,0.6002430319786072,-0.36306098103523254,-0.09290813654661179
442,-1.703313814822367,-0.27193629155238547,-2.8659831308625323,-0.9548072218894958,0.2685970664024353,0.1272745430469513,2.4180355072021484,-0.2184084802865982,0.5601852536201477,-0.9066582322120667,-0.0023617148399353027,-0.7426921129226685
443,-1.6270624187547982,-0.28875743732217973,-2.653591105175231,-0.9570815563201904,0.28476133942604065,0.05390813946723938,1.3740589618682861,-0.01077890396118164,-0.797343909740448,-0.3470567464828491,-0.038026660680770874,-0.016005270183086395
444,-1.5915499343660906,-0.215302810092444,-2.586699881128659,-0.9767013788223267,0.21364325284957886,0.020272986963391304,0.10559795051813126,0.18467384576797485,-0.5074309706687927,0.8100754022598267,0.08748894929885864,0.14383530616760254
445,-1.6138154060231231,-0.20733554594700246,-2.6063011557789726,-0.9776774644851685,0.20585323870182037,0.04208474978804588,-0.6752041578292847,-0.5824939012527466,0.33079543709754944,0.5058147311210632,0.13608095049858093,0.008665915578603745
446,-1.633399618163406,-0.2940561614873668,-2.6707540716097045,-0.9552012085914612,0.2898366451263428,0.05987698212265968,0.9370160698890686,0.5439953804016113,0.39447927474975586,-1.369597315788269,0.26663610339164734,-0.3000807762145996
447,-1.6958773592179242,-0.24859807437693734,-2.7655988972726435,-0.9616860151290894,0.24604538083076477,0.12091994285583496,-1.3901151418685913,1.0022777318954468,0.052155159413814545,0.29917997121810913,-0.06600695848464966,-0.16806961596012115
448,-1.621616906923795,-0.2512296532425547,-2.821721127818828,-0.9673568606376648,0.24859519302845,0.04920400306582451,-0.0033444054424762726,0.23108240962028503,-0.05511311814188957,0.7765305042266846,-0.2011403739452362,0.04860484227538109
449,-1.6798949930581906,-0.27197917805828425,-2.7197852348019924,-0.957514226436615,0.26863837242126465,0.1048799678683281,1.513641595840454,-4.567208290100098,-0.571182131767273,-0.7843527793884277,-0.22344186902046204,0.4738553762435913
450,-1.6517678298187863,-0.2949149064369563,-2.708793316905614,-0.9536918997764587,0.29065844416618347,0.07739107310771942,0.723045289516449,0.21368415653705597,-0.0002602711319923401,-0.583890438079834,0.05939343571662903,-0.15061795711517334
451,-1.6132336646161034,-0.25912637309794845,-2.662803348590833,-0.9657440781593323,0.25623619556427,0.041008226573467255,0.05799344554543495,0.6033292412757874,-0.7536203861236572,0.07659900188446045,-0.13624104857444763,0.09246039390563965
452,-1.5619596526943609,-0.21276260932350885,-2.7048568374804027,-0.9774132966995239,0.21116101741790771,-0.008637307211756706,-0.645794689655304,0.23985151946544647,-0.07103432714939117,0.8014030456542969,-0.007395118474960327,0.14582908153533936
453,-1.580785330379287,-0.24077227432393733,-2.772711695715125,-0.9711056351661682,0.23845268785953522,0.009700700640678406,-0.5213212370872498,0.023628991097211838,0.6375176906585693,0.04717075824737549,0.1391260176897049,0.060123443603515625
454,-1.611659891284919,-0.29338123984036646,-2.8203810305083117,-0.9564723372459412,0.2891906499862671,0.03910663723945618,0.07827919721603394,0.018170226365327835,0.28545093536376953,-0.9690036773681641,0.1707550287246704,-0.2054884433746338
455,-1.70597985876593,-0.23841902646629431,-2.9353813337546515,-0.9628472924232483,0.23616667091846466,0.13095982372760773,-2.2386162281036377,0.7773232460021973,-0.5879172086715698,0.3056970238685608,0.007653519511222839,-0.07090127468109131
456,-1.6430414431806477,-0.22776740475441548,-3.0067051674926777,-0.9716317057609558,0.22580315172672272,0.07031802833080292,0.28763335943222046,0.06827380508184433,0.22268714010715485,0.7018411159515381,-0.1424901932477951,-0.060354121029376984
457,-1.603384197266701,-0.262957680607156,-2.9615459469867726,-0.9651126861572266,0.25993770360946655,0.03146210312843323,1.320519208908081,-1.0539242029190063,0.5678503513336182,0.26229292154312134,-0.09381529688835144,-0.10542142391204834
458,-1.703304349857129,-0.27148617613745163,-2.957777337376609,-0.9549280405044556,0.2681634724140167,0.12728145718574524,2.350229501724243,-1.2086509466171265,0.8253317475318909,-0.24615216255187988,0.05828303098678589,-0.18125177919864655
459,-1.6546399569082877,-0.2906541850534855,-2.905769779892035,-0.9546912312507629,0.28657904267311096,0.08023287355899811,1.0303963422775269,0.37394484877586365,-0.10910401493310928,-0.27087950706481934,-0.17538824677467346,-0.14712738990783691
460,-1.6126819130771763,-0.23899668217556516,-2.916148966494904,-0.9707237482070923,0.23672795295715332,0.04068312793970108,-0.9457164406776428,0.43249571323394775,-0.4265805184841156,0.7317407131195068,-0.06627205014228821,0.18729841709136963
461,-1.613869295539564,-0.22192831831026666,-3.0254489171205323,-0.9745701551437378,0.22011105716228485,0.042003609240055084,-0.6325807571411133,-0.22783221304416656,0.2599160671234131,0.3684452772140503,0.18760377168655396,0.018482208251953125
462,-1.5926744173281022,-0.25877166784225725,-3.0151868446338983,-0.9664736390113831,0.2558933198451996,0.021147971972823143,0.360455721616745,-0.1511155664920807,-0.09326156973838806,-0.37539947032928467,-0.2847324311733246,0.3485419750213623
463,-1.6759469442067212,-0.27904354978635193,-3.1105842855625965,-0.9560098052024841,0.27543631196022034,0.1008971557021141,-0.41819441318511963,-0.08674328774213791,0.03180212900042534,-0.6947317719459534,0.12222295999526978,-0.1807616949081421
464,-1.7440128963051467,-0.21716031626392865,3.0842782694915436,-0.9619002342224121,0.2154575139284134,0.1683036983013153,-1.4075947999954224,0.49621543288230896,-0.5262939929962158,0.4478316307067871,-0.1151309609413147,0.042939066886901855
465,-1.705990601820643,-0.17807416099696502,2.998464825850634,-0.9752060770988464,0.17713451385498047,0.1326514482498169,0.2758190333843231,0.0636853575706482,0.053461089730262756,0.8523423671722412,-0.23366832733154297,-0.1497107744216919
466,-1.741271808055932,-0.2038194701787308,3.096256204718113,-0.9651049375534058,0.2024112045764923,0.16613930463790894,2.4929206371307373,-2.6232845783233643,0.14390353858470917,-0.46623051166534424,0.08065459132194519,-0.4301011562347412
467,-1.7492711112777488,-0.26017842349552195,-2.984361296846058,-0.9509944915771484,0.257252961397171,0.17155392467975616,0.7259807586669922,0.8335826992988586,-0.06246514618396759,-0.7250157594680786,0.26078295707702637,-0.2860558032989502
468,-1.6488547349992972,-0.25135327135266183,-2.9142856264768624,-0.9656273722648621,0.24871493875980377,0.07552880048751831,-0.49921882152557373,0.731060266494751,-0.6580854058265686,0.34848570823669434,-0.13139012455940247,0.06320416182279587
469,-1.5910144973207498,-0.22890120566919508,-2.9768064873949447,-0.973717212677002,0.22690752148628235,0.019689463078975677,-0.16644950211048126,0.33650314807891846,0.4482698142528534,0.48197227716445923,0.14951153099536896,0.1363316774368286
470,-1.5998126077497294,-0.31562163660089204,-2.995138829985663,-0.9502034187316895,0.31040745973587036,0.027579110115766525,-1.0513992309570312,-0.22728808224201202,1.1489813327789307,-0.10521644353866577,0.12452906370162964,0.3251277208328247
471,-1.7030193566138894,-0.40670803169363434,-3.1176616094061997,-0.9104114174842834,0.3955880403518677,0.1210838109254837,-0.8428520560264587,-0.7292187213897705,0.30224907398223877,-0.42537349462509155,-0.4698525667190552,0.014551520347595215
472,-1.8645816577397272,-0.3747930700365982,3.0430806870498732,-0.890712320804596,0.36607998609542847,0.2694759964942932,-1.7553399801254272,-0.2857300043106079,-0.8800174593925476,-0.3110547661781311,0.05771765112876892,0.4133547842502594
473,-1.8319031527549554,-0.2998264333941167,2.9524702031063055,-0.9230048060417175,0.2953543961048126,0.2466333955526352,0.21272262930870056,0.46814706921577454,0.1808057278394699,0.5845342874526978,0.06724026799201965,-0.348287433385849
474,-1.763356382372292,-0.3414018184406489,3.024067737865641,-0.924870491027832,0.334808349609375,0.18032744526863098,0.540475070476532,0.34440988302230835,-0.20318277180194855,0.27139759063720703,-0.3295745849609375,0.1046457290649414
475,-1.7426244183868693,-0.31178385211582543,3.0822260083097257,-0.9377717971801758,0.30675697326660156,0.1627403348684311,2.04072642326355,-0.8042367696762085,0.49536097049713135,-0.6970243453979492,0.20712852478027344,-0.6520591974258423
476,-1.6831285431358614,-0.33803358193297817,-3.0173613024756354,-0.9374626874923706,0.3316325843334198,0.10575245320796967,0.9595121741294861,0.3934541642665863,-0.2819058895111084,-0.2666693925857544,0.1382770836353302,-0.15224599838256836
477,-1.6032974215137392,-0.29019249681767934,-2.947628630850797,-0.9576827883720398,0.2861366868019104,0.031136702746152878,-0.5439587235450745,0.34421542286872864,-0.6392257213592529,0.6243850588798523,0.1351279616355896,0.06313204765319824
478,-1.6486303511913667,-0.26750918532251805,-3.0528947316625774,-0.9615123867988586,0.26433002948760986,0.07498987764120102,-1.6598654985427856,-0.3600303828716278,-0.5890082716941833,0.7997540235519409,0.30889689922332764,0.22711896896362305
479,-1.8461257336986128,-0.2813756911154327,3.0319808549142957,-0.9244912266731262,0.2776775062084198,0.26117274165153503,2.4046096801757812,-3.513841152191162,-1.3808214664459229,-2.018303394317627,-0.4137096107006073,-0.06723356246948242
480,-1.8093255159607662,-0.20319342241549454,2.816770236144789,-0.9516962766647339,0.20179808139801025,0.23141291737556458,-0.9537465572357178,1.9889156818389893,0.5673413872718811,0.11849004030227661,0.12010136246681213,-0.0473613440990448
481,-1.6799969347422257,-0.22356280080428595,2.7233862829733817,-0.9693054556846619,0.22170515358448029,0.10627150535583496,-0.3776587247848511,0.5056249499320984,0.749239981174469,0.8620057106018066,-0.2541148364543915,-0.11480117589235306
482,-1.634467346119077,-0.230594922668009,2.7141606682293626,-0.9715580344200134,0.22855673730373383,0.061943817883729935,0.2869648337364197,-0.6156688928604126,-0.20022384822368622,-0.17355316877365112,0.008824288845062256,-0.1832360029220581
483,-1.6332983996890342,-0.25318825928042465,2.774372082195122,-0.9662282466888428,0.25049182772636414,0.06047002971172333,0.17926962673664093,0.6068904399871826,-0.5887759923934937,-0.6665688753128052,0.2671930491924286,0.27426207065582275
484,-1.5886884919319475,-0.18542457814696567,2.7563892080685055,-0.9827007055282593,0.18436385691165924,0.01758451946079731,-0.5022473931312561,0.3123434782028198,-0.5491881370544434,0.6238903403282166,-0.08161117136478424,0.15934109687805176
485,-1.574936793358375,-0.18469813974669017,2.6925285382074957,-0.9829834699630737,0.18364982306957245,0.004070033319294453,-0.6687857508659363,0.18813911080360413,0.27841636538505554,0.3029600977897644,-0.008951917290687561,0.04152321815490723
486,-1.5652720026894753,-0.2195612861977924,2.683308860637088,-0.9759781956672668,0.21780146658420563,-0.00539167458191514,0.05205921828746796,0.088368721306324,0.4416535496711731,-0.27154988050460815,0.10699713230133057,0.18102037906646729
487,-1.5881428255918693,-0.22993654580813364,2.6543552363231377,-0.973534345626831,0.22791573405265808,0.01688910648226738,-1.903757095336914,-0.910710871219635,0.08391043543815613,-0.22780531644821167,0.29897022247314453,0.495455265045166
488,-1.67351152817734,-0.22373760210991434,2.4632422743299762,-0.9699358344078064,0.2218756079673767,0.09997900575399399,-1.7819663286209106,0.038618799299001694,0.055903658270835876,0.10055100917816162,0.2916894555091858,-0.15846598148345947
489,-1.7210887669376438,-0.21690411190255002,2.2823320227101758,-0.9655597805976868,0.2152073085308075,0.1462189108133316,-1.7197308540344238,-0.13927049934864044,-0.02273496985435486,0.3737630248069763,-0.08436322212219238,0.018926963210105896
490,-1.7054536999690084,-0.2136441844966672,2.1733350711001083,-0.9684178829193115,0.21202263236045837,0.13119855523109436,0.25711673498153687,0.061038993299007416,0.38595789670944214,0.3111304044723511,-0.060121431946754456,-0.03497663140296936
491,-1.839469774380686,-0.1562695688731156,2.1497333311869977,-0.9523759484291077,0.1556343287229538,0.2622181475162506,-0.5448058843612671,-0.1359197497367859,-0.722529411315918,-0.4280562996864319,-0.1261390894651413,0.24033012986183167
492,-1.783505231979013,-0.2123197441558182,2.222205998064182,-0.9555134773254395,0.21072812378406525,0.20636802911758423,0.42150092124938965,0.3767443299293518,0.6645030975341797,-0.21700239181518555,0.15359073877334595,-0.270393967628479
493,-1.7296961369667647,-0.254550490862537,2.328749300695278,-0.9555845856666565,0.2518104016780853,0.15313321352005005,0.7108516097068787,0.5749660730361938,-0.49848291277885437,-0.066555917263031,-0.3038276135921478,0.2529184818267822
494,-1.6954599675142281,-0.19163207833230916,2.351887210882673,-0.9740762114524841,0.19046135246753693,0.12206488102674484,0.0479152649641037,0.21553894877433777,-0.1981089860200882,0.5698557496070862,-0.049988970160484314,-0.09662856161594391
495,-1.6587240008812545,-0.21233933364602642,2.4113871092097883,-0.9737642407417297,0.21074727177619934,0.08584216237068176,0.7159225344657898,-0.1802966445684433,0.3229542374610901,0.040597736835479736,0.08539529144763947,0.19455337524414062
496,-1.6526101065449803,-0.23429072199577586,2.4835225466369018,-0.9694257378578186,0.23215314745903015,0.0794898197054863,0.3766224682331085,-0.14537005126476288,-0.006879465654492378,-0.3097337484359741,-0.17790815234184265,0.2766808271408081
