,attitude.roll,attitude.pitch,attitude.yaw,gravity.x,gravity.y,gravity.z,rotationRate.x,rotationRate.y,rotationRate.z,userAcceleration.x,userAcceleration.y,userAcceleration.z
0,-1.5366330410798812,-0.23176774918663912,-2.004401839408711,-0.9726938605308533,0.22969835996627808,-0.03324335440993309,-0.21266794204711914,0.36489301919937134,-0.16319286823272705,0.03403425216674805,-0.0016710609197616577,0.07280933856964111
1,0.061512311227577936,0.6518108552347386,1.8148510030761709,0.04887063056230545,-0.6066269874572754,-0.7934830784797668,0.059217669069767,-0.003102715592831373,-0.649067223072052,-0.07787758111953735,0.03361368179321289,0.23002177476882935
2,0.11330250480074373,0.6219714854096747,1.7419726167819403,0.09188760071992874,-0.5826385617256165,-0.8075202703475952,-0.16722527146339417,0.22275081276893616,-0.6857783198356628,-0.050414204597473145,0.10784608125686646,0.3675483465194702
3,0.119208174403625,0.6070558261109696,1.6610932330077566,0.09767765551805496,-0.5704517960548401,-0.8155021667480469,0.03924373537302017,0.03775749355554581,-0.5497491955757141,-0.050558529794216156,0.007158398628234863,0.16569143533706665
4,0.06861700047396863,0.6494054402316812,1.6363210766578948,0.054606687277555466,-0.604712963104248,-0.7945692539215088,0.10209886729717255,-0.08209618180990219,-0.08708077669143677,-0.01017308235168457,-0.16230058670043945,0.0007460117340087891
5,0.11580353151755003,0.6250044760207756,1.6121399255593671,0.09370233118534088,-0.5851008892059326,-0.8055288791656494,-0.5313332676887512,-0.044060081243515015,-0.3311351239681244,0.1704578399658203,-0.12539410591125488,-0.08596587181091309
6,0.09290392727241058,0.5686937477380117,1.6347630490696334,0.07816876471042633,-0.5385318398475647,-0.8389714360237122,-0.15385811030864716,0.2907675504684448,0.39191752672195435,-0.0015086233615875244,0.0541568398475647,-0.29420727491378784
7,0.06958834652172642,0.6118614711004291,1.6825410791800341,0.05691768229007721,-0.5743921995162964,-0.8165990114212036,0.43974119424819946,0.26808375120162964,0.4649192690849304,0.045468807220458984,0.06848704814910889,0.2396947145462036
8,0.06539198437439155,0.647216225515023,1.6881095438841984,0.05213029310107231,-0.6029679179191589,-0.79606032371521,0.3017866015434265,-0.04609856382012367,-0.017540602013468742,0.026742368936538696,0.08143782615661621,0.21000075340270996
9,0.08518155529086976,0.6904229556509286,1.6426917922319293,0.06559360772371292,-0.6368633508682251,-0.768181324005127,0.7238809466362,-0.5034868717193604,-0.5899834036827087,-0.0018576383590698242,-0.0586475133895874,0.015984058380126953
10,0.10154491408171135,0.7121102748321148,1.5864603513647946,0.07673590630292892,-0.6534326672554016,-0.7530852556228638,0.32953712344169617,-0.30045217275619507,-0.17870694398880005,0.06698662042617798,-0.2908422350883484,-0.26952826976776123
11,0.07364104773108775,0.7417964524423015,1.5460271511140964,0.05424325168132782,-0.6756134629249573,-0.7352579236030579,0.300798624753952,-0.7176054120063782,-0.20699302852153778,-0.1518232226371765,0.0275726318359375,-0.16456812620162964
12,0.051667145271675374,0.7418468164051277,1.5028994177271306,0.038073211908340454,-0.6756505966186523,-0.7362382411956787,0.07022050023078918,-0.2523632049560547,-0.24738502502441406,-0.037127166986465454,0.15535640716552734,0.1379716396331787
13,0.053780642962936956,0.7537255856564927,1.4620750214754883,0.039194948971271515,-0.6843599677085876,-0.7280900478363037,0.06533463299274445,-0.018722038716077805,-0.38025665283203125,-0.023585200309753418,0.18081998825073242,0.2697160243988037
14,0.07504299231948781,0.7678376952327755,1.4211763452421042,0.053936343640089035,-0.6945812702178955,-0.7173895835876465,0.0003376435488462448,0.1319996565580368,-0.17746005952358246,0.03743329644203186,0.002381563186645508,0.18551397323608398
15,0.055837301997082395,0.8041381961605861,1.4069557309557144,0.03871600329875946,-0.7202330231666565,-0.6926509737968445,0.08854653686285019,-0.3606930375099182,-0.08846665918827057,0.05607157573103905,-0.15998536348342896,0.09841269254684448
16,0.07345254508136982,0.8226523390293308,1.4259490422673657,0.04992334544658661,-0.7329527139663696,-0.6784452199935913,0.1903500109910965,-0.3956170380115509,-0.23217599093914032,0.06653174757957458,-0.17578446865081787,-0.07875692844390869
17,0.05092557855003811,0.7962875244405656,1.4360590172233585,0.03560017794370651,-0.7147646546363831,-0.6984583735466003,-0.2697131335735321,-0.38740500807762146,0.29300031065940857,0.04980325698852539,0.08941370248794556,-0.17939502000808716
18,0.03580296603776174,0.8092527153317546,1.4966388174227003,0.024700181558728218,-0.7237716913223267,-0.6895972490310669,0.034677986055612564,0.5578879117965698,-0.04891490936279297,-0.06176379323005676,0.056993186473846436,0.32169264554977417
19,0.036663895589059164,0.8270215103092412,1.4861281219720517,0.02481849119067192,-0.7359179854393005,-0.6766157150268555,0.7920334935188293,-1.069543719291687,-0.10587169229984283,0.035774171352386475,0.15013307332992554,0.11458873748779297
20,-0.04665079924771377,0.8591835335721674,1.484578811225591,-0.030454536899924278,-0.75730961561203,-0.6523455381393433,-0.03887501358985901,-0.03677340969443321,-0.04046153649687767,0.048154741525650024,-0.05650264024734497,0.0025957822799682617
21,-0.024509964504233657,0.8211087125517014,1.5041100732602493,-0.016699666157364845,-0.7319017648696899,-0.6812055110931396,-0.7838334441184998,0.3617608845233917,0.07118368148803711,-0.12291824817657471,-0.30636727809906006,-0.16739678382873535
22,-0.038736464605486944,0.7804093524109111,1.4875165337207479,-0.02752023935317993,-0.7035703659057617,-0.7100924849510193,-0.9539130330085754,-0.6484916806221008,-0.16841711103916168,-0.16806691884994507,0.07051372528076172,-0.08122825622558594
23,-0.09068064903215696,0.796942638616994,1.4268650180960303,-0.0632895827293396,-0.7152226567268372,-0.6960251331329346,0.6174211502075195,-1.296269416809082,-0.5089431405067444,-0.0216103196144104,0.19852954149246216,0.32804417610168457
24,-0.1309084354585634,0.7810157211260301,1.4247159463513785,-0.09270570427179337,-0.7040011286735535,-0.7041221857070923,-0.5064558982849121,0.08497194200754166,0.7678265571594238,0.05091187357902527,0.30852383375167847,0.3385826349258423
25,-0.25295536013645886,0.6834527382258622,1.5758421755482395,-0.19405579566955566,-0.6314740180969238,-0.7507216334342957,-0.7278510332107544,-0.7874037027359009,1.5141974687576294,0.036325693130493164,0.11209535598754883,0.20666944980621338
26,-0.6209827704977079,0.5995075677884654,1.9275399385152585,-0.4803706109523773,-0.5642359852790833,-0.6714772582054138,0.695929765701294,-3.1779205799102783,4.129698276519775,0.18843945860862732,0.3372920751571655,0.34028536081314087
27,-1.160915047137518,0.17383297407369094,2.315374755089215,-0.9033456444740295,-0.17295882105827332,-0.39249470829963684,0.22598068416118622,-4.283851146697998,7.949882507324219,0.03672260046005249,0.7297062277793884,-0.17056989669799805
28,-1.307773729501806,-0.5394370958100678,2.6790822508337087,-0.8284900188446045,0.5136530995368958,-0.22307975590229034,2.718670606613159,-0.6626663208007812,7.042780876159668,-0.7325298190116882,0.5800967812538147,-0.4460486173629761
29,-0.8537544635226681,-0.8873583149660136,-2.8432688296740247,-0.47596678137779236,0.7754063010215759,-0.4149705767631531,3.922635078430176,-0.07056725025177002,3.4665439128875732,-0.9396673440933228,-0.1095585823059082,-0.025642216205596924
30,-0.5813430915746763,-0.7156958687078379,-2.58352946251691,-0.4144064486026764,0.6561427116394043,-0.6306694746017456,0.3674868643283844,0.10546492785215378,-2.8618392944335938,-0.865363359451294,-0.12307697534561157,0.9247216582298279
31,-0.9504116915132216,-0.5542429346156886,-2.960673652760206,-0.6918500065803528,0.5262997150421143,-0.4943197965621948,-0.44337213039398193,-3.2725350856781006,-2.0707643032073975,0.35446298122406006,0.19006985425949097,-0.1434670388698578
32,-1.191087160613991,-0.42639098831801203,-3.130039462899142,-0.8456142544746399,0.41358762979507446,-0.33746394515037537,-0.9890045523643494,-0.696614682674408,-2.208756923675537,-0.21879315376281738,0.12964051961898804,-0.21160835027694702
33,-1.322985048541987,-0.23775177290666158,2.8297404096428043,-0.9421808123588562,0.23551823198795319,-0.23838286101818085,-1.4036833047866821,1.0434504747390747,-1.7630224227905273,-0.08809256553649902,-0.09586979448795319,-0.47838348150253296
34,-1.2905266298964186,-0.13443881898389892,2.71412669907693,-0.9523096084594727,0.13403421640396118,-0.2741188406944275,0.4967198967933655,-0.23594745993614197,-0.24317803978919983,0.42127329111099243,0.24011126160621643,-0.012914210557937622
35,-1.3087354306834622,-0.2806733867972672,2.8481358293623753,-0.9280632734298706,0.27700275182724,-0.24893394112586975,0.8933579325675964,-2.9739482402801514,2.723412275314331,0.4274376630783081,0.05466228723526001,0.22015583515167236
36,-1.5818811806078776,-0.40903715290755543,3.093174039146447,-0.9174479246139526,0.3977260887622833,0.010170192457735538,-0.17176879942417145,0.8166045546531677,-0.7805792689323425,-0.5655996799468994,-0.23016929626464844,0.5397260189056396
37,-1.552139592982563,-0.2398634260033449,3.001847599871698,-0.9712014198303223,0.23756995797157288,-0.018121547996997833,-0.6853395700454712,0.8048660159111023,-2.0670206546783447,-0.28099584579467773,0.20113547146320343,0.39977437257766724
38,-1.3711987482881522,0.027637108613547953,2.6820054337643326,-0.9797720909118652,-0.02763359062373638,-0.19819919764995575,-3.0131418704986572,3.6317663192749023,-2.601959705352783,0.06603008508682251,0.3905181288719177,-1.0554933547973633
39,-1.367085344358048,0.21492094878200108,2.531821589981722,-0.9567915797233582,-0.21327020227909088,-0.19765059649944305,2.8793063163757324,-4.318527698516846,-0.8841148018836975,0.5420271754264832,0.3170757293701172,-0.302334189414978
40,-1.7766058654436667,-0.08436495072688593,2.842887197078131,-0.9754143357276917,0.08426491171121597,0.20363286137580872,2.626046657562256,-2.662252902984619,4.228399276733398,0.15798574686050415,0.14975914359092712,0.12841367721557617
41,-1.8839445787932962,-0.28369447553437654,2.980362993470668,-0.9133403897285461,0.2799043357372284,0.2957417368888855,0.7367287278175354,0.08150392025709152,0.6668769121170044,-0.09801226854324341,-0.1846742331981659,0.5219461917877197
42,-1.8955046130453739,-0.38787148874462907,2.993874068183782,-0.8773418068885803,0.3782188892364502,0.2953333854675293,0.0846349447965622,-1.678936243057251,2.924489974975586,0.6501536965370178,0.2099921703338623,0.4441075325012207
43,-2.041362552399638,-0.6396668636937378,3.0253066927374754,-0.7150946259498596,0.5969281792640686,0.36375322937965393,0.8866041898727417,-0.47443437576293945,1.5639234781265259,-0.8394402861595154,0.15273606777191162,0.05259811878204346
44,-2.0563291703046653,-0.4312748250455357,3.0425544188170104,-0.803442656993866,0.418029248714447,0.4239474833011627,-1.1320242881774902,0.4294566512107849,-4.926645278930664,-0.7218411564826965,0.5475621819496155,-0.3392460346221924
45,-2.015619797417251,-0.08063660176095339,3.0639849915417416,-0.8997535705566406,0.08054924011230469,0.4289003908634186,-0.616356372833252,0.6512495279312134,-1.6192994117736816,0.8566778898239136,0.2477588653564453,-0.4691987633705139
46,-1.9206988397233724,-0.16750500980458574,3.1403857346015784,-0.9262580871582031,0.16672280430793762,0.33800825476646423,1.9257601499557495,1.283002257347107,1.9044121503829956,0.4025764465332031,-0.15257790684700012,-0.15816819667816162
47,-1.7800269451586188,-0.2828492198308943,-3.0015861318406523,-0.939321756362915,0.27909278869628906,0.1994539350271225,0.6967474222183228,-0.17573121190071106,-0.16448579728603363,-0.10515755414962769,-0.05236247181892395,0.45379015803337097
48,-2.011796713011389,-0.21837246122776421,-2.9816447134557906,-0.8828486800193787,0.21664102375507355,0.41670742630958557,-4.489265441894531,6.734790325164795,-0.2528660297393799,-0.3053075671195984,0.11490197479724884,0.1581675410270691
49,-1.8332493640449314,-0.13135215666762723,-2.995369628532091,-0.9574370384216309,0.13097476959228516,0.25721535086631775,0.03154181316494942,2.1094536781311035,-0.1400422751903534,-0.2262939214706421,0.04955194890499115,-0.2562539875507355
50,-1.5396962615649734,-0.13599158891486543,-3.0054399551521573,-0.9902884364128113,0.13557280600070953,-0.030807968229055405,-0.40618935227394104,3.3005893230438232,-0.17401905357837677,0.462349534034729,-0.36491239070892334,0.4181981086730957
51,-1.3145232427911266,-0.1433336012229839,3.119491837461724,-0.957421600818634,0.1428433209657669,-0.2508777976036072,-0.8329288959503174,-0.30517578125,0.24690692126750946,0.5797208547592163,0.1682376116514206,0.004356801509857178
52,-1.3251520280909757,-0.23379880854019458,-3.13913061554558,-0.9435910582542419,0.23167464137077332,-0.2365652173757553,0.6558040380477905,0.3865365982055664,1.5175297260284424,-0.2514927387237549,0.09472614526748657,0.15673121809959412
53,-1.3187350544682397,-0.30384516003000006,-3.101592624748022,-0.9240410327911377,0.2991914451122284,-0.23797637224197388,-0.3155072033405304,-1.0534204244613647,-0.14187917113304138,-0.7240760326385498,-0.349087655544281,0.4047549366950989
54,-1.5277707613669722,-0.2948721105328449,-3.140883882896892,-0.9559537172317505,0.2906174957752228,-0.041155848652124405,-0.5659298896789551,-1.9051611423492432,-0.2660200297832489,-0.36803603172302246,0.21019122004508972,-0.2978181838989258
55,-1.6371154407865347,-0.27278785495671337,3.0823714741833848,-0.9609066247940063,0.26941725611686707,0.06382006406784058,-0.5460315942764282,0.38702717423439026,-0.8461569547653198,0.13316309452056885,0.07440903782844543,-0.21416497230529785
56,-1.6104112336455747,-0.21427502239057433,3.0484598708391215,-0.9763643145561218,0.21263909339904785,0.03869882598519325,-0.3163970708847046,0.005086975637823343,0.22606007754802704,0.998916745185852,-0.02597832679748535,-0.11677801609039307
57,-1.5939293370328194,-0.2622811824159323,3.055370460125085,-0.9655426144599915,0.2592844069004059,0.022339891642332077,0.7415547966957092,0.28126779198646545,0.7851564884185791,0.18438416719436646,0.0074849724769592285,-0.22055160999298096
58,-1.8162799002969803,-0.22730099964848405,-3.109409365228387,-0.9450693130493164,0.22534877061843872,0.23677438497543335,-1.0696626901626587,-1.581542730331421,-0.9979594349861145,-0.6241750717163086,0.4799582362174988,1.3969537019729614
59,-1.72299647427313,-0.2504869608116383,-3.1099590548178466,-0.9575923681259155,0.24787575006484985,0.14688162505626678,0.22038733959197998,0.6336216330528259,0.3586616516113281,0.15588051080703735,0.02925434708595276,-0.2069707065820694
60,-1.6714573743679948,-0.31106087579411346,3.1272364220089983,-0.9471903443336487,0.3060687780380249,0.09566851705312729,0.808552086353302,1.038500428199768,0.5718437433242798,-0.3786610960960388,-0.1152423620223999,-0.4578510522842407
61,-1.532791804703856,-0.2855071937056464,-3.083021924253556,-0.9588260054588318,0.28164413571357727,-0.036457277834415436,0.16813859343528748,0.704978883266449,-0.6861695051193237,0.5890751481056213,-0.25492602586746216,0.25438326597213745
62,-1.5218638347156974,-0.2544428420811035,-3.1058825735099895,-0.9666452407836914,0.25170624256134033,-0.04733814671635628,-0.5005499124526978,-0.024415412917733192,0.3212711811065674,0.3248301148414612,-0.01423373818397522,-0.04635082930326462
63,-1.4953700232082903,-0.30485886029847387,-3.0936404424436095,-0.9511772990226746,0.3001585602760315,-0.07188014686107635,1.1980040073394775,0.8698029518127441,0.34255313873291016,-0.46283942461013794,0.095333993434906,0.25713711977005005
64,-1.4620594125153152,-0.3184220142954616,-3.0768878605731245,-0.9441215395927429,0.31306830048561096,-0.10306739807128906,-0.2164503037929535,-1.5824440717697144,0.09372728317975998,-0.4533088803291321,-0.14755618572235107,0.20499610900878906
65,-1.613279972278878,-0.34219832627833996,3.12661726702902,-0.9411692023277283,0.33555877208709717,0.04000837355852127,-1.3471858501434326,-0.9664235711097717,0.03385002911090851,-0.08467906713485718,0.19721707701683044,-0.3058011531829834
66,-1.6524042670065668,-0.33112049623084033,2.9988668516785815,-0.9425313472747803,0.32510286569595337,0.07708925008773804,-0.8566408157348633,0.9738805890083313,-0.07502610236406326,0.27682095766067505,0.07826319336891174,-0.3811206817626953
67,-1.629917646252888,-0.32820961455326575,2.9607144911879515,-0.9449672102928162,0.3223487436771393,0.05593289062380791,-0.6144331693649292,-0.02152056246995926,-0.05414851754903793,0.1738641858100891,-0.04494389891624451,0.11810887604951859
68,-1.6218128509237133,-0.35557303390444295,3.041919686142642,-0.9362274408340454,0.3481276035308838,0.04780454933643341,1.8387843370437622,-1.2685786485671997,-0.31722351908683777,-0.2842009663581848,-0.5342390537261963,0.515275239944458
69,-1.5304226235679566,-0.32080755450981785,-3.0654077888452655,-0.9482077360153198,0.3153330087661743,-0.038303472101688385,1.2736345529556274,-0.6934641003608704,-0.2513487637042999,-0.3235207200050354,0.4386190176010132,-0.15331637859344482
70,-1.4603208461156516,-0.34199126657960066,-2.9085633621183757,-0.9363455176353455,0.3353637158870697,-0.10386612266302109,1.6331857442855835,0.34928733110427856,-0.8669626116752625,-0.5821022391319275,0.3921753466129303,0.3670496940612793
71,-1.4445146167536038,-0.2890562497674773,-2.93828419565005,-0.9508807063102722,0.2850477695465088,-0.1207212433218956,-2.1971724033355713,0.8309435248374939,-0.448187917470932,1.2562549114227295,-0.2080976963043213,0.4158720374107361
72,-1.6435299174509457,-0.26654279189760166,3.0857876894128267,-0.9621366858482361,0.2633979022502899,0.07010331749916077,-3.6910696029663086,-4.1422038078308105,0.5237929224967957,0.16961050033569336,0.7976219654083252,-0.061726219952106476
73,-1.7768275593887848,-0.30379496278239454,2.820789184619044,-0.9340271949768066,0.299143522977829,0.19520875811576843,0.45333507657051086,1.8463367223739624,1.064733624458313,-0.7807097434997559,-0.36905932426452637,-0.05090630054473877
74,-1.571210792198227,-0.362128469989436,2.9913204805029907,-0.9351447224617004,0.3542654514312744,0.0003875851398333907,1.993415355682373,0.6104238033294678,-0.11862127482891083,1.1001534461975098,-0.7230551242828369,0.14057302474975586
75,-1.6145252709748694,-0.3298452045107819,-3.0892765399401303,-0.9451881051063538,0.323896586894989,0.04135844111442566,1.3183114528656006,-1.9831150770187378,-0.46879246830940247,-1.0274529457092285,0.649858295917511,-0.44211530685424805
76,-1.5486284767572636,-0.34967825753409376,-2.9050442077609344,-0.9392520785331726,0.34259554743766785,-0.0208246111869812,0.22444480657577515,0.419234961271286,0.1780068278312683,-0.08674883842468262,0.26650476455688477,0.4502679705619812
77,-1.5562679267454091,-0.3320628882694193,-2.9914983905812322,-0.9452721476554871,0.32599392533302307,-0.013734258711338043,-2.9858040809631348,-2.550496816635132,-0.5930379629135132,1.3090569972991943,-0.22414150834083557,0.45597970485687256
78,-1.9688071645752094,-0.24421344704059192,2.919537765702356,-0.8944808840751648,0.2417931854724884,0.3760848939418793,-2.5374364852905273,-0.8805268406867981,0.5152837634086609,-1.552006483078003,0.5948156714439392,-0.12495583295822144
79,-1.8041621179462373,-0.27118203349891606,2.8403796000625796,-0.9373388886451721,0.2678704559803009,0.22280216217041016,0.9137841463088989,2.9208831787109375,0.6386087536811829,0.3486703038215637,-0.5998102426528931,-0.31270700693130493
80,-1.6006450549871052,-0.33752743951049435,2.998542192086646,-0.9431561231613159,0.33115506172180176,0.028160374611616135,1.533198356628418,1.419745922088623,0.20919488370418549,0.7811993360519409,-0.6578762531280518,0.1925731897354126
81,-1.5698096533417998,-0.3556736761471186,-3.1280257115405963,-0.9374118447303772,0.34822195768356323,-0.0009249196737073362,1.625327706336975,0.27034690976142883,-0.09695585072040558,-1.636059284210205,0.547575831413269,-0.435094952583313
82,-1.4861129969255422,-0.35709953152842416,-2.985108154901137,-0.9335573315620422,0.3495582044124603,-0.07924626767635345,-0.06220140680670738,0.17494195699691772,0.1191859245300293,0.2790161967277527,-0.014582008123397827,0.43131232261657715
83,-1.573727305815703,-0.3124336084792915,3.1390370051808114,-0.9515843391418457,0.30737534165382385,0.002789081772789359,-2.2494993209838867,-0.6747621297836304,-0.10823627561330795,1.1723790168762207,-0.11842575669288635,-0.12540864944458008
84,-1.9411223995440934,-0.26398821554600027,2.8047692508187714,-0.8999148607254028,0.26093265414237976,0.3493814468383789,-1.5973880290985107,-1.1207332611083984,0.5807673931121826,-1.6969937086105347,0.7714464664459229,-0.1741800308227539
85,-1.7998103036936075,-0.2639836661661196,2.7305287511790115,-0.9401533603668213,0.26092827320098877,0.21915306150913239,0.47259771823883057,1.8436610698699951,0.8521661758422852,0.7984907627105713,-0.6520568132400513,-0.5384738445281982
86,-1.6119498258140408,-0.33919581951403793,2.956149942924331,-0.9422242045402527,0.3327288329601288,0.03879772871732712,3.2116644382476807,0.8744412660598755,-0.3717021644115448,0.6863189339637756,-0.6615099310874939,0.2941032648086548
87,-1.6274655663873678,-0.29678664633557045,-3.1176645937126564,-0.9547462463378906,0.29244884848594666,0.054162733256816864,1.069658637046814,-0.9825946092605591,-0.8188441395759583,-1.285030484199524,0.45161551237106323,-0.41614699363708496
88,-1.5289861986064248,-0.2956304633766612,-2.902321048516448,-0.9557825922966003,0.2913430333137512,-0.03998469188809395,0.6703305244445801,0.7265364527702332,0.2952946424484253,-0.12414288520812988,0.1545797884464264,0.49037837982177734
89,-1.5207615115894424,-0.2797161472547122,-2.9472096436025232,-0.9599308967590332,0.276082843542099,-0.04807008430361748,-1.950392484664917,-0.6077024936676025,-0.4894755780696869,1.5340124368667603,-0.2005366086959839,0.3658496141433716
90,-1.8685254328825842,-0.25508905998159365,3.0403636909339986,-0.9250697493553162,0.25233158469200134,0.28385746479034424,-2.502772331237793,-4.378506183624268,0.9358820915222168,-1.0249884128570557,0.8685943484306335,-0.005216687917709351
91,-1.9213034658169272,-0.3283151227924514,2.8180455333447516,-0.8890334367752075,0.32244861125946045,0.325033575296402,-0.8013429641723633,2.025742769241333,0.49920788407325745,-0.40158557891845703,-0.5607603788375854,-0.3087066113948822
92,-1.7519008523040425,-0.34575552925657405,2.829363321885772,-0.9254328608512878,0.3389075994491577,0.16945680975914001,0.8982386589050293,1.825920581817627,-0.3686020076274872,1.1578547954559326,-0.8572181463241577,-0.2731708288192749
93,-1.7130536810048778,-0.3413079051880092,3.008271695778369,-0.9327988624572754,0.33471983671188354,0.13359993696212769,1.7820203304290771,-0.8348901271820068,0.07986627519130707,-0.6873946189880371,0.38012391328811646,-0.32586073875427246
94,-1.6087538185086219,-0.35221371990140454,-3.0532098664415037,-0.9379352927207947,0.3449764847755432,0.03561877831816673,1.4262516498565674,0.1722533255815506,-0.2581886351108551,-0.8434367775917053,0.2246188521385193,0.33014965057373047
95,-1.5766612801683302,-0.332956316011234,-3.026262414132958,-0.9450640678405762,0.3268384039402008,0.005542820319533348,-1.253008246421814,0.4169270396232605,-0.8879967927932739,1.1505084037780762,-0.2876843512058258,0.2822684049606323
96,-1.6979232951843155,-0.258589205100724,2.9919227894933353,-0.9589502811431885,0.2557169198989868,0.12256944924592972,-3.1751821041107178,-1.4161593914031982,-0.03439592570066452,0.495434045791626,0.5416616201400757,-0.38535642623901367
97,-1.9092204525723162,-0.3174110857923794,2.7770130610216435,-0.8961592316627502,0.31210801005363464,0.31541648507118225,-2.9765565395355225,3.1214263439178467,0.8719899654388428,-1.597081184387207,-0.40375226736068726,2.288145065307617
98,-1.6663067224328878,-0.3770470782720789,2.721810888331899,-0.925518274307251,0.36817657947540283,0.0886663943529129,0.7329069972038269,2.361668586730957,0.4651587903499603,1.099514365196228,-1.1394931077957153,-0.0030798986554145813
99,-1.6198540575824132,-0.33408519148785526,2.865860138410801,-0.9435740113258362,0.3279050886631012,0.04632676765322685,0.9827360510826111,-2.01918625831604,-0.7311579585075378,0.45579642057418823,-0.1610807478427887,0.09106338024139404
100,-1.720979103924436,-0.3088678071983507,3.0713258898026057,-0.9419547319412231,0.3039802014827728,0.1425386369228363,3.1222681999206543,-0.33135122060775757,-1.395934820175171,-1.5719001293182373,0.7297722101211548,-0.05629599094390869
101,-1.6459660558769849,-0.24953648368004816,-3.0044940634503323,-0.9662905931472778,0.24695482850074768,0.07277292013168335,0.7127367854118347,-0.07757378369569778,-0.4537465274333954,0.6112338304519653,-0.02559557557106018,0.3708916902542114
102,-1.683932080510346,-0.19899583005087582,-3.0629339889836094,-0.9739986658096313,0.19768507778644562,0.11066664010286331,-1.35899019241333,-1.0224629640579224,0.009113704785704613,1.4627225399017334,-0.05213148891925812,-0.05367506295442581
103,-1.8390770104441614,-0.24251750066841427,3.044595671203787,-0.9360113143920898,0.24014721810817719,0.2573170065879822,-1.3122106790542603,-1.0563467741012573,1.4489474296569824,-1.5085076093673706,0.8569749593734741,-0.4987720549106598
104,-2.040663005634991,-0.30550411259814475,3.08967685680451,-0.8503420352935791,0.3007739782333374,0.4318021237850189,-1.1493709087371826,-0.44046756625175476,0.18078309297561646,-0.11813312768936157,-0.18856090307235718,1.2004761695861816
105,-1.897877963086895,-0.31241934024509643,2.995222645802312,-0.9011431932449341,0.30736175179481506,0.3057284653186798,-1.0978764295578003,-0.6008943319320679,0.17197658121585846,1.5222978591918945,-0.9705697894096375,-0.4256167411804199
106,-1.979937643085934,-0.3166929744438688,3.0803958189335985,-0.8718377351760864,0.31142568588256836,0.3780381679534912,3.1645002365112305,-2.2389495372772217,0.7035515308380127,-0.6444432735443115,0.5181031227111816,-0.297258198261261
107,-2.0162409957645235,-0.36316791160545125,-3.0110844946004254,-0.8435598015785217,0.35523730516433716,0.40275683999061584,-0.6393047571182251,0.8558546304702759,-1.1310423612594604,-0.9274361729621887,0.5937372446060181,0.3985888361930847
108,-1.9388565992539348,-0.2291179512630142,-3.0112078132143165,-0.9086445569992065,0.2271186113357544,0.3504036068916321,-0.41243666410446167,0.5329777598381042,-0.9873383641242981,0.8897844552993774,0.06328672170639038,-0.09123292565345764
109,-1.9761465082763248,-0.09087625570079172,-3.037098873256182,-0.9151723384857178,0.09075122326612473,0.39271336793899536,-0.5720197558403015,-2.4675605297088623,-2.01743221282959,0.1172444224357605,0.4719776511192322,-0.42941081523895264
110,-2.1609033854302866,-0.11416037353599802,3.095579724364071,-0.8254726529121399,0.11391256749629974,0.5528278946876526,-0.40533769130706787,1.040405511856079,2.7826626300811768,-1.3522157669067383,0.20791053771972656,0.5073527693748474
111,-1.9126774578530104,-0.24093083377666052,2.8893234807642822,-0.9149135947227478,0.23860667645931244,0.32557639479637146,-1.7702453136444092,3.255371570587158,1.889140248298645,0.3439754843711853,-0.33444714546203613,0.4824376106262207
112,-1.5837431244039375,-0.4194014197288262,2.5959902085007363,-0.9132564067840576,0.40721383690834045,0.011824406683444977,-3.194504737854004,3.7430925369262695,1.2083767652511597,0.6391322612762451,-1.132433533668518,0.7664196491241455
113,-1.3274274742665062,-0.2585750023597857,2.094574259453676,-0.9382666349411011,0.2557031810283661,-0.2329624742269516,-2.7982192039489746,2.063724994659424,-5.638134479522705,-1.5111961364746094,-0.999248743057251,-1.5772792100906372
114,-0.7928340467073138,0.22718144536603666,1.675527231724306,-0.6940415501594543,-0.2252322882413864,-0.6837958693504333,-1.740094780921936,8.701371192932129,-4.614455223083496,-0.13856959342956543,0.8868991732597351,-0.5035515427589417
115,-0.1363006637023917,0.31037707621113136,1.4991169568568308,-0.1293865144252777,-0.3054177165031433,-0.9433870315551758,1.4994964599609375,3.9167494773864746,0.5369167923927307,-0.1981281191110611,0.7654702663421631,0.020871222019195557
116,0.09502289823942202,0.5030629959581868,1.5801433138403902,0.0831252858042717,-0.4821113049983978,-0.872157633304596,1.2425647974014282,2.9877724647521973,-0.11195933073759079,-0.5095779299736023,0.6523689031600952,0.33129453659057617
117,0.13657772218692807,0.5597553930123447,1.708421733076958,0.11537444591522217,-0.5309789180755615,-0.839493989944458,-0.33197709918022156,0.05743330344557762,0.9184906482696533,-0.44000518321990967,0.013400793075561523,-0.002455472946166992
118,0.2435902288613218,0.4438835793582883,1.8258668668910918,0.21781501173973083,-0.4294499158859253,-0.8764299154281616,1.0215142965316772,0.2002338469028473,1.3956958055496216,0.023502737283706665,0.12375533580780029,-0.14716017246246338
119,0.20106276975591486,0.5030505007225181,1.9312823853200023,0.1749698370695114,-0.48210036754608154,-0.8584665656089783,0.6294816136360168,0.28852030634880066,1.248205542564392,0.01925930380821228,0.030196070671081543,0.0761789083480835
120,0.21181657911748641,0.6116208776823663,2.0796614266304427,0.17212426662445068,-0.5741952657699585,-0.8004205226898193,2.916264295578003,-1.3151378631591797,1.2263675928115845,0.23717747628688812,-0.062248826026916504,-0.25919556617736816
121,0.14402913035427165,0.6045585172698676,2.2307214756854474,0.11809113621711731,-0.5683988928794861,-0.8142340779304504,-0.7044476270675659,0.35804882645606995,0.8853954076766968,0.05540130287408829,-0.21272903680801392,-0.46236199140548706
122,0.17806962131876264,0.5188684318491423,2.3463850017724592,0.1538163423538208,-0.4958978295326233,-0.854649543762207,-0.30953046679496765,0.08505833148956299,0.33619093894958496,-0.5262223482131958,0.18188723921775818,-0.010645806789398193
123,0.2747258806579171,0.5396481167432434,2.299177696316765,0.2327309399843216,-0.5138341188430786,-0.825718343257904,1.3910552263259888,-0.3422881066799164,-0.9441186189651489,-0.4660683572292328,0.5694982409477234,-0.008571207523345947
124,0.16632352490909721,0.6234356118232149,2.10710987740543,0.13441260159015656,-0.5838279128074646,-0.8006736636161804,-0.6041082143783569,-3.6474525928497314,-4.08268404006958,-0.15426428616046906,0.2001456618309021,0.05999678373336792
125,0.03243793337966413,0.3951214329036573,2.0044839054570094,0.02993333525955677,-0.38492026925086975,-0.9224643111228943,-0.39215388894081116,1.0928007364273071,0.13480320572853088,0.4269300699234009,-0.22059425711631775,-0.3495541214942932
126,-0.052852351647107214,0.3910084814916705,2.0551581470850793,-0.048840586096048355,-0.3811209797859192,-0.923234224319458,-0.3452443778514862,-0.44059038162231445,0.8723871111869812,0.5639010071754456,0.2526114583015442,0.360368013381958
127,0.05508786054321745,0.5234716294878192,2.0902201252038757,0.0476868599653244,-0.49988988041877747,-0.8647751212120056,0.6738455891609192,1.837100863456726,-0.37462782859802246,0.4678465723991394,0.6523251533508301,0.3050217628479004
128,0.5230978518276665,0.5015829891248478,1.8414121985984135,0.43803083896636963,-0.480814129114151,-0.7595701217651367,-0.6351158618927002,6.559673309326172,-4.461658000946045,-0.08910810947418213,0.8881322741508484,0.3272123336791992
129,1.3039236650398898,-0.14689892304059127,1.3683731228018932,0.9542113542556763,0.14637117087841034,-0.2608758211135864,2.1026265621185303,4.8259782791137695,-9.614591598510742,0.40827637910842896,0.45992156863212585,-0.8541449308395386
130,1.0458729176437835,-0.7838252856617759,0.7042749591556909,0.6128652691841125,0.7059937119483948,-0.3549211919307709,3.3427021503448486,-1.6425451040267944,-2.8701303005218506,1.8777811527252197,-1.7518922090530396,0.23878657817840576
131,0.7428432749220164,-0.7096682309828682,0.38779146484431026,0.5130906701087952,0.6515821218490601,-0.5587294101715088,1.2604845762252808,3.0360329151153564,-1.471920132637024,1.0452282428741455,0.6736894249916077,0.31075888872146606
132,0.8157213038580606,-0.6284436115792644,0.2878896984721908,0.5890889167785645,0.5878864526748657,-0.5544039607048035,0.9179559350013733,1.6601943969726562,0.5951662659645081,0.39028120040893555,0.9007457494735718,-0.31716281175613403
133,0.8156585796404222,-0.5651325515804386,0.19585410948627185,0.6149584054946899,0.535527765750885,-0.5788230299949646,0.21617825329303741,-1.085222601890564,0.8728394508361816,-0.4233691096305847,-0.7708183526992798,0.4491233825683594
134,0.8488213642499116,-0.4440268039039807,0.48890676750645035,0.6777252554893494,0.4295792579650879,-0.5967832803726196,-2.081507444381714,-0.3739607036113739,3.540738821029663,-0.6525482535362244,-0.3844285011291504,0.36776411533355713
135,1.286135193729285,-0.3890212412690875,0.9063098700320336,0.8880445957183838,0.37928298115730286,-0.2598486542701721,-2.423488140106201,1.1461222171783447,1.4886003732681274,1.5630052089691162,0.42119312286376953,-0.9222344756126404
136,1.471403392336431,-0.23652352969344023,1.2337723773229474,0.9673604369163513,0.2343243658542633,-0.09646666049957275,-1.2717931270599365,0.026160210371017456,1.281846046447754,-0.022658348083496094,-0.0730389803647995,-0.40600526332855225
137,1.397567935990182,-0.08582539222593119,1.3535404243653812,0.9814077019691467,0.08572006970643997,-0.17172887921333313,1.4993782043457031,-0.38595831394195557,2.486938238143921,-0.4840018153190613,-0.4669151306152344,0.42745089530944824
138,1.2015955223751673,0.06719806286709701,1.397871338500349,0.9305112361907959,-0.06714750081300735,-0.36005574464797974,1.7009069919586182,0.2380983531475067,0.25857049226760864,-0.5723569393157959,0.6145870685577393,0.08046895265579224
139,1.46044241635621,-0.15778106266434347,0.9817737392499192,0.9815711379051208,0.15712721645832062,-0.10876207053661346,4.049942970275879,1.6378957033157349,-4.698389053344727,0.7484398484230042,0.5114823579788208,-0.17354083061218262
140,1.3039351585842986,-0.35810552893737274,0.6313418136065206,0.903411328792572,0.35050058364868164,-0.24697621166706085,2.378349542617798,-0.9392234683036804,-0.5192939639091492,0.1719059944152832,-0.25382092595100403,0.10940298438072205
141,1.2745007044824794,-0.304111761135761,0.6043310510662986,0.9125375151634216,0.2994458079338074,-0.27858132123947144,-1.8223226070404053,1.5279014110565186,1.271019458770752,-0.6490487456321716,-0.20378845930099487,0.7674729228019714
142,1.5132026479426977,-0.34277305434725963,0.9782148696711246,0.9402648210525513,0.33610013127326965,-0.0542132630944252,-0.8483110070228577,1.9385409355163574,-2.3440728187561035,2.0223817825317383,0.8175711631774902,-0.972184419631958
143,1.5957363006373837,-0.3458743723780172,1.0636190231093694,0.9404868483543396,0.33901938796043396,0.02346058189868927,-1.0761457681655884,-0.6714685559272766,0.7555492520332336,-0.1353110671043396,-0.19157373905181885,-0.16849541664123535
144,1.4940644555243987,-0.23501178595203692,1.1450037909617263,0.9696500897407532,0.2328544408082962,-0.07454943656921387,-0.5939480662345886,-1.0801489353179932,0.998150646686554,-1.144653081893921,-0.5859122276306152,0.10582994669675827
145,1.4687616301669533,-0.16184671976110995,1.1923004398299497,0.9817982912063599,0.1611410677433014,-0.1005265936255455,-0.11198759078979492,0.5962615013122559,-0.8083170652389526,0.14407140016555786,0.8991311192512512,-0.350691020488739
146,1.4534575322926073,-0.256513065495952,0.8799055082526541,0.9606291055679321,0.25370925664901733,-0.11323925107717514,3.407435894012451,-1.188408613204956,-0.004542917013168335,0.5192444324493408,0.2006974220275879,-0.24666981399059296
147,1.2377935910854083,-0.2548793581903702,0.6329390760928197,0.9145334362983704,0.2521286606788635,-0.3163219094276428,0.6347286701202393,-1.798658013343811,-0.23504869639873505,-0.6603984236717224,-0.1626816689968109,0.5417553186416626
148,1.1277501372216694,-0.2373071270593937,0.6864132851429204,0.8781304359436035,0.2350860834121704,-0.4166792333126068,-1.4997667074203491,-0.8236764073371887,1.0102434158325195,-0.8091912269592285,0.07697142660617828,0.6855543851852417
149,1.2904673431612308,-0.3012454218239028,0.9372323977569386,0.9176899194717407,0.2967097759246826,-0.26421260833740234,-0.22300046682357788,-0.8461296558380127,-0.8170729279518127,1.3259928226470947,0.5912754535675049,-0.9803094863891602
150,1.2261201891071858,-0.30936938497671496,1.0149725233064433,0.8965028524398804,0.30445802211761475,-0.3218507170677185,-1.0194658041000366,-0.9579921960830688,0.3415530025959015,-0.31322044134140015,-0.2701868414878845,0.0903596580028534
151,1.1693106858443214,-0.2712908393854497,1.057438367857751,0.8868155479431152,0.2679753005504608,-0.37649357318878174,0.41715002059936523,-0.2875153720378876,1.046186089515686,-0.7415671944618225,-0.4736485183238983,0.3260938227176666
152,1.120852052122123,-0.2053845230830692,1.0832616206624264,0.8815457224845886,0.20394361019134521,-0.42577454447746277,-0.6781399846076965,2.397318124771118,-0.07972991466522217,0.0799868106842041,0.5038200616836548,-0.017920464277267456
153,1.1313667872152582,-0.2765663344938098,0.8391203147034072,0.8706034421920776,0.2730540931224823,-0.40925657749176025,2.4027466773986816,-0.8626617789268494,-1.2565603256225586,0.5006428360939026,-0.014493942260742188,0.007782608270645142
154,0.998269456257971,-0.2273879270701606,0.6954967413702171,0.81889808177948,0.22543345391750336,-0.5278120636940002,0.6273400783538818,-0.7988746166229248,0.4340988099575043,-0.5617112517356873,-0.08932507038116455,0.5259047746658325
155,0.9619711614495232,-0.17902131044333722,0.7343144005216765,0.8072105050086975,0.17806661128997803,-0.5627642273902893,-0.5962111949920654,0.45456668734550476,1.0833314657211304,-0.49881511926651,0.14090311527252197,0.6923571228981018
156,1.1239640809740545,-0.2659377746472346,0.9335098470058253,0.8701182007789612,0.2628141939640045,-0.4169206917285919,0.20584504306316376,-0.31140583753585815,-0.5414465069770813,1.455199122428894,0.22915968298912048,-0.8251904249191284
157,1.1182225131761259,-0.2819060880831449,1.0322903559460792,0.8638255596160889,0.27818700671195984,-0.42002084851264954,-1.0730302333831787,-0.2748158872127533,0.3214245140552521,-0.17647814750671387,-0.24159643054008484,0.010017156600952148
158,1.1010782989290206,-0.2952295260582038,1.04298171856462,0.853117048740387,0.2909594476222992,-0.4330517649650574,0.6534184217453003,-0.06638669222593307,-0.2618159353733063,-0.7110424637794495,-0.5029345750808716,0.34168216586112976
159,1.1893364592048905,-0.2879422844036488,0.977953222465934,0.8899115920066833,0.2839798331260681,-0.3569492995738983,-0.06370170414447784,3.249523401260376,-0.9955891370773315,0.3771324157714844,0.474275141954422,-0.4457850456237793
160,1.2094089535039063,-0.35638383933760226,0.7758166118797394,0.8766305446624756,0.3488875925540924,-0.331355482339859,1.7158482074737549,-0.02707703597843647,-0.7266219258308411,0.3592245578765869,0.06729590892791748,0.0015978217124938965
161,1.1097902544274065,-0.3176235652823826,0.6209514531018078,0.8508074283599854,0.3123098909854889,-0.42259812355041504,0.7423597574234009,-0.6858839392662048,0.26671481132507324,-0.4949420094490051,-0.1545034945011139,0.3952544033527374
162,1.0934600131063552,-0.24556322476089465,0.6606394983295265,0.8615756630897522,0.24310268461704254,-0.445632666349411,-0.9522347450256348,0.311325341463089,1.4098703861236572,-0.6433444619178772,0.030334800481796265,0.5268399715423584
163,1.2173769659984501,-0.29612932879062903,0.8966348507679237,0.8973581194877625,0.2918201982975006,-0.3310428857803345,-0.07877214252948761,0.22489294409751892,-0.5608530044555664,1.2569844722747803,0.3605540692806244,-0.7080806493759155
164,1.2428733783211032,-0.2899006389583687,1.0093000491197341,0.9072090983390808,0.28585702180862427,-0.3086377680301666,-0.9759989976882935,-0.022427670657634735,0.45612233877182007,-0.0028055310249328613,-0.11582836508750916,0.012800365686416626
165,1.2203073200877776,-0.26881514729497863,1.0509584367999512,0.9054745435714722,0.26558932662010193,-0.3310258984565735,0.4843437075614929,-0.5110800266265869,0.26289311051368713,-0.6917447447776794,-0.3780313730239868,0.23193535208702087
166,1.155428222920379,-0.1829808999707962,1.0564629187758314,0.8996930122375488,0.18196150660514832,-0.39679014682769775,-0.05385660380125046,0.8160070180892944,-0.32737255096435547,-0.34273195266723633,0.4001765251159668,-0.008635878562927246
167,1.261181199758397,-0.27482229309276196,0.9351199811755895,0.916708767414093,0.2713758945465088,-0.29325807094573975,1.4184290170669556,0.5203603506088257,-0.7973840236663818,0.839242160320282,0.05162212252616882,-0.48834288120269775
168,1.17057675627394,-0.2742018832520977,0.7506203516796006,0.8865692615509033,0.27077871561050415,-0.3750649392604828,1.5831481218338013,-0.8572091460227966,-0.2597801387310028,-0.3721955418586731,-0.14956292510032654,0.30842989683151245
169,1.06509550123072,-0.220223242625976,0.6723185450018602,0.8537067174911499,0.2184474766254425,-0.47272124886512756,-0.07360941171646118,-0.2414800375699997,0.6278923153877258,-0.6025776267051697,-0.08220174908638,0.6709177494049072
170,1.2272214911349948,-0.22491856669513988,0.8791094030354122,0.9178407788276672,0.22302697598934174,-0.32837051153182983,-3.354013442993164,0.6935001015663147,0.1672193706035614,1.016821026802063,0.8862411975860596,-0.9578385353088379
171,1.2590118193418185,-0.24783345471986654,1.0294118578911158,0.9227068424224854,0.2453041821718216,-0.29738494753837585,-1.7529677152633667,-0.1575944423675537,0.562939465045929,0.12601441144943237,-0.027881726622581482,0.28647497296333313
172,1.2404059691583844,-0.25466410007686563,1.1683871480715133,0.9154080152511597,0.25192034244537354,-0.313949316740036,-0.397054523229599,-0.4098835587501526,-0.07174509018659592,-0.6266812682151794,-0.4074684977531433,0.1337583363056183
173,1.218427280999592,-0.25715237106749356,1.172521772358586,0.9076962471008301,0.25432759523391724,-0.33377400040626526,0.3978872001171112,0.5335575938224792,-0.10192561149597168,-0.4154934287071228,-0.23392659425735474,0.26715409755706787
174,1.246565597389878,-0.28611110110696103,1.084683809043813,0.9093629121780396,0.28222355246543884,-0.30562904477119446,2.0034642219543457,0.5209006667137146,-1.4788260459899902,0.9809874296188354,0.21498408913612366,-0.8612258434295654
175,1.159387869418525,-0.3268240935906885,0.8132376651552038,0.8680420517921448,0.32103684544563293,-0.3787325918674469,2.5037269592285156,-0.46395769715309143,-1.0573177337646484,0.17448419332504272,-0.10147818922996521,-0.055929213762283325
176,1.0351301001291895,-0.2891003994963051,0.6379827004652253,0.824242353439331,0.28509005904197693,-0.48923224210739136,0.2890249788761139,-0.9070056080818176,0.15988215804100037,-0.45281291007995605,-0.24044287204742432,0.6306354403495789
177,0.9891428963811063,-0.2643174769880575,0.7185483417097664,0.806537389755249,0.26125049591064453,-0.5303258895874023,-1.2614935636520386,0.31559401750564575,1.228049397468567,-0.4386327266693115,0.13027477264404297,0.6215734481811523
178,1.1752970034588581,-0.2868588691306009,1.037521125697007,0.8850961327552795,0.2829408645629883,-0.3695259392261505,-0.7912013530731201,-0.27668482065200806,0.3037179708480835,1.1557669639587402,0.23442363739013672,-0.2915611267089844
179,1.1781538383354044,-0.2755541609909881,1.2415597699092336,0.8890466690063477,0.2720802426338196,-0.3681962490081787,-1.9021391868591309,-0.773728609085083,0.9017663598060608,-0.26151371002197266,-0.10868909955024719,-0.1380751132965088
180,1.2062893516076776,-0.2862029533670688,1.3700075585865026,0.8962948322296143,0.28231167793273926,-0.3419876992702484,-0.2690590023994446,0.6507245898246765,0.14268110692501068,-0.7359402775764465,-0.46614956855773926,0.2153855860233307
181,1.2702335491734957,-0.27947272448325367,1.3557945545126584,0.9181105494499207,0.2758488655090332,-0.28457111120224,0.6144370436668396,2.4865801334381104,-0.3297475576400757,-0.2326703667640686,-0.042633503675460815,0.021997839212417603
182,1.37186484559423,-0.3625597086595822,1.1391804843661109,0.9165524244308472,0.3546687066555023,-0.18477500975131989,2.8971102237701416,0.509087324142456,-1.3106364011764526,0.9287997484207153,0.3191136419773102,-0.3202298879623413
183,1.2224402491106696,-0.3694572850791795,0.8553908186108314,0.8765115141868591,0.3611093759536743,-0.31831973791122437,2.192164421081543,-1.1276185512542725,-0.2957973778247833,-0.0677804946899414,-0.053827881813049316,0.24831247329711914
184,1.0726966738956623,-0.32830837771742033,0.7191035814402923,0.8315710425376892,0.3224422335624695,-0.4522395730018616,0.46929123997688293,-0.5345516800880432,0.011471051722764969,-0.5927252173423767,-0.24610251188278198,0.6722865700721741
185,1.1722433770608287,-0.2782274398331539,0.7708780646670796,0.8861814141273499,0.2746516764163971,-0.37316083908081055,-1.5837446451187134,3.3439230918884277,1.3111279010772705,-0.024746477603912354,0.5481022596359253,0.42725324630737305
186,1.4394286080599583,-0.2787636802243215,0.9396026782298526,0.9531126022338867,0.2751672565937042,-0.12593349814414978,-0.40598127245903015,1.072258710861206,0.5660460591316223,0.466885507106781,0.2660924792289734,0.42053496837615967
187,1.4820163761348963,-0.25083716566264924,1.1248768462331746,0.9648898839950562,0.24821501970291138,-0.08588864654302597,-1.3720306158065796,-0.3275631070137024,-0.054713644087314606,-0.45489537715911865,-0.23889189958572388,-0.05733036994934082
188,1.424259522644264,-0.28267455368970773,1.1486857613247017,0.9500209093093872,0.2789250612258911,-0.1402181088924408,0.2799668312072754,-0.9379729628562927,-0.3236415982246399,-0.7902461290359497,-0.5222874879837036,0.04460650682449341
189,1.4080980243372172,-0.286075090671179,1.0574436409746077,0.9466893672943115,0.2821890115737915,-0.15539835393428802,0.6493657827377319,1.4457472562789917,-0.4747428596019745,0.15670418739318848,0.11937656998634338,-0.13973712921142578
190,1.3089171392319732,-0.3212947826697975,0.7999337005149492,0.9164773225784302,0.315795361995697,-0.24564774334430695,2.7773373126983643,-1.173598289489746,-0.6178428530693054,0.7485923767089844,0.07162532210350037,-0.5000492334365845
191,1.1355020003922152,-0.28742724571341427,0.5528758994183754,0.8695480227470398,0.28348594903945923,-0.40437859296798706,1.3577866554260254,-0.9645636677742004,-0.014605464413762093,-0.2254897952079773,-0.11171776056289673,0.35960930585861206
192,1.0606538795870852,-0.22457895561728738,0.5200496816226331,0.850760281085968,0.22269591689109802,-0.4760392904281616,0.7695716619491577,0.2966981530189514,0.7090291976928711,-0.6077641248703003,0.13468016684055328,0.7866472005844116
193,1.218094442260878,-0.17024143443557266,0.6963463298056137,0.9248765707015991,0.1694203019142151,-0.3404409885406494,-4.030155181884766,1.919952392578125,1.095993995666504,0.9182478189468384,1.2290019989013672,-0.5077950954437256
194,1.332263115669227,-0.18043173920281333,0.936429601607273,0.9559115171432495,0.17945432662963867,-0.2324419617652893,-2.5949349403381348,-0.480510413646698,0.8916709423065186,0.4919949173927307,0.28055238723754883,-0.005274638533592224
195,1.327185119584587,-0.18870864549732463,1.2143571707867562,0.9532447457313538,0.18759062886238098,-0.23692665994167328,-1.9702339172363281,-0.35306695103645325,0.09494366496801376,-0.5728889107704163,-0.07324124872684479,-0.055858954787254333
196,1.295326315910264,-0.2244524010925885,1.293618982547524,0.9381593465805054,0.22257253527641296,-0.2651764750480652,0.2529104948043823,-0.021720441058278084,-0.10417123138904572,-0.7846101522445679,-0.6031877398490906,0.17948311567306519
197,1.4375343771937963,-0.18507251068775707,1.2471719852149272,0.9742080569267273,0.18401780724525452,-0.13059887290000916,0.9831293821334839,2.438878059387207,-0.24176263809204102,1.614231824874878,0.4914429783821106,-1.1795817613601685
198,1.3402874543107515,-0.23167947043427242,1.0270159814053563,0.9475391507148743,0.22961243987083435,-0.22236867249011993,2.4276723861694336,-0.9092541337013245,-0.6386199593544006,0.280228853225708,0.20271486043930054,-0.10462716221809387
199,1.2177526086714665,-0.22682808066490523,0.796229564248381,0.9142891764640808,0.22488799691200256,-0.3368987739086151,1.1054631471633911,-0.8343808650970459,0.1077110767364502,-0.39605486392974854,-0.14949429035186768,0.4204406440258026
200,1.1490161845852005,-0.1867782535641446,0.8070452693978698,0.8964934349060059,0.18569415807724,-0.4022650420665741,-0.8544267416000366,-0.005692013073712587,0.8875715136528015,-0.6807341575622559,0.05048137903213501,0.720731258392334
201,1.3921767981161244,-0.1702646720769731,1.1031095397618107,0.9698600172996521,0.16944320499897003,-0.1751021146774292,-2.851834535598755,2.6164517402648926,0.00941033661365509,2.1932106018066406,1.023366928100586,-1.0036545991897583
202,1.4579718826030121,-0.1325780348747175,1.360747889651342,0.9849223494529724,0.13218998908996582,-0.11159723997116089,-2.7290701866149902,-0.9961145520210266,0.5087853670120239,0.07686048746109009,0.3289916515350342,-0.2622430920600891
203,1.4148286510536483,-0.16329253872766378,1.547265079158966,0.9747204780578613,0.16256782412528992,-0.1532697230577469,-0.9012311697006226,-0.5056394338607788,-0.32702958583831787,-0.6239972710609436,-0.2768104076385498,-0.020833000540733337
204,1.3961556898609266,-0.17851973009571429,1.528095380289188,0.9691383242607117,0.17757302522659302,-0.1709928661584854,0.9016939401626587,0.30311790108680725,-0.013424389064311981,-0.8160470128059387,-0.5077579617500305,0.1610288769006729
205,1.5089589432551647,-0.17605532760501136,1.4157109662546403,0.9826604723930359,0.17514725029468536,-0.06084272265434265,2.506458044052124,0.4485395848751068,-0.9678257703781128,2.418691396713257,0.29349595308303833,-1.6162660121917725
206,1.3645448341717437,-0.25828092057373947,1.1778209696789756,0.9463388323783875,0.2554188668727875,-0.19799940288066864,1.3322718143463135,-1.222345232963562,-0.019493669271469116,-0.235798180103302,0.013807117938995361,0.11892834305763245
207,1.2673695400355585,-0.23940156310347754,1.1008837033769596,0.9271010756492615,0.23712129890918732,-0.2902706563472748,0.16658122837543488,-0.7006679773330688,-0.02973451092839241,-0.748435914516449,-0.18650789558887482,0.36389437317848206
208,1.227310389608578,-0.2681621172350174,1.1109733580298862,0.9079335927963257,0.2649596929550171,-0.32473504543304443,-0.22744831442832947,0.10859733819961548,-0.4728202819824219,-0.13121551275253296,0.018121302127838135,0.21564999222755432
209,1.249343924972695,-0.2725916987693228,1.052612755562554,0.9137451648712158,0.26922833919525146,-0.30427905917167664,0.541504979133606,0.06678664684295654,0.3148230314254761,0.9386565089225769,-0.06013718247413635,-0.1997492015361786
210,1.2970305193313572,-0.26433084803927576,1.1312133380373077,0.9293206334114075,0.2612634301185608,-0.2609686851501465,-1.3575832843780518,0.18401449918746948,0.47344690561294556,0.8446357250213623,0.576688289642334,-0.21184015274047852
211,1.3537316114001678,-0.21815944134682352,1.2802845982180464,0.953387439250946,0.2164330631494522,-0.21025945246219635,-1.1961889266967773,-0.011689452454447746,1.019132375717163,-0.7814972400665283,-0.08674865961074829,0.20748236775398254
212,1.3937089184489573,-0.18314392106300934,1.304202911748736,0.967898428440094,0.18212181329727173,-0.17321711778640747,0.31784185767173767,0.5191269516944885,0.10496364533901215,-1.0806609392166138,-0.09571133553981781,-0.030609771609306335
213,1.4969782474523925,-0.213080823883335,1.2720241011164979,0.9747223854064941,0.2114720493555069,-0.07208310812711716,0.8220440149307251,5.326670169830322,0.5584960579872131,2.0019469261169434,-0.9490208625793457,1.1925970315933228
214,1.7866273354342816,-0.10608096699725159,1.2407841895125975,0.9713078737258911,0.10588212311267853,0.21295537054538727,0.9756836891174316,-2.6336374282836914,0.24944764375686646,-0.5390263795852661,0.5021196007728577,-1.9551275968551636
215,1.5569784449754647,-0.16994374477999694,1.2563681878246409,0.985500156879425,0.16912689805030823,-0.013618391007184982,-0.16341324150562286,-3.0526394844055176,-0.8032929301261902,0.8889809846878052,0.3460097908973694,-0.7677994966506958
216,1.2949619370400571,-0.27147254473582144,1.105624294460637,0.9269596934318542,0.26815032958984375,-0.2623756229877472,1.369071125984192,-2.444762945175171,-1.2957364320755005,-0.5318945050239563,-0.15699008107185364,0.3805702030658722
217,1.0504015733859111,-0.3022059135985718,1.0540062110414177,0.8283043503761292,0.29762688279151917,-0.47468969225883484,-0.5896761417388916,-1.394795536994934,0.39788901805877686,-0.7640495300292969,-0.32126274704933167,0.6246073246002197
218,1.0629450135063903,-0.3220205596290641,1.1137416382817888,0.8288767337799072,0.31648391485214233,-0.4613040089607239,-0.02041693776845932,0.7151466012001038,-1.199315071105957,0.4115560054779053,0.30299243330955505,-0.06654328107833862
219,1.0240233721841414,-0.3482925024323979,0.9407402975505347,0.80291748046875,0.3412933349609375,-0.48871490359306335,0.4816528558731079,0.8779693841934204,0.03606679290533066,1.0682830810546875,-0.3960113823413849,-0.08612939715385437
220,1.139791689006617,-0.3161161439176077,0.9534952653201441,0.8635279536247253,0.3108775019645691,-0.3970825672149658,0.08168461918830872,1.6422218084335327,0.6100456118583679,0.4146244525909424,0.4318745732307434,-0.10680842399597168
221,1.2607994831533975,-0.26150294526111867,1.2312518965447172,0.9199575185775757,0.25853270292282104,-0.294684499502182,-2.153726577758789,-0.2677251696586609,2.0465316772460938,-0.48633331060409546,0.28648072481155396,-0.07070240378379822
222,1.2681870564781723,-0.18834871076979018,1.2916024573590124,0.9376804828643799,0.18723706901073456,-0.2927415072917938,-0.2820499539375305,0.035854119807481766,0.10842646658420563,-1.0059635639190674,-0.03722786903381348,0.3810441493988037
223,1.268259471792007,-0.22844482860198861,1.2890029409432664,0.9297833442687988,0.22646303474903107,-0.29020217061042786,0.8335654735565186,0.5597097873687744,-1.5679620504379272,0.061915814876556396,0.22933225333690643,-0.28018662333488464
224,1.468936586201368,-0.16203249914209564,1.1847172658844507,0.9817860722541809,0.1613244116306305,-0.10035178065299988,1.249311089515686,3.1687803268432617,0.27336063981056213,0.1339060664176941,0.07884889841079712,-0.05487591028213501
225,1.437699236368922,-0.17692000883503708,1.1408959530958258,0.9756841063499451,0.1759984940290451,-0.13063301146030426,-0.2647077143192291,-0.7360823154449463,-0.35332944989204407,0.049660682678222656,0.1575586199760437,-0.17793023586273193
226,1.369984041530873,-0.23387546219599295,1.094295055402933,0.9532276391983032,0.23174920678138733,-0.19403505325317383,1.3623255491256714,-0.3097115457057953,-0.5096115469932556,0.16759157180786133,0.04582342505455017,-0.18716004490852356
227,1.2452716821526528,-0.2361036360347225,0.9628370480434191,0.9211969375610352,0.23391614854335785,-0.31093350052833557,1.0359574556350708,-0.8180404901504517,-0.21985025703907013,-0.7154779434204102,-0.20669445395469666,0.3181356191635132
228,1.1583961340089746,-0.2584590495049818,0.9455282202660595,0.8857311606407166,0.25559109449386597,-0.38749656081199646,-0.8707588315010071,-0.9618061184883118,-0.7383394241333008,-0.6585888266563416,-0.04335656762123108,0.3661189675331116
229,1.0868427497905966,-0.3787331046228593,0.9537173722638391,0.8224341869354248,0.3697436451911926,-0.4323095679283142,-0.24839812517166138,-1.2908709049224854,-0.4179951846599579,1.0240164995193481,0.06816831231117249,-0.3006463646888733
230,1.1754928590905815,-0.3381350517774067,0.9710292149511174,0.8706217408180237,0.33172833919525146,-0.3632826805114746,-0.425920307636261,0.6356768608093262,0.34078502655029297,0.5604849457740784,0.4011666178703308,-0.14362958073616028
231,1.2651459314959483,-0.28620087036621467,0.952164734971876,0.9148601293563843,0.2823096811771393,-0.2886733412742615,-0.17286746203899384,0.41958025097846985,0.9679854512214661,0.04970896244049072,0.2502830922603607,-0.11554723978042603
232,1.1789689934129237,-0.1798821208021975,1.0243287885297157,0.9093004465103149,0.17891359329223633,-0.3757162094116211,0.6124111413955688,-1.128659725189209,0.6841073632240295,-0.8914781808853149,0.3143419623374939,0.15148833394050598
233,1.1034859059685822,-0.1257563327307277,0.9555356530891708,0.8857329487800598,0.12542513012886047,-0.44692927598953247,0.709374725818634,-0.2584972381591797,-0.7198020815849304,-0.3616393208503723,0.19294950366020203,0.32990962266921997
234,1.1347907241129411,-0.18851046764782067,0.8498763234382442,0.8903875946998596,0.18739596009254456,-0.4148404598236084,0.16830576956272125,0.39241230487823486,-0.997713029384613,0.6480492353439331,-0.19415561854839325,0.059554845094680786
235,1.1306597577386186,-0.21605950927625805,0.8431130212359594,0.8836591839790344,0.21438242495059967,-0.41615697741508484,-0.052335433661937714,-0.02317850850522518,-0.3594849705696106,0.15618151426315308,0.06676074862480164,-0.3021199703216553
236,1.0624332876546692,-0.2715976905184066,0.7399753989814695,0.8415214419364929,0.26827090978622437,-0.4689054787158966,0.7416902780532837,-0.9435319304466248,-0.6585752367973328,0.038880109786987305,0.12098076939582825,-0.058545082807540894
237,1.0241683503930987,-0.2731167159512816,0.651236594844135,0.8226181864738464,0.2697339355945587,-0.5005427598953247,0.4628506004810333,-0.2757273018360138,-0.2290726900100708,-0.6647049784660339,-0.4112439751625061,0.09084427356719971
238,0.9422482881257493,-0.31574895986414775,0.5942337676865133,0.7688942551612854,0.3105284869670868,-0.5589040517807007,-0.10130853205919266,0.037710774689912796,-0.7975122332572937,-0.2600288987159729,-0.1386077105998993,0.4473012685775757
239,0.9820170609363988,-0.5242881305601839,0.4418017526339075,0.7199165225028992,0.5005968809127808,-0.4807524085044861,-0.8898849487304688,1.7111036777496338,-3.37636661529541,0.12226176261901855,0.15278440713882446,0.27681872248649597
240,1.0230875682184244,-0.7875314624281925,0.5643376360563633,0.6023820638656616,0.7086136341094971,-0.36742720007896423,-2.4754905700683594,-0.04666948691010475,0.5699335932731628,0.7657667994499207,0.41693568229675293,-0.15887892246246338
241,1.3013107781484996,-0.6344285009215255,1.0917976876903082,0.7763417363166809,0.5927173495292664,-0.21442896127700806,-4.154782772064209,-1.1486150026321411,6.06593132019043,0.6964823603630066,-0.5213672518730164,0.061032429337501526
242,1.2786921441669068,0.04669188692121011,1.656682058690757,0.956596314907074,-0.04667492210865021,-0.2876540422439575,-3.337620496749878,-3.6592535972595215,8.435023307800293,0.21486663818359375,0.3489362895488739,-0.1960800588130951
243,0.516004122357505,0.4286392830391156,2.2427349581600518,0.4487708806991577,-0.41563355922698975,-0.791109025478363,-3.563009262084961,-7.984595775604248,4.483428955078125,0.07738268375396729,0.18038883805274963,0.23195064067840576
244,-0.11402539012305427,0.2686075024857229,2.459576897162495,-0.10969852656126022,-0.2653891444206238,-0.9578803777694702,0.09472759068012238,1.3767699003219604,-1.6933916807174683,-0.3223083019256592,0.12509983777999878,0.3738197088241577
245,-0.02075188924288087,0.2840749018778235,2.3049569058698953,-0.01991875097155571,-0.2802695631980896,-0.9597146511077881,-0.6326166391372681,-0.46620601415634155,-1.1278908252716064,0.17243033647537231,0.1843680441379547,-0.8057730197906494
246,0.038171355118983646,0.48304232220424004,2.19791859753982,0.033795807510614395,-0.4644755721092224,-0.8849408626556396,1.3475286960601807,-1.860282063484192,-0.6747475266456604,0.4290185272693634,0.03550523519515991,0.26110053062438965
247,0.01936554684741531,0.5851285113310302,2.057880756395438,0.01614290662109852,-0.5523065328598022,-0.8334848284721375,1.0885822772979736,0.7186214923858643,-0.504344642162323,0.5507058501243591,0.46919190883636475,0.6352121233940125
248,-0.0676603085918017,0.5707760150482154,2.0542991965810287,-0.05689149722456932,-0.5402852296829224,-0.8395565748214722,0.8254701495170593,-0.37165504693984985,0.018222549930214882,0.23798279464244843,0.18503010272979736,0.12787139415740967
249,-0.059377354014207274,0.4753509117952981,2.1613259279483534,-0.05276329815387726,-0.45765048265457153,-0.8875652551651001,-3.3257575035095215,-0.16355934739112854,1.0070858001708984,-0.13774268329143524,-0.5523592829704285,-0.5924762487411499
250,-0.09584001888169255,0.5192037730455171,2.257280157085822,-0.08308237046003342,-0.4961889982223511,-0.8642301559448242,1.4994629621505737,-0.3957498371601105,0.8982565402984619,-0.041108906269073486,0.16112124919891357,0.5624418258666992
251,-0.11812900213251463,0.6444064924257988,2.2862073243169885,-0.09421950578689575,-0.6007240414619446,-0.7938849329948425,1.163712978363037,-1.0743775367736816,-0.4216483533382416,-0.37739914655685425,0.4295509457588196,0.7275550365447998
252,-0.0980786509498124,0.4155560924097031,2.2256861095741725,-0.08958757668733597,-0.40369874238967896,-0.9104951620101929,-2.916426420211792,-0.5159750580787659,-0.17279747128486633,-0.26981794834136963,0.42826539278030396,-1.6600309610366821
253,-0.13919143517785837,0.39902134767008507,2.0652382173678268,-0.12784303724765778,-0.38851675391197205,-0.9125299453735352,1.9975801706314087,0.4821653664112091,-1.3761482238769531,0.5210009813308716,0.17791494727134705,-0.052893638610839844
254,-0.10120083429501059,0.5685779791821364,2.046242448540417,-0.08513316512107849,-0.5384343266487122,-0.8383560180664062,1.2772419452667236,0.11117485910654068,0.3262963891029358,0.462681382894516,0.48804980516433716,0.852424681186676
255,-0.04408767878260127,0.36239841146704105,2.1556796147059982,-0.04121079668402672,-0.3545178771018982,-0.9341406226158142,-4.858226776123047,-0.32479730248451233,2.553887128829956,0.4046598970890045,-0.2669573128223419,-0.7877678871154785
256,-0.028604238447249044,0.19674121524999175,2.2784054614943083,-0.028048602864146233,-0.19547446072101593,-0.9803076386451721,1.6854974031448364,0.7759575247764587,0.900699257850647,-0.032132066786289215,-0.061926066875457764,-0.5007256865501404
257,0.047569686081551196,0.4253117095197852,2.359682140215361,0.04331536963582039,-0.41260474920272827,-0.909879744052887,2.9071061611175537,1.4456931352615356,-0.18744580447673798,-0.4545244872570038,0.25176188349723816,0.7367382645606995
258,0.06032453249747953,0.4974089093177325,2.313531159440389,0.05298237130045891,-0.477150022983551,-0.8772233128547668,-2.6940841674804688,-0.19928772747516632,-1.3077244758605957,-0.8076362609863281,-0.018211305141448975,0.029795944690704346
259,0.0016376595292859702,0.26580811639860424,2.068591953864657,0.0015801450936123729,-0.26268908381462097,-0.9648792147636414,-0.2664872407913208,-1.8654087781906128,-2.8795294761657715,0.2277136743068695,0.19823595881462097,-0.9182536602020264
260,-0.020917897327518947,0.48010575136077543,1.8755178090982607,-0.018551694229245186,-0.46187296509742737,-0.8867520689964294,2.987189769744873,-0.006741764489561319,0.355887770652771,0.9097260236740112,0.42458051443099976,0.7891568541526794
261,-0.1040728331148283,0.6327854946691739,1.9679466840459772,-0.08377117663621902,-0.591393232345581,-0.8020201921463013,-0.11257199943065643,2.6300230026245117,0.7536002397537231,-0.04351764917373657,-0.48558735847473145,0.9621001482009888
262,0.08971743532536584,0.33007546820848765,2.133194075252234,0.08476047962903976,-0.3241144120693207,-0.9422131180763245,-0.24416713416576385,-2.7734475135803223,0.8798897862434387,0.33980005979537964,-0.25723016262054443,-2.440584182739258
263,0.003613204070473537,0.5819046859155764,2.3131894824416586,0.003018526826053858,-0.5496161580085754,-0.8354118466377258,3.172084093093872,1.4208769798278809,1.9095747470855713,-0.15475192666053772,0.39509040117263794,0.7417687177658081
264,-0.08703250186370842,0.7603552682637158,2.4417897864996263,-0.06298340111970901,-0.6891788840293884,-0.7218486666679382,1.3628090620040894,-0.9603317379951477,0.4206428825855255,-0.3703356683254242,0.747925341129303,0.9358226656913757
265,-0.1729942939996796,0.4237448758396524,2.332392078847705,-0.1569085270166397,-0.41117697954177856,-0.8979494571685791,-11.967753410339355,-1.2673516273498535,0.24509750306606293,-0.2036413997411728,1.0688765048980713,-0.6274564266204834
266,-0.14842277726991562,0.12243827853417805,2.141981625679648,-0.1467713862657547,-0.12213259190320969,-0.9816016554832458,-0.41941189765930176,-1.0830700397491455,-4.343504428863525,0.0245637446641922,0.4413922429084778,-0.8397331833839417
267,-0.13820473734985947,0.38503257430150784,1.9358204108956347,-0.12767888605594635,-0.3755893409252167,-0.9179491996765137,2.841343402862549,-1.1599682569503784,-1.0284620523452759,0.8310785293579102,0.3901919722557068,1.0167346000671387
268,-0.24393701078312702,0.4604475047026384,1.9470263305190951,-0.21637102961540222,-0.4443490505218506,-0.8693316578865051,-2.2338180541992188,1.913586974143982,0.34399381279945374,0.08888384699821472,-0.7112448215484619,0.4004901051521301
269,-0.20797966935727527,0.2492573466945197,2.1183565750264544,-0.20010234415531158,-0.24668432772159576,-0.9482119679450989,1.5432170629501343,0.4463746249675751,1.2435498237609863,-0.21428059041500092,-0.10210107266902924,-0.9510495066642761
270,-0.19802407651772225,0.42716405466962154,2.2726642964787414,-0.1790548861026764,-0.4142913520336151,-0.892357587814331,2.083780288696289,0.1203593760728836,1.284483551979065,0.06996980309486389,0.1945953071117401,0.760613203048706
271,-0.47858300525791203,0.6120459755018413,2.46590193276301,-0.3769252598285675,-0.5745432376861572,-0.7265173196792603,2.263688325881958,-2.969926357269287,0.15149478614330292,-0.5530216693878174,0.3116800785064697,1.1588903665542603
272,-0.4306357726293919,0.3532559958588299,2.3768892641521573,-0.39167168736457825,-0.345954567193985,-0.8525894284248352,-0.5114777684211731,-0.8691193461418152,0.40280914306640625,-0.8785614967346191,1.1216809749603271,-3.6401169300079346
273,-0.3884664089055011,0.5264115283762293,2.1858902873307215,-0.32749006152153015,-0.5024339556694031,-0.8001940250396729,1.0523732900619507,0.23214243352413177,-3.38017201423645,0.5527250170707703,0.5449448823928833,0.40767693519592285
274,-0.3385306536665794,0.6968338902736266,2.0697156719244414,-0.2546813189983368,-0.641792893409729,-0.7233527898788452,0.0010760128498077393,-1.6837109327316284,0.4122133255004883,0.6869323253631592,0.5364157557487488,1.1415352821350098
275,-0.2536362335235133,0.3753118632778401,2.0332779340276663,-0.23345942795276642,-0.36656269431114197,-0.9006267189979553,-4.876748561859131,2.1951448917388916,2.543485164642334,0.8207702040672302,-0.11408916115760803,-2.3375020027160645
276,-0.17722884917994872,0.4304869921484572,2.1474511960357394,-0.16021713614463806,-0.41731342673301697,-0.894527792930603,2.4714162349700928,1.9099737405776978,0.8376478552818298,-0.04832473397254944,-0.45460429787635803,0.3185696005821228
277,-0.18278256534247248,0.4972066031480588,2.318888077545431,-0.15975789725780487,-0.47697222232818604,-0.8642770648002625,0.7686180472373962,-0.27796339988708496,1.6563085317611694,0.03120262920856476,0.3804756700992584,0.6994974613189697
278,-0.3222617008192057,0.6056642658948297,2.4325841508668233,-0.26037710905075073,-0.569308340549469,-0.7798024415969849,0.8593041896820068,-1.5623284578323364,-0.3460066616535187,-1.0544421672821045,0.0793944001197815,0.8198109865188599
279,-0.38224537330962377,0.40196609184327675,2.2562658764999166,-0.3432738482952118,-0.39122846722602844,-0.853875458240509,0.5793247818946838,-1.069945216178894,-1.9459280967712402,-0.49107664823532104,0.7345207929611206,-2.1751315593719482
280,-0.4364828657983536,0.5553107547868993,2.0770803113201914,-0.3592301607131958,-0.5272073745727539,-0.770068883895874,0.970719039440155,-0.37814363837242126,-2.327805995941162,0.8193131685256958,0.5212259292602539,0.6079747676849365
281,-0.34715302095107814,0.6963441864596552,2.044352497646643,-0.26101571321487427,-0.6414172649383545,-0.721425473690033,-0.777319610118866,0.7380810976028442,0.5011206269264221,0.6977832913398743,0.418959379196167,1.5032858848571777
282,-0.21147937431761807,0.29249853209467375,2.1226419156769847,-0.20099106431007385,-0.2883455455303192,-0.936194121837616,-3.6194612979888916,1.6967275142669678,2.698617696762085,0.28225937485694885,0.1627351939678192,-2.7366573810577393
283,-0.10541063018176025,0.4021794686695792,2.218455284027148,-0.0968203917145729,-0.39142483472824097,-0.9151024222373962,2.151066780090332,0.40159523487091064,0.41799962520599365,-0.1547664999961853,-0.20911529660224915,0.17421191930770874
284,-0.1418756930374103,0.48320652311816564,2.336359430546307,-0.12521125376224518,-0.464620977640152,-0.8766125440597534,0.42077258229255676,-0.963611900806427,0.9513811469078064,0.021024227142333984,0.3990997076034546,0.8658550977706909
285,-0.22127224050894323,0.5214240149912533,2.3859726242476804,-0.1903056800365448,-0.4981154203414917,-0.8459697365760803,-0.5819238424301147,-0.5119132995605469,-0.8172858953475952,-0.8331623077392578,0.1209791898727417,0.7230754494667053
286,-0.11743523199659717,0.33831266829390494,2.214475433408758,-0.11052408814430237,-0.3318958878517151,-0.9368188381195068,0.8647292852401733,-1.6994273662567139,-2.0039169788360596,-0.47039327025413513,0.4230061173439026,-2.495371103286743
287,-0.2006122589377358,0.49886569566583916,1.9758961844931526,-0.17498356103897095,-0.47842979431152344,-0.860514760017395,1.7297885417938232,-0.707660973072052,-2.3932743072509766,0.577510416507721,0.48828697204589844,0.59730064868927
288,-0.15413689172209535,0.6482935182098021,1.8997863860809754,-0.12237895280122757,-0.6038269996643066,-0.787665069103241,-0.7795299291610718,-0.21342986822128296,0.5437635779380798,0.796207070350647,0.46231698989868164,1.3413455486297607
289,-0.01382701277532859,0.3115659235534138,2.0110374536279965,-0.013160888105630875,-0.3065495491027832,-0.9517637491226196,-4.392369747161865,3.6283130645751953,2.9310801029205322,1.1822588443756104,-0.1818079948425293,-1.8801454305648804
290,-0.04245725803542194,0.3690685845408838,2.234570914440075,-0.03958645090460777,-0.3607468903064728,-0.9318232536315918,2.271178722381592,0.16968287527561188,1.8354437351226807,-0.21117648482322693,-0.14352557063102722,0.0749659538269043
291,-0.13639591140671217,0.4685721229303952,2.4100545244537526,-0.12131737172603607,-0.45161277055740356,-0.883927583694458,0.7134066224098206,-1.0298335552215576,0.8058943152427673,-0.3017325699329376,0.49395591020584106,0.834550142288208
292,-0.1866735935187682,0.5674696034404498,2.4028472965755716,-0.15650242567062378,-0.5374999642372131,-0.8286137580871582,0.69474196434021,-0.7111954689025879,-1.2795169353485107,-0.6592171788215637,0.19808346033096313,0.8005528450012207
293,0.006022423625595022,0.4039206573872664,2.195489705510238,0.005537748336791992,-0.3930265009403229,-0.9195104837417603,0.38446152210235596,0.7740502953529358,-1.4775766134262085,-0.09271121025085449,0.4389401972293854,-2.7419276237487793
294,-0.08559238868255716,0.46680096326221115,1.9540643291222775,-0.07634177803993225,-0.4500318169593811,-0.8897433876991272,0.9705201387405396,-1.0875723361968994,-2.010115623474121,0.47021687030792236,0.2878614068031311,0.4228397011756897
295,-0.0774097487881371,0.5398383234939692,1.83974742059704,-0.06633514910936356,-0.5139973163604736,-0.8552230000495911,-0.3589369058609009,-0.33132320642471313,0.24520562589168549,0.7656912207603455,0.30502820014953613,0.9492019414901733
296,-0.06342003275938889,0.5130917624802157,1.9439746199830454,-0.0552164688706398,-0.49087321758270264,-0.8694795370101929,-1.2476325035095215,3.372640609741211,1.6281787157058716,0.3607584834098816,-0.49389851093292236,-0.011349320411682129
297,0.05190295971881594,0.3994786584489463,2.157760490634429,0.04779485613107681,-0.3889380991458893,-0.9200232625007629,1.1508078575134277,0.4111890494823456,1.303928017616272,-0.1324658840894699,-0.19284901022911072,-0.5107018351554871
298,0.10562612429071137,0.4619530016020935,2.2828921133559112,0.09437906742095947,-0.44569724798202515,-0.8901946544647217,0.15956951677799225,0.7692652940750122,1.3312640190124512,-0.16847574710845947,0.12166163325309753,0.6705291867256165
299,-0.021435029205593724,0.4621542096701667,2.4215476425613587,-0.0191848985850811,-0.4458773732185364,-0.8948884606361389,0.7994391322135925,-1.4752678871154785,0.03555552661418915,-0.6883804202079773,0.5138247013092041,0.6879792809486389
300,0.00020098141539464105,0.3784694729978806,2.323640171722092,0.0001867582177510485,-0.36949869990348816,-0.9292312264442444,-0.1757194548845291,1.547607183456421,-0.8417779207229614,-0.4079931378364563,0.39311927556991577,-3.2382493019104004
301,-0.009517972496008784,0.516541290027529,2.0829247398362982,-0.008276062086224556,-0.4938756227493286,-0.8694931864738464,0.8146073222160339,-2.278045415878296,-1.9784525632858276,0.2017117291688919,0.4204351007938385,0.11395424604415894
302,-0.009691874748132998,0.6388313487927104,1.8415530825115833,-0.007780448533594608,-0.5962576866149902,-0.8027554154396057,1.1979745626449585,0.1458115428686142,-0.8261058330535889,0.7609238028526306,0.646306574344635,0.9549160599708557
303,-0.06886622425671456,0.6055628467208442,1.8765571441550253,-0.05657581612467766,-0.5692249536514282,-0.8202329874038696,-2.486464738845825,1.9603372812271118,0.45736929774284363,0.20110705494880676,-0.20145076513290405,1.0509306192398071
304,0.19581072819140038,0.30192684310115275,2.0652817718944694,0.18576088547706604,-0.29736045002937317,-0.936519980430603,1.809677243232727,-0.30227363109588623,0.07042819261550903,0.26501426100730896,-0.03470131754875183,-1.946841835975647
305,0.058835134447505016,0.4546629400403394,2.1504473438911083,0.05282752960920334,-0.4391595125198364,-0.8968545794487,0.9750098586082458,-0.4625489115715027,1.3693101406097412,-0.16131752729415894,-0.11565002799034119,0.7781565189361572
306,-0.06452262659267052,0.516861633334822,2.3176311744989575,-0.056055400520563126,-0.494154155254364,-0.8675652742385864,-0.26199105381965637,-1.4440714120864868,1.4368184804916382,-0.2577568590641022,0.3477155566215515,1.0091668367385864
307,-0.1553843015468264,0.3557795131355603,2.3693225446066646,-0.1450679898262024,-0.34832116961479187,-0.9260818958282471,-5.046631813049316,2.617037534713745,0.44565898180007935,-0.7663699984550476,-0.44551733136177063,0.49691319465637207
308,-0.061678555417577774,0.12263204134963754,2.3515372745428964,-0.06117654964327812,-0.12232490628957748,-0.9906028509140015,0.4005957543849945,-1.8207151889801025,-2.8674042224884033,-0.4918324947357178,0.4497022032737732,-0.912183403968811
309,-0.13249096706928373,0.3120981141492787,2.0639032257874463,-0.12572194635868073,-0.3070560693740845,-0.9433507323265076,2.918488025665283,0.22561050951480865,-1.9477105140686035,0.782444953918457,0.397098183631897,0.6731175780296326
310,-0.10302326117254099,0.575685136800746,2.0452156355693343,-0.08626513183116913,-0.5444096326828003,-0.8343718647956848,0.5122590661048889,-0.28288328647613525,0.4095779359340668,0.5342174768447876,0.3607550263404846,1.091238260269165
311,0.078706391207189,0.2201499502342215,2.241092997878931,0.07672751694917679,-0.21837595105171204,-0.9728437066078186,-4.6612348556518555,2.4863972663879395,3.818074941635132,0.9074643850326538,0.7456586360931396,-1.9538378715515137
312,0.04603458818986332,0.23795174104001326,2.3972190740463053,0.04472166299819946,-0.23571257293224335,-0.9707932472229004,1.600790023803711,-0.35077521204948425,1.1596070528030396,-0.18688780069351196,-0.30135101079940796,0.03489542007446289
313,-0.06797173805805388,0.4081242651258659,2.562887031939827,-0.062340978533029556,-0.3968883454799652,-0.915747344493866,2.3341214656829834,-1.7400996685028076,1.7019764184951782,-0.15091586112976074,0.4145885705947876,0.7486484050750732
314,-0.23643658282074143,0.5446188535866474,2.562816288240663,-0.20035116374492645,-0.5180920958518982,-0.8315287232398987,-0.6083810329437256,-0.3175337612628937,-2.1351377964019775,-0.9498869180679321,-0.2818041443824768,0.9492502808570862
315,-0.014807736121746694,0.3374839286954995,2.4412018825411606,-0.013971932232379913,-0.3311139941215515,-0.943487286567688,-0.25784769654273987,-1.7027109861373901,-2.025895833969116,-0.3705800771713257,0.4114668071269989,-1.917611837387085
316,-0.11100883004631687,0.4160094612208222,2.190894172566563,-0.10133234411478043,-0.4041135013103485,-0.9090786576271057,1.2210127115249634,-0.7743765711784363,-1.7870635986328125,0.5733630061149597,0.5129544138908386,0.602270245552063
317,-0.13488702160867078,0.5390286539822687,2.1133131553121487,-0.11541036516427994,-0.5133026242256165,-0.8504121899604797,0.6410347819328308,-0.0421699658036232,-0.058077532798051834,0.793053150177002,0.32232362031936646,0.9502962231636047
318,0.07462106093597867,0.3600128642547112,2.261588229751013,0.06977248191833496,-0.35228627920150757,-0.9332878589630127,-4.705158710479736,3.4702041149139404,2.980912446975708,0.933401346206665,-0.18387705087661743,-1.1075141429901123
319,0.09484780242967386,0.3277845770030704,2.4909249805477947,0.08966332674026489,-0.3219463527202606,-0.9425025582313538,0.6669439673423767,-0.3845485746860504,1.763900876045227,-0.2423427700996399,-0.18731573224067688,-0.06424182653427124
320,-0.019182837937663035,0.34606112115873705,2.68115760475863,-0.018044495955109596,-0.3391950726509094,-0.940542995929718,0.5714110136032104,-1.3110129833221436,1.8102970123291016,-0.26053521037101746,0.2904127240180969,0.569205105304718
321,-0.25468802162728055,0.4008120136928794,2.7460963819908684,-0.23197558522224426,-0.39016613364219666,-0.8910430669784546,-0.9570935964584351,-1.2015451192855835,-1.2454214096069336,-1.0720863342285156,-0.32374686002731323,0.8860839605331421
322,-0.1702352488109162,0.27720768090749653,2.5604772546438688,-0.16294653713703156,-0.2736710011959076,-0.9479201436042786,1.564576506614685,-1.1610867977142334,-3.0059316158294678,-0.41687217354774475,0.6113327741622925,-1.4049088954925537
323,-0.2644504464259409,0.45033992398676853,2.2761705687838996,-0.23531916737556458,-0.43527159094810486,-0.8690014481544495,1.0473383665084839,-1.1210341453552246,-2.2079052925109863,0.6065807938575745,0.42249998450279236,0.6380292177200317
324,-0.27299413649389426,0.529769086951756,2.1451277221432,-0.23265796899795532,-0.5053340792655945,-0.830967903137207,0.3145487904548645,-0.48926371335983276,-0.7002795934677124,0.8742747902870178,0.40604519844055176,0.814793586730957
325,-0.03749154897671539,0.49642165120556436,2.165730260075113,-0.03295831382274628,-0.47628217935562134,-0.8786745667457581,-3.150496482849121,5.032458305358887,2.6150624752044678,1.0377342700958252,-0.6671809554100037,-0.9806240797042847
326,-0.050401349042005925,0.37997415454302674,2.3986646226089157,-0.04678662121295929,-0.37089645862579346,-0.9274949431419373,1.2092517614364624,0.24932248890399933,1.3495744466781616,-0.08581225574016571,-0.21023452281951904,-0.36022478342056274
327,-0.09021260257308134,0.4882219310872269,2.528215151331857,-0.0795648843050003,-0.46905630826950073,-0.8795769214630127,0.9190223217010498,-0.2323426902294159,1.128296136856079,-0.1149999275803566,0.30267447233200073,0.71522456407547
328,-0.32431500833405486,0.5878364104388009,2.669116486229258,-0.2651701867580414,-0.5545619130134583,-0.7887622714042664,0.4791262149810791,-3.0592193603515625,0.22677604854106903,-0.6043366193771362,0.24154311418533325,1.1395161151885986
329,-0.2592631868887599,0.22157826440053435,2.575252563459516,-0.250100702047348,-0.21976958215236664,-0.942948043346405,0.2026304304599762,0.007966075092554092,-0.738305389881134,-0.8443206548690796,1.2917758226394653,-3.17057728767395
330,-0.33118230406956606,0.30326391713950684,2.280721815915992,-0.31032317876815796,-0.2986367642879486,-0.9025051593780518,0.30120593309402466,-1.5100773572921753,-3.385843276977539,0.42059844732284546,0.4964059293270111,0.13233304023742676
331,-0.28123982239709494,0.518488315488485,2.0019574101566118,-0.2410687804222107,-0.4955677092075348,-0.8344449996948242,1.7054024934768677,0.13988061249256134,-2.2498574256896973,1.0209150314331055,0.3453907072544098,0.8171567916870117
332,-0.15671955886701752,0.571938884195021,1.9128967725645283,-0.13123935461044312,-0.5412634015083313,-0.830548107624054,-3.1359758377075195,4.09420108795166,1.7228143215179443,0.3634018301963806,-1.1889307498931885,0.7590607404708862
333,0.06068446370468265,0.20689278834252287,2.514070730156164,0.05935385823249817,-0.20541994273662567,-0.976872444152832,-3.1173698902130127,-1.4787497520446777,5.731208801269531,0.45062538981437683,0.6246399283409119,-0.800959587097168
334,0.02445348384990743,0.18746389654728834,2.81706749886413,0.0240226648747921,-0.18636782467365265,-0.9821863174438477,1.525319218635559,1.8078346252441406,1.3931440114974976,-0.3317771852016449,0.24027712643146515,0.36310672760009766
335,0.04055914892434795,0.306300021387962,2.912916472371997,0.03866075351834297,-0.30153295397758484,-0.9526716470718384,1.2197949886322021,0.08216363936662674,0.4565761685371399,-0.5525310039520264,0.39563390612602234,0.4264723062515259
336,0.09381577059336306,0.2443555474848955,2.89749000000351,0.09089535474777222,-0.24193106591701508,-0.9660266041755676,-3.7127254009246826,0.5585896968841553,-0.9130460023880005,-0.4994494318962097,0.27943718433380127,-0.8534466624259949
337,-0.0100324745538082,0.07091777354722736,2.741372402235621,-0.010007089003920555,-0.07085834443569183,-0.9974361658096313,1.3939346075057983,-1.3711332082748413,-2.6641247272491455,-0.1125209853053093,0.7055476903915405,-0.6586917042732239
338,-0.12194445043854146,0.2596171883636321,2.2517694516424895,-0.11756600439548492,-0.25671058893203735,-0.9593111872673035,1.3992663621902466,-2.0374441146850586,-5.784820079803467,0.9586304426193237,0.7219205498695374,0.6936861872673035
339,-0.09692237181312185,0.4007650052833448,1.866627690550855,-0.0891028568148613,-0.39012283086776733,-0.9164413809776306,0.3558449447154999,-0.8348398804664612,-1.5371885299682617,0.9179908037185669,-0.029417574405670166,0.6859574317932129
340,-0.024576203430828537,0.12576722220353073,1.96680256955968,-0.024379638954997063,-0.125435933470726,-0.9918021559715271,-6.877938270568848,1.591183066368103,2.804965019226074,0.7367972135543823,-0.2045353800058365,0.0244559645652771
341,-0.11141373522160579,-0.41381502672234266,2.3065109750955872,-0.10179877281188965,0.40210527181625366,-0.9099166989326477,0.7245174646377563,-0.8233273029327393,2.20617413520813,-0.009193658828735352,0.18612104654312134,-0.8439895510673523
342,-0.018124501429865814,-0.11094599261901263,2.5750969120355585,-0.01801208220422268,0.11071852594614029,-0.9936885833740234,3.5834219455718994,0.29361414909362793,2.8531694412231445,0.00963500700891018,-0.03747633844614029,0.49396324157714844
343,0.06345909365934223,0.08843012998145178,2.9135543909163926,0.0631687194108963,-0.08831492066383362,-0.9940876364707947,0.011006948538124561,1.8890098333358765,2.6198246479034424,-0.7374851107597351,0.3009766638278961,0.3251881003379822
344,0.07615535767711608,0.028973986436398938,2.9031133887307545,0.07604983448982239,-0.028969932347536087,-0.9966830611228943,-0.9133591055870056,-0.1480647474527359,-1.4937465190887451,-0.5186614990234375,0.404061496257782,-0.6225338578224182
345,0.04007040373128094,0.056403969257791044,2.66635681850778,0.03999597579240799,-0.056374065577983856,-0.9976083040237427,1.9556574821472168,-1.4313371181488037,-3.6767687797546387,-0.1276424527168274,0.726036548614502,-0.9864615201950073
346,-0.14147948480965425,0.39588688425911683,2.250816592429417,-0.13010169565677643,-0.3856266140937805,-0.9134361743927002,3.98246693611145,-2.6656293869018555,-4.970060348510742,0.4779868423938751,0.9671849012374878,0.3352653980255127
347,-0.19989107864592082,0.78209125384231,1.8513620466745382,-0.14086849987506866,-0.7047646045684814,-0.6953150629997253,1.7118463516235352,-2.636600971221924,-2.868112564086914,0.5585473775863647,0.645789384841919,0.8510462641716003
348,-0.17389870491823814,0.794918884388553,1.61449698632845,-0.12117577344179153,-0.7138068079948425,-0.6897798180580139,-2.6654248237609863,0.17363221943378448,-0.2423207312822342,0.48103904724121094,-0.01635676622390747,0.807562530040741
349,-0.18136660310743163,0.37979899470183687,1.7233382066459395,-0.16752032935619354,-0.3707337975502014,-0.9135060906410217,-4.113993167877197,0.9460249543190002,3.5976572036743164,0.78263258934021,-0.3947233557701111,-0.45478004217147827
350,-0.11952807749342152,0.1603881836621858,2.094801223459669,-0.11771321296691895,-0.1597014218568802,-0.9801219701766968,-0.2993760108947754,0.9519671201705933,4.290900230407715,0.33780598640441895,0.258975088596344,-1.0882374048233032
351,-0.14990900277689428,0.27288407075130716,2.4203929405445535,-0.14382192492485046,-0.2695099115371704,-0.9521973133087158,2.8635034561157227,0.45453622937202454,1.988792061805725,0.020546168088912964,0.3817688226699829,0.3784363269805908
352,-0.17928521971821476,0.48490738670159383,2.6892780629373663,-0.15776850283145905,-0.466126412153244,-0.8705373406410217,1.6036944389343262,0.5327816605567932,2.4663360118865967,-0.17078372836112976,0.3754434287548065,0.7428823113441467
353,-0.14601793975410646,0.3719057562104598,2.8678564754227795,-0.13555274903774261,-0.36339154839515686,-0.9217222929000854,-3.469508647918701,1.8620306253433228,0.6294634938240051,-0.5029512643814087,0.33810776472091675,0.30038440227508545
354,-0.0007273757142659661,0.05095408773130273,2.8034199852873676,-0.0007264316082000732,-0.05093204230070114,-0.9987018704414368,-1.6150484085083008,0.9235548973083496,-1.9355504512786865,-0.5419371128082275,0.38668644428253174,-1.0881664752960205
355,0.018679814405454676,0.0767863757296628,2.527752279094031,0.01862368918955326,-0.07671093940734863,-0.9968793988227844,1.3387317657470703,-0.6260442137718201,-3.022040605545044,0.003028532490134239,0.40097546577453613,-0.9252091646194458
356,-0.053067184356532404,0.28999897900252397,2.1815304850875807,-0.05082745477557182,-0.28595125675201416,-0.9568952322006226,2.4823718070983887,-2.0146946907043457,-3.899367332458496,0.2856602072715759,0.49298250675201416,0.13214242458343506
357,-0.15190599306784933,0.5170377020703301,1.8505282382248298,-0.13154268264770508,-0.4943072199821472,-0.8592769503593445,1.2985154390335083,-1.9016321897506714,-2.3322880268096924,0.3950161933898926,0.3788592219352722,0.7261592745780945
358,-0.14084631703519493,0.5852619322372205,1.6375511014011028,-0.11701711267232895,-0.5524177551269531,-0.8253130316734314,-0.5960181951522827,0.16079463064670563,-1.0266278982162476,0.45734912157058716,0.034168243408203125,0.5896410346031189
359,-0.12842477260845556,0.4166340831168532,1.6681791316227295,-0.1171162873506546,-0.40468478202819824,-0.9069255590438843,-2.742896795272827,0.9366991519927979,1.444667100906372,0.2223408818244934,-0.17868924140930176,0.21933400630950928
360,-0.009218313639543684,0.06474730682192727,1.8812252468074573,-0.009198867715895176,-0.06470207870006561,-0.9978622198104858,-1.5204685926437378,0.43768489360809326,2.9497931003570557,0.5536629557609558,-0.006785348057746887,-1.6942306756973267
361,-0.029278220222834092,0.1787174695996051,2.0840747731413445,-0.028807776048779488,-0.17776761949062347,-0.9836507439613342,2.855572462081909,-0.6883396506309509,0.9285692572593689,0.04878152906894684,0.26948821544647217,-0.08328956365585327
362,-0.12476723610998053,0.4484127483562752,2.2173416633212826,-0.11214081943035126,-0.43353575468063354,-0.8941315412521362,2.3037619590759277,-0.22217169404029846,1.2261892557144165,0.003681361675262451,0.30214232206344604,0.7867096662521362
363,-0.21769570391883825,0.5136198721586213,2.38400797112156,-0.18811270594596863,-0.4913332760334015,-0.8504147529602051,-0.9092922210693359,0.32233309745788574,1.4096516370773315,-0.22829963266849518,0.1313936710357666,0.9299740791320801
364,-0.10285137941695738,0.1183434587566115,2.4641833629146594,-0.10195202380418777,-0.1180674135684967,-0.9877579808235168,-5.507568836212158,2.294732093811035,1.4876413345336914,-0.11751513183116913,0.2509104311466217,0.02279222011566162
365,0.15422695141083498,-0.12473744331707466,2.420967393679337,0.1524227261543274,0.12441422045230865,-0.9804531931877136,-0.4572210907936096,1.076054573059082,-1.566281795501709,0.021573230624198914,0.32892438769340515,-1.545440912246704
366,0.11675345535059961,-0.054536033095805805,2.2572317215224733,0.11631520092487335,0.0545090027153492,-0.9917154312133789,2.4929370880126953,-0.38930633664131165,-1.8663060665130615,-0.014829002320766449,0.3186904489994049,-0.5815114378929138
367,0.012583901127727563,0.18484170592381508,2.019007278621006,0.012369212694466114,-0.18379093706607819,-0.9828875064849854,2.74629282951355,-1.4238102436065674,-2.387913942337036,0.18887895345687866,0.3282306492328644,0.3700335621833801
368,-0.029381569477671548,0.4778099971767064,1.8099391651288972,-0.02608720026910305,-0.45983555912971497,-0.8876208066940308,2.6099929809570312,-0.827483594417572,-1.6606248617172241,0.2136634886264801,0.39056065678596497,0.678834855556488
369,-0.01344059540154762,0.6338641815519062,1.6845613955023087,-0.010829365812242031,-0.5922627449035645,-0.8056721687316895,-0.10283548384904861,-0.21078427135944366,-0.454010009765625,0.1075701117515564,0.08300065994262695,0.6884846687316895
370,-0.005999113365338262,0.4293449372253809,1.730085956132099,-0.005454592872411013,-0.416275292634964,-0.9092223048210144,-3.008434534072876,1.341607689857483,1.3793165683746338,0.3597941994667053,-0.3295590579509735,-0.2153809666633606
371,0.055567430041005304,0.1938151463502712,1.9593156624884047,0.054498959332704544,-0.19260400533676147,-0.9797620177268982,-0.3771517276763916,0.7354064583778381,2.2817089557647705,0.41162651777267456,-0.032569944858551025,-1.3355913162231445
372,-0.042876989654270885,0.3120607348344937,2.108380582761898,-0.04079365357756615,-0.30702048540115356,-0.9508281946182251,1.993780493736267,-1.2787519693374634,0.8196130990982056,0.10437703132629395,0.23562464118003845,0.3273236155509949
373,-0.14206869305319939,0.47913337913616766,2.2425336620899734,-0.12564735114574432,-0.46101030707359314,-0.8784544467926025,1.229950189590454,-0.022900735959410667,1.2234119176864624,-0.03872030973434448,0.20855364203453064,0.7883055210113525
374,-0.1824825167550538,0.4593820153287364,2.3953691748255883,-0.16265767812728882,-0.443394273519516,-0.8814442753791809,-1.3639802932739258,0.7962180376052856,0.9647315144538879,-0.3205118775367737,0.143650621175766,0.5114796757698059
375,-0.08098730663117895,0.27947932612095205,2.418968148993495,-0.07775986194610596,-0.2758552134037018,-0.9580487012863159,-1.104677677154541,0.6469494104385376,-0.5230614542961121,-0.29702651500701904,0.04764476418495178,-0.6941424608230591
376,0.004115331637561891,0.2662886595096129,2.320007417130633,0.003970272373408079,-0.26315271854400635,-0.9647459983825684,0.6209208965301514,0.855105459690094,-1.0768709182739258,-0.08902276307344437,0.031463295221328735,-0.9006409049034119
377,-0.018189117809582708,0.43455455881320454,2.143127996513403,-0.016497669741511345,-0.4210064113140106,-0.9069076180458069,2.1451938152313232,-2.1200687885284424,-2.0885825157165527,0.154574453830719,0.3267681300640106,0.014985620975494385
378,-0.07978078406861173,0.6475705094572697,1.9567504041460215,-0.0635618269443512,-0.6032505631446838,-0.7950148582458496,1.5137231349945068,-0.8325604200363159,-1.4446879625320435,0.1512388288974762,0.4042607545852661,0.6926284432411194
379,-0.043394426262269394,0.6793143012901428,1.8000810663832663,-0.03375042974948883,-0.6282597184181213,-0.7772712707519531,-1.363861322402954,-0.14939554035663605,-1.0362548828125,0.08930766582489014,0.05867958068847656,0.6807289123535156
380,-0.03231576042046945,0.4578293258567531,1.802275383895407,-0.028982646763324738,-0.4420020282268524,-0.8965457081794739,-2.0199902057647705,0.022729910910129547,0.47345155477523804,0.16783761978149414,-0.41430598497390747,-0.3665921092033386
381,0.0070431555932382916,0.29329239322114675,1.9297227890011355,0.006742337718605995,-0.2891055941581726,-0.9572734832763672,-0.47605353593826294,0.07730045169591904,2.1168391704559326,0.41723838448524475,0.2621585726737976,-1.1026630401611328
382,0.004847541586492525,0.4264090718280262,2.0749524334242224,0.004413459915667772,-0.41360408067703247,-0.9104461669921875,2.7683656215667725,2.0445938110351562,0.8474171161651611,0.2074853479862213,0.43154841661453247,0.0111236572265625
383,-0.04846261230121448,0.5810737998216644,2.186436340539793,-0.040492769330739975,-0.5489218235015869,-0.8348923325538635,0.08945637941360474,-1.205783486366272,0.42947545647621155,-0.13460184633731842,0.2821218967437744,0.563636839389801
384,-0.1927418493847478,0.5731725738011161,2.1773737173314336,-0.16093796491622925,-0.5423003435134888,-0.8246267437934875,0.04220376908779144,-0.46557244658470154,-0.2741745412349701,0.008914634585380554,0.24479973316192627,0.4462240934371948
385,-0.19746639154792098,0.5810720108640451,2.0847769585377405,-0.16398656368255615,-0.5489203333854675,-0.8196309208869934,0.24089093506336212,0.20757287740707397,-0.7584245204925537,0.008835211396217346,-0.2267296314239502,0.08224999904632568
386,-0.0717409395545558,0.6002011266510434,2.0321443525030265,-0.059151433408260345,-0.5648084878921509,-0.8230993151664734,0.3930460810661316,0.5280175805091858,-0.1918356716632843,-0.03191302716732025,-0.5111650824546814,-0.6177423000335693
387,-0.04924079493629704,0.6412215774575237,2.074722008576125,-0.039443936198949814,-0.5981748104095459,-0.8003943562507629,1.2322397232055664,0.21581503748893738,0.0025968998670578003,-0.1456299126148224,0.3278501033782959,-0.5416008830070496
388,0.03887399859641654,0.768441843593329,2.015691688368932,0.02794315293431282,-0.6950157880783081,-0.7184513211250305,1.7553486824035645,-0.03151862695813179,-0.6442515254020691,0.004207108169794083,0.38642197847366333,0.16966897249221802
389,0.08241692644296178,0.8761080038863093,1.9469784151444576,0.05269915983080864,-0.7682532668113708,-0.6379731297492981,-0.3053762912750244,-0.6627219915390015,-0.25252053141593933,-0.013941824436187744,0.26338571310043335,0.7741883397102356
390,0.028534971004879547,0.7220726999883922,1.9319317654164159,0.021410804241895676,-0.6609415411949158,-0.7501319050788879,-2.0617787837982178,0.4048649072647095,0.46048569679260254,0.06905856728553772,-0.1035696268081665,-0.09294664859771729
391,-0.037628431401758,0.6725000130949167,1.9409275474808785,-0.029428526759147644,-0.6229435801506042,-0.78171306848526,0.35347089171409607,-0.8061185479164124,-0.7244378924369812,-0.12903401255607605,-0.259258508682251,-0.1267189383506775
392,0.009090132210263875,0.6876598530420999,1.9371689700924097,0.007024153135716915,-0.6347306370735168,-0.772701621055603,-0.029988933354616165,0.10483934730291367,0.5085143446922302,0.1949411928653717,0.0010178089141845703,-0.2965885400772095
393,-0.010075211448616072,0.7050226792370121,1.9982895650208028,-0.007673119660466909,-0.6480510830879211,-0.7615581750869751,0.5358890295028687,0.3831457495689392,0.6891566514968872,0.13648781180381775,0.15381896495819092,0.0977398157119751
394,-0.03414156660765082,0.7243508710997133,2.0983571123621743,-0.025564664974808693,-0.6626494526863098,-0.7484932541847229,-0.04533756896853447,0.7955479025840759,0.8903760313987732,-0.015267878770828247,0.20511466264724731,0.3576546311378479
395,-0.049963866617533235,0.6861678641725085,2.1556183239695295,-0.03863994777202606,-0.6335769891738892,-0.7727141976356506,-0.46696561574935913,0.03921479359269142,0.7351743578910828,0.0007218718528747559,-0.02215421199798584,0.16558223962783813
396,-0.07482907804785659,0.667516144212783,2.2215496453684294,-0.05871306359767914,-0.6190371513366699,-0.7831639647483826,-0.29383283853530884,-0.10571682453155518,0.05558386445045471,0.024487603455781937,-0.1174740195274353,-0.02362924814224243
397,-0.06519626105568421,0.6439943873887727,2.2070448114255767,-0.0521007776260376,-0.6003945469856262,-0.7980049252510071,-0.41344112157821655,-0.045004334300756454,-0.2935155928134918,-0.2334369421005249,-0.321663498878479,-0.15101540088653564
398,-0.09971154414750577,0.7026072089282576,2.1939830326961136,-0.07596982270479202,-0.6462095975875854,-0.7593693137168884,0.5450730919837952,-1.3016563653945923,-0.19363176822662354,-0.021243929862976074,0.04038989543914795,0.021789968013763428
399,-0.12692482902750887,0.6420992203097199,2.1427789025747206,-0.1013738289475441,-0.5988779067993164,-0.794398307800293,0.3731762766838074,-0.10788460820913315,-0.9001707434654236,0.044504314661026,0.2355813980102539,0.01575756072998047
400,-0.10812860337963816,0.7245190772428601,2.1168675549419436,-0.08081099390983582,-0.6627753973007202,-0.7444450259208679,0.03676017001271248,0.2094418853521347,0.8149433135986328,0.2743076980113983,0.3962043523788452,0.3511803150177002
401,-0.1256888499376067,0.7180504418973489,2.1344479229899282,-0.09440597146749496,-0.6579177379608154,-0.7471491098403931,-0.17425554990768433,0.6084791421890259,-0.23626573383808136,-0.09022536873817444,-0.00991368293762207,0.15718328952789307
402,-0.08842851192569835,0.6957558988487383,2.1457972832763024,-0.06778659671545029,-0.6409658193588257,-0.7645703554153442,-1.0838935375213623,-0.2576795816421509,0.3682526648044586,-0.061272233724594116,-0.2776132822036743,0.0027753114700317383
403,-0.054623640747750404,0.6252239391775618,2.18161012148008,-0.04426857829093933,-0.5852788686752319,-0.8096227645874023,-0.0074586886912584305,0.04264924302697182,0.36165571212768555,0.19610878825187683,-0.16888678073883057,-0.48038578033447266
404,-0.11713682221884106,0.5893552952767527,2.2383111024782676,-0.09715321660041809,-0.5558251738548279,-0.8256025910377502,0.31145769357681274,-1.0039714574813843,0.7291456460952759,0.13224844634532928,0.10126590728759766,-0.31953901052474976
405,-0.22830477852326478,0.6712904834471087,2.3111601406599993,-0.17721818387508392,-0.6219969987869263,-0.7627013921737671,0.1129099428653717,0.04199077561497688,0.18414399027824402,0.05334731936454773,0.20976555347442627,0.3682464361190796
406,-0.2612253433453138,0.6896649576847113,2.2953358170161624,-0.1992405652999878,-0.6362787485122681,-0.7452869415283203,-0.639026403427124,-0.8213371634483337,-0.03828462213277817,0.08071029186248779,0.06421148777008057,0.2988452911376953
407,-0.2956699386282999,0.6902673878957978,2.2850767411665722,-0.22467665374279022,-0.6367433667182922,-0.7376165986061096,0.6513216495513916,0.20591282844543457,-0.40935924649238586,-0.009698346257209778,-0.195623517036438,-0.04554075002670288
408,-0.21773768150559017,0.6834554010473944,2.257626297660848,-0.16750188171863556,-0.631476104259491,-0.7570871710777283,0.09570009261369705,1.9838875532150269,-0.6669664978981018,-0.19378043711185455,-0.27224087715148926,0.29540205001831055
409,0.1672478057918702,0.8661513511645277,2.0971863206042123,0.1078326478600502,-0.7618415951728821,-0.6387249231338501,1.9396796226501465,3.1076085567474365,-1.4351797103881836,-0.1571643054485321,0.5643623471260071,0.7345044016838074
410,0.7212803231000632,0.636236247934103,1.7756799796765406,0.5311418175697327,-0.5941723585128784,-0.6040262579917908,-2.481929302215576,4.624857425689697,-4.4854912757873535,0.2529921531677246,1.2252604961395264,0.5674814581871033
411,1.2062797921034802,0.1239495866839704,1.6330712843277824,0.9271283745765686,-0.12363244593143463,-0.35376259684562683,-2.0216660499572754,2.979445219039917,-5.143749237060547,0.6103929877281189,1.1723995208740234,-0.09444904327392578
412,1.3789967724606749,-0.4356465803515161,1.7552580618701015,0.8899728655815125,0.42199668288230896,-0.1728208065032959,-2.5328211784362793,0.4797760546207428,-4.011419773101807,0.9484212398529053,0.40455663204193115,-0.6596376895904541
413,1.4763360979858853,-0.6921510591801231,2.020486419664156,0.7664427757263184,0.6381946802139282,-0.07261446118354797,-3.0423882007598877,-1.947724461555481,-0.8158773183822632,0.7702240347862244,0.288898766040802,-0.5116140246391296
414,1.685598428155137,-0.8058392136929308,2.4991919769081603,0.6879476308822632,0.7214120626449585,0.07932662963867188,-2.720226526260376,0.04808158427476883,-1.370709776878357,0.4269205331802368,-0.31191200017929077,-0.7309837341308594
415,1.7425463845071874,-0.7853115367167778,2.6701742181838872,0.6967635154724121,0.7070454955101013,0.12085989117622375,-1.14258873462677,-3.502312183380127,1.8720130920410156,0.2648605704307556,-0.5267171859741211,-0.6075694561004639
416,1.4310497777246751,-0.6021815825389459,2.7683609427171385,0.8160681128501892,0.5664416551589966,-0.11479093134403229,-0.5288366079330444,-2.8818373680114746,1.4257858991622925,-0.17486321926116943,-0.3267718553543091,0.09419161081314087
417,1.2648241013573764,-0.5226231154492603,2.846788486525861,0.8262672424316406,0.49915480613708496,-0.2610113322734833,0.19362692534923553,-1.1258891820907593,0.5474722385406494,0.06699752807617188,-0.15979933738708496,0.029581308364868164
418,1.2033029948351934,-0.47330688774150964,2.8401251081949503,0.8306369185447693,0.4558321237564087,-0.3197804391384125,0.4874885082244873,0.43409785628318787,0.34197381138801575,0.2034512758255005,0.09711593389511108,0.0796222984790802
419,1.259635352117766,-0.4781852951642919,2.8004674099192384,0.8451966643333435,0.4601687788963318,-0.27182209491729736,0.5558575987815857,1.966366171836853,-0.853945255279541,0.17621135711669922,0.2859402000904083,-0.02712807059288025
420,1.5029642466660853,-0.5677343826736945,2.4873970362260533,0.8411825299263,0.5377232432365417,-0.0571468360722065,3.9924910068511963,4.297935485839844,-0.8352885246276855,0.3277627229690552,-0.23280686140060425,-0.5649539828300476
421,1.4615051768328062,-0.4628581938076533,2.0862139662128767,0.8894413709640503,0.44650739431381226,-0.09759696573019028,2.767648935317993,-0.5820737481117249,1.7879630327224731,-0.13460439443588257,-0.054356545209884644,-0.293043315410614
422,1.297512763589254,-0.21613835808241877,1.8791053243251916,0.9404861927032471,0.21445943415164948,-0.2636149227619171,1.7688698768615723,-0.6863610744476318,2.0515565872192383,-0.21964573860168457,0.44134804606437683,0.206989586353302
423,1.208165130111882,-0.07315477436417844,1.8325634873616425,0.9324660301208496,0.07308954000473022,-0.35378676652908325,-0.40156182646751404,-0.5769400596618652,0.48503631353378296,-0.4051527976989746,0.4817047715187073,0.45402175188064575
424,1.1621527830875225,-0.15409947532824608,1.8953915439952185,0.9067865014076233,0.15349030494689941,-0.39265620708465576,-2.139892339706421,-0.48334231972694397,-1.5919737815856934,-0.06581366062164307,0.6717965602874756,0.47589290142059326
425,1.2144019277789093,-0.4519800000765534,2.0562257739233547,0.8430551290512085,0.43674755096435547,-0.3138626515865326,-2.2505054473876953,-0.01265593059360981,-2.0828969478607178,0.512734055519104,0.32651233673095703,-0.15510094165802002
426,1.2666654942722806,-0.5845342410261448,2.312821160983806,0.7956963181495667,0.5518110394477844,-0.2497437596321106,-2.148305654525757,-1.2195212841033936,0.6052610874176025,-0.10235220193862915,-0.3131025433540344,-0.2193266749382019
427,1.2932479952865856,-0.6020561698562508,2.5066920431874906,0.7926319241523743,0.566338300704956,-0.22582225501537323,-1.3272727727890015,-0.336014986038208,-0.07465872168540955,-0.24005013704299927,-0.21671366691589355,-0.04753899574279785
428,1.3560733983926785,-0.6830146934028988,2.629495640118313,0.7578606009483337,0.6311343312263489,-0.16527798771858215,-1.1419492959976196,0.0811028927564621,-0.6668043732643127,0.16186296939849854,-0.20091277360916138,-0.14528417587280273
429,1.4517597918765903,-0.7670077083377228,2.7380503955084627,0.714895486831665,0.6939839124679565,-0.08550290763378143,-0.4646381139755249,0.3320852220058441,-0.4207342267036438,0.52268385887146,-0.21349996328353882,-0.5050427913665771
430,1.4158000063698328,-0.7642991928331342,2.693829551458442,0.7132138609886169,0.6920312643051147,-0.11143935471773148,1.4887163639068604,0.7130855917930603,0.28997325897216797,0.41148096323013306,-0.20590150356292725,-0.4909776449203491
431,1.3482561452337791,-0.6573327101691783,2.4065497320394376,0.7721034288406372,0.6110075116157532,-0.17471784353256226,3.232452392578125,1.1375643014907837,1.0085949897766113,0.21210384368896484,0.0433809757232666,-0.6014814972877502
432,1.2641554589524848,-0.41128829378864146,2.0449057259863053,0.8738495111465454,0.39979052543640137,-0.2766849100589752,3.7835028171539307,0.8461155891418457,2.087407112121582,-0.02515566349029541,0.25446057319641113,-0.23053252696990967
433,1.2657977332826167,-0.07000299022427701,1.8134974691193697,0.9515112042427063,0.06994582712650299,-0.2995563745498657,2.613408088684082,0.3682934045791626,2.671405792236328,-0.2252233624458313,0.7101597785949707,-0.0036967992782592773
434,1.2441296126312633,0.1882166707130898,1.7030329817229852,0.9303907155990601,-0.18710735440254211,-0.31522077322006226,0.7853154540061951,-0.7383214235305786,1.288078784942627,-0.48101937770843506,0.8636057376861572,0.38771528005599976
435,1.1383444774766067,0.13738443067771705,1.7627248319739406,0.8993859887123108,-0.13695266842842102,-0.4151493012905121,-2.1610004901885986,-1.0068689584732056,-1.6443475484848022,-0.3902764320373535,0.8175098896026611,0.5438113808631897
436,1.1269084127743296,-0.296876118974869,1.980062435086803,0.8635831475257874,0.29253441095352173,-0.410667359828949,-3.4419643878936768,0.13682426512241364,-4.264897346496582,0.6613343954086304,1.1599955558776855,-0.5755845308303833
437,1.1768979133297675,-0.700933594758545,2.112712089648966,0.7057148218154907,0.644931435585022,-0.2933087646961212,-1.065535545349121,-0.6470375061035156,-1.3762017488479614,0.4145854711532593,-0.6410099267959595,-0.8429064750671387
438,1.130089187365032,-0.7728359557704094,2.2197847294366504,0.647526204586029,0.6981683969497681,-0.3054022789001465,-1.5687243938446045,-0.6312269568443298,0.43111467361450195,0.06150388717651367,-0.38942211866378784,0.008481532335281372
439,1.2283303047990386,-0.8472253519227276,2.4184568854544928,0.6236187219619751,0.7494462728500366,-0.22232873737812042,-0.8759758472442627,0.0026554465293884277,-0.8878604173660278,0.20560497045516968,-0.4356340169906616,-0.38419288396835327
440,1.27208039650787,-0.8855644801426165,2.423630365251786,0.6048268675804138,0.7742723226547241,-0.18624426424503326,-0.17751500010490417,0.34696164727211,0.49115902185440063,0.5432901978492737,-0.3980973958969116,-0.38676905632019043
441,1.2942978712952455,-0.8110612809304237,2.406436221745698,0.6625693440437317,0.7250185012817383,-0.18801534175872803,1.406335711479187,1.305357813835144,0.1264987736940384,0.34928661584854126,0.012728571891784668,-0.5264164209365845
442,1.2344489224406872,-0.6880049403590229,2.1029729290878376,0.7292278409004211,0.6349972486495972,-0.254961758852005,3.009472370147705,1.0938286781311035,1.3282711505889893,0.4107106328010559,0.10455054044723511,-0.5493290424346924
443,1.1850372635308946,-0.36868935214892573,1.8550330200711518,0.864251971244812,0.3603931665420532,-0.35097789764404297,3.2464404106140137,1.0346318483352661,2.8397586345672607,-0.06072402000427246,0.26572075486183167,-0.15916922688484192
444,1.2339741581708918,0.017942307340096556,1.6821444882742542,0.9436578750610352,-0.017941344529390335,-0.3304363489151001,2.5400712490081787,0.3525063395500183,2.7813689708709717,-0.3088616132736206,0.7986725568771362,-0.05324593186378479
445,1.2471999504308946,0.2627261610843306,1.6027765520783328,0.9155644178390503,-0.25971412658691406,-0.30706703662872314,0.7190485000610352,-0.07502390444278717,0.986777126789093,-0.5252447128295898,0.8834324479103088,0.28170695900917053
446,1.1873449292105716,0.21977944952433826,1.63506374857056,0.9050712585449219,-0.21801438927650452,-0.36512407660484314,-1.857911467552185,-0.7410157918930054,-1.7426589727401733,-0.29827505350112915,1.0198332071304321,0.4474910795688629
447,1.1385387473997672,-0.15579260375885184,1.8244432789180607,0.8970251083374023,0.15516315400600433,-0.4138481616973877,-3.7337610721588135,0.041684169322252274,-3.261767864227295,0.6162500381469727,0.959872841835022,-0.1592414379119873
448,1.2275445910546812,-0.5384775493474039,2.111360244197534,0.8084107637405396,0.512829601764679,-0.28892579674720764,-2.8958959579467773,-0.5925202369689941,-0.9168118238449097,0.2802581787109375,-0.3717925548553467,-0.6517633199691772
449,1.2838266948868549,-0.6341966063282141,2.3302530314154013,0.7726058959960938,0.5925305485725403,-0.22800800204277039,-1.4173520803451538,-0.06975740939378738,0.4134212136268616,0.12728118896484375,-0.4346325993537903,-0.2769510746002197
450,1.4183897771672336,-0.6602858653843979,2.522701189690963,0.7806618809700012,0.6133426427841187,-0.11990781873464584,-1.114203929901123,1.08836829662323,-0.010603705421090126,0.22765415906906128,-0.6406406164169312,-0.37194395065307617
451,1.4671109007538294,-0.6464323691956793,2.562787939361705,0.7939508557319641,0.602342426776886,-0.08261740952730179,0.4557020962238312,-0.4649486243724823,0.6071909070014954,0.5566350817680359,-0.5393999218940735,-0.5407651662826538
452,1.353988593482648,-0.5946144790008815,2.4989938527803206,0.8089718818664551,0.560189425945282,-0.1781921684741974,1.5161811113357544,0.6536495685577393,-0.18298767507076263,0.3423953056335449,-0.21891134977340698,-0.3828887343406677
453,1.4064347007854383,-0.4982820260023529,2.181944167599032,0.8665667176246643,0.4779171645641327,-0.1437269002199173,3.322556734085083,1.9011244773864746,2.200411319732666,0.6987409591674805,-0.08951988816261292,-0.5122942328453064
454,1.4363520017873135,-0.1285649649386689,1.9629625062640033,0.9827973246574402,0.12821108102798462,-0.13293342292308807,2.174665689468384,0.6452674269676208,4.055430889129639,0.13388657569885254,0.4461144208908081,-0.23637501895427704
455,1.5111630331965402,0.27881185502064243,1.8004284006554077,0.9596742987632751,-0.2752135694026947,-0.057296473532915115,2.0724616050720215,0.24259956181049347,3.341381311416626,-0.11377274990081787,0.9323638677597046,-0.1267549991607666
456,1.5610989607610803,0.547290763283486,1.6652276858009813,0.8538972735404968,-0.5203756093978882,-0.008280813694000244,0.6939290761947632,-0.4260960519313812,1.5623948574066162,-0.3392946720123291,1.1189017295837402,0.044398367404937744
457,1.4991821002191457,0.5175853234182476,1.6414854788510043,0.8667890429496765,-0.4947831928730011,-0.062180764973163605,-0.8302642107009888,-0.7253732681274414,-2.194892644882202,-0.32781803607940674,1.1471116542816162,0.342362642288208
458,1.3758171300076074,0.05967215905139318,1.904196177511764,0.9793055057525635,-0.05963675305247307,-0.1934012770652771,-3.6562066078186035,-0.049814607948064804,-5.8917765617370605,0.5675846934318542,1.0587669610977173,-0.20628748834133148
459,1.4428897006234718,-0.5004590661882493,2.175573986554862,0.8701953291893005,0.4798283576965332,-0.111914724111557,-3.719547748565674,-0.3492887318134308,-3.041234254837036,0.7608776688575745,-0.3966221809387207,-0.5925987958908081
460,1.4760225614679827,-0.6342387255705666,2.4834824266067455,0.8019083142280579,0.5925644636154175,-0.07622823119163513,-2.231224775314331,-1.1892417669296265,-0.21639324724674225,0.2007468342781067,-0.4213302731513977,-0.19250953197479248
461,1.6301917178184504,-0.7062493081636179,2.7727647152022206,0.7594596147537231,0.6489847898483276,0.045161519199609756,-1.8692727088928223,0.25113096833229065,-1.429680347442627,0.1464545726776123,-0.4338359832763672,-0.5375320911407471
462,1.7255237268005061,-0.8119073879584517,2.8249626652441786,0.6798951625823975,0.7256010174751282,0.10604603588581085,1.0840733051300049,0.2016104757785797,0.28533148765563965,0.9633238315582275,-0.7658231258392334,-0.7267736196517944
463,1.5591194823078307,-0.7074959960230083,2.6592853578699343,0.7599400281906128,0.6499328017234802,-0.008874104358255863,2.532815933227539,0.556667149066925,1.2472120523452759,0.6879971027374268,-0.3060911297798157,-0.3942020535469055
464,1.4532311981552424,-0.46539845551200093,2.2942812121972507,0.8874742388725281,0.4487789273262024,-0.1048193871974945,3.1795551776885986,0.6382516026496887,3.299948215484619,0.6934583783149719,0.209881991147995,-0.3984002470970154
465,1.43708550387736,-0.03475114717003922,2.042185284714138,0.990475594997406,0.034744154661893845,-0.1332322657108307,2.9017491340637207,0.451357901096344,4.350125789642334,0.17348003387451172,0.654861569404602,-0.2798842191696167
466,1.4952664719434432,0.38196596408308037,1.8510466847994096,0.9252880811691284,-0.37274548411369324,-0.07002007961273193,1.7317817211151123,0.031473737210035324,2.9436428546905518,-0.21645629405975342,1.0476417541503906,-0.14316046237945557
467,1.5616284272573777,0.5698340254680361,1.7111370768776233,0.8419552445411682,-0.5394923090934753,-0.007719177287071943,0.4810791015625,0.028945038095116615,0.6782885789871216,-0.48805803060531616,0.9924799203872681,0.05886662006378174
468,1.5276484584476573,0.4974118818918607,1.730646667166209,0.8780024647712708,-0.47715264558792114,-0.03790746256709099,-0.5517082810401917,-0.5618825554847717,-2.4818413257598877,-0.356747031211853,1.1098124980926514,0.12440955638885498
469,1.4350492765463005,0.04952796484753189,1.926359915897823,0.9895856380462646,-0.04950771853327751,-0.13516458868980408,-3.411858320236206,-0.6921864748001099,-5.780928611755371,0.7356494665145874,1.089241623878479,-0.2828347086906433
470,1.4515978811749009,-0.5194690024420564,2.145816035414909,0.8619231581687927,0.4964192509651184,-0.10322926193475723,-2.684110641479492,-0.47256267070770264,-3.3302459716796875,1.059539794921875,-0.5674794912338257,-0.5337793827056885
471,1.431325922750144,-0.6109519139712708,2.418247883238427,0.8111487030982971,0.5736474394798279,-0.1138705387711525,-2.727062702178955,-1.9941489696502686,0.3305051624774933,0.11776065826416016,-0.4517143964767456,0.1296939104795456
472,1.5783748005125646,-0.6780605647680372,2.706222530806095,0.7787684798240662,0.6272838115692139,0.0059019895270466805,-1.1128793954849243,0.2624596953392029,-1.2169320583343506,0.1677800416946411,-0.6331431865692139,-0.6299407482147217
473,1.5753124532308456,-0.6827797817227889,2.7141923051708026,0.77581387758255,0.6309520602226257,0.003503697458654642,-0.0699358657002449,-0.2047325074672699,1.0973899364471436,0.5457040071487427,-0.494035005569458,-0.319116473197937
474,1.4988057137840014,-0.5575344753603907,2.7034927045458295,0.8463642597198486,0.5290956497192383,-0.06103575974702835,0.39467957615852356,-0.7440868020057678,0.8945131897926331,0.19257616996765137,-0.18455219268798828,-0.25929200649261475
475,1.47568741249369,-0.5107999715137994,2.4377493047365073,0.8684110641479492,0.48887526988983154,-0.08284357190132141,4.5849103927612305,1.26544988155365,1.114457607269287,1.0399750471115112,-0.16032308340072632,-0.814678430557251
476,1.385641953445693,-0.13158758853730476,2.131865504616463,0.9744104146957397,0.1312081664800644,-0.1825067102909088,3.0277864933013916,-0.03953726589679718,4.332029819488525,0.2748876214027405,0.4292318820953369,-0.2575262784957886
477,1.392023721783463,0.3396524022422514,1.9343787974109952,0.9278437495231628,-0.3331593871116638,-0.16766300797462463,2.331082820892334,-0.24326536059379578,3.6190450191497803,-0.08787792921066284,1.0101613998413086,-0.011475205421447754
478,1.4479161927173114,0.6329457716793749,1.7774136374303013,0.8002089262008667,-0.5915224552154541,-0.09882769733667374,0.9252251386642456,-0.18837955594062805,1.5249145030975342,-0.4218367338180542,1.087799310684204,0.21519118547439575
479,1.428199232925511,0.6248455789584105,1.7720574618901852,0.8028213977813721,-0.5849720239639282,-0.11526230722665787,-0.821891188621521,-0.25888511538505554,-1.8556485176086426,-0.39499980211257935,1.1478078365325928,0.2926456928253174
480,1.3601074145681338,0.21509288488908443,1.9802132988993422,0.9553531408309937,-0.21343816816806793,-0.2043144702911377,-4.1825337409973145,0.5477789044380188,-5.567786693572998,0.4723201394081116,1.2708264589309692,-0.1508643478155136
481,1.4099716259210897,-0.4081641068333915,2.2368647595249693,0.9060067534446716,0.3969249129295349,-0.14697761833667755,-3.4022674560546875,-0.22981826961040497,-3.8266441822052,1.106001853942871,-0.3551310896873474,-0.6319530010223389
482,1.378542189614645,-0.5066531928362495,2.4216132268843618,0.858264148235321,0.48525360226631165,-0.16706828773021698,-2.4710073471069336,-2.0236542224884033,0.650497555732727,0.11100471019744873,-0.39588290452957153,0.24217206239700317
483,1.5621363566490296,-0.6082981355860602,2.7737623119342962,0.8205909729003906,0.5714716911315918,-0.007106470875442028,-1.9614379405975342,1.1788593530654907,-1.8132615089416504,0.0531730055809021,-0.4827571511268616,-0.756977379322052
484,1.5765326557411952,-0.6709316390511474,2.7257256440220656,0.7832300662994385,0.6217159628868103,0.004492914769798517,0.3931140601634979,-0.4935603737831116,0.9684895277023315,0.5771368741989136,-0.667263388633728,-0.4208136796951294
485,1.4735096126485256,-0.5586625134712425,2.659346251250912,0.8439552187919617,0.5300525426864624,-0.08236564695835114,1.6783738136291504,-0.1289316713809967,0.5882532596588135,0.4035882353782654,-0.10057860612869263,-0.4199841618537903
486,1.3961194515916948,-0.4216903931966067,2.2885299446443215,0.8985141515731812,0.40930333733558655,-0.15856565535068512,3.524676561355591,0.42808207869529724,2.5429623126983643,0.9000850319862366,0.03681787848472595,-0.3994635343551636
487,1.3491884774443037,-0.03669308118290574,2.079340555258398,0.9748886227607727,0.03668484836816788,-0.2196504771709442,2.4154293537139893,-0.15965044498443604,3.7523207664489746,0.14031517505645752,0.5031558275222778,-0.1654507964849472
488,1.3614668956999632,0.3392895872078429,1.9242901450528835,0.9224061965942383,-0.3328172564506531,-0.19595737755298615,2.191988706588745,0.06325776875019073,2.766977071762085,-0.22504913806915283,0.8085253238677979,0.015476435422897339
489,1.4301077882876494,0.5781359386816073,1.8001664631104577,0.8292080760002136,-0.5464637875556946,-0.11743590980768204,0.6928712129592896,-0.06049429625272751,1.1794030666351318,-0.4467313289642334,0.9457252621650696,0.14139223098754883
490,1.4087563871805073,0.556626735766223,1.8281568781572441,0.8379198908805847,-0.5283251404762268,-0.13697746396064758,-0.8941100835800171,-0.1938333809375763,-1.8967126607894897,-0.3731677532196045,1.1029558181762695,0.11103755235671997
491,1.3691387665246446,0.16217978825800347,1.963155026698904,0.9668795466423035,-0.16146977245807648,-0.1976652592420578,-3.698638916015625,0.42287471890449524,-4.927435874938965,0.4633725881576538,1.0500653982162476,0.020129263401031494
492,1.4322646200281839,-0.4313513176714028,2.2340458987282776,0.8996989727020264,0.41809871792793274,-0.1254402995109558,-2.9157896041870117,0.4888206422328949,-4.286630630493164,1.2359516620635986,0.08486151695251465,-0.5852225422859192
493,1.4498655239106535,-0.5939573645811016,2.447305880981163,0.8226801156997681,0.5596449971199036,-0.09997519850730896,-1.9108062982559204,-2.2677407264709473,0.15113487839698792,0.16566216945648193,-0.5627577900886536,-0.015457570552825928
494,1.569592870422573,-0.6670581602346176,2.7146302955451564,0.7856445908546448,0.6186774373054504,-0.0009454894461669028,-1.692517638206482,0.7559459209442139,-1.1096084117889404,0.048202455043792725,-0.6020606160163879,-0.47250425815582275
495,1.603890479342709,-0.6791252231226262,2.7492433535672065,0.7776966094970703,0.6281125545501709,0.02574661187827587,0.3023652732372284,-0.4463801980018616,1.3281278610229492,0.6012097597122192,-0.5675961971282959,-0.49290966987609863
496,1.4918129751883262,-0.5256057881771118,2.7077604262495534,0.862323522567749,0.501737117767334,-0.06825118511915207,0.4440770745277405,-1.297633409500122,1.5017220973968506,0.39332228899002075,-0.06048339605331421,-0.25033706426620483
497,1.4230310618663307,-0.42820120977648307,2.5264386955267812,0.8998005986213684,0.41523510217666626,-0.13393551111221313,3.4179928302764893,0.825015664100647,0.9354451298713684,0.6655985713005066,0.02066272497177124,-0.37261050939559937
