,attitude.roll,attitude.pitch,attitude.yaw,gravity.x,gravity.y,gravity.z,rotationRate.x,rotationRate.y,rotationRate.z,userAcceleration.x,userAcceleration.y,userAcceleration.z
0,1.3828949356007378,-0.2417831640519435,-3.0987989365769746,0.9538230299949646,0.23943430185317993,-0.18136419355869293,-4.578732013702393,-0.1721448004245758,-5.784370422363281,1.2390632629394531,1.1378545761108398,-0.7039812803268433
1,-0.05822710482669403,0.7439157804493778,-2.8447530596983475,-0.042820610105991364,-0.6771743893623352,-0.7345755696296692,-0.25109413266181946,-0.4606696367263794,0.32739946246147156,-0.033793769776821136,0.1873062252998352,0.2743399143218994
2,-0.05421489095124576,0.7727941550422084,-2.853472665432284,-0.03879683092236519,-0.6981384754180908,-0.7149108648300171,0.5373145341873169,-0.00924655795097351,-0.1759398877620697,-0.02071244642138481,0.01861882209777832,0.1353667974472046
3,-0.037232269261824436,0.7959432317111972,-2.8810540459591896,-0.026042092591524124,-0.7145237922668457,-0.6991263031959534,-0.04382697492837906,0.7117086052894592,-0.2532035708427429,-0.23361672461032867,-0.367095410823822,0.13764864206314087
4,0.02683981027236237,0.8327100182787376,-2.7571540460062223,0.018057625740766525,-0.7397575974464417,-0.6726310849189758,1.337497591972351,1.289292335510254,1.3390706777572632,-0.09899024665355682,-0.14821231365203857,-0.10703200101852417
5,0.0701891008180925,0.8278416888126222,-2.7211004913985364,0.047441624104976654,-0.7364730834960938,-0.674801230430603,-1.040104866027832,-0.34806686639785767,-0.2094472199678421,0.17648109793663025,0.08612823486328125,0.3912472128868103
6,0.024149938177571887,0.7603955407242283,-2.7157073362728292,0.017496461048722267,-0.6892080903053284,-0.7243521809577942,-0.7932727336883545,0.3688475489616394,0.42790403962135315,0.2743736505508423,0.27351289987564087,0.6666892170906067
7,0.09174275325746266,0.7291372202679677,-2.6637891350243796,0.06832117587327957,-0.6662264466285706,-0.7426133155822754,-0.20734429359436035,1.2052721977233887,-0.3595513701438904,0.16680151224136353,0.6842928528785706,0.6569809913635254
8,0.8109496687767672,0.6860547901160167,-2.9660410102604726,0.5609245300292969,-0.6334894895553589,-0.5329678654670715,0.9796112775802612,6.687191486358643,-4.308996677398682,0.24147409200668335,1.1490840911865234,0.43119174242019653
9,1.2320570336308903,0.03560430393837902,-2.936024371726223,0.9425766468048096,-0.035596780478954315,-0.3320877254009247,-10.34007453918457,0.8452162742614746,-7.8596014976501465,2.1283156871795654,2.7650890350341797,-0.7462204694747925
10,1.5186624193357616,-0.6648900514737047,-2.5531385535277025,0.7859154939651489,0.6169726252555847,-0.04101000726222992,1.7116899490356445,-0.9481093287467957,-0.19453126192092896,2.337024688720703,-0.5511461496353149,-2.3504085540771484
11,1.6109381338031747,-0.9037292939890694,-2.3026689165833667,0.6181858777999878,0.7856396436691284,0.024828435853123665,-5.318209171295166,3.1963140964508057,-3.3396222591400146,0.49001413583755493,-1.334864616394043,-0.329103946685791
12,1.8121774522978493,-0.8629024956124565,-2.0940785190152855,0.6313841342926025,0.7597330808639526,0.15543480217456818,-0.977849006652832,-1.022465705871582,0.890304446220398,0.07428914308547974,-1.1322762966156006,-0.8115170001983643
13,1.677645812463043,-0.7682042036406587,-2.2537446248760262,0.7150583267211914,0.6948449015617371,0.07669571042060852,2.396299123764038,0.9088057279586792,1.0871142148971558,1.234297752380371,0.35744696855545044,-1.1612904071807861
14,1.395770700772719,-0.4831534856330619,-2.8187806485700317,0.8720052242279053,0.46457400918006897,-0.15420109033584595,4.536920547485352,0.08847926557064056,3.873283624649048,0.9937174320220947,0.8524121046066284,-0.510227620601654
15,1.2974699494451258,-0.018736689644840217,3.119256371085663,0.9627092480659485,0.018735593184828758,-0.26988843083381653,4.096498489379883,0.3422227203845978,3.4711735248565674,0.009077191352844238,0.8309958577156067,-0.003533780574798584
16,1.4102744307763746,0.4055032093860414,2.8596945011946007,0.9070907235145569,-0.39448121190071106,-0.14687158167362213,2.4615111351013184,0.6613323092460632,3.364938259124756,-0.32844680547714233,1.2723040580749512,0.07451443374156952
17,1.5431188912757807,0.5781609082751812,2.7415719402625447,0.8371483683586121,-0.5464847087860107,-0.0231760386377573,0.17390209436416626,0.34607094526290894,-0.040539950132369995,-0.40599602460861206,1.5244204998016357,0.02754002809524536
18,1.4126873889148595,0.3684203120530844,2.9307197572219836,0.9212612509727478,-0.36014220118522644,-0.14688566327095032,-3.403284788131714,-0.7428755164146423,-4.3053879737854,-0.17768526077270508,1.5697216987609863,0.03769373893737793
19,1.2844348488213964,-0.2985756397063086,-3.0750857221790038,0.916836142539978,0.2941591739654541,-0.26996657252311707,-5.573673725128174,-1.2882980108261108,-5.745264530181885,1.0237308740615845,0.9974210262298584,-0.4453654885292053
20,1.496709344120148,-0.9082299172562559,-2.610178587091359,0.6134548783302307,0.7884161472320557,-0.045532356947660446,0.36249104142189026,2.015441656112671,-4.977909564971924,1.3816776275634766,-1.1458990573883057,-1.7646788358688354
21,1.4373762298529695,-1.0304293377831508,-2.69719526408883,0.509878933429718,0.8575199246406555,-0.06843464821577072,-2.9328298568725586,-0.0986710861325264,-1.3171998262405396,0.943642795085907,-0.9946658611297607,-0.12896829843521118
22,1.5161964532611614,-0.9738165451283274,-2.622405375570213,0.5613095164299011,0.8270372152328491,-0.030677922070026398,1.8835327625274658,1.4516735076904297,1.086371660232544,0.8565371632575989,-0.3126329183578491,-0.6143873929977417
23,1.4289611110974483,-0.7144184504521038,-2.994870605616008,0.7478879690170288,0.6551781892776489,-0.10679394751787186,2.640110969543457,0.8711504340171814,3.5655062198638916,0.5446687340736389,0.0728338360786438,-0.7306846380233765
24,1.3660496233211108,-0.276881546972235,3.0883552571211235,0.9418205618858337,0.2733573019504547,-0.19557523727416992,2.6644864082336426,0.3905481696128845,4.298451900482178,0.11514037847518921,0.5793800354003906,-0.4184078872203827
25,1.3640455782005099,0.16566437072354967,2.9280387177198066,0.9653036594390869,-0.16490764915943146,-0.20247043669223785,2.0780210494995117,-0.2841870188713074,3.360734462738037,-0.2716849446296692,1.0058348178863525,-0.06036214530467987
26,1.374003448149412,0.37505136300821446,2.8166004564294838,0.9125292897224426,-0.36632031202316284,-0.1819339543581009,0.7884586453437805,-0.21434727311134338,-0.07334298640489578,-0.5837022662162781,1.1283137798309326,0.230197474360466
27,1.2990493782461756,0.2008483543285421,2.851560060271327,0.9439387917518616,-0.19950070977210999,-0.263018935918808,-2.967386484146118,-0.6031199097633362,-3.437244415283203,-0.35855066776275635,1.0612865686416626,0.4707978665828705
28,1.3245253309709173,-0.32545518590612765,3.106501962361201,0.9189175367355347,0.3197401165962219,-0.23099155724048615,-4.056432723999023,-0.18847651779651642,-4.89837646484375,0.7550938129425049,0.9355547428131104,-0.5981863737106323
29,1.3734260529221498,-0.8120385513311411,-2.9548781977660323,0.6746630668640137,0.7256912589073181,-0.13491487503051758,-1.6354858875274658,-0.9212316870689392,-2.8675196170806885,0.6030468940734863,-0.4862504005432129,-0.5129122734069824
30,1.452038332488862,-0.9725872238098323,-2.75985528812809,0.5591971278190613,0.8263455033302307,-0.06672310084104538,-1.531278133392334,-0.7419810891151428,-0.04648339003324509,0.4123300313949585,-0.6564387679100037,-0.3114049434661865
31,1.5561680678778433,-0.9943595672095117,-2.5833923795338123,0.544981837272644,0.8384100794792175,-0.007972704246640205,0.0018824562430381775,0.1277334839105606,-0.18247172236442566,0.524689793586731,-0.5665136575698853,-0.45740509033203125
32,1.5332783309379832,-0.9378565515228651,-2.61936534884836,0.5911011695861816,0.8062920570373535,-0.02218734286725521,0.363577276468277,0.04222172126173973,1.1019091606140137,0.6334471106529236,-0.28494513034820557,-0.43731582164764404
33,1.4476630066951457,-0.8169581698415394,-2.8170694567320065,0.6792601346969604,0.7290672659873962,-0.08406484127044678,2.7912559509277344,2.0901131629943848,1.1149206161499023,0.528671383857727,0.025403618812561035,-0.4774585962295532
34,1.4329156315247,-0.594959367504947,3.0597822035864475,0.8203116655349731,0.5604751110076904,-0.11382738500833511,3.2470178604125977,1.7937748432159424,2.7277936935424805,0.16972440481185913,0.029429733753204346,-0.6085847616195679
35,1.3960139854462283,-0.23972519329722164,2.827511482201163,0.956603467464447,0.23743568360805511,-0.16892102360725403,2.0760140419006348,-0.18815557658672333,3.1467700004577637,-0.24047785997390747,0.46584194898605347,-0.25588369369506836
36,1.376599214383571,0.004502501905747991,2.7054654016136386,0.9811930060386658,-0.004502486903220415,-0.19297684729099274,1.3498731851577759,0.2318681925535202,1.02353835105896,-0.41083472967147827,0.6103221774101257,0.013945519924163818
37,1.40066844488017,0.076915598692249,2.6068196024076395,0.9826492667198181,-0.07683978229761124,-0.16880781948566437,0.66136234998703,0.0034214563202112913,0.22240915894508362,-0.21995395421981812,0.706203818321228,0.15933215618133545
38,1.3379361088939905,-0.05015977364267941,2.678070896263313,0.971786618232727,0.05013874173164368,-0.23047126829624176,-2.4414243698120117,-0.2722910940647125,-2.491440534591675,-0.11875927448272705,0.7470567226409912,0.44465887546539307
39,1.3951451521587992,-0.4394423003988674,2.9112050132864273,0.891063928604126,0.42543482780456543,-0.1581462323665619,-2.7473573684692383,0.019898902624845505,-3.6687607765197754,0.5939823985099792,0.4883682429790497,-0.3819233179092407
40,1.5008031296517117,-0.7227310596041501,-3.121281484670963,0.7481656670570374,0.6614354252815247,-0.05245219171047211,-2.111642360687256,-0.8458937406539917,-1.2479422092437744,0.24216026067733765,-0.5051244497299194,-0.499046266078949
41,1.566372456767672,-0.8174704449515869,-2.936849208681102,0.6840617060661316,0.7294178009033203,-0.0030262197833508253,-1.117649793624878,-0.23495756089687347,-0.6636818647384644,0.08656811714172363,-0.6425648331642151,-0.25376391410827637
42,1.70294804505743,-0.8806824094558353,-2.7906400253823413,0.6310742497444153,0.7711734771728516,0.08388644456863403,-0.14813964068889618,0.6556006073951721,-0.6763802766799927,0.4522082209587097,-0.5287876129150391,-0.6151516437530518
43,1.6518940073443837,-0.8391451563668445,-2.8601398222116976,0.6659033894538879,0.7440722584724426,0.054121922701597214,0.5429062843322754,-0.6683130264282227,1.3182194232940674,0.49817436933517456,-0.4184191823005676,-0.4774007797241211
44,1.5827952947119468,-0.7550818813012314,-3.125508681988774,0.7281631231307983,0.6853482723236084,0.008737625554203987,4.418013095855713,2.0531649589538574,1.3610248565673828,0.9920974969863892,0.0816347599029541,-0.9201908111572266
45,1.4431815186225234,-0.41624451939036533,2.7510246489641528,0.9071764349937439,0.40432849526405334,-0.11640171706676483,3.1291661262512207,0.6533234715461731,4.137762069702148,0.4207044243812561,0.44616585969924927,-0.3566970229148865
46,1.4836708023781762,0.06537791228391167,2.471473702259961,0.9940788149833679,-0.0653313472867012,-0.08682945370674133,2.76652455329895,0.9925594925880432,4.515076637268066,0.018616557121276855,0.9472283124923706,-0.08881443738937378
47,1.5706567254588393,0.45510945823476695,2.3214732540947076,0.8982127904891968,-0.4395606219768524,-0.0001253917143912986,1.056735634803772,-0.14563466608524323,3.2725861072540283,-0.40532350540161133,1.1675574779510498,-0.04851961135864258
48,1.516967528336249,0.6422207614030148,2.2986929104500864,0.7996075749397278,-0.5989752411842346,-0.04308353364467621,-0.4222429394721985,-1.01734459400177,-0.11593674123287201,-0.8052687644958496,1.2095556259155273,0.2820209264755249
49,1.3542308844792879,0.34166547747342635,2.5279003287717914,0.920189380645752,-0.33505675196647644,-0.2024562656879425,-5.03237771987915,0.30696338415145874,-5.299747467041016,-0.019081592559814453,1.6124463081359863,0.2009456753730774
50,1.3857375821952542,-0.4043527644987811,2.8833006266175416,0.9036596417427063,0.39342379570007324,-0.16916565597057343,-4.674001216888428,-1.2150570154190063,-6.189812183380127,1.4319727420806885,0.9022457599639893,-0.9963006377220154
51,1.346005267000713,-0.7747231758779956,3.0836409512478298,0.696635365486145,0.6995182633399963,-0.15928950905799866,0.5419859886169434,-1.7660179138183594,-0.3256286382675171,0.7478378415107727,-0.7766668200492859,-0.25521546602249146
52,1.4896761611440776,-0.8305364132117063,-2.7981593775604927,0.6722617149353027,0.7382932901382446,-0.054653916507959366,-5.621973991394043,0.24430960416793823,-0.9526222944259644,0.15104150772094727,-0.2914854884147644,-0.19790953397750854
53,1.918063972242512,-0.9071467187003251,-2.3981355976356697,0.5792248249053955,0.7877493500709534,0.20964181423187256,1.139722228050232,0.17774976789951324,0.4934317469596863,1.023512601852417,-0.8568563461303711,-1.5076459646224976
54,1.6216063278316686,-0.834484128630327,-2.6727470680923715,0.6706934571266174,0.7409501671791077,0.03410729393362999,2.6862239837646484,0.5568824410438538,1.1737757921218872,0.8548039793968201,-0.20857101678848267,-0.6035194396972656
55,1.4421235022672683,-0.5969724122071359,3.0207043129540767,0.8202041983604431,0.5621411204338074,-0.10612432658672333,4.720935821533203,1.5781563520431519,4.131917476654053,1.245744228363037,0.4393847584724426,-0.5498510003089905
56,1.4225170672505714,-0.020697679952211997,2.7852794820955245,0.9888148903846741,0.020696202293038368,-0.1477048397064209,2.8127646446228027,0.557964026927948,5.79316520690918,0.39981114864349365,1.1310372352600098,-0.3204347491264343
57,1.54779148783511,0.5013705328538914,2.5577263468337565,0.8766926527023315,-0.4806278347969055,-0.02017173171043396,2.312387228012085,0.5521715879440308,3.902742624282837,-0.19793593883514404,1.2517765760421753,-0.09721410274505615
58,1.6741665459977992,0.7830711944161937,2.3464536502451994,0.7049670219421387,-0.705459475517273,0.07313326746225357,0.8665037155151367,-0.5471516847610474,1.5212948322296143,-0.5392718315124512,1.344314455986023,0.10771393775939941
59,1.5387037500875616,0.7242026294016378,2.43590619564909,0.7486421465873718,-0.6625384092330933,-0.024034107103943825,-2.1754746437072754,-0.48694324493408203,-3.0829691886901855,-0.5930483341217041,1.4556293487548828,0.36023104190826416
60,1.4093574671968794,0.13617239464244865,2.791192726261725,0.9778602123260498,-0.13575194776058197,-0.15925054252147675,-4.574106693267822,0.4279674291610718,-7.322389602661133,1.1404259204864502,1.8973944187164307,-0.5366722941398621
61,1.5001563302076402,-0.6197440186135145,-3.06043045669936,0.8119970560073853,0.5808268189430237,-0.057455070316791534,-4.8065714836120605,-0.40973588824272156,-5.622899055480957,1.6596978902816772,0.18234151601791382,-1.2261600494384766
62,1.4671553621929934,-0.8158191492394505,-2.9278507129125386,0.6815949082374573,0.7282871603965759,-0.07089517265558243,-2.012707471847534,-2.7748968601226807,0.46732980012893677,0.45179736614227295,-0.3897709250450134,0.15329265594482422
63,1.9012317762947017,-0.8840222849037114,-2.235799843686991,0.5997447371482849,0.7732954621315002,0.20571933686733246,-3.8878633975982666,1.7997851371765137,-1.8091232776641846,0.4628620147705078,-0.6582747101783752,-0.9752047061920166
64,2.0284228158421116,-0.9078112756834098,-2.2022026120448706,0.5521424412727356,0.7881585359573364,0.27192798256874084,1.1955757141113281,-1.0163397789001465,1.58314049243927,1.0043914318084717,-0.5749779939651489,-1.2234203815460205
65,1.6016138356684069,-0.7958102392362156,-2.6933395171867835,0.6993737816810608,0.7144307494163513,0.021559784188866615,4.671627521514893,1.4328073263168335,2.1549391746520996,0.9304631948471069,0.1021890640258789,-0.5194236040115356
66,1.477441670785153,-0.44713033546448716,3.0363817883952335,0.8977652192115784,0.43237975239753723,-0.08405488729476929,4.107234001159668,1.521501064300537,4.180239200592041,0.7846688032150269,0.6371086835861206,-0.5069637894630432
67,1.5095943066692104,0.05424418761066931,2.754794671206152,0.9966596364974976,-0.054217588156461716,-0.06107385829091072,2.3523824214935303,0.48561036586761475,4.972603797912598,0.23109298944473267,1.0428802967071533,-0.23587745428085327
68,1.605885756154251,0.4810174197080905,2.5783647122867617,0.8859789371490479,-0.462681382894516,0.03110126033425331,1.2306039333343506,0.655890941619873,3.3873884677886963,-0.23441338539123535,1.2037702798843384,0.009746549651026726
69,1.691574183829666,0.7156091264811063,2.528122869577896,0.7491958737373352,-0.6560772657394409,0.09092883765697479,-0.5189684629440308,0.12375038862228394,0.9384883642196655,-0.5398606061935425,1.325297236442566,-0.07986617833375931
70,1.6025311114851843,0.5710340430245127,2.6187577374776247,0.840919017791748,-0.5405023097991943,0.02669534645974636,-1.0175628662109375,-1.0546072721481323,-3.9296677112579346,-0.43204444646835327,1.4151513576507568,-0.0321732722222805
71,1.449359033921204,-0.03416418021602191,2.904663489816496,0.9920564293861389,0.03415753319859505,-0.12106835842132568,-4.395190238952637,-0.8764339685440063,-7.178031921386719,1.1439909934997559,1.7590858936309814,-0.5980936288833618
72,1.4780128079981818,-0.7506301490739384,-3.0782487783017345,0.7281140089035034,0.6820996999740601,-0.06775151193141937,-2.980680465698242,-0.18417547643184662,-5.118443012237549,1.2003527879714966,-0.3587353825569153,-0.7704595923423767
73,1.4836885887360953,-0.9471417735767045,-2.8576636622427474,0.5817914605140686,0.8117495775222778,-0.050807107239961624,-2.8948662281036377,-3.1845431327819824,-0.33024120330810547,0.4809679388999939,-0.5238772630691528,-0.02385413646697998
74,1.8177192952345231,-1.0767470467593883,-2.4465150227677315,0.4598121643066406,0.880419909954071,0.11590339243412018,0.03198846057057381,1.581635594367981,-0.23629289865493774,1.2715110778808594,-1.0775482654571533,-0.9434332847595215
75,1.7032302023261718,-0.9478213164398801,-2.5697126155305425,0.5783448219299316,0.8121462464332581,0.07704338431358337,1.2595919370651245,-1.148888111114502,2.4263031482696533,0.9824461340904236,-0.28053009510040283,-0.7344073057174683
76,1.4605396343959491,-0.7036168558220455,-2.9898175442107386,0.7578772902488708,0.646979808807373,-0.0839013010263443,3.9928393363952637,2.6147189140319824,2.681580066680908,0.9516565799713135,0.35665184259414673,-0.4329749345779419
77,1.454091393414622,-0.3213139914047173,2.9627361639006247,0.9423669576644897,0.3158135712146759,-0.11048091948032379,2.4871227741241455,0.8175643682479858,4.3502655029296875,0.4259189963340759,0.5984166860580444,-0.2970050275325775
78,1.4974639377994803,0.1604311161131761,2.7987940822213386,0.9845053553581238,-0.1597438007593155,-0.07232582569122314,1.8158352375030518,0.11475066840648651,4.4557647705078125,-0.14878153800964355,0.9654383659362793,-0.16354453563690186
79,1.5547736550654332,0.5196392784880346,2.6541703249515773,0.867887020111084,-0.4965670704841614,-0.013907059095799923,1.3348923921585083,-0.025746967643499374,2.591479539871216,-0.4924444556236267,1.0548861026763916,0.003561556339263916
80,1.5693457139787272,0.6376531239989784,2.6032418249727347,0.8034942150115967,-0.5953114032745361,-0.0011655597481876612,-0.5185058116912842,-0.38874390721321106,-0.7330824136734009,-0.7555816769599915,1.2025196552276611,0.14600205421447754
81,1.451336931317312,0.34004997524122044,2.738767142546985,0.9360191822052002,-0.33353421092033386,-0.11235123872756958,-3.511279344558716,-0.3974548876285553,-4.671989440917969,0.020187973976135254,1.5311050415039062,0.2778174877166748
82,1.4141267684656686,-0.3611359851192302,-3.1260480450087464,0.924038290977478,0.3533371686935425,-0.14596489071846008,-5.048522472381592,-0.880537211894989,-6.734171390533447,1.6495394706726074,1.3600873947143555,-0.9295356273651123
83,1.5634524888589965,-0.8501656552560594,-2.77939594054857,0.659841001033783,0.751389741897583,-0.004845852497965097,-0.5402224063873291,-1.3896070718765259,-1.1115368604660034,1.1911263465881348,-0.9485027194023132,-0.9275577068328857
84,1.666171179110663,-0.859204132277275,-2.401014531504818,0.650072455406189,0.7573230862617493,0.062189243733882904,-4.293977737426758,-0.45241406559944153,-0.8998013734817505,0.06387096643447876,-0.500792384147644,-0.2527867555618286
85,1.9947438725780573,-0.9160120193831268,-2.101422509356311,0.5550759434700012,0.7931792736053467,0.25051450729370117,0.7965763807296753,0.26416268944740295,0.45503151416778564,0.955498456954956,-0.9420287609100342,-1.3343157768249512
86,1.7446113787951614,-0.802388328828613,-2.316236797740496,0.6845191717147827,0.7190179824829102,0.12019258737564087,1.5629098415374756,-0.9931400418281555,1.5127403736114502,0.5849051475524902,-0.03833878040313721,-0.6712179183959961
87,1.4930023006730269,-0.677190969317795,-2.840048235061937,0.7769789695739746,0.6266063451766968,-0.060566555708646774,5.307773590087891,2.1027278900146484,2.3847813606262207,0.9914994239807129,0.3418537378311157,-0.6214250326156616
88,1.4434557954041387,-0.2529697780314818,3.020560965856171,0.9603342413902283,0.25028032064437866,-0.12295479327440262,3.024315595626831,0.9168645739555359,4.918203830718994,0.5129018425941467,0.7314243912696838,-0.409210741519928
89,1.4680429366236514,0.2654876493511016,2.8225302486595356,0.9598751068115234,-0.26237985491752625,-0.09897901117801666,2.399676561355591,0.006676852703094482,4.189088821411133,-0.1529749631881714,1.1509144306182861,-0.13029958307743073
90,1.5593382595854968,0.6048244438768453,2.6252876123631492,0.8225478529930115,-0.5686177015304565,-0.009425221011042595,1.5348401069641113,-0.13207516074180603,2.2562098503112793,-0.499549925327301,1.2213886976242065,0.06252574920654297
91,1.5456052282505324,0.6515893692856206,2.590742426078323,0.7948685884475708,-0.6064509153366089,-0.020027849823236465,-0.6585047245025635,-0.6614799499511719,-1.5877381563186646,-0.6771776080131531,1.2641963958740234,0.20372843742370605
92,1.3905180837494417,0.2346862562479146,2.836196063787964,0.9568254351615906,-0.23253785073757172,-0.17438814043998718,-4.809391975402832,0.09828518331050873,-6.215391159057617,0.20253735780715942,1.511346459388733,0.024638354778289795
93,1.4067878274556558,-0.5076751020227389,-3.066171459276856,0.8621503114700317,0.4861468970775604,-0.14268159866333008,-4.871770858764648,-1.1838401556015015,-6.204889297485352,1.2936724424362183,0.777128279209137,-0.9779238700866699
94,1.4844840617782014,-0.8598865905694345,-2.8007157165263834,0.6500940918922424,0.7577685713768005,-0.05625085160136223,-0.2976459562778473,-1.480285406112671,0.15562203526496887,0.910239040851593,-0.7842732071876526,-0.48784708976745605
95,1.6850725975386216,-0.8592969456237116,-2.328964256621266,0.6487110257148743,0.7573837041854858,0.07445666939020157,-4.259134769439697,0.2409549355506897,-1.050124168395996,0.13737595081329346,-0.3917221426963806,-0.45157766342163086
96,1.950803899305502,-0.8966071232163422,-2.108746234623268,0.5797304511070251,0.7812133431434631,0.23155680298805237,1.1862739324569702,-0.7425339221954346,0.8183467388153076,0.9051939249038696,-0.7000517249107361,-1.3327836990356445
97,1.5918324977428422,-0.8110381468223378,-2.3918005301605674,0.688593864440918,0.7250025868415833,0.014487515203654766,2.309004306793213,0.1444038599729538,0.8222537636756897,0.46082019805908203,-0.19623976945877075,-0.27382588386535645
98,1.4396790545461533,-0.6474232234919209,-2.9339953306971536,0.7907940745353699,0.6031330823898315,-0.10428506135940552,4.278238773345947,1.7483675479888916,3.174447536468506,1.0056231021881104,0.18597519397735596,-0.4287044405937195
99,1.405859495104622,-0.14250748424897597,3.1302372131560996,0.9764293432235718,0.14202561974525452,-0.16252562403678894,2.7836923599243164,0.3691568672657013,5.12797737121582,0.3226581811904907,0.9017671346664429,-0.30929136276245117
100,1.4754225266450278,0.34063300326008533,2.9333013819358547,0.9382598996162415,-0.33408379554748535,-0.08975773304700851,2.0052168369293213,0.27961742877960205,3.5925748348236084,-0.24409180879592896,1.1723253726959229,-0.007517039775848389
101,1.5069306185707259,0.5947942681233277,2.8307357397981727,0.8265752196311951,-0.5603383779525757,-0.05286170169711113,0.36235693097114563,-0.5272436141967773,1.0741456747055054,-0.6817540526390076,1.1318105459213257,0.19664525985717773
102,1.4381991752941536,0.48598291478726235,2.917866962325666,0.8764544725418091,-0.46707770228385925,-0.11690129339694977,-1.8591691255569458,-0.08047832548618317,-2.8001112937927246,-0.5531360507011414,1.0487885475158691,0.21020883321762085
103,1.3600504233746133,0.002180311822926902,-3.080520819352294,0.977872908115387,-0.0021803101990371943,-0.20918887853622437,-6.158125877380371,0.1605018675327301,-5.72547721862793,0.677156388759613,1.5528852939605713,-0.23883968591690063
104,1.4264869918273637,-0.6490916397385764,-2.718283094927851,0.7883527278900146,0.6044630408287048,-0.11456303298473358,-2.890108585357666,-0.06474972516298294,-4.315086841583252,1.1455004215240479,-0.15551888942718506,-0.830474853515625
105,1.4439492694073424,-0.818439219686975,-2.552485637301508,0.6778711676597595,0.7300801277160645,-0.08645012974739075,-2.3295087814331055,-2.2603845596313477,0.45638731122016907,0.3640904426574707,-0.5252461433410645,0.005120754241943359
106,1.726823138104085,-0.8761554291229625,-2.09930472249188,0.6323341131210327,0.7682836055755615,0.09946955740451813,-1.7767741680145264,1.5767525434494019,-1.37916100025177,0.31480950117111206,-0.6901890635490417,-0.8834203481674194
107,1.7491288009706472,-0.9003214680656331,-2.161026965124694,0.6115038394927979,0.7835267186164856,0.11022192239761353,0.7760636210441589,-0.56432044506073,1.188158392906189,0.6584697961807251,-0.5442231297492981,-0.6211471557617188
108,1.5472804050455917,-0.7547832733525717,-2.3828741323109863,0.7282187342643738,0.6851308345794678,-0.01712789200246334,2.5344812870025635,-0.23348085582256317,1.5805116891860962,0.583518385887146,0.08754372596740723,-0.5726090669631958
109,1.3853160432303133,-0.541604434274249,-2.8256199670292523,0.8421854376792908,0.5155114531517029,-0.15802514553070068,4.210499286651611,1.5531036853790283,2.3476147651672363,0.6064688563346863,0.2941962480545044,-0.3314310312271118
110,1.3983736679616756,-0.17156547005379183,-3.0957217290349335,0.9707085490226746,0.1707250475883484,-0.16905073821544647,2.139099359512329,0.9208681583404541,3.7442846298217773,0.07692950963973999,0.5206659436225891,-0.16095109283924103
111,1.451914033629636,0.19432198523311636,3.0757616425783674,0.9742535352706909,-0.19310133159160614,-0.11637023091316223,1.3108696937561035,0.289247065782547,2.6922378540039062,-0.4506329298019409,0.7734236121177673,-0.014809608459472656
112,1.505193307191907,0.365556032288074,3.003901458604841,0.9319161772727966,-0.3574686348438263,-0.06122437119483948,0.33919066190719604,0.2916283905506134,0.649047315120697,-0.5935525298118591,0.7949533462524414,0.09084171056747437
113,1.488647240098676,0.29814096141076246,3.0536497692313826,0.9526606202125549,-0.29374369978904724,-0.0784367248415947,-1.2989450693130493,-0.4275851845741272,-1.9769837856292725,-0.4301539659500122,0.9493223428726196,0.05867660790681839
114,1.4001300096145737,-0.09613748042904056,-2.99982859989399,0.98092120885849,0.09598945826292038,-0.1690547615289688,-4.115950584411621,-0.4003242254257202,-4.7687602043151855,0.43172216415405273,0.956134557723999,-0.2796757221221924
115,1.4350144423793536,-0.647380282291219,-2.7517289699670324,0.7903246879577637,0.6030988097190857,-0.10797616839408875,-1.6700330972671509,-0.5905904769897461,-4.897959232330322,1.0594830513000488,0.1082811951637268,-0.6269634366035461
116,1.4637039912258163,-0.9287143517306692,-2.583671520471604,0.5954334735870361,0.8008506894111633,-0.06401126086711884,-0.9546869993209839,-1.3057587146759033,-0.5865728855133057,0.7294719815254211,-0.8503652811050415,-0.23585450649261475
117,1.5987362300890449,-0.9609852633781948,-2.3407809291853816,0.5724892616271973,0.8197562098503113,0.015999458730220795,-0.8955028653144836,0.1682668775320053,-0.4548782408237457,0.43497234582901,-0.6788564920425415,-0.4677053689956665
118,1.5709354201282768,-0.9375641370374491,-2.391641349258871,0.5917533040046692,0.8061190843582153,8.230893581639975e-05,0.6183299422264099,0.20018525421619415,0.8842407464981079,0.5459725260734558,-0.4660922884941101,-0.21710801124572754
119,1.5357961973233911,-0.8309240261330716,-2.5039078877872534,0.6737807989120483,0.7385546565055847,-0.02359204925596714,1.0134707689285278,0.5029033422470093,1.3092759847640991,0.6400161981582642,-0.025038421154022217,-0.4644298553466797
120,1.4428914878061738,-0.7210681506468889,-2.8137033042940525,0.7449654936790466,0.6601873636245728,-0.09580772370100021,3.2517685890197754,2.1391425132751465,1.4529948234558105,0.6943655610084534,-0.09353697299957275,-0.3322318196296692
121,1.4668100336592627,-0.416695936920065,-3.0448437344470705,0.9094918370246887,0.4047413170337677,-0.09491705149412155,2.022634744644165,1.145073652267456,3.74566388130188,0.22779160737991333,0.2917003631591797,-0.45090508460998535
122,1.5374705713878953,-0.012319001444917184,3.0704500959772902,0.9993689656257629,0.012318690307438374,-0.03331705927848816,1.684366226196289,0.5414264798164368,3.736013412475586,-0.22223883867263794,0.6904248595237732,-0.37912797927856445
123,1.5491522575099197,0.247957396890287,2.9373196822413927,0.9691886901855469,-0.24542434513568878,-0.020980462431907654,1.2488837242126465,-0.3905687630176544,1.1869477033615112,-0.5718345642089844,0.8553792238235474,-0.16453588008880615
124,1.5321867272847105,0.21594903791715456,2.830500740405445,0.9760454893112183,-0.21427452564239502,-0.037703461945056915,0.6503545045852661,-0.5415822863578796,-1.463327407836914,-0.41362184286117554,0.74311363697052,0.07907003164291382
125,1.4553921296583308,-0.03810129997376891,2.912714285582474,0.9926273822784424,0.038092080503702164,-0.11506463587284088,-2.6422693729400635,-0.9535614252090454,-3.8003947734832764,-0.05206036567687988,0.8423553109169006,0.04520988464355469
126,1.4234946484308644,-0.5294712045987968,3.0715617345663038,0.8537277579307556,0.5050770044326782,-0.12667304277420044,-1.3305341005325317,-0.34971076250076294,-4.6611247062683105,0.8371748924255371,0.3862346410751343,-0.27556389570236206
127,1.499351125576616,-0.8928476029322204,-3.022337543049473,0.6255968809127808,0.7788609266281128,-0.04477209970355034,-2.614150047302246,-0.4525409936904907,-1.958517074584961,0.5431349277496338,-0.6958529949188232,-0.19190692901611328
128,1.7064011109400792,-1.0120094292760449,-2.7619248944402432,0.5252910256385803,0.8478989005088806,0.07167183607816696,-0.27011266350746155,0.30811870098114014,-0.8004734516143799,0.5712818503379822,-0.8233169317245483,-0.5153363943099976
129,1.6742135265871105,-1.0067182276300772,-2.825252108237552,0.5317806005477905,0.8450818657875061,0.05519216135144234,0.719084620475769,0.34516608715057373,0.7597326636314392,0.550418496131897,-0.6561779975891113,-0.4019482135772705
130,1.5669809110682664,-0.8548268453334769,-2.974530804671661,0.6563445329666138,0.7544572949409485,-0.002504239557310939,1.1151553392410278,0.16966837644577026,2.1398117542266846,0.5726441740989685,-0.07165688276290894,-0.5371838808059692
131,1.4936896857937798,-0.6687236532673327,2.9567138401163957,0.7822823524475098,0.619985044002533,-0.06043899059295654,4.189605236053467,2.052441358566284,1.9585193395614624,0.706105649471283,0.28783655166625977,-0.710908055305481
132,1.4171788451827871,-0.2847915095759306,2.6315107797317245,0.9484185576438904,0.2809573709964752,-0.14685063064098358,2.3396801948547363,-0.07971314340829849,4.4248738288879395,0.13880062103271484,0.4454982876777649,-0.22367851436138153
133,1.4035512682255362,0.15663235083743127,2.492352976507948,0.9739760756492615,-0.15599267184734344,-0.16442862153053284,1.8578503131866455,0.09362763911485672,3.2422420978546143,-0.33728790283203125,0.9137899279594421,0.03366078436374664
134,1.4304050437093876,0.4015010098056477,2.410658748633964,0.9114192128181458,-0.390800416469574,-0.12880264222621918,0.556396484375,-0.3300073444843292,1.3150053024291992,-0.5216487050056458,1.0528182983398438,0.14636552333831787
135,1.3708848838949756,0.33261602844422034,2.4637820394402943,0.9263671040534973,-0.3265167772769928,-0.18769849836826324,-2.218533992767334,-0.460984468460083,-2.637775421142578,-0.4742950201034546,1.2319581508636475,0.32417309284210205
136,1.3421717645449505,-0.14756191259548504,2.6216802045116028,0.9633944034576416,0.14702698588371277,-0.2241751104593277,-3.1479249000549316,0.5041996240615845,-5.955869674682617,0.9344175457954407,1.4208135604858398,-0.041251540184020996
137,1.460921039705269,-0.7635230565374624,2.9902132332196802,0.7180482149124146,0.6914708018302917,-0.07921478897333145,-3.8783864974975586,-1.2724729776382446,-3.6624183654785156,0.8304442167282104,-0.30829209089279175,-0.7027981281280518
138,1.5974309721925886,-0.9938431216334127,-2.9600135236015443,0.5452794432640076,0.8381285071372986,0.014526760205626488,-0.9812939167022705,-0.5963627099990845,-1.2274988889694214,0.5285120010375977,-0.7715390920639038,-0.33949315547943115
139,1.8450296052023374,-1.033336224516162,-2.6060905430975847,0.4928258955478668,0.8590117692947388,0.1386422961950302,-1.799040675163269,-0.2882440984249115,-0.66935133934021,0.45283761620521545,-0.6694669723510742,-0.6924905776977539
140,1.9109726201849875,-1.050018571789262,-2.5701781220386524,0.46904313564300537,0.8674324750900269,0.16601090133190155,1.6117808818817139,0.2841682732105255,0.8903136253356934,1.2584043741226196,-0.33660972118377686,-0.9523420333862305
141,1.5060225119596606,-0.8365636365108468,-3.1219360584399083,0.6686126589775085,0.7423450946807861,-0.04336926341056824,3.1508398056030273,1.1299526691436768,3.828583002090454,1.1129577159881592,0.37291979789733887,-0.3682823181152344
142,1.3979983575699166,-0.4191983823170059,2.824793885562124,0.8998125791549683,0.4070283770561218,-0.15705205500125885,3.24737811088562,0.5826979279518127,3.4628090858459473,0.16174137592315674,0.4233854413032532,-0.18047237396240234
143,1.4305922010703644,-0.04402508581773228,2.5696673256190103,0.9892281889915466,0.044010866433382034,-0.13960985839366913,2.8647384643554688,1.5736929178237915,3.348334789276123,-0.13476639986038208,0.44558262825012207,0.04242663085460663
144,1.603393034684375,0.3798078744577871,2.436987306693796,0.9282426238059998,-0.3707420527935028,0.03026837483048439,-0.5207805037498474,0.71506267786026,4.811618804931641,0.045832693576812744,1.3383934497833252,-0.12790942192077637
145,1.3867595440205494,0.700694295075539,2.666871545572403,0.7514863610267639,-0.6447485685348511,-0.13988398015499115,-2.0185768604278564,-0.46800461411476135,-0.2800966799259186,-0.5599275231361389,2.1249427795410156,0.27762508392333984
146,1.3804782097981367,0.11882296091544106,2.8471906692472184,0.9750203490257263,-0.11854355037212372,-0.1878374069929123,-2.282698154449463,0.621562123298645,-8.758889198303223,1.2230844497680664,2.0578136444091797,-0.4882948398590088
147,1.4363834703972922,-0.7924386821297846,3.0051077208171733,0.6957778334617615,0.7120676040649414,-0.09408880025148392,-3.9981868267059326,0.2690855860710144,-7.453295707702637,2.0273056030273438,0.3707265257835388,-0.6143157482147217
148,1.4228838878302674,-1.089193744194297,3.0445427466764805,0.45814257860183716,0.8862537741661072,-0.06826353818178177,-1.5008553266525269,-4.292016983032227,-0.11384245753288269,0.32280227541923523,-0.7778552770614624,0.17832517623901367
149,1.624854881760003,-1.212410868337145,-3.0091284408288566,0.3502501845359802,0.9364643692970276,0.01895248331129551,-0.907016932964325,1.37155020236969,0.676834762096405,1.3495635986328125,-1.0535298585891724,-0.662781834602356
150,1.5775676689365898,-0.9928419309118862,-3.1150503103227654,0.5462994575500488,0.8375819325447083,0.0036992370150983334,1.944003939628601,0.32493868470191956,4.149003505706787,1.5483508110046387,0.1298559308052063,-0.7623815536499023
151,1.477998099601652,-0.4363802097594942,2.8814068492289393,0.9023881554603577,0.4226616621017456,-0.0839812308549881,2.559098243713379,0.6963164210319519,5.835940361022949,0.6421827673912048,0.9218817949295044,-0.5269653797149658
152,1.4488270678345165,0.07488867908211323,2.673590138869508,0.9897890686988831,-0.0748187005519867,-0.12132607400417328,2.7868659496307373,0.2286703735589981,4.124459266662598,-0.09507465362548828,0.9106341600418091,-0.11733663082122803
153,1.5415516846459378,0.466174906133967,2.469642840205931,0.8929122686386108,-0.4494726359844208,-0.026120346039533615,1.441599726676941,0.03379617631435394,2.963449239730835,-0.34522855281829834,1.2490789890289307,-0.004824519157409668
154,1.5380313762529363,0.6264332994317707,2.450690651426302,0.8096888661384583,-0.5862590074539185,-0.0265389122068882,-0.8018102645874023,-0.35978251695632935,0.05241630971431732,-0.5695765614509583,1.334962010383606,0.11418545246124268
155,1.412848363113233,0.3983298026395035,2.604801505716824,0.9102368354797363,-0.38787946105003357,-0.14497767388820648,-2.666147232055664,-0.3567273020744324,-4.336561679840088,-0.03757143020629883,1.558213233947754,0.13743984699249268
156,1.389309394866288,-0.294948881000012,2.931602598117543,0.9411026239395142,0.29069092869758606,-0.17269809544086456,-4.790305137634277,-1.195804238319397,-7.029510498046875,1.5018141269683838,1.3157544136047363,-0.8119820952415466
157,1.466452500184167,-0.8888640896579795,-2.9772631420571507,0.6268661618232727,0.7763562798500061,-0.06564803421497345,-2.4539830684661865,-1.379220962524414,-3.070075511932373,0.9335280656814575,-0.6955304741859436,-0.687129020690918
158,1.672113023059638,-1.0927991883809902,-2.692410704012099,0.45764273405075073,0.8879179954528809,0.04652615636587143,-2.107423782348633,0.2549157738685608,-1.3465231657028198,0.7854602336883545,-0.6774383187294006,-0.3239004611968994
159,2.00136181204727,-1.1045296172238277,-2.3267710031812103,0.40852388739585876,0.8932528495788574,0.1876373142004013,-0.06460581719875336,-0.565910816192627,0.8869641423225403,1.1365811824798584,-0.8351320028305054,-1.046539306640625
160,1.6145630382393437,-0.9728519862798695,-2.697261256960309,0.5624054074287415,0.826494574546814,0.024630365893244743,2.906991958618164,0.2436751127243042,2.0214297771453857,0.810580313205719,-0.22149890661239624,-0.3789851665496826
161,1.4494555831797369,-0.631157008119392,3.1286297355191777,0.801409125328064,0.5900792479515076,-0.09772366285324097,2.7261006832122803,1.2740833759307861,5.059183120727539,1.2436195611953735,0.5652704834938049,-0.48195773363113403
162,1.3925007836252372,-0.04342335040491703,2.9796045177642023,0.9832198023796082,0.04340970516204834,-0.17718522250652313,2.383450984954834,-0.2631939649581909,4.985063552856445,0.0662798285484314,1.0457016229629517,-0.08824141323566437
163,1.4711560532590036,0.39393276555816975,2.7940844151155746,0.9188267588615417,-0.3838229179382324,-0.09185633808374405,2.224259853363037,0.5743511915206909,3.3614513874053955,-0.2282596230506897,1.174243450164795,0.04032742232084274
164,1.5161686324140748,0.62677612815246,2.7051309624079996,0.8087144494056702,-0.586536705493927,-0.04422220215201378,-0.1182050034403801,-0.34496480226516724,0.8113585710525513,-0.5551286339759827,1.3091318607330322,0.2179434895515442
165,1.4218940542503749,0.4864525642910614,2.832563215367221,0.8742150068283081,-0.4674929082393646,-0.131143257021904,-2.2852060794830322,-0.08540628850460052,-3.5315213203430176,-0.5866020917892456,1.263147234916687,0.3105866312980652
166,1.3802564673298279,-0.15030848789200854,-3.1046763348791098,0.9708312153816223,0.14974315464496613,-0.1872536540031433,-5.885503768920898,-0.33493056893348694,-7.489212989807129,1.703012228012085,1.9917058944702148,-0.9529593586921692
167,1.4289568099660046,-0.7968813647429479,-2.870460270064593,0.6919214725494385,0.7151798605918884,-0.09880530089139938,3.0680654048919678,-0.1288549304008484,-0.2433440238237381,1.6282689571380615,-1.5058903694152832,-1.3360854387283325
168,1.2812229904704844,-0.7093799850081766,-2.7214803676539545,0.7271752953529358,0.6513634324073792,-0.21666055917739868,-5.236561298370361,-1.1822701692581177,0.2243478000164032,-0.1818566918373108,-0.3239709138870239,0.6781778931617737
169,1.8954605247077956,-0.8373445222799221,-2.069168715852148,0.6344653367996216,0.7428680658340454,0.21354444324970245,-2.705402374267578,2.3458316326141357,-2.2948217391967773,0.6157789826393127,-0.2803892493247986,-1.3888068199157715
170,1.8331769549266415,-0.8840193849374445,-2.1661876348243863,0.6123482584953308,0.7732936143875122,0.16445976495742798,1.9660736322402954,-1.9786771535873413,1.6705799102783203,0.7088645696640015,-0.2663049101829529,-0.6171421408653259
171,1.5442373189205014,-0.7696234774415674,-2.5266859910866706,0.7179194688796997,0.6958648562431335,-0.019071713089942932,3.1497089862823486,1.7996156215667725,2.2096035480499268,1.0507420301437378,0.04351496696472168,-0.47496211528778076
172,1.4231721833150346,-0.38544617649223567,-2.851975724371304,0.9165522456169128,0.3759726285934448,-0.13629677891731262,2.65037202835083,-0.32056093215942383,4.502809524536133,0.4346289038658142,0.52191561460495,-0.30416339635849
173,1.3526612079883313,0.0877609166058893,-3.0315775041635065,0.9725454449653625,-0.08764830231666565,-0.21557646989822388,2.7493577003479004,-0.1954222023487091,3.8402769565582275,-0.05744534730911255,0.942323625087738,0.10324126482009888
174,1.3736603324466254,0.4256299197826993,-3.1320458468886825,0.8931385278701782,-0.4128945767879486,-0.1783866286277771,0.7197238206863403,-0.2947236895561218,2.051731824874878,-0.5354877710342407,1.0591806173324585,0.2585410475730896
175,1.3294530038989265,0.4452447740188048,-3.0940964886217257,0.8763487339019775,-0.4306788146495819,-0.21570530533790588,-1.3106085062026978,-0.009258586913347244,-1.7488162517547607,-0.5607969760894775,1.0719904899597168,0.435111403465271
176,1.3327880697227759,0.04748499785650103,-2.871999352905343,0.9707140922546387,-0.047467153519392014,-0.2355017513036728,-4.9345784187316895,0.7647611498832703,-4.940433979034424,0.39917421340942383,1.3516052961349487,-0.14955377578735352
177,1.4274998006625073,-0.5703810540368359,-2.5764557898298106,0.8330684304237366,0.53995281457901,-0.12019966542720795,-2.9844977855682373,-0.5820242166519165,-4.417305946350098,1.1529698371887207,0.13089978694915771,-0.6242156028747559
178,1.5145156005460314,-0.8254957193971194,-2.333441914045876,0.6771187782287598,0.7348840832710266,-0.03814902529120445,-1.3258565664291382,-0.8132098317146301,-1.2049304246902466,0.4441274404525757,-0.6798456907272339,-0.27328282594680786
179,1.7151701167531388,-0.9043531373956387,-2.0594627163368275,0.6117624044418335,0.7860254049301147,0.08894127607345581,-1.9612488746643066,0.11314345896244049,-0.6759352684020996,0.34461259841918945,-0.6983332633972168,-0.5705543756484985
180,1.8294028190664349,-0.904933373248918,-1.9415203009864024,0.5971967577934265,0.7863839864730835,0.157976433634758,0.2643517553806305,0.39205554127693176,0.6698954701423645,0.6462267637252808,-0.6384499073028564,-0.7791311740875244
181,1.6738879231881874,-0.7821085285442549,-2.1153875396814046,0.7056626081466675,0.7047768235206604,0.07300670444965363,2.0840325355529785,-0.2690615952014923,1.4846686124801636,0.5051681399345398,-0.0197334885597229,-0.6534968614578247
182,1.5101430655040622,-0.6031064630410454,-2.5010417020906233,0.8220632076263428,0.5672036409378052,-0.049922049045562744,3.430110216140747,1.2606703042984009,2.5002810955047607,0.6256449222564697,0.3371695280075073,-0.6092880964279175
183,1.4181250286508664,-0.24108647238309103,-2.8406409652575255,0.9597838521003723,0.23875781893730164,-0.1476806402206421,3.435342311859131,0.09936899691820145,3.842742919921875,0.1721130609512329,0.5620996952056885,-0.3148895502090454
184,1.4021189294760104,0.18844144329612422,-3.0764999897160092,0.9683563709259033,-0.18732815980911255,-0.16490678489208221,2.556596279144287,-0.22370237112045288,3.3825342655181885,-0.29869383573532104,0.9264333844184875,0.025304123759269714
185,1.4354894503624909,0.42572323596142014,3.022044858259017,0.9024159908294678,-0.4129795730113983,-0.12285374104976654,1.407213807106018,-0.22465196251869202,0.5074105262756348,-0.6704214811325073,0.9997258186340332,0.30585235357284546
186,1.444936468510988,0.3017669439057923,3.051369650885875,0.947260320186615,-0.297207772731781,-0.11985558271408081,-1.9955530166625977,0.4592851996421814,-2.746872663497925,-0.31029748916625977,1.0847597122192383,0.2043434977531433
187,1.4576120607625804,-0.1639946606440653,-2.934293198730865,0.9802703857421875,0.1632605642080307,-0.1114274114370346,-3.7261836528778076,0.24089117348194122,-5.46284294128418,0.6123199462890625,1.1025933027267456,-0.5154951810836792
188,1.4968320951866445,-0.7527966252277357,-2.749587884515876,0.7277843356132507,0.6836823225021362,-0.05392839014530182,-1.1716828346252441,-0.5547171831130981,-4.43425178527832,1.060866117477417,-0.2298707365989685,-0.4823417663574219
189,1.5240770881080925,-0.9852423884535104,-2.6001613597804605,0.552058219909668,0.8334060907363892,-0.025810521095991135,-0.5136373043060303,-1.004445195198059,-0.7712430357933044,0.5888566970825195,-0.8835312128067017,-0.20687073469161987
190,1.6160718985895424,-1.0525738422344249,-2.491577350310015,0.49482956528663635,0.8687010407447815,0.02241901122033596,-0.27185022830963135,0.692040205001831,-0.4645087718963623,0.5818763971328735,-0.8085660338401794,-0.3534889221191406
191,1.610594766750494,-0.9888910860573034,-2.552949783348329,0.549181342124939,0.8354170322418213,0.021868107840418816,0.5654342174530029,0.4702710509300232,1.6112351417541504,0.814069390296936,-0.3237287998199463,-0.47229230403900146
192,1.4603802312269412,-0.791424004110546,-2.706217333931883,0.698553204536438,0.7113548517227173,-0.07744650542736053,1.7637112140655518,-0.36315110325813293,1.5020142793655396,0.16364479064941406,-0.09938579797744751,-0.40958350896835327
193,1.382719836901433,-0.6335433428808069,-3.051263001523875,0.7917227745056152,0.5920041799545288,-0.1506853699684143,2.9011712074279785,1.7476937770843506,1.6902618408203125,0.7896523475646973,0.2393862009048462,-0.5398206114768982
194,1.3392332432406038,-0.20535083157483802,3.0765636559345313,0.952859103679657,0.20391063392162323,-0.22467726469039917,1.848893642425537,-0.8596380949020386,4.841182708740234,0.17551302909851074,0.7256242632865906,-0.25014573335647583
195,1.283738805931228,0.18791058044884082,2.97445555902758,0.9421980977058411,-0.18680666387081146,-0.27814731001853943,2.473623037338257,0.029436642304062843,2.227219581604004,-0.47978055477142334,0.8421258926391602,0.15546664595603943
196,1.362141359228389,0.3684238225620851,2.8111589544206836,0.9126620292663574,-0.3601454794406891,-0.1932440549135208,1.61620032787323,0.2693636417388916,0.14101175963878632,-0.7124209403991699,0.9219130277633667,0.2524481415748596
197,1.3835513738681007,0.22822813813950427,2.7442140079992607,0.9570429921150208,-0.22625195980072021,-0.18132556974887848,-1.075746774673462,-0.20091168582439423,-2.6720993518829346,-0.2510797381401062,0.9621680974960327,0.35077446699142456
198,1.3601708011088374,-0.24571163422402217,3.052101439422886,0.9485285878181458,0.2432466447353363,-0.20279206335544586,-5.6255364418029785,-0.244964599609375,-5.090697288513184,0.8954045176506042,1.3217862844467163,-0.5267764329910278
199,1.4522482792299067,-0.7903921688974735,-2.9601917387836,0.6986284852027893,0.7106292247772217,-0.08321121335029602,-1.258705735206604,0.06996578723192215,-3.2575056552886963,0.8716534376144409,-0.45162659883499146,-0.6845805644989014
200,1.4117378612468425,-0.9585933933564497,-2.9512789931320818,0.5674176216125488,0.818384051322937,-0.09102147817611694,-0.7219823002815247,-1.0169708728790283,-0.26817962527275085,0.30326414108276367,-0.748163104057312,0.001025080680847168
201,1.6199983122881465,-1.0366290110644336,-2.708873223174586,0.5085085034370422,0.8606928586959839,0.025039836764335632,-0.8557118773460388,1.0964725017547607,-1.0172196626663208,0.43575114011764526,-0.7310389280319214,-0.5215760469436646
202,1.6438465772270512,-1.0247627048611678,-2.7849474480951444,0.5179169774055481,0.8545910120010376,0.03790140524506569,0.825254499912262,0.05559823289513588,1.7014957666397095,0.8744323253631592,-0.49355268478393555,-0.5828995704650879
203,1.4606467279654625,-0.8099718265063011,-3.0116656864283136,0.685340166091919,0.7242677211761475,-0.07579673826694489,2.0717060565948486,0.6026172041893005,2.0340051651000977,0.5610130429267883,-0.03200697898864746,-0.3103421926498413
204,1.4260070306551074,-0.5268706831177838,2.9951984179107174,0.855340301990509,0.5028308629989624,-0.1247168555855751,3.303001880645752,1.5549813508987427,2.817577362060547,0.2709415555000305,0.3835980296134949,-0.6466454267501831
205,1.3980947982724397,-0.18822992321186144,2.7131538921884775,0.9677239060401917,0.18712037801742554,-0.16880902647972107,2.8356916904449463,0.08068118244409561,3.0046229362487793,-0.14284902811050415,0.45432859659194946,-0.24297988414764404
206,1.3919926949915948,0.11470936665626381,2.5460681789952426,0.977590024471283,-0.11445797234773636,-0.17668357491493225,1.5934796333312988,0.08235157281160355,1.7378615140914917,-0.45392364263534546,0.6956652402877808,0.08601582050323486
207,1.4271679797068353,0.2280739093998038,2.460750790472179,0.9640735387802124,-0.22610172629356384,-0.13942836225032806,0.37638527154922485,-0.08337684720754623,0.4515535235404968,-0.4382861852645874,0.7143677473068237,0.15335965156555176
208,1.3804784754048067,0.16245562030224436,2.4872102295588427,0.9690149426460266,-0.1617419719696045,-0.18668021261692047,-1.5066899061203003,-0.42287522554397583,-1.7475273609161377,-0.2941797971725464,0.8747546672821045,0.4279521703720093
209,1.3620675255370656,-0.2435596777070239,2.746043789263701,0.9494212865829468,0.24115876853466034,-0.20110058784484863,-3.538167953491211,-0.06180168688297272,-5.316735744476318,0.48409605026245117,0.9972140192985535,-0.339548796415329
210,1.5273243450704865,-0.7858249365312147,3.0470865770179087,0.7061371207237244,0.7074084877967834,-0.030716530978679657,-3.4537713527679443,-0.29051584005355835,-3.622373104095459,1.0936369895935059,-0.3046070337295532,-0.7925561666488647
211,1.5638247984234444,-0.9154389634421706,-3.0234612004801007,0.6094277501106262,0.7928301692008972,-0.004248711280524731,-0.0014487551525235176,-1.2339532375335693,0.04883761703968048,0.3935324549674988,-0.7485492825508118,-0.2510460615158081
212,1.6166660122127792,-0.9182028842131408,-2.887685613768228,0.6066100597381592,0.794511616230011,0.027844544500112534,-1.3026959896087646,-0.058695871382951736,-0.4970419406890869,0.07580870389938354,-0.596406877040863,-0.23145782947540283
213,1.6780994738473303,-0.9521612373358623,-2.851902640161876,0.5765883326530457,0.814670741558075,0.062108296900987625,0.3856196105480194,0.4066997170448303,0.32723742723464966,0.7545120716094971,-0.4736979007720947,-0.48013806343078613
214,1.5040548651185552,-0.8279894903945347,-2.9817373365112516,0.6748523116111755,0.7365730404853821,-0.04510762542486191,0.6303600668907166,0.10781895369291306,1.1113649606704712,0.49067503213882446,-0.02868729829788208,-0.05648541450500488
215,1.4175726966035826,-0.7170732219163057,2.8423039633445275,0.7449018359184265,0.6571815013885498,-0.11503824591636658,3.5548245906829834,2.84199857711792,3.1686105728149414,1.0972613096237183,-0.1562201976776123,-0.2133156657218933
216,1.4599024571355774,-0.2033468889243438,2.720843515285658,0.9733803272247314,0.2019483894109726,-0.1083865687251091,1.60188627243042,-0.11056869477033615,5.521130561828613,0.23810648918151855,0.7813432216644287,-0.3349575996398926
217,1.4915781652702391,0.23466182654239165,2.5996562645207306,0.9695429801940918,-0.23251409828662872,-0.07696647942066193,1.804970145225525,0.7814746499061584,2.844670295715332,-0.48545777797698975,0.8591009378433228,-0.05059695988893509
218,1.5536264208630048,0.44564498455684826,2.4958722750426143,0.9021999835968018,-0.431039959192276,-0.01549221109598875,0.2008129209280014,-0.33889007568359375,1.081471562385559,-0.6844416856765747,0.9800511598587036,0.07368922233581543
219,1.5084522630571742,0.3375517145894243,2.5367813284297247,0.9417352080345154,-0.3311779499053955,-0.05878778547048569,-0.555772066116333,-0.49472182989120483,-3.222348213195801,-0.3859795928001404,1.1922008991241455,0.025660991668701172
220,1.4416383816514977,-0.17481265066462423,2.689936329197472,0.9765567779541016,0.17392364144325256,-0.1268361359834671,-3.107032299041748,-0.3206789791584015,-5.9980974197387695,0.9959011077880859,1.3737295866012573,-0.21032202243804932
221,1.5398557710058904,-0.7801014341389139,3.070968854734587,0.7105020880699158,0.7033514976501465,-0.021990347653627396,-3.4163496494293213,-1.5345332622528076,-4.303656578063965,1.0227742195129395,-0.07854986190795898,-0.7992224097251892
222,1.6725747089672511,-1.0595176545497944,-2.862442096102697,0.48676106333732605,0.8721195459365845,0.04971352964639664,-0.10728181153535843,-0.5756498575210571,-1.6519169807434082,0.7460728883743286,-1.000110149383545,-0.4127049446105957
223,1.813428695560471,-1.1302167342590288,-2.652439214508162,0.4139723777770996,0.904504656791687,0.10246168822050095,-1.2162160873413086,0.4781358242034912,-0.6196194887161255,0.6558213233947754,-1.050287127494812,-0.38691604137420654
224,1.7920938352193205,-1.0215804852842103,-2.6977029172904676,0.5092884302139282,0.8529341220855713,0.11458083242177963,0.9151477813720703,-1.5068422555923462,2.286135673522949,0.8614848852157593,-0.3735487461090088,-0.8338801860809326
225,1.4795870116605998,-0.837161770769534,3.1132201165953317,0.6667903065681458,0.7427456974983215,-0.060986701399087906,4.873529434204102,3.0974538326263428,3.0906710624694824,1.397800087928772,0.1521517038345337,-0.4697139859199524
226,1.490455559772895,-0.2676853599410066,2.8220742586704755,0.961275041103363,0.2644999325275421,-0.07739616930484772,1.4106308221817017,-0.05359267443418503,6.212121486663818,0.5556470155715942,1.0679128170013428,-0.4053614139556885
227,1.5038188409230133,0.26867300766148927,2.6868789229884125,0.9619623422622681,-0.2654522955417633,-0.06452633440494537,2.144940137863159,0.5950098633766174,4.2924604415893555,-0.22674810886383057,1.1167248487472534,-0.12385863065719604
228,1.616324309680812,0.6123133288784102,2.4938019356950476,0.8174725770950317,-0.5747620463371277,0.037243615835905075,1.0917093753814697,-0.11456269770860672,2.187875270843506,-0.5604231357574463,1.31797194480896,0.09273076057434082
229,1.598098292673063,0.6393498874499742,2.529148074930891,0.8021849989891052,-0.596673846244812,0.021906670182943344,-1.4292707443237305,-0.15504685044288635,-1.7947134971618652,-0.6169431209564209,1.3995301723480225,0.07785534858703613
230,1.448652592787859,0.22074531929944805,2.7872353384423434,0.9684650301933289,-0.21895691752433777,-0.11888373643159866,-3.0352623462677,0.17921876907348633,-5.671709060668945,0.37032586336135864,1.3476648330688477,-0.14518487453460693
231,1.4900635932683628,-0.5324578623965134,3.072759845969596,0.8587557077407837,0.5076524615287781,-0.06948071718215942,-3.8222904205322266,-0.554226279258728,-7.636532306671143,1.7611629962921143,0.9957044124603271,-0.7627946734428406
232,1.6031679305144333,-1.1136647030774032,-2.943025948193541,0.44114524126052856,0.8973222374916077,0.014285569079220295,-0.19200995564460754,-0.2869630455970764,-3.6324007511138916,1.4515855312347412,-1.0724167823791504,-0.5593905448913574
233,1.5769427073634021,-1.216698711421827,-2.8655763866340522,0.3467373549938202,0.9379597902297974,0.002131206449121237,-1.6783978939056396,-1.6456243991851807,-0.3349253535270691,0.6444430351257324,-0.9732381701469421,0.006947755813598633
234,1.6488378766784644,-1.190488754312176,-2.8219275290394346,0.37007656693458557,0.9285504817962646,0.028940126299858093,0.781902015209198,0.9046871662139893,2.0202109813690186,1.2960153818130493,-0.7464519739151001,-0.520868182182312
235,1.466186383371847,-0.8687492426508511,-3.0386448300427893,0.64225172996521,0.7635217905044556,-0.06743207573890686,1.9166827201843262,1.0790983438491821,3.500767469406128,1.0273802280426025,0.18557482957839966,-0.3077205419540405
236,1.4654780298522134,-0.41222025717956395,3.0297411232849942,0.9111568331718445,0.40064460039138794,-0.09631787240505219,2.0426254272460938,0.3495166599750519,4.8463616371154785,0.5774906277656555,0.7397667765617371,-0.4762681722640991
237,1.4635242472959114,0.05751348586636591,2.872034562258816,0.9926078915596008,-0.057481784373521805,-0.10688943415880203,2.417870044708252,0.5729832649230957,4.075920581817627,-0.0865868330001831,0.8581409454345703,-0.15225058794021606
238,1.5568073539931027,0.42648240109447577,2.6861184462921632,0.9103374481201172,-0.4136708676815033,-0.012735516764223576,1.300021767616272,-0.09388120472431183,2.928070068359375,-0.4838085174560547,1.0236866474151611,2.4974346160888672e-05
239,1.5493555978162785,0.5897420974152057,2.6284828812968666,0.8308931589126587,-0.5561466813087463,-0.01781768538057804,-0.2980641722679138,-0.42394083738327026,-0.15400709211826324,-0.7789064645767212,1.2349644899368286,0.24692833423614502
240,1.4616153646082992,0.28051423407795956,2.8169106785804185,0.9551916122436523,-0.27684980630874634,-0.10470511764287949,-3.7109150886535645,0.24943971633911133,-5.719965934753418,-0.20288759469985962,1.3601933717727661,0.06812984496355057
241,1.4589733779041734,-0.4326535459909901,3.0911101012896145,0.9021862149238586,0.4192813038825989,-0.10130774229764938,-3.8642842769622803,-1.3397353887557983,-6.879898548126221,1.5585681200027466,1.2501370906829834,-0.6453200578689575
242,1.546032489884412,-0.9190028709289774,-2.8370070070220823,0.6064272522926331,0.7949971556663513,-0.015020536258816719,-1.9379398822784424,-1.647074580192566,-2.639171838760376,0.7919796705245972,-0.5292195677757263,-0.6626527905464172
243,1.699071585115593,-1.0753542709106916,-2.5504196072735823,0.47151461243629456,0.8797586560249329,0.060817599296569824,-2.267960786819458,-0.49217551946640015,-1.3188507556915283,0.5487490892410278,-0.6771677136421204,-0.22739779949188232
244,1.9578359089119621,-1.160424760142517,-2.301089554012301,0.3694401979446411,0.9169726371765137,0.15058326721191406,0.9390864372253418,0.5151605606079102,0.507736086845398,1.1955622434616089,-1.1234545707702637,-0.8152103424072266
245,1.6161808193939666,-1.0065790604937896,-2.6609065951489086,0.5342041254043579,0.8450074195861816,0.024261241778731346,2.5784385204315186,-0.06736429780721664,2.2764596939086914,0.9038147330284119,-0.2009490728378296,-0.5818021297454834
246,1.4455237040534448,-0.663126056519011,-3.114801142426337,0.7818962335586548,0.6155834197998047,-0.09846580773591995,2.9243521690368652,2.3325438499450684,4.488728046417236,1.1940102577209473,0.5910511016845703,-0.5149680376052856
247,1.4999343981211466,-0.11346356513444071,2.9719701730558783,0.9910765290260315,0.11322026699781418,-0.0703473836183548,1.929669976234436,0.8001170754432678,5.5090012550354,0.30422693490982056,0.9511260390281677,-0.3884386420249939
248,1.5475186767020648,0.3855224715406367,2.818001342162019,0.9263511300086975,-0.37604331970214844,-0.021567173302173615,1.6309913396835327,0.036032166332006454,3.8925113677978516,-0.31828832626342773,1.172689437866211,-0.14075583219528198
249,1.6183182642264624,0.6670605735440912,2.669430120514943,0.7847566604614258,-0.6186793446540833,0.03732125833630562,0.8179291486740112,-0.26534292101860046,1.5055389404296875,-0.6366853713989258,1.2331812381744385,0.003679037094116211
250,1.5638579016200642,0.5689802860128346,2.678272311318475,0.8424305319786072,-0.5387732982635498,-0.005845234729349613,-1.3229985237121582,-0.8130143284797668,-3.4600441455841064,-0.5201497077941895,1.4327247142791748,0.19122427701950073
251,1.4413813127700743,-0.0495146663081984,2.9306213830751844,0.9904221296310425,0.049494437873363495,-0.12889589369297028,-3.200845718383789,-0.04069284349679947,-7.57282018661499,1.2934064865112305,1.7493489980697632,-0.4085797071456909
252,1.4848800695805948,-0.7540477056464622,-3.02831048644299,0.7262352705001831,0.6845948100090027,-0.0625493973493576,-4.0538811683654785,-2.023052215576172,-4.0450944900512695,1.3621742725372314,-0.28008437156677246,-0.6766015887260437
253,1.4941300981166887,-1.0420620927476851,-2.8360691762730506,0.5029589533805847,0.8634462952613831,-0.03863569349050522,0.5662805438041687,-0.3465240001678467,-0.6608387231826782,0.9880077838897705,-0.9946261644363403,-0.1170191764831543
254,1.7342680979897773,-1.1073372818024867,-2.540443771855263,0.44108492136001587,0.8945115208625793,0.0727541595697403,-0.9131617546081543,0.3914932906627655,0.48095908761024475,1.0994118452072144,-1.1096299886703491,-0.6676943302154541
255,1.7149483013757978,-0.9480529359415001,-2.5674682571842626,0.5772162079811096,0.8122813701629639,0.08378802984952927,0.5059921145439148,-0.32513999938964844,1.9491335153579712,0.8591393232345581,-0.17696642875671387,-0.7536946535110474
256,1.5384633339096767,-0.749641961163177,-2.9927699288954472,0.7315503358840942,0.6813767552375793,-0.023661458864808083,3.259627103805542,2.0263869762420654,3.1045289039611816,0.9386613965034485,0.15907734632492065,-0.5861560106277466
257,1.4889741892364274,-0.31240347009069913,2.9977833666553457,0.9484140276908875,0.3073466718196869,-0.07777490466833115,2.7127022743225098,0.48804137110710144,4.7661566734313965,0.19681912660598755,0.528667151927948,-0.43452370166778564
258,1.5069238556302116,0.16803145794732022,2.805184912113488,0.983905553817749,-0.16724185645580292,-0.06293007731437683,2.0230038166046143,0.13934817910194397,3.790510416030884,-0.22795450687408447,1.0807092189788818,-0.22872638702392578
259,1.560709239629927,0.42866435844083045,2.6459584193403147,0.9094755053520203,-0.4156563878059387,-0.009174269624054432,1.424380898475647,-0.30208805203437805,1.2235488891601562,-0.5751096606254578,1.0400307178497314,-0.07706844806671143
260,1.5244368480292003,0.39573855994990065,2.579778421869453,0.9217206835746765,-0.3854897618293762,-0.04276112839579582,-0.47081804275512695,-0.996139407157898,-1.8075659275054932,-0.5986921787261963,0.9899362325668335,0.22069388628005981
261,1.4182067611854237,0.02929804545925419,2.7296116311569376,0.9879566431045532,-0.029293853789567947,-0.15193289518356323,-3.7569799423217773,-0.23246027529239655,-4.925950050354004,0.15744435787200928,1.2033966779708862,0.13456839323043823
262,1.5025807799064745,-0.6624010176891866,3.0643336906297747,0.7866838574409485,0.6150118708610535,-0.05374746397137642,-2.5256216526031494,-0.6935821175575256,-6.784561634063721,1.3927899599075317,0.6114895343780518,-0.8563172221183777
263,1.6599108684563186,-1.0907853966391963,-2.9968724483517444,0.4599563777446747,0.8869898915290833,0.04109765216708183,-0.3039464056491852,-0.9611791372299194,-0.7289428114891052,1.1964309215545654,-1.0744593143463135,-0.6118526458740234
264,1.7334193448653796,-1.1042047829464274,-2.750678593399199,0.4439097046852112,0.8931067585945129,0.0728331208229065,-1.0431456565856934,0.46018338203430176,-1.4605910778045654,0.5405721664428711,-0.6760810017585754,-0.2691831588745117
265,1.7271332652450204,-1.14788490972471,-2.8506450052080194,0.4054116904735565,0.9118978977203369,0.06390228867530823,1.3373879194259644,0.3224000036716461,1.2146587371826172,1.0867910385131836,-0.7785208821296692,-0.5315688848495483
266,1.459411376799121,-0.9098958578866705,-3.134724393802947,0.6100240349769592,0.7894397974014282,-0.06822989881038666,1.9914180040359497,1.8599231243133545,2.270613431930542,0.9917061924934387,0.247059166431427,-0.19841748476028442
267,1.524815161963913,-0.579467059639242,2.815903568401565,0.8358702659606934,0.5475780963897705,-0.03846139833331108,1.9158827066421509,1.823616623878479,5.625203609466553,1.3928894996643066,0.6041553020477295,-0.7104094624519348
268,1.4837099606991315,0.09619932948124595,2.7107693669127246,0.9916044473648071,-0.09605102241039276,-0.08657419681549072,2.122939109802246,-0.6493759751319885,5.940104007720947,0.13817167282104492,1.2590606212615967,-0.2643321752548218
269,1.586790958197811,0.5508663143965968,2.4941843873729903,0.8519623875617981,-0.5234255790710449,0.013627986423671246,2.142796039581299,0.551630437374115,3.334934711456299,-0.3587830662727356,1.3646578788757324,-0.03869819641113281
270,1.637330426820039,0.763030602984523,2.3865437159585907,0.721145749092102,-0.6911149621009827,0.04805171117186546,-0.23737643659114838,-0.7399320006370544,0.8438984155654907,-0.773819088935852,1.239607334136963,0.10229314118623734
271,1.473478602848588,0.5881463300638566,2.532575648022308,0.8280340433120728,-0.5548197627067566,-0.08083774894475937,-2.775515079498291,-0.40442386269569397,-4.5292649269104,-0.5397650003433228,1.4914195537567139,0.2587704658508301
272,1.3705030656263448,-0.12779481147826222,2.822642662506491,0.9720167517662048,0.127447247505188,-0.19733433425426483,-4.218680381774902,-0.438069224357605,-8.154922485351562,1.679243803024292,2.104166030883789,-0.6642227172851562
273,1.5162496529147946,-0.8872094628603278,-3.015118041725249,0.6306387186050415,0.7753123044967651,-0.03443340212106705,-3.309633493423462,-1.4396857023239136,-4.150878429412842,1.502189040184021,-0.47694194316864014,-1.3312435150146484
274,1.489915009587311,-1.0360585381721752,-2.8639549951127337,0.5079495906829834,0.8604022860527039,-0.041173454374074936,-3.2453696727752686,-1.526569128036499,-0.7951877117156982,0.18876677751541138,-0.7913714647293091,0.23265600204467773
275,1.9436822740976718,-1.0993416049797626,-2.4194316239971094,0.4229709506034851,0.8909085392951965,0.1654607355594635,-0.29289335012435913,0.244835764169693,1.2086598873138428,1.1187922954559326,-1.0242247581481934,-1.0169163942337036
276,1.685357800147511,-0.926672645163567,-2.6512431241470633,0.5965616106987,0.7996262907981873,0.06864354014396667,1.7928657531738281,-1.591557264328003,2.7146360874176025,0.7765005230903625,-0.27150440216064453,-0.5881748199462891
277,1.4571947145240303,-0.6991605839415401,-3.0033372457428564,0.760449230670929,0.6435754299163818,-0.08676180988550186,4.203070640563965,2.499321460723877,1.876105546951294,0.920306384563446,0.3381902575492859,-0.5313259363174438
278,1.4340310832040077,-0.2856798415760347,2.9235742916350738,0.9505109190940857,0.28180980682373047,-0.13081349432468414,1.9647303819656372,0.1329231560230255,5.193862438201904,0.573216438293457,0.685643196105957,-0.26213085651397705
279,1.4100149261428518,0.2064862374515295,2.7752606063488465,0.9661338329315186,-0.20502205193042755,-0.15668885409832,2.5497565269470215,0.37429749965667725,3.6914377212524414,-0.22603678703308105,0.9939014315605164,0.07371151447296143
280,1.484157780342834,0.5026775896476154,2.6369194206502495,0.8730089068412781,-0.48177361488342285,-0.07582604140043259,0.6224538087844849,-0.24666886031627655,1.8149101734161377,-0.6049272418022156,1.0192186832427979,0.17200219631195068
281,1.4313599726434714,0.523365567032162,2.6814880095402733,0.8577356934547424,-0.4997980296611786,-0.1203807145357132,-1.5808980464935303,0.29784393310546875,-1.632519245147705,-0.5850610733032227,1.192760705947876,0.387440025806427
282,1.3740680718164615,0.08812487101784412,2.9365530853743356,0.9769056439399719,-0.08801085501909256,-0.19470325112342834,-4.232952117919922,0.5002966523170471,-6.489896297454834,0.4173508882522583,1.5239697694778442,-0.17439161241054535
283,1.4277666395352282,-0.6017686400101503,-3.0095271432420705,0.8159180283546448,0.5661013126373291,-0.11750286817550659,-4.804525375366211,-1.1104463338851929,-4.629976749420166,1.155532717704773,0.2626644968986511,-0.6760457158088684
284,1.562047856201354,-0.8709980221429019,-2.6465870070509685,0.6440388560295105,0.7649720907211304,-0.005634498782455921,-1.0403367280960083,-1.520705223083496,-0.3653218150138855,0.628986656665802,-0.7786744832992554,-0.4280049800872803
285,1.7893399719619874,-0.908747439702823,-2.270935592742784,0.6001125574111938,0.7887343764305115,0.1332794427871704,-3.0835726261138916,0.9169468283653259,-1.4241775274276733,0.4210819602012634,-0.4539564251899719,-0.5921570062637329
286,2.0408169816934816,-0.9384730493323918,-2.0350886896204172,0.5269292593002319,0.8066565990447998,0.2676757872104645,0.6699281930923462,-0.2600702941417694,0.44876936078071594,0.944002628326416,-0.6290292143821716,-1.1496186256408691
287,1.6887656379465263,-0.8914927854165112,-2.4149547576715347,0.6238847374916077,0.7780104875564575,0.07394258677959442,3.590771198272705,0.33971649408340454,1.6337666511535645,1.0438092947006226,-0.12093651294708252,-0.5104508399963379
288,1.4581126792398718,-0.597994402787989,-2.9380276172375295,0.8212249875068665,0.5629860758781433,-0.09293229877948761,3.419759511947632,1.6946824789047241,3.784390687942505,0.5869324207305908,0.33456647396087646,-0.3848661780357361
289,1.4566940442972003,-0.13200329377924774,3.0725533385947013,0.9848541617393494,0.13162027299404144,-0.11286434531211853,2.639307975769043,0.47416725754737854,4.558523654937744,0.12046200037002563,0.7818318605422974,-0.23044317960739136
290,1.5134241328198852,0.29336177777018985,2.9097475098853454,0.9557020664215088,-0.2891719937324524,-0.054890960454940796,1.4044649600982666,0.5068102478981018,3.2164242267608643,-0.35833579301834106,1.0515774488449097,-0.103129081428051
291,1.5566076766586199,0.4917357192493592,2.812522100237712,0.8814259171485901,-0.47215667366981506,-0.012507082894444466,0.2955590784549713,-0.46265339851379395,0.605953574180603,-0.6750507950782776,1.0625802278518677,0.048334717750549316
292,1.4704577342943466,0.32985697848220746,2.8533991913379095,0.9413300156593323,-0.323907732963562,-0.09476998448371887,-1.3450595140457153,-0.8110976815223694,-3.4251885414123535,-0.3038942217826843,1.1503695249557495,0.18482734262943268
293,1.403745936076012,-0.22977173378846436,3.0946233701803108,0.9601637721061707,0.22775526344776154,-0.16190455853939056,-3.55588436126709,-0.4699627459049225,-6.729928493499756,1.048487901687622,1.3386509418487549,-0.5455081462860107
294,1.4655570603424302,-0.8474266708615817,-2.959444424557236,0.6582522392272949,0.7495795488357544,-0.06953086704015732,-2.5290136337280273,-0.6310417652130127,-3.6072871685028076,1.004650592803955,-0.6569892168045044,-0.462772011756897
295,1.5809345358360127,-0.9934576734735271,-2.668225645155419,0.5457675457000732,0.8379181623458862,0.005533295217901468,-1.5102579593658447,-1.516836404800415,-0.13111886382102966,0.4829646348953247,-0.6789065003395081,-0.1707097291946411
296,1.7942140006866423,-1.0459596138248923,-2.4123737870232778,0.4886181056499481,0.865405797958374,0.11101929098367691,-0.18425290286540985,0.6237066388130188,-0.042609669268131256,0.8468005657196045,-0.8945805430412292,-0.6539881229400635
297,1.7310741566034085,-0.9497593815276154,-2.5092737829503977,0.5744207501411438,0.8132755160331726,0.09286347031593323,0.594804584980011,-0.23576852679252625,1.7059465646743774,0.8032189607620239,-0.22512555122375488,-0.6021865606307983
298,1.5060786730421043,-0.7989940078846521,-2.7330018323635454,0.6959680318832397,0.7166548371315002,-0.04510440677404404,2.413884401321411,1.240722417831421,0.5020572543144226,0.44650328159332275,0.010334908962249756,-0.18362486362457275
299,1.4790083440485449,-0.6342122948438659,3.133316740343355,0.802147626876831,0.5925431847572327,-0.07383498549461365,2.1160027980804443,1.8404215574264526,3.505263090133667,0.9178229570388794,0.06645339727401733,-0.39862293004989624
300,1.4612183115843236,-0.16008328762115037,3.002236711328293,0.9812930822372437,0.15940043330192566,-0.10796060413122177,2.312401294708252,0.27411919832229614,4.688908100128174,0.06280481815338135,0.6692585945129395,-0.377848744392395
301,1.5438356748702093,0.25266955073543884,2.807159912094638,0.9678965210914612,-0.24998962879180908,-0.02610144577920437,1.663975477218628,0.8818336129188538,3.1283788681030273,-0.29896658658981323,0.9330645799636841,-0.1797395944595337
302,1.5606732199214675,0.4880846299898647,2.7360175258635016,0.8831875324249268,-0.4689350426197052,-0.008940907195210457,-0.023928847163915634,-0.9039510488510132,0.9376786351203918,-0.6576777696609497,1.1069812774658203,-0.017548322677612305
303,1.4656760365408719,0.35100013056543766,2.79116484301098,0.9338458180427551,-0.3438371419906616,-0.09852933138608932,-1.305726408958435,-0.5404808521270752,-3.292620897293091,-0.3567431569099426,1.1786302328109741,0.20549345016479492
304,1.4007523831337514,-0.2182990214864725,3.0401819555268275,0.9621869921684265,0.21656933426856995,-0.16520948708057404,-3.875866413116455,-0.48045623302459717,-6.882366180419922,1.1258258819580078,1.47506582736969,-0.46336108446121216
305,1.471036530392695,-0.8822960304005842,-2.9694082778509365,0.6322207450866699,0.7721997499465942,-0.06328027695417404,-3.1327216625213623,-0.8781537413597107,-4.097099304199219,1.2043728828430176,-0.560377299785614,-0.5281655788421631
306,1.5846118924619843,-1.0517129234416707,-2.6892577792281047,0.4960373640060425,0.8682742714881897,0.00685347244143486,-1.1175237894058228,-1.3120555877685547,0.12273403257131577,0.6261550784111023,-0.8335756659507751,-0.18109357357025146
307,1.8413581151173066,-1.0905772960937894,-2.383861250333135,0.44516730308532715,0.8868937492370605,0.12347295880317688,-0.24401406943798065,0.7870541214942932,-0.3615685701370239,0.7471544742584229,-0.9911417961120605,-0.735152006149292
308,1.717514031434534,-1.0046601751983169,-2.5618048226789067,0.5306123495101929,0.8439797163009644,0.07841368019580841,1.184128999710083,-0.3217650353908539,2.07222318649292,0.9050565958023071,-0.37739652395248413,-0.709669828414917
309,1.456841917520744,-0.7945568960085858,-2.9961873836898403,0.6960569620132446,0.713553249835968,-0.07966388761997223,4.107818603515625,2.7198610305786133,2.244915008544922,1.1228821277618408,0.3531275987625122,-0.5202659368515015
310,1.471854755311993,-0.337365003487926,2.978912191627449,0.9390150308609009,0.33100178837776184,-0.09321198612451553,2.1547553539276123,0.4301883578300476,5.836309909820557,0.6100265979766846,0.7267679572105408,-0.6007882356643677
311,1.4895126555139184,0.24767903591240595,2.817541478074015,0.9662830233573914,-0.2451544851064682,-0.0787164717912674,2.164907455444336,0.1908448487520218,4.98099422454834,-0.09367871284484863,1.219840168952942,-0.2294805645942688
312,1.5744966030155074,0.6229749577404564,2.637519281449866,0.8121405839920044,-0.5834538340568542,0.0030051583889871836,1.3482502698898315,-0.282131552696228,2.139739751815796,-0.5539772510528564,1.262042760848999,-0.061034321784973145
313,1.5652068152941119,0.6620243063466831,2.5739343045321093,0.7887369990348816,-0.6147148013114929,-0.0044087003916502,-0.4485336244106293,-0.690157949924469,-1.5068196058273315,-0.7119854092597961,1.1958305835723877,0.13142287731170654
314,1.4497079771111727,0.32860522640082196,2.6747939523976973,0.9395629167556763,-0.3227232098579407,-0.11432944983243942,-1.938469648361206,-0.691013753414154,-5.283317565917969,-0.04637444019317627,1.3341519832611084,0.05326378345489502
315,1.4216789614708423,-0.4122158996016413,2.930760338037608,0.9060675501823425,0.400640606880188,-0.13612082600593567,-4.495007514953613,-0.7297717332839966,-7.540287017822266,1.8899683952331543,1.481027603149414,-0.7129086852073669
316,1.5613864872116796,-0.9971708623310795,-3.0491125180457526,0.5426569581031799,0.8399390578269958,-0.005106465891003609,0.8699771761894226,-1.1398311853408813,-1.331121563911438,1.7013158798217773,-1.5297887325286865,-1.1990714073181152
317,1.5073654230360936,-0.9701303542270142,-2.814003064074029,0.564055323600769,0.824959397315979,-0.03582660108804703,-3.843144655227661,-0.6237252950668335,-0.6984446048736572,0.10189926624298096,-0.7547231912612915,0.16764724254608154
318,1.8949119511417314,-1.0330722773903667,-2.508881106172011,0.48551467061042786,0.8588765859603882,0.16311509907245636,0.43225687742233276,0.6811667084693909,0.15854518115520477,0.823063850402832,-0.8725942373275757,-1.0018755197525024
319,1.6675719261750206,-0.9402274018590668,-2.774531235380198,0.5868454575538635,0.8076921701431274,0.05697028338909149,1.4475141763687134,-0.19116400182247162,1.652398705482483,0.7504348158836365,-0.186293363571167,-0.5061279535293579
320,1.4310275054877923,-0.7717567221991267,-3.132467791426656,0.7096977829933167,0.6973953247070312,-0.09984463453292847,3.7990834712982178,1.6336300373077393,1.4983839988708496,0.8213538527488708,0.16454315185546875,-0.37889987230300903
321,1.402935487631154,-0.39728138570706617,2.7854092521725557,0.9091553092002869,0.38691288232803345,-0.15406131744384766,3.043839454650879,1.2015008926391602,4.493564605712891,0.4786924719810486,0.6278270483016968,-0.40599727630615234
322,1.4142663979830763,0.074553822850153,2.6138986058545135,0.9850304126739502,-0.07448478043079376,-0.1554584801197052,2.0709145069122314,0.0878438949584961,3.7992172241210938,-0.31687843799591064,0.7578496336936951,-0.06667901575565338
323,1.4741060222822762,0.40297321848596196,2.4750588733943064,0.9156023859977722,-0.39215514063835144,-0.08880680054426193,1.359691858291626,0.14272654056549072,2.27078914642334,-0.5547625422477722,0.982792317867279,0.08940190076828003
324,1.4734399445409012,0.4812986618939609,2.451939510237506,0.8821971416473389,-0.46293067932128906,-0.08615990728139877,-0.8808887004852295,-0.3430889844894409,-0.9594279527664185,-0.6252543926239014,1.1137943267822266,0.22586935758590698
325,1.357810649406935,0.1823543218249584,2.6187554522672185,0.9611983895301819,-0.1813453584909439,-0.20787429809570312,-3.933410167694092,-0.8081149458885193,-4.632679462432861,-0.06878799200057983,1.3563331365585327,0.13885876536369324
326,1.3633675890719157,-0.4972023701288877,2.943478106101021,0.8600796461105347,0.47696852684020996,-0.18100878596305847,-4.946906566619873,-0.9555784463882446,-5.7646164894104,1.5077030658721924,1.0107176303863525,-0.8184266686439514
327,1.435560159814416,-0.8611004832492996,-3.03786696130291,0.6456537842750549,0.7585601210594177,-0.08785197138786316,-0.03833208978176117,-2.1238081455230713,-0.6928949356079102,0.8924016356468201,-0.8209989666938782,-0.7800679802894592
328,1.4982265054717907,-0.8648958912368133,-2.7430598362848264,0.6470118761062622,0.7610277533531189,-0.04703613370656967,-4.092034339904785,-0.03891575336456299,-0.5364646315574646,-0.12156021595001221,-0.4555925726890564,0.06694889068603516
329,1.9651992394658764,-0.9821348112453384,-2.320577397495419,0.5126199722290039,0.8316845893859863,0.21335814893245697,0.9088343381881714,1.6039752960205078,-1.0710618495941162,0.9976797699928284,-0.878483235836029,-1.4159033298492432
330,1.6683781069222567,-0.9011211535144594,-2.6002006325578235,0.6177784204483032,0.7840233445167542,0.060475997626781464,1.1372439861297607,-1.860981822013855,1.600946307182312,0.6322520971298218,-0.2726554870605469,-0.45288634300231934
331,1.4842229281464105,-0.773535659083465,-3.077866366610309,0.7127653360366821,0.6986691951751709,-0.06186114624142647,4.999508380889893,3.551327705383301,2.486058473587036,1.3091614246368408,0.20275896787643433,-0.6993540525436401
332,1.4582810513440794,-0.2813767327178301,2.8904266892954555,0.9545995593070984,0.2776784896850586,-0.10786259174346924,2.2283384799957275,0.07602975517511368,5.61928129196167,0.42709898948669434,0.7581796646118164,-0.44783198833465576
333,1.4923934931226839,0.24984465569271425,2.687285162746697,0.9659743905067444,-0.2472534477710724,-0.0758906900882721,2.5540409088134766,0.5555509924888611,4.16115665435791,-0.21283096075057983,1.0916290283203125,-0.06961710005998611
334,1.6065607454036968,0.5928521133926288,2.5130948073894737,0.8288201093673706,-0.5587286949157715,0.029654914513230324,1.0592576265335083,-0.18786606192588806,2.544313669204712,-0.4518212676048279,1.2131781578063965,-0.05773115158081055
335,1.5691733597189,0.6327079663667354,2.4946103079243613,0.8064282536506653,-0.5913307070732117,-0.0013088076375424862,-0.5130847692489624,-0.7963333129882812,-2.2942516803741455,-0.7550823092460632,1.224387288093567,0.13657796382904053
336,1.4465467146885043,0.23385862262556867,2.6694926151976843,0.9652802348136902,-0.2317328304052353,-0.12055671215057373,-4.36436128616333,-0.6267783641815186,-5.188986778259277,0.16731858253479004,1.4160284996032715,0.10404671728610992
337,1.425446421296446,-0.5295899623423216,3.099099058260347,0.8539140820503235,0.5051795244216919,-0.1249978318810463,-4.356301307678223,-0.663077175617218,-7.439289093017578,1.5848829746246338,1.126290202140808,-0.9982626438140869
338,1.4540965713020677,-1.0137459047807826,-3.052387546688195,0.5250891447067261,0.8488181829452515,-0.061557475477457047,1.0419576168060303,-2.2484517097473145,0.3069617748260498,1.357433557510376,-1.094850778579712,-0.5037959218025208
339,1.6272352035389837,-1.1028445412378685,-2.6608002296337743,0.45034101605415344,0.8924940228462219,0.02544376254081726,-2.394484043121338,2.216081380844116,-1.8454067707061768,0.701148271560669,-0.9477156400680542,-0.27753424644470215
340,1.9110708855455811,-1.0778955292154722,-2.5166307757046926,0.44605258107185364,0.8809639811515808,0.15792305767536163,0.5127120018005371,-0.44890138506889343,1.8179243803024292,1.0622787475585938,-0.628430962562561,-1.1658424139022827
341,1.4931284230231547,-0.8932207453814481,-2.937311235867102,0.6250160336494446,0.7790948748588562,-0.04864152893424034,3.700681447982788,1.4112104177474976,1.748788833618164,0.8103018999099731,0.12282150983810425,-0.3228641748428345
342,1.4071550646190156,-0.5668051066816637,2.8982661219886903,0.8323504328727722,0.5369395017623901,-0.13743585348129272,2.6910011768341064,1.5519410371780396,4.136748313903809,0.7522746920585632,0.4765644669532776,-0.4323425889015198
343,1.4334771425173296,-0.07324168510508647,2.720550955884544,0.9879307150840759,0.07317622005939484,-0.13652102649211884,2.5002849102020264,0.6026557087898254,4.733396053314209,0.0531611442565918,0.8178302645683289,-0.28338557481765747
344,1.4975762467998655,0.3403239456961702,2.571744086241384,0.9401208758354187,-0.33379247784614563,-0.06895900517702103,1.5976980924606323,0.34196749329566956,3.11963152885437,-0.4039880633354187,1.0363528728485107,-0.03509068489074707
345,1.5660570202670732,0.5569872040387971,2.454038497399009,0.8488420844078064,-0.5286312103271484,-0.004022953100502491,0.5443066358566284,-0.5155836343765259,0.9047214388847351,-0.5768846869468689,1.2207088470458984,0.08468091487884521
346,1.4517353921395049,0.4122575774081314,2.5295488581866183,0.909732460975647,-0.4006787836551666,-0.10882831364870071,-2.1177101135253906,-0.8878129720687866,-3.475024938583374,-0.3938937783241272,1.2130719423294067,0.22023272514343262
347,1.373750870223616,-0.16813328598843197,2.8203047554355143,0.9668210744857788,0.16734224557876587,-0.19301220774650574,-4.888862133026123,-0.2718682587146759,-6.911529064178467,0.9945284128189087,1.5460519790649414,-0.4351310729980469
348,1.5753823261967266,-0.8458635598845217,-3.014501818511401,0.6630781888961792,0.7485439777374268,0.0030408974271267653,-3.2858500480651855,0.09006746113300323,-4.791548728942871,1.1381303071975708,-0.6716854572296143,-1.1252180337905884
349,1.4699423093131705,-0.8951278401080169,-2.895208875674012,0.6222409009933472,0.7802890539169312,-0.0629691332578659,-1.7539104223251343,-3.293779134750366,0.5132371783256531,0.19457727670669556,-0.2676701545715332,0.13776767253875732
350,1.7714624539118895,-1.0005214959838882,-2.497773591944752,0.5290306806564331,0.8417526483535767,0.10760675370693207,-1.7902486324310303,1.4543771743774414,-1.3060956001281738,0.7202216982841492,-0.7007613182067871,-0.7690752744674683
351,1.7567399756041522,-0.9622521883255952,-2.51703738295442,0.5618194341659546,0.8204811811447144,0.10568762570619583,1.0608103275299072,-1.7641514539718628,1.8650532960891724,0.8837067484855652,-0.25042790174484253,-0.6880545616149902
352,1.4165382454885187,-0.78641050004322,-2.9258195950160264,0.6980027556419373,0.7078222632408142,-0.1085348129272461,3.1383514404296875,2.2809855937957764,1.8522895574569702,0.9245100617408752,0.1514459252357483,-0.047699928283691406
353,1.3954025434754818,-0.46536727196824257,3.08747860679628,0.879946231842041,0.4487510323524475,-0.15593944489955902,2.5789167881011963,0.3913990259170532,3.408322811126709,0.09510564804077148,0.2258705496788025,-0.2775779962539673
354,1.402231233087501,-0.13294757673399865,2.85049928554011,0.9771271347999573,0.1325562745332718,-0.16628748178482056,2.6948955059051514,1.3067554235458374,2.4817049503326416,-0.3087616562843323,0.325359970331192,0.13586145639419556
355,1.5316379133112588,0.15649529289338007,2.7729015605384997,0.9870223999023438,-0.15585729479789734,-0.038669995963573456,-0.43434417247772217,0.7890216708183289,3.1113362312316895,-0.34918975830078125,0.6818583011627197,-0.13224369287490845
356,1.4819866979046623,0.3359105375071678,2.884816956218277,0.9403899312019348,-0.32962894439697266,-0.08373594284057617,-0.8967546224594116,-0.18240466713905334,-0.5330447554588318,-0.655630350112915,1.1348505020141602,0.05903196334838867
357,1.4595288476599986,0.059081539504681646,3.0002968266344516,0.9920822381973267,-0.05904717370867729,-0.11084429919719696,-2.647446632385254,-0.5437345504760742,-4.557124614715576,-0.059785425662994385,1.0573687553405762,-0.07311564683914185
358,1.4264894520690656,-0.5106105954848715,-3.116197645134785,0.8633779883384705,0.48871004581451416,-0.12546350061893463,-2.2162795066833496,-0.4516496956348419,-6.109374046325684,0.9851327538490295,0.7151778936386108,-0.29381752014160156
359,1.6395959218493197,-1.035335063521346,-2.833978654990167,0.5090307593345642,0.860033392906189,0.03507646918296814,-1.4057703018188477,0.40437257289886475,-3.5284945964813232,1.152437686920166,-0.8914206624031067,-0.7421687841415405
360,1.5704618329357942,-1.096587225514518,-2.81961146396838,0.45663517713546753,0.8896541595458984,-0.00015274166071321815,-0.39343154430389404,-1.2086737155914307,-0.34921208024024963,0.44335880875587463,-0.6807764768600464,-0.05824267864227295
361,1.5903504014188434,-1.0811799983543553,-2.8466422735286256,0.47019729018211365,0.8825133442878723,0.009195445105433464,0.226462721824646,0.6562380790710449,1.383051872253418,0.822771430015564,-0.6666778326034546,-0.3401890993118286
362,1.4752598359297562,-0.8694012046641412,-2.9809143798315243,0.6423417925834656,0.7639426589012146,-0.06155446544289589,1.6896145343780518,-0.06301490217447281,2.2646279335021973,0.713493287563324,0.12237942218780518,-0.301024854183197
363,1.418605895377172,-0.6173673722272045,3.0094893553681237,0.8059802055358887,0.5788905024528503,-0.12361836433410645,2.184619903564453,1.8978424072265625,3.1595449447631836,0.8965495824813843,0.3141911029815674,-0.27541422843933105
364,1.4401414814798832,-0.17518561876692812,2.8936991769832416,0.976301372051239,0.17429092526435852,-0.1282893270254135,1.7153587341308594,-0.26915156841278076,4.594017505645752,0.07098555564880371,0.6534831523895264,-0.2109440416097641
365,1.4407347452452637,0.2256072202766535,2.7845700135356624,0.966426432132721,-0.223698228597641,-0.12640853226184845,1.6007169485092163,0.2595199942588806,2.7345004081726074,-0.46912723779678345,0.8767744302749634,0.11291974782943726
366,1.4762583860980456,0.40189052198060393,2.7353029789457057,0.9162135124206543,-0.39115893840789795,-0.08687590807676315,-0.19053953886032104,-0.15268675982952118,0.5614740252494812,-0.7001338601112366,0.923293948173523,0.19844818115234375
367,1.42441537131824,0.2601238492957769,2.8329713675676302,0.9560233354568481,-0.2572002410888672,-0.14095179736614227,-1.9822392463684082,-0.01965266838669777,-3.1401185989379883,-0.4384910464286804,1.0249462127685547,0.22653836011886597
368,1.4297042383611323,-0.2614375594062325,3.113828565197295,0.9564201831817627,0.25846952199935913,-0.13584594428539276,-4.651560306549072,-1.388508826494217e-05,-5.966764450073242,0.8861548900604248,1.2699575424194336,-0.45991820096969604
369,1.5161217910431073,-0.8010812944890363,-2.9060719613220836,0.6948906779289246,0.7181090116500854,-0.038030728697776794,-2.060382604598999,-0.9405518174171448,-3.241295576095581,0.9790900349617004,-0.39131152629852295,-0.4641207456588745
370,1.660571130602791,-0.961594012694224,-2.60076156610499,0.5699091553688049,0.820104718208313,0.05130137875676155,-1.7854429483413696,-0.6674012541770935,-0.7245290875434875,0.4096897840499878,-0.723699688911438,-0.30046212673187256
371,1.8961017883912712,-1.0340035813083472,-2.340827884760397,0.484561949968338,0.859353244304657,0.1634369045495987,-0.3133847117424011,0.5584991574287415,-0.5403570532798767,0.6847190260887146,-0.9452755451202393,-0.6982879638671875
372,1.818107569307385,-0.9840581608573725,-2.4725059458974386,0.5368024110794067,0.8327510356903076,0.13553176820278168,1.0718719959259033,0.18188801407814026,1.5604466199874878,0.816118061542511,-0.4223048686981201,-0.6234315633773804
373,1.5363035207658766,-0.8209345283631275,-2.811115595448359,0.6811323761940002,0.7317830920219421,-0.023503487929701805,3.117797374725342,0.664850115776062,1.3388018608093262,0.5864152908325195,0.11826878786087036,-0.34965014457702637
374,1.4691206625899524,-0.6077063423491487,3.050628565656455,0.8167199492454529,0.5709859728813171,-0.08332788944244385,2.584362506866455,2.1436214447021484,3.1624395847320557,0.8223791122436523,0.3288094997406006,-0.45336949825286865
375,1.4422740538287013,-0.18513703812270924,2.8726245000967485,0.9748043417930603,0.18408122658729553,-0.1259784698486328,1.6667377948760986,-0.17042718827724457,4.079167366027832,-0.021755635738372803,0.6197060346603394,-0.1727123260498047
376,1.4691164765062914,0.18245077057451983,2.75132143182759,0.9783227443695068,-0.18144020438194275,-0.09981995820999146,2.0549538135528564,0.3938204050064087,2.9671857357025146,-0.35094237327575684,0.8428477048873901,-0.14082640409469604
377,1.5235179639339476,0.3849709812026655,2.6305735061529356,0.9257739186286926,-0.37553223967552185,-0.04380171373486519,0.7533278465270996,-0.16130222380161285,0.6535109281539917,-0.6067125201225281,0.979154646396637,0.0035795532166957855
378,1.4640731651541952,0.29896623151484636,2.6183343235567835,0.9502043724060059,-0.29453244805336,-0.10179558396339417,-0.6376462578773499,-0.8149586319923401,-2.1934573650360107,-0.40810537338256836,0.9709697961807251,0.26657527685165405
379,1.3934770415384814,-0.11079226822650727,2.8465971629250313,0.9782851338386536,0.11056574434041977,-0.17531006038188934,-4.811805248260498,-0.32737237215042114,-5.418239116668701,0.4797685742378235,1.3325647115707397,-0.21050848066806793
380,1.520540473667005,-0.7564745550381783,-3.087626471194478,0.7263420820236206,0.6863617897033691,-0.03653370216488838,-2.9753849506378174,-0.017577338963747025,-5.030776500701904,1.170249104499817,-0.11673593521118164,-0.7303425073623657
381,1.5919706980732233,-0.9874694821599417,-2.9152773231193025,0.5506802201271057,0.8346348404884338,0.011662050150334835,-0.11153477430343628,-1.6168700456619263,0.11125750839710236,0.5332583785057068,-0.6795902848243713,-0.25845766067504883
382,1.735983612751802,-1.0888215746823149,-2.690692310093866,0.4572204351425171,0.8860812783241272,0.07622154802083969,-0.8787733912467957,1.560594916343689,-1.7401132583618164,0.6470124125480652,-1.036853313446045,-0.4721412658691406
383,1.777716396932227,-1.0107590997080043,-2.6920800865145624,0.5198860764503479,0.8472353219985962,0.10913693159818649,0.2888281047344208,-1.8834010362625122,2.4621212482452393,0.7807731032371521,-0.4369264841079712,-0.7926543951034546
384,1.4999754530471816,-0.8243718577471978,-3.040625678174863,0.6773160696029663,0.7341213822364807,-0.0480484738945961,4.146615028381348,2.725107192993164,1.670408010482788,1.2072664499282837,0.262292742729187,-0.5142073631286621
385,1.447159863998763,-0.4155879961760125,2.8779237076228874,0.907895565032959,0.4037279486656189,-0.1128244549036026,2.1042325496673584,0.2628585696220398,5.192634582519531,0.6360802054405212,0.6303601264953613,-0.4062032699584961
386,1.4389402460367158,0.10997016965560243,2.6892117504400987,0.9853315353393555,-0.10974865406751633,-0.1306801587343216,2.5806171894073486,0.36581555008888245,4.548604965209961,-0.07989013195037842,0.9908673763275146,0.010807141661643982
387,1.50631551636476,0.5166574005570048,2.563240430553257,0.8676681518554688,-0.4939765930175781,-0.056025613099336624,0.8017315864562988,-0.16175825893878937,3.2192444801330566,-0.4987870454788208,1.1881446838378906,0.07395470887422562
388,1.4151276260035435,0.691538195875159,2.6065037539363547,0.7609520554542542,-0.6377227306365967,-0.11942262202501297,-1.0290583372116089,-0.5500832200050354,-0.616966962814331,-1.0373802185058594,1.2912108898162842,0.41844916343688965
389,1.3990918014911495,0.4252521025912731,2.661963757483669,0.897539496421814,-0.4125504493713379,-0.15564419329166412,-0.7332174777984619,0.4084894359111786,-3.9573819637298584,-0.044451117515563965,1.277052402496338,0.24560999870300293
390,1.3491819074920897,-0.3427647320072477,3.0905593975633634,0.918795645236969,0.3360922634601593,-0.20701861381530762,-6.025640964508057,-0.8473928570747375,-7.730578422546387,2.392971992492676,1.9564645290374756,-1.3814518451690674
391,1.5565142296261223,-1.0203545357262054,-2.8832245095205185,0.5230105519294739,0.8522934913635254,-0.007470195181667805,2.482872247695923,-2.1201117038726807,0.3566496968269348,2.421203374862671,-2.0256333351135254,-2.13004207611084
392,1.669386251077392,-1.05817634695148,-2.4878200818351544,0.4880804121494293,0.8714625239372253,0.048276327550411224,-3.342707395553589,2.859290599822998,-1.1066956520080566,0.4635339677333832,-1.3871638774871826,-0.307767391204834
393,1.941905404379153,-0.9655926794943837,-2.3058173261657355,0.5302000641822815,0.8223862648010254,0.2063218504190445,0.9505129456520081,-1.031071424484253,1.4098464250564575,0.6161317229270935,-0.7591996192932129,-1.3756945133209229
394,1.565397894742891,-0.8187583226765991,-2.8928781772779715,0.6831187605857849,0.7302981615066528,-0.003687805961817503,4.363739967346191,1.7646492719650269,3.960787534713745,1.7438069581985474,0.6116665601730347,-0.8549242615699768
395,1.3812389406485013,-0.26158960085738403,3.0235158337312673,0.9486773014068604,0.2586163878440857,-0.18201406300067902,3.9113807678222656,-0.465060293674469,5.170072555541992,0.4254683256149292,0.9951525926589966,-0.3869861960411072
396,1.4144128832805167,0.2971142094673447,2.697675166943149,0.9445170164108276,-0.29276207089424133,-0.14892281591892242,3.470345973968506,0.6280936002731323,4.646857261657715,-0.016050219535827637,1.185767412185669,0.13287056982517242
397,1.4916263316911373,0.6948071437572392,2.552412185101135,0.7657709121704102,-0.6402373313903809,-0.06075306236743927,0.5291470289230347,-0.1235966756939888,2.7268364429473877,-0.2834407091140747,1.5657896995544434,0.2573167681694031
398,1.4258041918407,0.727011497538597,2.6255400459379383,0.7393239736557007,-0.6646397113800049,-0.10795371979475021,-1.643347144126892,-0.01127016730606556,-2.2727861404418945,-0.5646108984947205,1.5787022113800049,0.4017922282218933
399,1.3140371979929912,0.1785108217462466,2.9323462973508962,0.9518482685089111,-0.17756426334381104,-0.2499118596315384,-4.933364391326904,0.4330020546913147,-6.841103553771973,0.6752727627754211,1.8683143854141235,-0.3005642592906952
400,1.4455548197627752,-0.6298674830706585,-2.9525741126891005,0.8017761707305908,0.5890376567840576,-0.10094399005174637,-5.452471733093262,0.37647122144699097,-5.016965389251709,1.6361052989959717,0.4189732074737549,-0.9839406609535217
401,1.6104968420841959,-0.9103091348390036,-2.6661804440654318,0.6130180358886719,0.7896934151649475,0.02434992603957653,-0.8650401830673218,-1.7817983627319336,-0.013433920219540596,0.46033090353012085,-0.6391350626945496,-0.3825805187225342
402,2.0188803033659823,-1.0422841680043509,-2.202575456611971,0.45446884632110596,0.863558292388916,0.21846050024032593,-1.121321439743042,1.3343348503112793,-0.5958283543586731,1.339552640914917,-1.2128015756607056,-1.2019200325012207
403,1.8735947007377332,-0.9426635257488396,-2.292917103021149,0.5609009861946106,0.8091261386871338,0.1752283126115799,1.8781113624572754,-1.3765383958816528,1.4978362321853638,0.8387877345085144,-0.3479292392730713,-0.899242639541626
404,1.4942411356100236,-0.8070704710850043,-2.7847360344951424,0.6895915865898132,0.7222641706466675,-0.0528951920568943,3.7510576248168945,1.8734638690948486,2.0735809803009033,0.908705472946167,0.049799978733062744,-0.3438791036605835
405,1.4058000088808613,-0.4192027057745743,3.1218551368302774,0.901008665561676,0.407032310962677,-0.15002702176570892,2.882361888885498,0.5330842137336731,4.7351603507995605,0.600700318813324,0.5746418833732605,-0.3667576313018799
406,1.4003244161157946,0.0894546790059741,2.926804352693623,0.981564462184906,-0.08933541923761368,-0.16896913945674896,2.647831678390503,0.3461396098136902,4.08743143081665,-0.12902528047561646,0.985194206237793,-0.030295386910438538
407,1.4720475000830682,0.4413190117203387,2.788814091744885,0.8997841477394104,-0.4271324574947357,-0.0891425684094429,1.0091484785079956,0.023286111652851105,2.32584285736084,-0.5144997239112854,1.072701334953308,0.0836646556854248
408,1.4507741660636142,0.5144605209733731,2.783835437363701,0.864295482635498,-0.49206528067588806,-0.10423561185598373,-0.6030736565589905,-0.31876176595687866,-1.3185656070709229,-0.6981883645057678,1.1167296171188354,0.2627286911010742
409,1.4024042448963379,0.1568369397991287,2.938132733006179,0.9737553596496582,-0.1561947613954544,-0.16554033756256104,-3.90968656539917,0.3844922184944153,-5.508621692657471,0.20736640691757202,1.4435635805130005,0.06420673429965973
410,1.4809925294629416,-0.5448445129711821,-2.967020723110144,0.8517615795135498,0.5182850956916809,-0.07669772207736969,-4.1149373054504395,-0.6919412612915039,-6.14599609375,1.2402793169021606,0.691752016544342,-0.867256760597229
411,1.6727117078490548,-0.9364992449260482,-2.5791999043703813,0.5895364880561829,0.8054884672164917,0.060291726142168045,-1.3038254976272583,-0.9049928188323975,-2.2168874740600586,0.7820608019828796,-0.7644728422164917,-0.6035504341125488
412,1.8636969228452294,-1.0312250548048871,-2.2977945280004017,0.49188700318336487,0.8579290509223938,0.14834053814411163,-2.038970708847046,-0.014304655604064465,-1.5808216333389282,0.49407491087913513,-0.6841315031051636,-0.4667609930038452
413,2.04373363636284,-1.0497207414994993,-2.141927370040561,0.4431703984737396,0.8672842383384705,0.2267555147409439,0.48321664333343506,-0.15115371346473694,1.3686374425888062,1.116796612739563,-0.5985312461853027,-0.9510596990585327
414,1.6666565242796845,-0.9246063241426569,-2.519112528247173,0.5993844270706177,0.7983837723731995,0.05763375386595726,2.993379831314087,0.28930073976516724,1.5254905223846436,0.7053945660591125,-0.022764265537261963,-0.45166146755218506
415,1.4740723675871794,-0.6797959470398938,-3.056073089755444,0.7740659713745117,0.6286343336105347,-0.07510508596897125,3.2914812564849854,2.0721380710601807,4.123353004455566,1.1000642776489258,0.39828217029571533,-0.5497728586196899
416,1.4188502885144483,-0.13972458816485614,3.0207404936941615,0.9788451790809631,0.13927039504051208,-0.14988693594932556,2.5279064178466797,-0.6416205763816833,5.1174750328063965,0.17799997329711914,0.9146541357040405,-0.2597810626029968
417,1.4210334265189515,0.32093046281395476,2.877898896651737,0.9383202195167542,-0.31544965505599976,-0.14158567786216736,1.9177058935165405,0.3898331820964813,3.3349082469940186,-0.3816491961479187,1.063878059387207,0.00993289053440094
418,1.461859319663227,0.5489055729359245,2.783641835277506,0.8480392098426819,-0.5217539072036743,-0.09275004267692566,0.7162537574768066,-0.5074152946472168,0.7483478784561157,-0.7028669714927673,1.2036232948303223,0.08388470858335495
419,1.4317954478850312,0.4089310296701033,2.7411151535832494,0.9086965322494507,-0.3976287245750427,-0.1271294504404068,-0.688138484954834,-0.7095359563827515,-3.226806163787842,-0.41052764654159546,1.2486114501953125,0.3795403242111206
420,1.367566244162604,-0.2026535446119227,2.972491743316132,0.9593769311904907,0.20126928389072418,-0.19770365953445435,-4.861878395080566,-0.011867278255522251,-7.305807590484619,1.2379192113876343,1.611566424369812,-0.24872273206710815
421,1.5592697022266144,-0.8899440606015411,-2.880146358553409,0.6294137239456177,0.7770365476608276,-0.007255336735397577,-3.388740062713623,-0.7314159870147705,-3.4517662525177,1.2498129606246948,-0.5124033689498901,-0.9198076725006104
422,1.6204962024716028,-0.9871260204880643,-2.680489599110278,0.5504099130630493,0.834445595741272,0.02737784944474697,-1.101729393005371,-1.4378271102905273,0.36199092864990234,0.3478597402572632,-0.6238285303115845,-0.19452261924743652
423,1.9000345175914488,-1.0222768893982086,-2.306569385311771,0.49341845512390137,0.8532974720001221,0.16858820617198944,-1.3124009370803833,0.8839776515960693,-1.2742687463760376,0.5615895986557007,-0.5541335344314575,-0.6538176536560059
424,1.9189094360802836,-1.0560628261585598,-2.354646905650145,0.4627736210823059,0.8704239726066589,0.16793668270111084,1.5792031288146973,-0.14509621262550354,1.339035987854004,1.0922342538833618,-0.40342873334884644,-0.7279800176620483
425,1.500214628401149,-0.936725721076313,-2.8198329951789796,0.5909539461135864,0.8056226372718811,-0.041779935359954834,3.1609675884246826,1.347769856452942,1.034354567527771,0.5728186368942261,-0.23280775547027588,-0.09046792984008789
426,1.4315502326814626,-0.6903038758170135,3.0891631048716994,0.7635896801948547,0.6367715001106262,-0.10701945424079895,1.7422183752059937,1.1859123706817627,3.436533212661743,0.7704680562019348,0.22747111320495605,-0.5135250091552734
427,1.3861764657471727,-0.2485323392926597,2.953004251342616,0.9528026580810547,0.24598166346549988,-0.1779324859380722,2.2654519081115723,0.08236585557460785,4.366900444030762,0.10899537801742554,0.6089529991149902,-0.2716067433357239
428,1.4014947606303931,0.15951281177386087,2.807991428492946,0.9731889963150024,-0.158837229013443,-0.16635487973690033,1.97803795337677,0.18134821951389313,2.874821662902832,-0.37801992893218994,0.9304589033126831,-0.03228408098220825
429,1.4111003724518583,0.3572762070393086,2.7075667488181048,0.9249319434165955,-0.3497237265110016,-0.14897648990154266,0.6312438249588013,-0.42936035990715027,0.3132005035877228,-0.6023460030555725,1.0754013061523438,0.23109933733940125
430,1.370884039204936,0.20703956810000868,2.7158859989990725,0.9591532349586487,-0.20556358993053436,-0.19434238970279694,-1.4498069286346436,-0.07752692699432373,-2.9077565670013428,-0.34634488821029663,0.9436311721801758,0.39241668581962585
431,1.3826509860103082,-0.284155634068877,2.9522718330484485,0.9429590702056885,0.2803470492362976,-0.179536834359169,-4.089752197265625,-0.19367831945419312,-5.7533135414123535,0.7390475869178772,1.2232081890106201,-0.3610820770263672
432,1.4893494667217226,-0.8274951151482224,-3.027282692658678,0.6744787096977234,0.7362385988235474,-0.05505596473813057,-2.7140696048736572,-1.2538384199142456,-2.7164769172668457,0.8178918361663818,-0.6103536486625671,-0.643445611000061
433,1.534741863253154,-0.9734119647722493,-2.862032801031685,0.5621163845062256,0.8268097043037415,-0.02027559094130993,-0.7678887844085693,-0.6736538410186768,-0.24217158555984497,0.3687766194343567,-0.6758238673210144,-0.21330595016479492
434,1.7244083322909942,-1.0671979686292803,-2.6386132630054764,0.47689807415008545,0.8758517503738403,0.073838971555233,-0.6952709555625916,0.6330232620239258,-1.0416141748428345,0.9232637286186218,-0.6957674026489258,-0.5905168056488037
435,1.6913352450429397,-1.0083616617656812,-2.6814679072189875,0.5293780565261841,0.8459593653678894,0.06412151455879211,0.9583261013031006,-0.799907386302948,1.5851556062698364,0.8339641690254211,-0.3325011730194092,-0.5658609867095947
436,1.4900522851293214,-0.8474447780742319,-3.033763548486164,0.6597440242767334,0.7495915293693542,-0.053386468440294266,2.8902342319488525,2.673649549484253,1.920685052871704,0.9380189180374146,0.0227167010307312,-0.4111979007720947
437,1.458754684470194,-0.5026499191478085,2.9727030460069237,0.8708145618438721,0.48174938559532166,-0.09797781705856323,2.0145010948181152,0.07522089034318924,4.136139869689941,0.3588455319404602,0.32565417885780334,-0.49938851594924927
438,1.418465936357048,-0.06147719374610295,2.825175471146317,0.986552894115448,0.06143847480416298,-0.15145528316497803,1.963189959526062,0.3016963601112366,3.8256797790527344,-0.0980793833732605,0.7659388184547424,-0.12282143533229828
439,1.481569489411196,0.3004461837875087,2.699726265353355,0.9514048099517822,-0.2959464192390442,-0.08511684834957123,1.1446430683135986,0.20134538412094116,2.866607666015625,-0.3582803010940552,1.0208914279937744,-0.024639613926410675
440,1.4659792557620734,0.4524562617474381,2.643745696765503,0.8944399356842041,-0.4371759593486786,-0.09409743547439575,0.35217466950416565,-0.7695884108543396,-0.28975412249565125,-0.6482241749763489,1.116558313369751,0.19958144426345825
441,1.3810693883857805,0.21967070498732738,2.707602360690557,0.9584562182426453,-0.21790824830532074,-0.1840587705373764,-2.261826276779175,-0.5224411487579346,-3.919154167175293,-0.22740769386291504,1.050855040550232,0.2384106069803238
442,1.3711442744257836,-0.3864640255864603,2.9812239291525704,0.9078481793403625,0.3769156038761139,-0.18370109796524048,-5.123600482940674,-0.49391260743141174,-6.574202537536621,1.1910133361816406,1.2229074239730835,-0.549102246761322
443,1.5688151240992465,-0.9030391898659941,-2.89460615144266,0.6192252039909363,0.7852124571800232,-0.001226812251843512,-1.5290625095367432,-1.117795705795288,-2.8098185062408447,0.9553292393684387,-0.8287153244018555,-1.0386139154434204
444,1.5117691124459525,-0.9392043986848233,-2.7716307263925066,0.5894020199775696,0.8070886135101318,-0.034831222146749496,-2.281116247177124,-1.5751293897628784,-0.29869624972343445,0.07081520557403564,-0.47389769554138184,0.07929527759552002
445,1.8798680021037415,-1.0618711841816204,-2.407145749084615,0.46415165066719055,0.873268723487854,0.14820557832717896,-0.17130468785762787,1.5397614240646362,-1.312507152557373,1.0400750637054443,-0.8541343212127686,-1.0278594493865967
446,1.6973609856542926,-0.995227283386974,-2.631180873208319,0.5399585366249084,0.8388826847076416,0.0687069222331047,1.5085734128952026,-0.47953683137893677,1.7318397760391235,0.928165853023529,-0.2095949649810791,-0.5210080146789551
447,1.4955173006181672,-0.7427527042723958,-3.085250271092674,0.7345234155654907,0.6763181686401367,-0.05539889633655548,2.9063162803649902,1.743930459022522,3.80863356590271,1.0083354711532593,0.2586793899536133,-0.5058804154396057
448,1.4312120716437482,-0.2613658098673787,2.983047197917093,0.9566420912742615,0.25840020179748535,-0.1344062238931656,2.4557132720947266,-0.13934116065502167,4.679940223693848,0.13639062643051147,0.6197431087493896,-0.2754143476486206
449,1.4231388714253792,0.1791309665610206,2.809697488830904,0.9732914566993713,-0.17817451059818268,-0.1447673887014389,2.2925806045532227,0.14734643697738647,3.7644386291503906,-0.1984654664993286,0.9335150718688965,-0.0341266393661499
450,1.5132686509248596,0.47906260468686823,2.686270501728444,0.8859594464302063,-0.46094751358032227,-0.051023487001657486,0.5894655585289001,0.5255811214447021,1.592221736907959,-0.5484197735786438,1.0810494422912598,0.12463188171386719
451,1.5242967939435108,0.4763654501352439,2.6924052873290587,0.8877068161964417,-0.4585523009300232,-0.0413077287375927,-0.4809444844722748,-0.10885865986347198,-1.6579227447509766,-0.6232873201370239,1.011805534362793,0.2027915120124817
452,1.4293972907849846,0.10306699268419851,2.842196546162774,0.9847661852836609,-0.10288461297750473,-0.14018046855926514,-2.994454860687256,-0.7455776333808899,-5.747304916381836,0.07372081279754639,1.2148078680038452,0.030927538871765137
453,1.4759971644419287,-0.6098047248630738,3.1185193949361505,0.8160791397094727,0.5727074146270752,-0.07759620994329453,-3.6939585208892822,-0.3699456751346588,-6.24461555480957,1.3977270126342773,0.5684058666229248,-0.5754494667053223
454,1.603437776680769,-0.9463853840953892,-2.880166737151607,0.5843079090118408,0.8113076090812683,0.019079433754086494,-0.029567178338766098,-0.9998410940170288,-0.7071217894554138,0.9119536280632019,-0.8559549450874329,-0.45767807960510254
455,1.7025266051996344,-1.0260940681221915,-2.661991203350434,0.5136741399765015,0.8552815914154053,0.06806057691574097,-2.148470878601074,0.35867545008659363,-1.9156502485275269,0.38659435510635376,-0.648341953754425,-0.18567538261413574
456,1.8548382993378947,-1.089483955456514,-2.593702995239118,0.4443930983543396,0.8863881230354309,0.12973417341709137,0.6688112020492554,-0.3754585385322571,1.696424126625061,1.2444955110549927,-0.8052113056182861,-0.7100869417190552
457,1.5771541244447131,-0.890323961247243,-2.8159895929271106,0.6291475892066956,0.7772756218910217,0.004000047221779823,2.1408419609069824,0.27297642827033997,1.9824656248092651,0.6579007506370544,-0.12336021661758423,-0.25540387630462646
458,1.4864884700845178,-0.62042454367392,3.0821053881375846,0.8107418417930603,0.5813806056976318,-0.06851431727409363,2.656190872192383,1.2285836935043335,3.8304717540740967,0.8509097099304199,0.28455567359924316,-0.425870418548584
459,1.4617341624456943,-0.1668144830039672,2.8874802319317814,0.9802598357200623,0.16604189574718475,-0.107335165143013,2.2244629859924316,0.5001763105392456,4.198870658874512,0.026072561740875244,0.6481823325157166,-0.1983746886253357
460,1.5226702393242575,0.22255711124629157,2.7330914107253816,0.974206805229187,-0.22072438895702362,-0.04692099243402481,1.4166784286499023,0.556929349899292,3.0797743797302246,-0.35698896646499634,0.8699858784675598,-0.0620114728808403
461,1.5763436530877477,0.4497645550171327,2.6535905306975534,0.9005356431007385,-0.43475350737571716,0.004995616152882576,0.09507393091917038,-0.21153880655765533,1.1833416223526,-0.5508957505226135,1.071762204170227,0.03153395652770996
462,1.4963782534754457,0.37418419380796775,2.719184522484407,0.9282298684120178,-0.36551329493522644,-0.06920488178730011,-1.091817021369934,-0.6830861568450928,-2.617007255554199,-0.5419994592666626,1.0953564643859863,0.13875442743301392
463,1.4266398073841797,-0.09549318025402838,2.9222146660971067,0.9851186275482178,0.09534811228513718,-0.14300322532653809,-3.8410656452178955,-0.32181423902511597,-6.163654804229736,0.7766305804252625,1.4922678470611572,-0.15117095410823822
464,1.5100262952624754,-0.7314699058106843,-3.033489489819883,0.7428196668624878,0.6679642796516418,-0.04519682377576828,-3.1807093620300293,-0.7335556745529175,-4.372856616973877,1.1459590196609497,-0.31368565559387207,-0.6402127742767334
465,1.6193107323364384,-0.9661411194105414,-2.75271000610396,0.5678097605705261,0.822698175907135,0.02756858430802822,-0.9773756265640259,-1.2032010555267334,-0.39584508538246155,0.6310886740684509,-0.695729672908783,-0.23150229454040527
466,1.8661089694737352,-1.0391421116513906,-2.414648223259116,0.48501408100128174,0.8619696497917175,0.14754505455493927,-1.4405134916305542,0.5675550103187561,-1.3042454719543457,0.7294328808784485,-0.7911689281463623,-0.6332933902740479
467,1.86840484051906,-1.0241226722828598,-2.442632500122586,0.49699655175209045,0.8542584180831909,0.1524377167224884,0.9611048698425293,-0.7237010598182678,1.6075050830841064,0.9537023901939392,-0.49534112215042114,-0.663973331451416
468,1.5330767746803462,-0.8804004564297647,-2.8453757196916385,0.6363895535469055,0.7709939479827881,-0.024015719071030617,3.5106804370880127,2.1814916133880615,1.9209703207015991,1.0657742023468018,0.007982492446899414,-0.2568986415863037
469,1.4945131574292716,-0.516156656502644,3.079623832079738,0.867193341255188,0.4935411512851715,-0.06628087162971497,2.1650335788726807,0.7859000563621521,4.904276371002197,0.6049900054931641,0.41653886437416077,-0.47204917669296265
470,1.4779163351443696,-0.004538867061668777,2.9041357512739587,0.9956796169281006,0.004538851324468851,-0.09274556487798691,2.254774808883667,0.2659634053707123,4.44089937210083,-0.09286272525787354,0.8868948817253113,-0.15775799751281738
471,1.5494302482520517,0.37004473842067437,2.7555672540654523,0.932098388671875,-0.36165714263916016,-0.019918318837881088,1.0857475996017456,0.2749771475791931,2.7077605724334717,-0.4506683349609375,1.0391321182250977,-0.06946766376495361
472,1.549624573557504,0.4993932963388239,2.6875739471403257,0.8776764273643494,-0.4788930118083954,-0.018584726378321648,0.18301209807395935,-0.7145880460739136,-0.6226600408554077,-0.6911378502845764,1.1468617916107178,0.1594996452331543
473,1.4522920223531202,0.22270672987578607,2.7626899758652876,0.9684629440307617,-0.22087031602859497,-0.11530730128288269,-2.119019031524658,-0.6323204040527344,-4.439056873321533,-0.0787535309791565,1.2681725025177002,0.23548555374145508
474,1.4443134041106147,-0.44116507751043044,3.0672468217577267,0.8970314264297485,0.4269932806491852,-0.11406809091567993,-4.209104061126709,-0.5717712044715881,-6.9636993408203125,1.4971184730529785,1.2703181505203247,-0.6518620848655701
475,1.6269824719508545,-0.9727551134400702,-2.8467282729075083,0.5621362328529358,0.8264400362968445,0.03161754831671715,-1.4206148386001587,-1.2355382442474365,-2.241767168045044,1.142941951751709,-0.952492892742157,-0.9308789968490601
476,1.5850564456663065,-0.9854540891710967,-2.6263512583413164,0.5524281859397888,0.8335230350494385,0.007878225296735764,-2.4351682662963867,-1.8797703981399536,-0.5206708908081055,0.10092252492904663,-0.4890561103820801,0.07023143768310547
477,2.003441002808429,-1.0999988375762642,-2.2415782579318475,0.4118027687072754,0.8912068605422974,0.190181165933609,-0.25935980677604675,1.9052964448928833,-1.1975693702697754,1.096848964691162,-0.8147298097610474,-0.9310564994812012
478,1.8083104196765951,-1.03332777964489,-2.4750710845833566,0.4975901246070862,0.8590074181556702,0.12045836448669434,1.7315630912780762,-1.256537675857544,2.085538864135742,1.0111836194992065,-0.17205685377120972,-0.6790826320648193
479,1.4837942716130148,-0.8197579457032599,-3.001354028733418,0.679817259311676,0.7309806942939758,-0.059295181185007095,3.2651195526123047,2.4639317989349365,3.066359519958496,1.0931167602539062,0.26834797859191895,-0.3586888313293457
480,1.4610117484256007,-0.37937327128972625,3.0018549822620595,0.9233047366142273,0.3703383803367615,-0.10177382826805115,2.2691283226013184,0.6391910910606384,4.787247657775879,0.2979019284248352,0.523719847202301,-0.31750720739364624
481,1.4891527878616697,0.11084331577380856,2.8327778977999563,0.9905527830123901,-0.11061648279428482,-0.08105240017175674,2.0297915935516357,0.47986191511154175,4.176015377044678,-0.19953703880310059,0.9591424465179443,-0.10536421090364456
482,1.5816362708857943,0.4549245361809718,2.693946205150236,0.898241400718689,-0.4393945336341858,0.009737268090248108,1.1048387289047241,0.15820004045963287,2.4802114963531494,-0.47874677181243896,1.126192569732666,-0.09977936744689941
483,1.5669981005836104,0.5261930592711513,2.651458105299569,0.8647192716598511,-0.5022450089454651,-0.0032844149973243475,-0.3862302303314209,-0.8036235570907593,-1.3539611101150513,-0.754016637802124,1.1265430450439453,0.10638803243637085
484,1.4269160321988694,0.14919643747303743,2.7939442416422264,0.9786727428436279,-0.14864353835582733,-0.14179150760173798,-3.327042579650879,-1.3419500589370728,-5.8954973220825195,0.13608860969543457,1.4760818481445312,0.054785847663879395
485,1.4250174718392052,-0.6247628601444365,3.100585127338057,0.8024985194206238,0.5849049687385559,-0.11782313138246536,-4.811410903930664,-1.1445584297180176,-6.832344055175781,1.6090309619903564,0.9657542109489441,-0.6836600303649902
486,1.6776438662007964,-1.0613159770090044,-2.6733731715327185,0.48494213819503784,0.872998058795929,0.052012957632541656,-0.7226802110671997,-1.7509201765060425,-1.1535570621490479,1.0896732807159424,-0.9400452971458435,-0.9240527153015137
487,1.7768278076325201,-1.0691701425763478,-2.3812280612276586,0.470682293176651,0.8768017888069153,0.0983712449669838,-2.9683754444122314,-0.06513253599405289,-1.2016500234603882,0.2229364514350891,-0.5651105046272278,-0.09550261497497559
488,2.2535983368459145,-1.1292153953004207,-1.9995174278207761,0.3315564692020416,0.9040771722793579,0.2696569561958313,0.7982867956161499,1.006477952003479,0.5711240172386169,1.4047257900238037,-0.7829529047012329,-1.246051549911499
489,1.720458973303308,-1.0329866464602964,-2.5426402350976582,0.5065298080444336,0.8588327169418335,0.07637971639633179,3.4943060874938965,0.09629931300878525,1.9426344633102417,0.8144693970680237,-0.12328284978866577,-0.46419715881347656
490,1.458303042151391,-0.7343262048025053,-3.1020732771378547,0.7375905513763428,0.6700871586799622,-0.08332577347755432,3.269211769104004,2.041897773742676,3.962254524230957,0.8987619280815125,0.43921148777008057,-0.46924078464508057
491,1.4258416100965605,-0.25291243394742197,2.938717665883268,0.9580339193344116,0.2502247989177704,-0.13985241949558258,2.4985527992248535,0.3557841181755066,4.686522483825684,0.14119404554367065,0.6840097904205322,-0.25028425455093384
492,1.456392823940612,0.190030337293543,2.7665534034240857,0.9755793213844299,-0.18888868391513824,-0.11209917813539505,1.9976392984390259,0.4342385530471802,3.2922356128692627,-0.20258426666259766,1.068832516670227,0.006645664572715759
493,1.5410157031833247,0.44971998668381286,2.669005376483631,0.9001695513725281,-0.4347133934497833,-0.026815537363290787,0.4884406328201294,0.04844578728079796,1.7016819715499878,-0.4886552691459656,1.1037654876708984,-0.02843654155731201
494,1.4847878108178174,0.45371883133565516,2.7151779466981534,0.8955007195472717,-0.4383111298084259,-0.0772111713886261,-1.2117010354995728,-0.6315894722938538,-1.8404541015625,-0.6321493983268738,1.2525659799575806,0.1436936855316162
495,1.3866352218406115,-0.034917816991546474,2.9368639295023904,0.9824910759925842,0.03491072356700897,-0.1830102801322937,-3.555664539337158,0.16260631382465363,-6.440499305725098,0.713935375213623,1.450303554534912,-0.1628912091255188
496,1.501446619308162,-0.7671138436423951,-3.0055723787773343,0.7181864380836487,0.6940603256225586,-0.04988601803779602,-4.49074125289917,-0.42675238847732544,-5.828906536102295,1.399886131286621,0.0637521743774414,-0.7744852900505066
497,1.6320642672742134,-1.0434239987224363,-2.752780014949652,0.5023201107978821,0.8641324639320374,0.03081468492746353,0.5277500152587891,-2.320864677429199,0.9578660130500793,0.7545463442802429,-0.7846647500991821,-0.40113019943237305
498,1.6578164227549268,-1.116324080923696,-2.6243836819558,0.43732720613479614,0.8984928131103516,0.038152605295181274,-0.9803893566131592,1.4920676946640015,-1.0574240684509277,0.7951709628105164,-0.9024600982666016,-0.26485252380371094
499,1.8010054078178876,-1.045130089027129,-2.5533027453060524,0.4885515570640564,0.8649898171424866,0.11449885368347168,0.29046863317489624,-0.5970480442047119,2.1059670448303223,0.9629560112953186,-0.28178369998931885,-0.7910125255584717
500,1.501302782934719,-0.8594046675838309,-2.9587555902648304,0.6513127684593201,0.7574540376663208,-0.045335035771131516,3.3668015003204346,1.8222589492797852,2.3013365268707275,0.9174281358718872,0.20363616943359375,-0.27709847688674927
501,1.4644255519452989,-0.5894300531220511,2.9305719239351733,0.8265593647956848,0.5558873414993286,-0.08825486898422241,3.12126088142395,2.1165120601654053,2.1215031147003174,0.08951729536056519,0.03682506084442139,-0.3951130509376526
502,1.539432325340027,-0.2909303307325966,2.6578955973525558,0.9575062990188599,0.28684359788894653,-0.030041079968214035,1.608292579650879,2.205536127090454,3.436342716217041,-0.008867383003234863,0.24896878004074097,-0.17636454105377197
503,1.6863968581573514,0.10462591491327045,2.6133063262056986,0.9878940582275391,-0.10443513840436935,0.11471252143383026,-1.1194250583648682,0.24488717317581177,4.206890106201172,-0.02820765972137451,0.9754831194877625,-0.3959472179412842
