,attitude.roll,attitude.pitch,attitude.yaw,gravity.x,gravity.y,gravity.z,rotationRate.x,rotationRate.y,rotationRate.z,userAcceleration.x,userAcceleration.y,userAcceleration.z
0,1.3218921287949672,0.3391523139999453,2.8194529362514795,0.9139752984046936,-0.3326878249645233,-0.23230966925621033,-2.5903055667877197,-0.7966727614402771,-3.9967048168182373,-0.29134052991867065,1.3313450813293457,0.3091224431991577
1,-0.022727827814051683,0.31075766708181923,-2.838239059885275,-0.02163735032081604,-0.3057801127433777,-0.951856255531311,0.26962578296661377,0.20789384841918945,0.0014105811715126038,0.06504860520362854,0.1077362596988678,0.21035540103912354
2,-0.0015936028547524955,0.3353025985364854,-2.8776845638804236,-0.0015048556961119175,-0.32905492186546326,-0.9443095922470093,-0.02677469700574875,-0.113649383187294,-0.29150673747062683,0.01223178580403328,-0.07379236817359924,0.3587993383407593
3,0.010086354876626027,0.33453809879741525,-2.881500208028966,0.009527026675641537,-0.32833290100097656,-0.9445140361785889,0.044914111495018005,-0.1682407706975937,0.06399144977331161,0.03785151615738869,-0.13826557993888855,0.06112170219421387
4,0.04240182691963522,0.3722174552887691,-2.849076106565416,0.03948644921183586,-0.36368194222450256,-0.9306858777999878,0.5287825465202332,0.9230655431747437,0.5846126079559326,0.01970238983631134,-0.21807461977005005,0.20044606924057007
5,0.10633976747025563,0.45782055586536896,-2.7454276497421026,0.09520900249481201,-0.44199416041374207,-0.8919509053230286,0.8122877478599548,0.643598198890686,1.3036952018737793,0.357214093208313,0.10396620631217957,0.26693564653396606
6,0.20037917705140534,0.4206247061709137,-2.6044523877866537,0.18169133365154266,-0.4083307981491089,-0.8945692777633667,-1.2023497819900513,2.1726438999176025,0.4992542564868927,0.34148675203323364,0.1590174436569214,0.016960084438323975
7,0.19969411067970358,0.20516485900587295,-2.4288666275164874,0.19420920312404633,-0.2037285715341568,-0.9595714807510376,-3.528665542602539,-1.2874274253845215,1.7464851140975952,0.07170571386814117,-0.0739508867263794,0.027778267860412598
8,0.16776907607711075,0.10973122471367498,-2.1912947426097933,0.16597886383533478,-0.10951114445924759,-0.9800297617912292,0.04806819558143616,1.059475302696228,1.8811349868774414,-0.4881529211997986,-0.09384273737668991,0.06444138288497925
9,0.2349212419627624,0.11497699240783257,-2.053540860475056,0.2312295287847519,-0.11472383141517639,-0.9661114811897278,-0.5296980738639832,1.1466151475906372,0.7035086154937744,-0.6240518093109131,0.05399385094642639,0.07180911302566528
10,0.32009741251429985,0.04884097278295125,-2.081439559664966,0.3142837882041931,-0.04882155731320381,-0.9480728507041931,0.36936724185943604,0.9971906542778015,-1.8068287372589111,-0.4561905264854431,0.05295668542385101,-0.5199752449989319
11,0.47154933475735095,0.13997300847532865,-2.402350109229769,0.4498242437839508,-0.13951638340950012,-0.8821526765823364,3.208864450454712,-0.06628619134426117,-2.476173162460327,0.3560076653957367,0.024022608995437622,-0.8321722745895386
12,0.6411824337635856,0.4516775264633162,-2.868736542462764,0.5381593108177185,-0.4364754557609558,-0.7210226655006409,6.491422653198242,0.9844387769699097,-2.638927459716797,-0.14391803741455078,0.5073067545890808,0.33476167917251587
13,1.1466420752802806,0.6173159749057641,2.727576715124731,0.7431769371032715,-0.5788486003875732,-0.3355923593044281,3.713131904602051,1.727163314819336,-2.7132880687713623,-0.5330329537391663,0.691519558429718,0.729681134223938
14,1.3239506722163528,0.3846329911028907,2.515623762406367,0.8988389372825623,-0.3752189576625824,-0.22649358212947845,-2.1147007942199707,-0.9818548560142517,-2.5427358150482178,-0.23894214630126953,0.7429252862930298,0.47405219078063965
15,1.214218780671794,-0.01544896494241539,2.794235296626372,0.9369851350784302,0.015448350459337234,-0.34902745485305786,-5.388621807098389,-0.19562928378582,-3.031883955001831,0.38877469301223755,1.0528500080108643,0.010862201452255249
16,1.4394891472155862,-0.6353510780536192,-2.9259953642738736,0.7979348301887512,0.5934601426124573,-0.10538091510534286,-3.8043482303619385,2.235990047454834,-5.627384185791016,1.3726890087127686,0.4906157851219177,-1.6111260652542114
17,1.4148950953006871,-0.7371781832615392,-3.019384307870216,0.7313892245292664,0.67220139503479,-0.11495734751224518,-0.6941669583320618,-3.7316648960113525,1.7855116128921509,0.32131463289260864,-0.20328354835510254,-0.17790460586547852
18,1.3604805941290015,-0.7466249768350615,-2.751696238312501,0.7178120613098145,0.6791654229164124,-0.15323315560817719,-0.961711049079895,0.946436882019043,-0.409778892993927,-0.21892595291137695,-0.5891537666320801,-0.05329453945159912
19,1.4320699211398888,-0.8068713687893185,-2.866061271564043,0.6851152777671814,0.7221264243125916,-0.09565801173448563,2.0676231384277344,0.5648804903030396,0.1629844754934311,0.34953737258911133,-0.6576886177062988,-0.41624385118484497
20,1.3357694696995293,-0.7034335453849915,-3.0305220535728488,0.7416598796844482,0.64683997631073,-0.17759200930595398,0.35419708490371704,0.2613745927810669,1.121590495109558,0.3383268117904663,-0.09169471263885498,0.020884200930595398
21,1.347027274647251,-0.6413157531783812,-3.047990200668134,0.7813310027122498,0.5982502698898315,-0.17781555652618408,0.39343714714050293,0.2640223801136017,-0.23512600362300873,0.28831005096435547,0.19020181894302368,-0.2662762403488159
22,1.3165490204877328,-0.6880232360333846,2.9210175786494514,0.7476690411567688,0.6350113749504089,-0.19429756700992584,2.945129871368408,2.2723402976989746,-0.7532364726066589,0.5745813250541687,-0.1499192714691162,-0.26406121253967285
23,1.2942675851089236,-0.5192610079308614,2.663209468887895,0.8352028131484985,0.49623867869377136,-0.23703037202358246,1.9557524919509888,0.4604119062423706,2.653306007385254,0.044222235679626465,-0.23783111572265625,-0.15362513065338135
24,1.215289747874153,-0.16121083349013307,2.6648160259170455,0.9253146648406982,0.16051346063613892,-0.3435521423816681,-1.078242540359497,-3.4845194816589355,4.1336517333984375,0.05910605192184448,0.2796263098716736,0.10043391585350037
25,0.503894422028272,-0.03125536066829841,-3.003921762101709,0.4826037287712097,0.03125027194619179,-0.8752810955047607,-2.3132529258728027,-4.641801357269287,5.2160325050354,0.11041378974914551,0.5830838084220886,0.9796817898750305
26,1.453421665419017,0.42852120235881835,2.7121084763866237,0.9033228754997253,-0.4155261814594269,-0.10651681572198868,9.972603797912598,5.430936336517334,1.0624772310256958,-0.023974120616912842,0.21069219708442688,-0.03340625762939453
27,0.7471452856637444,0.15156399941626322,-2.9350434775213508,0.6717569828033447,-0.15098439157009125,-0.7252215147018433,-14.956334114074707,-7.590118885040283,1.2624775171279907,0.20005393028259277,0.5531145334243774,0.32605159282684326
28,1.265691160607209,0.1886234049087232,-3.140544031581241,0.936897873878479,-0.18750689923763275,-0.2950655221939087,11.904948234558105,7.969035625457764,-0.2645794451236725,-0.108162522315979,0.30504533648490906,-0.3748716115951538
29,1.2114085784491275,0.09797344006227199,3.115880840670378,0.9316231608390808,-0.09781678020954132,-0.3500145673751831,-12.107781410217285,-6.942403793334961,-1.0960285663604736,-0.21487212181091309,0.01805908977985382,0.7437523603439331
30,0.9622897071096997,-0.26327092905134536,-2.5499907892705744,0.7922313809394836,0.2602401673793793,-0.551946222782135,5.440365791320801,7.963558197021484,0.7907395362854004,-0.5406290888786316,0.1020950973033905,0.01259380578994751
31,1.5399058242052506,-0.2689916437582463,2.991156857513879,0.9635794162750244,0.2657594680786133,-0.029774922877550125,1.9575953483581543,-0.2804323732852936,-4.311983585357666,0.2583290934562683,0.45804116129875183,0.20334362983703613
32,1.5747514323902996,-0.650650545623855,-2.562913646020865,0.7956835627555847,0.6057041883468628,0.003147029085084796,-8.524213790893555,-0.6637799143791199,-0.9181823134422302,0.9867870211601257,-0.36096853017807007,-0.7578467130661011
33,1.7385432603788875,-0.609699838120625,-2.822360203118823,0.8083125352859497,0.5726214051246643,0.13687823712825775,10.908330917358398,5.92798376083374,1.6531552076339722,0.4758366346359253,0.019175469875335693,-1.0339882373809814
34,1.424656923607014,-0.37084854231369135,2.6066232613596934,0.9220854043960571,0.3624064326286316,-0.13572058081626892,-0.03077125921845436,-2.1243479251861572,2.8387093544006348,-0.1741301417350769,-0.1944224238395691,0.8653958439826965
35,1.0759653902801156,-0.22922512998095743,-3.1100230678555674,0.8570293188095093,0.2272229939699173,-0.4624612331390381,-7.812672138214111,-8.085921287536621,3.332294464111328,-0.05562245845794678,0.2574724555015564,0.3679330348968506
36,1.0026161371236133,-0.12333272561612128,-2.9243121992108376,0.8364793062210083,0.12302029877901077,-0.5340117812156677,8.888879776000977,8.409939765930176,-0.19291841983795166,-0.41347503662109375,0.5991019010543823,0.06228625774383545
37,1.4542404147751138,0.05446164740774119,2.5820051679229343,0.9917425513267517,-0.054434727877378464,-0.11611977219581604,-0.8811970353126526,-4.249569892883301,-0.7542619109153748,-0.25723016262054443,0.48447316884994507,0.8107456564903259
38,1.0449836682590308,-0.3063263087789708,-2.8766764090228376,0.8246526122093201,0.3015580177307129,-0.4785507619380951,-10.090682983398438,-0.10319507122039795,1.2006431818008423,0.36733347177505493,0.9369673728942871,0.4675949215888977
39,1.5932312822073489,-0.594336371810808,-2.942862366874659,0.8283118009567261,0.5599590539932251,0.018586257472634315,8.332505226135254,3.88820481300354,-1.958949327468872,0.6838647127151489,-0.2625957727432251,-1.131989598274231
40,1.263603047294115,-0.6018075562478042,-2.7230390457182936,0.7857242822647095,0.5661333799362183,-0.24925968050956726,-10.004582405090332,-8.65972900390625,2.6701414585113525,-0.006915688514709473,-0.49017512798309326,0.7015912532806396
41,1.4590601365486606,-0.5611214127625979,-2.0670112496143815,0.8413791060447693,0.5321359634399414,-0.09440570324659348,1.2254167795181274,5.267831802368164,-0.1455690562725067,-0.6297244429588318,0.03771871328353882,-0.5143284201622009
42,1.6693617937677294,-0.8134737450636993,-2.6214397299747243,0.6836439967155457,0.7266779541969299,0.06760275363922119,4.385512351989746,1.9764150381088257,-2.135697841644287,0.6860612034797668,-0.35553842782974243,-0.4905611276626587
43,1.555584363827582,-0.7959872857885991,-2.407671281479292,0.6994987726211548,0.7145546674728394,-0.010641570203006268,-4.880190849304199,-4.945304870605469,2.2936081886291504,0.8857978582382202,-0.23352128267288208,-0.34510183334350586
44,1.5428944610005209,-0.6342119128920541,-2.3690767085589717,0.8052253127098083,0.5925428867340088,-0.02247312106192112,4.704990863800049,3.5678012371063232,0.7590703368186951,0.1870536208152771,0.2602403163909912,-0.7229492664337158
45,1.431560965002335,-0.4792691240717469,3.1366892554471133,0.878744900226593,0.4611307680606842,-0.12314920872449875,6.315473556518555,1.3018089532852173,1.8878860473632812,0.09296524524688721,0.0954488217830658,-0.18603962659835815
46,1.3360925196296858,-0.1385405904808017,2.8353480217612974,0.9632644653320312,0.1380978375673294,-0.23032669723033905,1.6964824199676514,-0.4609142541885376,3.458259105682373,0.035865724086761475,0.4482821524143219,0.13962848484516144
47,1.2963540190625147,0.1994434455956528,2.817054356158354,0.9434953927993774,-0.19812384247779846,-0.26563793420791626,0.5818935036659241,-0.7105916738510132,2.440680742263794,-0.31544363498687744,0.7779883146286011,0.21435314416885376
48,1.2178414025225877,0.3068878091911217,2.9002305275085787,0.8945139050483704,-0.3020933270454407,-0.32952171564102173,-0.6360098123550415,0.18932944536209106,-0.44391775131225586,-0.5357339978218079,0.8599241375923157,0.44599205255508423
49,1.2718339584922238,0.012382814052272907,2.9724098778048402,0.9555693864822388,-0.012382498010993004,-0.2945061922073364,-3.340937852859497,1.4350162744522095,-5.051790714263916,-0.058093249797821045,1.0198135375976562,0.3801690340042114
50,1.462199463395579,-0.5707723696483696,-3.118392462159012,0.8365269303321838,0.540282130241394,-0.09120301157236099,-2.843609571456909,-0.06726901233196259,-5.066766262054443,1.0971736907958984,0.29090988636016846,-0.5336443781852722
51,1.5947661888645592,-0.73407509282789,-2.3875442717552233,0.7422373294830322,0.6699007153511047,0.017794733867049217,-6.541729927062988,-7.343932628631592,1.7421778440475464,0.2705036997795105,-0.6567477583885193,-0.6509734392166138
52,1.5641353290842752,-0.5311150988703204,-1.8216232133696315,0.862223744392395,0.5064951181411743,-0.0057433550246059895,-0.4841509461402893,5.800827503204346,1.12688148021698,-0.6989699602127075,0.2562307119369507,-0.09049385786056519
53,1.954720013965845,-0.9446991406022139,-2.4609457090678726,0.5433282256126404,0.8103206753730774,0.21948803961277008,3.980886936187744,1.5732992887496948,-2.6222519874572754,1.1741094589233398,-0.7196682095527649,-0.2920740842819214
54,1.674854861100803,-0.7632008495074777,-2.0890706744806042,0.7187184691429138,0.6912379860877991,0.0750599130988121,-5.285951614379883,-8.496895790100098,2.578765630722046,0.637299656867981,-0.1960444450378418,-0.3540668487548828
55,1.5485346728706693,-0.6349850291912922,-2.3528047843632622,0.80488121509552,0.5931654572486877,-0.017920948565006256,10.44842529296875,6.879617214202881,0.4312494695186615,0.49135303497314453,0.589879035949707,-0.951561450958252
56,1.4428560201674014,-0.266419097662153,2.8624461210500836,0.9568349719047546,0.2632785737514496,-0.12309010326862335,3.179548978805542,-0.7295863628387451,4.550242900848389,0.2882058620452881,0.306362509727478,0.20860034227371216
57,0.9651645179782766,0.07753649130407088,-2.9867083056515873,0.8196724653244019,-0.07745882123708725,-0.567571222782135,-2.7539899349212646,-4.454928398132324,4.367363452911377,-0.07582181692123413,0.9904837608337402,0.3956810235977173
58,1.0889597757933498,0.3933693425037131,-3.0685954762802465,0.8184641003608704,-0.38330259919166565,-0.4280136823654175,6.134061336517334,3.7490789890289307,0.5795107483863831,-0.40443211793899536,0.9749926328659058,0.16335001587867737
59,1.4030792166980122,0.4808764958059954,2.7715607550962185,0.8741496801376343,-0.4625564515590668,-0.14800016582012177,0.4241539537906647,-2.2134454250335693,-1.6467481851577759,-0.5003092885017395,0.9722914695739746,0.5827993750572205
60,1.075242754550069,0.04553570591927056,-3.1304547336188557,0.8787937164306641,-0.04551997035741806,-0.47502580285072327,-9.28692626953125,-0.6114587783813477,-3.0533204078674316,0.35542869567871094,1.3334838151931763,0.49757832288742065
61,1.4889974719603665,-0.6667918309677099,-2.6289641845961995,0.7831824421882629,0.618468165397644,-0.06420669704675674,-0.5756452083587646,6.8593363761901855,-5.35856294631958,1.1454675197601318,0.561188817024231,-1.142733097076416
62,1.411428181998323,-0.8823710548968123,2.9574251300821826,0.6272708177566528,0.7722474336624146,-0.10082200169563293,2.530231475830078,-0.10736684501171112,1.9612401723861694,0.6890438199043274,-0.5234987139701843,0.27728986740112305
63,1.523760273850594,-0.8664445197830157,-2.7275546535605946,0.646824061870575,0.7620314359664917,-0.030446505174040794,-9.427019119262695,-5.861245632171631,-0.2184135764837265,0.1249503493309021,-0.43711066246032715,0.15677404403686523
64,2.0807774456320263,-0.9262821096807183,-2.20197930863591,0.5243593454360962,0.7993917465209961,0.29329198598861694,6.992565631866455,4.326816558837891,1.228212833404541,1.3028043508529663,-0.6450338363647461,-1.6476620435714722
65,1.550832285613464,-0.8070949796928276,-2.5746092779018634,0.6914618015289307,0.7222810983657837,-0.013806206174194813,-5.6324310302734375,-8.861695289611816,3.318439245223999,1.1338250637054443,-0.4141603708267212,0.18748176097869873
66,1.4928766788587722,-0.4916152471944379,-2.146628421539281,0.8788967132568359,0.4720504581928253,-0.06862226128578186,5.036770343780518,5.341580867767334,1.8345941305160522,0.28026771545410156,0.7425034046173096,-1.007076621055603
67,1.5960447524508135,-0.04813810572973318,3.085559271677905,0.9985232949256897,0.04811951518058777,0.025216499343514442,5.86756706237793,0.5852982997894287,5.24803352355957,0.1170925498008728,0.7669286727905273,0.1443544626235962
68,1.018520021689985,0.2627580641124436,-2.7321561576977724,0.822112500667572,-0.25974494218826294,-0.5066198706626892,-7.55096435546875,-6.6790642738342285,3.881744861602783,0.05435246229171753,0.9796240329742432,0.5787939429283142
69,1.5343008419563062,0.5753568333321414,-3.03922089534276,0.8384395241737366,-0.5441341996192932,-0.030612850561738014,13.460951805114746,6.344850063323975,3.1101362705230713,-0.24883991479873657,0.9836178421974182,-0.6195793747901917
70,1.6231988319218984,0.6328885008602798,2.9535728744239007,0.8052157163619995,-0.5914762616157532,0.042233988642692566,-9.41259765625,-6.354894638061523,-1.538596272468567,-0.7908265590667725,1.000121831893921,0.9921441078186035
71,1.0045123716546904,-0.02083586293603439,-2.317748762729903,0.8437173366546631,0.02083435468375683,-0.5363833904266357,-0.8114755153656006,10.846680641174316,-0.7312930822372437,0.3406698703765869,1.320153832435608,-0.11899685859680176
72,1.5677561454693534,-0.30604665668837006,-3.0635603183558993,0.9535278677940369,0.3012913465499878,-0.0028989065904170275,0.44609859585762024,-2.995938301086426,-4.859696865081787,0.9876037836074829,0.1936732530593872,0.8951718211174011
73,1.4410679942162583,-0.46302878418816584,-2.1916988270481363,0.8871856331825256,0.44666001200675964,-0.11574314534664154,-11.087724685668945,-6.021227836608887,1.703125238418579,0.08403623104095459,-0.15437793731689453,-0.023981571197509766
74,1.8242350417876094,-0.46735485522399095,-1.9596447565476753,0.8642447590827942,0.4505263864994049,0.22384636104106903,8.645645141601562,9.196423530578613,0.10213989019393921,0.19166350364685059,-0.05895534157752991,-1.4053038358688354
75,1.71030787997692,-0.5940845731634894,-2.4445364147999546,0.8206101059913635,0.5597504377365112,0.1152331754565239,-6.646410942077637,-5.907681465148926,1.6724036931991577,0.799034059047699,-0.9300506711006165,0.6632702350616455
76,1.55684541700785,-0.338932867180751,-1.3695119311426502,0.9430180788040161,0.33248084783554077,-0.013156814500689507,-2.497331380844116,2.815349578857422,0.3365936577320099,-0.43067389726638794,0.6408467292785645,-0.8013421297073364
77,1.7614153772135788,-0.3447034516649318,-2.5951752806365627,0.9241283535957336,0.33791759610176086,0.17832152545452118,10.899014472961426,1.9273107051849365,3.375342845916748,0.34323614835739136,0.40152332186698914,-0.3741375207901001
78,1.3358762877781152,-0.0752364798049039,-2.4149617276538384,0.9697818160057068,0.0751655176281929,-0.2321067601442337,-11.400636672973633,-8.203933715820312,3.2491719722747803,0.01770603656768799,0.2783348262310028,0.9063011407852173
79,0.8465469587448037,-0.13477994397270335,-1.8275078598585532,0.7422043085098267,0.13437224924564362,-0.6565645337104797,10.305379867553711,8.270611763000488,0.38401949405670166,-0.41581881046295166,0.7854123115539551,0.06554579734802246
80,1.9579374551079671,0.3008675066703041,3.0631169410848127,0.8843965530395508,-0.2963488698005676,0.36058342456817627,7.469954013824463,1.9170668125152588,2.7626287937164307,-0.5432404279708862,1.1195147037506104,0.6831787824630737
81,1.2302097990839898,0.291522446124284,-2.457425927428596,0.9027899503707886,-0.28741076588630676,-0.3199459910392761,-16.35886001586914,-7.3713483810424805,-1.0072768926620483,-0.043491244316101074,0.8848839402198792,0.3919827342033386
82,1.3995669791897571,0.15754496771842244,-2.016058653533067,0.973172664642334,-0.15689405798912048,-0.168283611536026,12.597352027893066,13.220998764038086,3.6340644359588623,-0.06471002101898193,0.3460724949836731,-1.3324488401412964
83,1.6674976192644524,0.056713064466166425,-2.696004485711437,0.9937278628349304,-0.05668266862630844,0.09639542549848557,-8.275879859924316,-8.7711820602417,-1.5250009298324585,0.8515327572822571,-0.9567908048629761,1.0731908082962036
84,1.1663112533371767,-0.029491080350081956,-1.9086895826562111,0.9189054369926453,0.029486805200576782,-0.39337432384490967,4.5291290283203125,9.426773071289062,2.449688196182251,-0.41962260007858276,0.06310352683067322,-0.7670718431472778
85,1.5200524585993833,0.21610784150099335,-2.669113986598434,0.975482165813446,-0.21442963182926178,-0.049542270600795746,3.498237371444702,-0.4955982267856598,0.5424728393554688,0.2766234874725342,-0.364488810300827,-0.07918089628219604
86,0.7852375372557279,0.20024932830734174,-2.2811667878147106,0.6928653717041016,-0.19891367852687836,-0.6930879950523376,-12.369044303894043,-13.720501899719238,3.5054209232330322,0.41536521911621094,-0.26077258586883545,0.17711204290390015
87,0.7515600632197151,0.1622782905188515,-2.239948841953565,0.6738088726997375,-0.16156698763370514,-0.7210254669189453,13.680436134338379,8.211694717407227,-0.7982431650161743,-0.10851651430130005,0.46469807624816895,-0.7528972625732422
88,1.6912130139928192,0.5244489469265121,2.8250103852616206,0.8593319058418274,-0.5007361173629761,0.10398097336292267,5.782303810119629,-1.1958638429641724,1.0001658201217651,0.14346039295196533,0.0604284405708313,0.3188859224319458
89,0.3972993135967538,0.060580632967055764,-2.5656680640834493,0.3862196207046509,-0.06054358556866646,-0.9204177856445312,-12.635519027709961,-10.979488372802734,0.6750907301902771,-0.17020094394683838,0.014141611754894257,-0.03314971923828125
90,0.7951568686943429,0.6015257589272581,-2.877728450707351,0.5886519551277161,-0.5659011006355286,-0.5772736668586731,14.287107467651367,5.6000285148620605,0.0795380100607872,-0.32087546586990356,0.8238967061042786,-0.08817744255065918
91,0.7430682457076694,0.7457806362049031,-2.9286137664055185,0.4969658851623535,-0.6785454154014587,-0.5409260392189026,-13.756604194641113,-10.96112060546875,3.6310696601867676,0.5134100914001465,-0.3386053442955017,0.8495197892189026
92,0.5354367786646783,0.625050633308411,-2.617325217309014,0.41375184059143066,-0.5851383209228516,-0.697439968585968,16.92999839782715,7.802586078643799,3.3966476917266846,0.31813597679138184,0.23229408264160156,-0.9484187960624695
93,1.143839217687058,1.018312552776682,3.092205376445219,0.47769153118133545,-0.8512236475944519,-0.21732252836227417,-8.763079643249512,-5.417787075042725,-0.26272106170654297,0.687912106513977,-0.6726258397102356,0.518012285232544
94,0.16784057148583517,0.4013498154964737,-2.5293155875324658,0.15377865731716156,-0.39066123962402344,-0.9075989723205566,8.638260841369629,6.967538356781006,1.3577654361724854,-0.045151323080062866,-0.15459632873535156,-0.16494131088256836
95,1.1564088285399623,1.1929401256805912,3.1140119760394747,0.3377038836479187,-0.9294576644897461,-0.14854158461093903,-0.8482263684272766,0.46346965432167053,0.11186123639345169,-0.1920434832572937,0.2572317123413086,0.9654208421707153
96,-0.1346571125174547,0.19824475410206957,-2.35414017343907,-0.1316210776567459,-0.19694876670837402,-0.9715384840965271,-10.508139610290527,-2.218402147293091,-0.10146943479776382,-0.5477765202522278,0.492755651473999,0.4252128005027771
97,0.4286093258289385,0.8770374782988939,-2.462453082470542,0.26575183868408203,-0.7688479423522949,-0.5815916061401367,10.6439790725708,3.2059061527252197,0.04694853350520134,-0.4043779671192169,0.3748965263366699,-0.10320758819580078
98,0.9337058981690267,0.9794622285494832,-2.915019478620707,0.4481104016304016,-0.8301976919174194,-0.3316156268119812,-2.1669585704803467,-0.869279146194458,-1.248436689376831,-0.0014703571796417236,-0.5701776742935181,0.0921441912651062
99,0.7167095665757837,0.7983984247255099,-2.7507556927601406,0.4584258496761322,-0.716239333152771,-0.5261623859405518,0.6288622617721558,-1.7409275770187378,-0.4522554278373718,0.2195221483707428,-0.15581566095352173,-0.7042757272720337
100,0.7049180491487658,0.8750090353074741,-2.8650931388673864,0.4153430759906769,-0.7675492763519287,-0.488219290971756,1.043827772140503,-1.0872442722320557,0.09804808348417282,-0.13595470786094666,0.131364643573761,-0.01646515727043152
101,0.4625261013908722,0.8759043139026235,-2.868647402894495,0.28570953011512756,-0.7681228518486023,-0.5730248093605042,-7.0370192527771,-5.488134384155273,0.7851871252059937,0.051647067070007324,-0.1580246090888977,1.1420402526855469
102,-0.3847059339237092,-0.11134527176943239,-2.71518769462072,-0.37296262383461,0.11111534386873245,-0.9211689829826355,-2.3091156482696533,5.722686767578125,-0.5340279936790466,-0.5825427770614624,0.37530434131622314,0.955577552318573
103,0.9261274735771083,0.9503101502845415,3.0959590487775923,0.46473684906959534,-0.8135958909988403,-0.3494013249874115,11.728910446166992,6.4517130851745605,-2.127351999282837,-0.4171599745750427,1.1254551410675049,0.4263667166233063
104,1.4545696242986308,0.6031102578800568,2.7401005488368972,0.8180190324783325,-0.5672067403793335,-0.09550609439611435,-6.811864852905273,-0.4711613655090332,-3.462324380874634,0.996052622795105,0.8354867696762085,0.7224745154380798
105,1.3869001100209744,-0.02757981738006439,-2.8925596358770784,0.9827648997306824,0.027576321735978127,-0.18279194831848145,-5.576301574707031,0.6723359227180481,-6.502063274383545,1.472999930381775,1.327846646308899,-0.8443686962127686
106,1.6155925122262198,-0.49193306489154554,-2.5124706408871207,0.8805373311042786,0.47233060002326965,0.03947111964225769,-2.3313095569610596,-0.569826066493988,-1.1072436571121216,0.6782700419425964,-1.1055397987365723,-1.2921109199523926
107,1.4666661684985292,-0.4228171040200074,-2.291207430291947,0.9069969654083252,0.4103311002254486,-0.09478858858346939,-3.927271842956543,-2.2882368564605713,0.8341952562332153,-0.19050532579421997,-0.2669137418270111,0.2409982681274414
108,1.6560683551465543,-0.2931576001025063,-1.6800666661469408,0.9538577198982239,0.2889765501022339,0.08153510093688965,-5.603787899017334,2.1329901218414307,1.001503586769104,-0.3969424366950989,0.48200422525405884,-0.7440106868743896
109,1.9697287052413015,-0.4675778474340737,-1.6402488943532754,0.822567343711853,0.4507254362106323,0.3467411994934082,3.8305764198303223,0.7449589967727661,-1.7692151069641113,0.9137149453163147,-0.4332541525363922,-1.5613255500793457
110,1.709275124505527,-0.4817439869977447,-2.136852701671177,0.8777049779891968,0.4633253812789917,0.12232645601034164,4.314073085784912,-1.3055193424224854,2.3598506450653076,0.932048499584198,0.0664750337600708,-0.49050581455230713
111,1.3224343797678688,-0.13922752662912546,-2.525815383007408,0.9599368572235107,0.13877816498279572,-0.24343787133693695,1.5821812152862549,-4.242056846618652,3.685189723968506,0.39928555488586426,0.24408012628555298,0.6445609331130981
112,0.7741286418615557,0.03902251180365065,-2.1437810463143836,0.6985611319541931,-0.0390126071870327,-0.7144861221313477,-3.5108628273010254,-6.208153247833252,3.338585138320923,0.2675490975379944,0.4272114634513855,0.6590204238891602
113,1.2537531334793108,0.3488421415935446,-2.4211926567804496,0.8929324150085449,-0.3418099284172058,-0.29298102855682373,11.816834449768066,6.382344722747803,1.1825900077819824,-0.13179343938827515,0.6876503825187683,-0.27592766284942627
114,1.096222903453334,0.3163054696900702,-2.4098814916893807,0.8453612327575684,-0.311057448387146,-0.434289813041687,-10.383450508117676,-4.008471488952637,-0.024597754701972008,-0.02488088607788086,0.699637770652771,0.7525118589401245
115,1.3083616429977754,-0.012549947569638977,-1.9689640579348704,0.9656850695610046,0.012549618259072304,-0.2594121992588043,2.556612491607666,6.989991664886475,-2.1750879287719727,0.2724434733390808,0.777855634689331,-0.5988183617591858
116,1.5950913631210133,-0.3577308043650662,-2.481744924294045,0.9364173412322998,0.35014960169792175,0.022754769772291183,2.581162929534912,-1.1719242334365845,-4.231137752532959,0.4985343813896179,-0.27141427993774414,0.3381308317184448
117,1.6679697623598795,-0.5926974827517291,-2.1902938566121954,0.8255240321159363,0.5586004257202148,0.08047245442867279,-2.5159285068511963,0.33687910437583923,-0.8635607957839966,0.48554176092147827,-0.8692693710327148,-0.4428229331970215
118,1.6799204553071945,-0.6170677155933751,-1.9475500698053956,0.8107275366783142,0.5786461234092712,0.08882278949022293,-1.6499814987182617,-1.1170485019683838,0.11578202247619629,0.4444451928138733,-0.8990349769592285,-0.34124886989593506
119,1.6478663631665753,-0.5221953767680177,-1.8961609242778263,0.8641533851623535,0.4987841248512268,0.0667325109243393,-0.06781508028507233,-0.35418668389320374,0.9078149795532227,0.1311163306236267,-0.2250872552394867,-0.565954327583313
120,1.6487383664521325,-0.5010542470231216,-2.112588425071928,0.8744138479232788,0.48035046458244324,0.06829194724559784,3.8417434692382812,1.3504490852355957,0.09071582555770874,0.14736038446426392,0.005306214094161987,-0.6870663166046143
121,1.5896456410150184,-0.578677168603477,-2.753881896820141,0.8370381593704224,0.5469169616699219,0.015779463574290276,7.476561546325684,3.5019891262054443,-0.5488630533218384,0.5565775632858276,0.03317636251449585,-0.4742755889892578
122,1.5052830942433826,-0.4480438784399714,2.7821170145605856,0.8993627429008484,0.4332033097743988,-0.05900459736585617,3.3769259452819824,2.2057838439941406,2.77032732963562,0.4142969250679016,-0.1543947458267212,-0.13079947233200073
123,1.3852856995633813,0.019618870766604818,2.843026140818976,0.9826531410217285,-0.019617611542344093,-0.18441294133663177,-4.2787275314331055,-5.723376274108887,6.095724105834961,0.2669806480407715,0.741495668888092,0.32938671112060547
124,0.7394285746108815,0.263571625911244,-2.808002581503712,0.6505942940711975,-0.2605305016040802,-0.7133378982543945,-1.1567282676696777,-0.4920668601989746,2.764768123626709,-0.3703208565711975,0.9489917755126953,0.810826301574707
125,1.3274530940174036,0.4357781548920611,-3.1081279663426793,0.8798331022262573,-0.4221159517765045,-0.2184300571680069,6.856271266937256,5.210826873779297,-1.4341611862182617,-0.4221915602684021,0.8815429210662842,0.03732354938983917
126,1.5116806550502317,0.12239661819088339,2.9623941914025753,0.9907852411270142,-0.12209124118089676,-0.05863926187157631,-5.297060012817383,-2.7016406059265137,-4.991357803344727,0.1338791847229004,0.8765773177146912,0.20959442853927612
127,1.438047707129157,-0.501339111545894,-2.7384510032045664,0.8692243695259094,0.4806002974510193,-0.1160709485411644,-4.5516462326049805,1.1669272184371948,-3.8845667839050293,1.2448809146881104,0.1647396683692932,-0.6833674907684326
128,1.4944937501198465,-0.5847466427885103,-2.566190133108045,0.8314257860183716,0.5519881248474121,-0.06356333941221237,0.25558650493621826,-2.821674346923828,0.7381078004837036,0.10248833894729614,-0.3937697410583496,-0.12454700469970703
129,1.6167570761240597,-0.7016884733483326,-2.4601340717492852,0.7629469633102417,0.6455081701278687,0.03509032726287842,-1.9464631080627441,2.606565475463867,-1.8526924848556519,0.2995377779006958,-0.7115176916122437,-0.2506970167160034
130,1.7621338364435284,-0.7023402671539597,-2.342517192480623,0.7494023442268372,0.6460058689117432,0.1451646089553833,0.29101553559303284,-0.6764241456985474,1.0557172298431396,0.6036860942840576,-0.5213720202445984,-0.7287064790725708
131,1.5514198642391772,-0.5770643756412035,-2.457598248754084,0.8379104733467102,0.5455660223960876,-0.016237773001194,1.9103103876113892,0.2445705085992813,0.6807202696800232,0.3123122453689575,0.06292396783828735,-0.2835211753845215
132,1.4817804753675228,-0.48153043541564594,-2.8884149876971152,0.8827781081199646,0.46313613653182983,-0.07878945767879486,4.662423133850098,0.7191849946975708,3.13131046295166,0.8083992600440979,-0.02041766047477722,-0.39873433113098145
133,1.1020625341473844,-0.02575409272431485,-2.9265953402647256,0.8918452262878418,0.025751246139407158,-0.45160722732543945,-3.2227303981781006,-7.262350082397461,5.438576698303223,0.4929356575012207,0.5640772581100464,0.772728443145752
134,0.608330543466229,0.1240178987726398,-2.521982129825732,0.5671089887619019,-0.12370023131370544,-0.8143007159233093,3.02597713470459,4.818583965301514,0.8598427772521973,-0.5051430463790894,0.8348208665847778,1.0644686222076416
135,1.5700376242204215,0.4526681088700905,2.996861678713051,0.8992831110954285,-0.4373664855957031,-0.0006822885479778051,9.284029960632324,1.7191860675811768,-0.8316792249679565,-0.5925814509391785,1.0164375305175781,-0.2350812554359436
136,1.3940652088322811,0.19423509314126264,3.07861278501315,0.9659120440483093,-0.19301606714725494,-0.17250648140907288,-8.126105308532715,-3.0558810234069824,-3.5935490131378174,-0.09996062517166138,0.8407974243164062,0.5427151918411255
137,1.4993367625431355,-0.3544138904282233,-2.48193697853985,0.9354565739631653,0.34704074263572693,-0.06696133315563202,-3.9830594062805176,3.070768356323242,-4.51222038269043,0.8917376399040222,1.0035909414291382,-1.0633487701416016
138,1.5477778328517775,-0.591613768794684,-2.5404213824860418,0.8298219442367554,0.5577012300491333,-0.019104626029729843,2.6383934020996094,-2.35593843460083,0.9264076352119446,0.40659773349761963,-0.6786729097366333,-0.43366938829421997
139,1.4128594018036937,-0.6484386291837738,-2.567304404005396,0.7871077656745911,0.6039426922798157,-0.12535741925239563,-2.2817695140838623,1.6820012331008911,-2.7239255905151367,-0.056517064571380615,-0.47134387493133545,0.31389498710632324
140,1.696041339997361,-0.8279604713531719,-2.437445565372185,0.6710813045501709,0.736553430557251,0.08449183404445648,0.6397805213928223,-0.13795804977416992,0.9729002714157104,0.8787690997123718,-1.107250452041626,-0.8536568880081177
141,1.5491995554162152,-0.686838522493747,-2.4691262487361088,0.7730741500854492,0.6340957283973694,-0.016698502004146576,0.3426608145236969,-2.4063048362731934,1.292481541633606,0.5113343596458435,-0.27066195011138916,-0.5519508123397827
142,1.3283626938756978,-0.5804007965674157,-2.3551996210328885,0.8117884993553162,0.5483591556549072,-0.2007533609867096,-0.7590891718864441,-1.7123037576675415,1.4582396745681763,0.3918401002883911,-0.17593789100646973,-0.4978245496749878
143,1.3864452722993408,-0.3239883756292654,-2.652557733665711,0.9319101572036743,0.3183499574661255,-0.17377164959907532,8.052274703979492,5.166894435882568,2.374873161315918,0.15094494819641113,0.36980611085891724,-0.6118576526641846
144,1.4556069943835042,0.09948111320105701,2.941685630278627,0.9884616136550903,-0.09931711107492447,-0.11436650902032852,-0.2898638844490051,-3.0742835998535156,3.649468183517456,0.006884396076202393,0.49537423253059387,0.7615985870361328
145,0.8131288080615828,0.276345286258453,-2.7927347933392084,0.698879063129425,-0.2728414237499237,-0.6611547470092773,-3.1318721771240234,-3.3628900051116943,3.5066890716552734,-0.14855557680130005,0.7547292709350586,0.6904668807983398
146,0.7879533895996098,0.2961529397565947,-2.6430463837693052,0.6780498027801514,-0.2918427884578705,-0.674593448638916,1.057140588760376,3.4931089878082275,-1.603194236755371,-0.4029948115348816,0.7939027547836304,0.7167229652404785
147,1.4548674882286043,0.1165688574781703,-3.132112471619231,0.9865468740463257,-0.11630503833293915,-0.11488435417413712,3.5536251068115234,4.362207889556885,-5.614009857177734,0.4164987802505493,1.1613184213638306,0.10107511281967163
148,1.4179164467696703,-0.4386152621216152,-2.9001993345240944,0.8947812914848328,0.4246862232685089,-0.13786984980106354,-6.758331298828125,-4.369377613067627,-3.9797816276550293,1.2296693325042725,0.09525704383850098,-0.33525943756103516
149,1.3693911868011603,-0.5829237180521382,-2.1800997812641105,0.8179814219474792,0.5504671931266785,-0.16700999438762665,-2.8074615001678467,-2.2525837421417236,1.282180666923523,-0.19122666120529175,-0.36876553297042847,-0.14533746242523193
150,1.7323178035168194,-0.7371742378113685,-2.485065205196174,0.73073410987854,0.672198474407196,0.1190665140748024,8.245781898498535,4.702025413513184,-0.6036236882209778,0.7045838236808777,-0.8795196413993835,-1.0725576877593994
151,1.3719298618125355,-0.6524749053729179,-2.626620787998085,0.7789232730865479,0.6071547865867615,-0.15697655081748962,-7.4251179695129395,-8.103646278381348,3.980743885040283,0.8025586605072021,-0.5898818373680115,0.267206072807312
152,1.5999367631493726,-0.4822438256855623,-2.3691791039436083,0.8855805397033691,0.46376827359199524,0.02581351064145565,8.86861801147461,4.644290924072266,1.1430631875991821,0.3827606439590454,0.09394052624702454,-1.4376939535140991
153,1.4650058559313157,-0.38998930998168524,-3.0503988026404723,0.919742226600647,0.3801785409450531,-0.09766457229852676,1.7387794256210327,-0.6835896968841553,0.6603872776031494,0.863659143447876,-0.2508756220340729,0.03827734291553497
154,1.042844715182004,-0.19924641485206174,-2.4969733365766196,0.8467506170272827,0.197930708527565,-0.49379846453666687,-3.8390274047851562,-3.977991819381714,4.398471832275391,-0.07494580745697021,0.5191560983657837,0.25962185859680176
155,1.440444599317527,0.24269316643505637,-3.023159286014201,0.9624592065811157,-0.24031773209571838,-0.12617366015911102,10.519183158874512,0.6974439024925232,3.2326884269714355,0.04716908931732178,0.8902658224105835,-0.43473947048187256
156,0.8504145188471455,0.3896493064228531,-2.741948592934539,0.6952192187309265,-0.37986403703689575,-0.6102242469787598,-10.148409843444824,-10.150554656982422,3.6604912281036377,0.311662495136261,0.36582595109939575,0.8073525428771973
157,0.6560078214993487,0.35308984700271756,-2.37101686068607,0.5723291039466858,-0.34579867124557495,-0.7435473799705505,9.192720413208008,10.760871887207031,0.029620248824357986,-0.5671258568763733,0.45589083433151245,0.24066346883773804
158,1.8068135501242806,0.47436940386757076,2.895598627539392,0.864919126033783,-0.45677757263183594,0.20801261067390442,3.907809019088745,0.06656710058450699,-2.636296510696411,0.09202057123184204,-0.15271949768066406,0.22193419933319092
159,0.7115998378802578,0.23323295578422742,-2.396868339923096,0.6353644728660583,-0.231124147772789,-0.7368131279945374,-11.602859497070312,-10.253521919250488,3.90498423576355,0.34302908182144165,-0.1731574535369873,0.09263288974761963
160,0.7488385908047558,0.21452075719691852,-2.205330067115248,0.6651838421821594,-0.21287919580936432,-0.7156904935836792,8.63429069519043,8.025484085083008,0.7441257238388062,-0.4749982953071594,0.05459977686405182,-0.09928137063980103
161,1.8177952263335988,0.5793917733213653,3.0270528685571203,0.8113997578620911,-0.5475150942802429,0.2045924961566925,6.432065486907959,0.2587631046772003,0.44360241293907166,-0.3735944628715515,0.20992958545684814,-0.10302993655204773
162,0.4617253401809606,0.24934125027213902,-2.1980076949468565,0.431716650724411,-0.2467656284570694,-0.8675986528396606,-12.787330627441406,-9.00024127960205,2.072251319885254,-0.2588650584220886,0.1333775669336319,0.36024391651153564
163,0.44124989687163124,0.37685842079677884,-2.2449222203835624,0.3971004784107208,-0.36800116300582886,-0.8407653570175171,5.384881973266602,2.205108642578125,-1.1322479248046875,-0.4821224808692932,0.12006109952926636,0.3924621343612671
164,1.2957470319230882,0.6483353266131391,-2.8162536879478393,0.7671289443969727,-0.6038603186607361,-0.21648520231246948,8.07050895690918,5.080524444580078,0.08656759560108185,0.5734777450561523,-0.30971384048461914,-0.903952419757843
165,1.6510807922834767,0.7244231658769921,2.954505244432303,0.7464695572853088,-0.6627035737037659,0.06005900353193283,-6.790552616119385,-4.455044269561768,2.060286521911621,0.6980952024459839,-0.6473702192306519,1.0051417350769043
166,0.10095747294198808,0.27475791756437834,-2.206071995368584,0.09700566530227661,-0.27131393551826477,-0.9575900435447693,-2.969531774520874,0.18382582068443298,-0.9731564521789551,-0.8494318127632141,0.6202213764190674,0.7136783003807068
167,1.3397803992839739,1.0396658320326937,-3.000272455118804,0.4930526912212372,-0.8622350096702576,-0.11597350984811783,9.655900001525879,5.846594333648682,0.5744175314903259,-0.3324386775493622,0.6935490965843201,0.16347414255142212
168,1.8377034658430276,1.0087355337687738,2.8393598776326834,0.5140607357025146,-0.8461586236953735,0.14056023955345154,-10.07235050201416,-4.690518379211426,-0.8275456428527832,-0.09694647789001465,-0.07240521907806396,1.1761053800582886
169,0.2938156372595247,0.34548622493103337,-2.1296691825464285,0.2724938690662384,-0.33865422010421753,-0.9005889296531677,-5.277104377746582,-0.1309681534767151,-1.0968518257141113,-0.5874810218811035,0.14758366346359253,-0.3543549180030823
170,0.9812546235539403,0.8159231544641576,-2.524816120485141,0.5695321559906006,-0.7283584475517273,-0.3809555470943451,8.222428321838379,3.798232316970825,0.21122203767299652,-0.18359160423278809,0.1449081301689148,-0.2652999758720398
171,1.6348454257707354,0.9487030398834623,-3.115314439994112,0.5815427303314209,-0.8126603960990906,0.037298306822776794,-3.9615745544433594,-2.5608038902282715,0.9184810519218445,-0.2186429500579834,-0.20899182558059692,0.734216570854187
172,0.13633440839352878,0.38497698526038615,-2.018243775458232,0.12596462666988373,-0.37553781270980835,-0.9182071089744568,-8.051671028137207,-4.67057466506958,-0.07082534581422806,-0.5827670097351074,0.22475045919418335,0.3628634810447693
173,0.6183570176060325,0.7834186126024757,-2.206593342690954,0.41071847081184387,-0.7057056427001953,-0.577312707901001,11.10183048248291,6.84896183013916,0.8710895776748657,-0.317288875579834,0.1926593780517578,-0.08607840538024902
174,1.710072547638858,1.086500161412425,3.1226438547208217,0.4610770344734192,-0.885002851486206,0.06463553756475449,-8.900029182434082,-5.6011505126953125,-0.764046311378479,-0.018694251775741577,-0.5599738359451294,1.2739722728729248
175,0.08795170817627482,0.2734754981168901,-2.023836032612399,0.08457411825656891,-0.2700794041156769,-0.9591164588928223,5.740237712860107,2.281034469604492,0.21223178505897522,0.1691490262746811,0.16430547833442688,-1.8887076377868652
176,0.48678013074127824,1.0162808252641058,-2.1659090349285846,0.24630212783813477,-0.8501556515693665,-0.46537137031555176,4.7627387046813965,3.309232473373413,1.6035997867584229,0.05614228546619415,0.14550483226776123,0.37023285031318665
177,-0.06458562047287247,0.6465006737908141,-1.8936891474704238,-0.05151619389653206,-0.6023969650268555,-0.7965325117111206,-15.880385398864746,-13.228086471557617,1.4975255727767944,0.09544622898101807,0.23260021209716797,0.6948937177658081
178,-0.13206703948421034,0.361806228683486,-1.9479325296060157,-0.12315814197063446,-0.35396409034729004,-0.9271146059036255,13.87504768371582,10.73398494720459,1.506950855255127,-0.20099955797195435,0.4176390469074249,-0.007196307182312012
179,0.7505527553897496,1.4089200081411466,-2.284373975366951,0.10992491990327835,-0.9869266152381897,-0.11786559224128723,-2.149933099746704,-4.459623336791992,-0.3390813171863556,-0.46804869174957275,-0.21390950679779053,0.8839331269264221
180,-0.25510265364459134,0.2023610401794948,-2.051053802893239,-0.24719558656215668,-0.20098274946212769,-0.9478925466537476,5.5673651695251465,4.267592906951904,0.21231448650360107,-0.17150557041168213,0.4033295512199402,-2.258162021636963
181,-0.09503634734146353,0.9063443184087612,-1.896221876749932,-0.058513883501291275,-0.787254810333252,-0.6138452887535095,-3.518389940261841,-2.4969639778137207,0.8871980905532837,0.12995553016662598,-0.27458906173706055,0.7520136833190918
182,-0.2568694647832878,0.7045165605829163,-1.6789809041408454,-0.19357000291347504,-0.6476655602455139,-0.7369260191917419,-1.7477037906646729,-5.040127277374268,1.1257938146591187,-0.007937535643577576,-0.0016416311264038086,-0.27183252573013306
183,-0.4492166524200416,0.5705722206363516,-1.7945339370519475,-0.3654698133468628,-0.5401136875152588,-0.7580956816673279,-0.677208662033081,-0.5909561514854431,-0.8979343175888062,0.029684871435165405,0.1357405185699463,0.24617856740951538
184,-0.4502635223359959,0.5776722384631633,-1.8944160210408114,-0.3645850718021393,-0.5460753440856934,-0.7542409300804138,0.101392462849617,-0.13511763513088226,-0.3817814886569977,0.08718034625053406,0.061059534549713135,0.0829458236694336
185,-0.49249406108769334,0.6569733019199313,-1.9067609607163158,-0.37440380454063416,-0.6107229590415955,-0.6977386474609375,0.3358609676361084,-0.5941324830055237,-0.6312683820724487,-0.08122360706329346,-0.09536218643188477,0.2764435410499573
186,-0.5001188534455047,0.6793815329503692,-1.9513976140551725,-0.37305575609207153,-0.6283119916915894,-0.6826810836791992,0.5405747294425964,-0.18005594611167908,0.16133692860603333,-0.18527859449386597,-0.31400978565216064,-0.02558612823486328
187,-0.4694642540122155,0.6765208616186476,-1.9503905332900218,-0.3527681231498718,-0.6260839700698853,-0.6953945159912109,0.08003343641757965,0.4424082040786743,-0.37443846464157104,0.006836146116256714,0.08763176202774048,-0.08022499084472656
188,-0.403481159265079,0.7246188716846453,-2.002117367916871,-0.2939767837524414,-0.6628501415252686,-0.6886271238327026,0.6888962984085083,-0.18938396871089935,-0.4315306544303894,0.1619272530078888,0.038765668869018555,0.03736674785614014
189,-0.3865009241513586,0.7728038547728038,-2.0155385692464893,-0.26987943053245544,-0.6981453895568848,-0.6631425619125366,-0.4324457049369812,-0.14331017434597015,-0.11446894705295563,0.09495270252227783,0.11213159561157227,0.2644914388656616
190,-0.4090773619979995,0.7205778365378425,-2.057495641839603,-0.2988889217376709,-0.6598190069198608,-0.6894232630729675,-1.6766316890716553,-1.8132126331329346,-0.04854439198970795,-0.009842157363891602,-0.09710848331451416,0.19223082065582275
191,-0.518089238484799,0.5515245538003917,-2.131001466938383,-0.4217929542064667,-0.5239863395690918,-0.739952027797699,5.039546966552734,9.726850509643555,0.9845714569091797,-0.33135032653808594,0.07154804468154907,0.6853103637695312
192,-0.10376644621392424,1.2556776823612317,-1.8854292288387096,-0.03210258483886719,-0.9507595896720886,-0.30826228857040405,-3.0161325931549072,-2.0162229537963867,-1.8025988340377808,0.10166740417480469,0.7029721140861511,1.4200024604797363
193,0.6970423704673209,0.9750387795112567,-2.4913600985492037,0.36022287607192993,-0.8277236223220825,-0.43024784326553345,-0.0637349858880043,3.6912851333618164,-5.770203113555908,0.03563588857650757,1.446955680847168,0.34127378463745117
194,1.4696099846926556,0.3015825927283497,-2.952476990724925,0.9499834775924683,-0.2970317304134369,-0.09645476937294006,2.7121899127960205,4.072010517120361,-6.797702312469482,1.1343518495559692,1.2376750707626343,-0.4571036100387573
195,1.3718672672877035,-0.4662000441448283,-2.710432552967483,0.8756663203239441,0.4494951069355011,-0.17653024196624756,-10.540467262268066,-7.126650333404541,-3.7619783878326416,2.4965109825134277,0.4330122768878937,-0.32038748264312744
196,1.248200943656334,-0.5020766636097401,-1.0373072327486543,0.8313670754432678,0.4812469482421875,-0.2779029905796051,-10.722657203674316,-10.82043170928955,7.08376932144165,0.1282733678817749,0.37274169921875,-0.8843590021133423
197,1.6173285818285779,-0.19975778027599453,-0.9474122558481587,0.9790539145469666,0.19843193888664246,0.04559049755334854,9.627803802490234,11.954938888549805,-2.332310438156128,-1.2022287845611572,1.2689448595046997,-1.5313235521316528
198,1.7239145467789658,-0.6718125281472422,-2.288539994879627,0.7735373973846436,0.6224056482315063,0.11937706917524338,7.444667339324951,1.9834227561950684,0.5148806571960449,0.8159705400466919,0.06846648454666138,0.14295195043087006
199,1.4779785995522372,-0.4885557165719771,-2.0783815451086918,0.8792107701301575,0.46935105323791504,-0.08184150606393814,-6.028749942779541,-8.204928398132324,3.494718074798584,0.563980758190155,-0.01584458351135254,-0.09804439544677734
200,0.7957314851680202,-0.3811152556326613,-1.6230072875606238,0.6631194949150085,0.371955931186676,-0.6495547294616699,-0.20763954520225525,-5.64705228805542,0.8994022011756897,0.2616851329803467,0.18048852682113647,0.5790591239929199
201,0.5336713420203496,-0.3022495074170056,-1.6281300543522517,0.48563796281814575,0.2976684868335724,-0.8219180107116699,0.17484118044376373,-0.1896653175354004,0.5281140208244324,0.18637436628341675,-0.09170535206794739,1.0893588066101074
202,1.318269120419386,-0.1679762786443788,-2.027511681355047,0.954655647277832,0.16718745231628418,-0.24633517861366272,12.289607048034668,15.398101806640625,-1.46334707736969,-0.01933765411376953,0.3274719715118408,-0.26317107677459717
203,1.6996799158992562,-0.3615720365100744,-3.052641766685988,0.9275842308998108,0.35374507308006287,0.12021675705909729,-6.005640029907227,-4.309746742248535,-1.691877007484436,0.09669250249862671,0.02630561590194702,2.308234691619873
204,1.3370478890759407,-0.34571852321879804,-1.6139182890577946,0.915246307849884,0.3388727605342865,-0.21792086958885193,-14.280228614807129,-11.295546531677246,2.478651523590088,0.28024929761886597,0.6106511354446411,-0.4326528310775757
205,1.0857834141361202,-0.31733044690658563,-0.9338039249935542,0.8404989838600159,0.31203141808509827,-0.4429422616958618,4.762401103973389,7.911938190460205,-0.9305283427238464,-1.433455467224121,0.6303514242172241,-0.08556115627288818
206,1.6563835375002713,-0.3990928344260409,-2.31739741204263,0.9180411696434021,0.38858261704444885,0.07876499742269516,13.93268871307373,4.459226131439209,1.0558844804763794,0.4201545715332031,0.20065075159072876,0.16163718700408936
207,1.4414946112861067,-0.2843904031984519,-1.9460354581644486,0.9518202543258667,0.28057238459587097,-0.12376248091459274,-12.091218948364258,-7.534919261932373,3.1716630458831787,0.09288787841796875,0.15440991520881653,0.40446317195892334
208,1.1540073589504132,-0.30320753045195714,-1.137556560579654,0.8726823329925537,0.29858294129371643,-0.38635972142219543,0.4566362798213959,-0.5934365391731262,-0.9347931146621704,-0.8094651699066162,0.4355784058570862,-0.660088062286377
209,1.4517775688906651,-0.304887710327944,-2.034061709408607,0.9471326470375061,0.30018606781959534,-0.1132618635892868,12.95886516571045,8.23730182647705,-2.2034027576446533,-0.23804134130477905,0.30873119831085205,-0.0747111588716507
210,1.5556085006183575,-0.3795890160635383,-2.7115764989553672,0.9287098050117493,0.37053877115249634,-0.014106168411672115,-4.876802921295166,-2.3898189067840576,0.4825286865234375,0.22555649280548096,-0.4548588693141937,0.882682204246521
211,1.221456068259551,-0.3851302310899277,-1.5113146385715557,0.8707727193832397,0.3756798207759857,-0.3172059655189514,-11.414981842041016,-10.025166511535645,2.782273530960083,-0.11796510219573975,0.05974498391151428,-0.4028867483139038
212,0.907440600434231,-0.44773029062172603,-1.3395923054981087,0.7102656364440918,0.4329206645488739,-0.5550697445869446,6.789402008056641,3.7704639434814453,-3.604093313217163,-0.5723720192909241,0.6654069423675537,0.00665360689163208
213,1.3985444206156028,-0.12423493162197717,-2.7840433442466597,0.9776080846786499,0.12391559779644012,-0.17008033394813538,14.612741470336914,6.896331310272217,0.3378481864929199,0.18851429224014282,0.6304789185523987,0.5526944994926453
214,1.239512527989416,0.014401246842801673,-2.6638356296355927,0.9455274939537048,-0.01440074946731329,-0.32522356510162354,-12.262046813964844,-7.532642841339111,3.5629117488861084,-0.04033041000366211,0.38183239102363586,0.835981011390686
215,0.4912483032394846,-0.45878095097800964,-1.6026097779126731,0.42294710874557495,0.44285544753074646,-0.7905661463737488,-0.923443078994751,-1.8085049390792847,2.0843617916107178,-0.41835421323776245,0.5225528478622437,0.05802220106124878
216,1.411587445182258,0.020949905996123296,-2.491173513722956,0.9871364831924438,-0.020948372781276703,-0.15850237011909485,14.879202842712402,7.347749710083008,-0.05463492125272751,0.0364232063293457,0.3698711097240448,-0.33066385984420776
217,1.1528084079642147,-0.23958995259898017,-2.0793154479021085,0.8878020644187927,0.23730431497097015,-0.3943273723125458,-16.417325973510742,-10.712423324584961,1.1471920013427734,0.369903564453125,0.03384435176849365,0.40891486406326294
218,1.127837038903474,-0.36727259075799173,-1.4808083153404605,0.8432338833808899,0.3590712547302246,-0.40003079175949097,8.370817184448242,11.168864250183105,-0.978752851486206,-0.9543789029121399,0.7680954933166504,-0.48169833421707153
219,1.326980842646162,-0.32861807602983184,-2.3386041978081566,0.9184958934783936,0.32273536920547485,-0.22848916053771973,-4.864482402801514,-4.1439595222473145,-1.0289158821105957,0.08255696296691895,-0.6787075996398926,1.7215006351470947
220,1.1399234329349972,-0.513133206697692,-1.2091515864457845,0.7915832996368408,0.4909093379974365,-0.3638733923435211,-4.725425720214844,-2.6814446449279785,2.539541244506836,-0.6257660984992981,0.17458748817443848,-0.626833975315094
221,1.498164220994645,-0.5071033515931593,-2.0233818941739385,0.8718501329421997,0.48564717173576355,-0.06343590468168259,11.62065315246582,4.854960918426514,-1.9345728158950806,0.267691433429718,0.15386393666267395,-0.6250711679458618
222,1.438325739633278,-0.527032923585212,-2.132481329320806,0.8567306995391846,0.5029711127281189,-0.11416018009185791,-9.807611465454102,-6.45830774307251,2.035543918609619,0.9637801647186279,-0.2023119330406189,0.2187896966934204
223,1.0878391840724349,-0.47582390794141005,-1.068204332827255,0.7872463464736938,0.4580709934234619,-0.4128125309944153,-0.5416039824485779,-4.635837554931641,0.7884361147880554,-0.5982357263565063,0.8284585475921631,-0.8021990656852722
224,1.2088703102571579,-0.27251683672438304,-2.120852044522131,0.9007039070129395,0.26915624737739563,-0.3410095274448395,17.18196678161621,9.09850788116455,-1.908949613571167,0.23075056076049805,0.7870419025421143,-0.08538210391998291
225,1.3559104352002642,0.049236826689901494,-2.7970555472274965,0.9758167862892151,-0.04921693354845047,-0.2129775434732437,-6.955511569976807,-4.325459003448486,2.928969621658325,0.1548747420310974,0.08524292707443237,1.25727379322052
226,0.5780127846316223,-0.22270238797299785,-1.7995750127693655,0.5328677892684937,0.22086606919765472,-0.8168660402297974,-4.029882431030273,-4.323278903961182,2.004056215286255,-0.5331271886825562,0.7007189989089966,0.20511066913604736
227,1.2949491386720418,0.17798269717859289,-2.579257129179088,0.9469949007034302,-0.17704449594020844,-0.2680596709251404,12.242671966552734,4.750829696655273,-1.8466401100158691,-0.3841286897659302,0.8951994180679321,0.19719785451889038
228,1.2424065936079365,-0.05634064212305809,-2.5576671054117543,0.9450609683990479,0.05631083995103836,-0.3220074772834778,-12.132655143737793,-6.066026210784912,-0.8123589754104614,0.24863409996032715,0.25077229738235474,0.9656994938850403
229,1.148286314265231,-0.44010816557097343,-1.6171149387641042,0.8251481652259827,0.4260373115539551,-0.3709754943847656,-0.014660603366792202,4.99627685546875,1.1661005020141602,-0.054274141788482666,0.9340090751647949,-0.7064476013183594
230,1.5941939685216053,-0.5186866304875298,-2.6155963249184726,0.8682333827018738,0.4957399368286133,0.020318321883678436,10.207260131835938,2.5265257358551025,-2.24141001701355,0.309958815574646,0.017535269260406494,-0.18264126777648926
231,1.472004237055552,-0.4821681857835291,-2.1868442950634512,0.8816714882850647,0.4637012481689453,-0.08738665282726288,-14.33297061920166,-9.44455337524414,3.0699801445007324,0.15534627437591553,-0.1423359215259552,0.6129909157752991
232,1.2271858927817316,-0.41641711881008525,-1.21399159533218,0.8610839247703552,0.40448635816574097,-0.30809953808784485,4.235149383544922,4.050123691558838,-0.5448007583618164,-1.13482666015625,0.6225675344467163,-0.74379563331604
233,1.510992889438667,-0.40143064057558825,-2.576531694388721,0.9188574552536011,0.3907356560230255,-0.05501643568277359,9.764366149902344,2.259661912918091,0.05894209444522858,0.11823666095733643,0.11857223510742188,0.4702996015548706
234,1.2684980173644615,-0.36495053884204454,-2.1668021698234976,0.8917825222015381,0.3569031059741974,-0.27810797095298767,-11.603612899780273,-8.982316017150879,2.831681966781616,0.16658228635787964,0.2761840522289276,0.024705320596694946
235,1.058889948677706,-0.37861234091152396,-1.7337729846840944,0.81006920337677,0.36963143944740295,-0.4551489055156708,6.387384414672852,7.050537109375,-1.9741114377975464,-0.823893666267395,0.8892491459846497,-0.23741698265075684
236,1.2499462826237346,-0.35590833095182234,-2.7525439192743386,0.8894962668418884,0.3484419286251068,-0.2956090271472931,7.515830039978027,2.725654125213623,-1.471528172492981,0.5528560280799866,-0.19229871034622192,0.5491032600402832
237,1.1084448658854256,-0.2497014862436462,-2.68510931370599,0.8672485947608948,0.24711471796035767,-0.43222010135650635,-7.341672420501709,-7.783026218414307,3.6618876457214355,0.4466552138328552,-0.08016829192638397,0.32253992557525635
238,0.4891647750864946,-0.4445417428972885,-2.0740085346600763,0.4242192804813385,0.4300442039966583,-0.7969316244125366,-0.12587738037109375,-3.5402910709381104,0.6396753787994385,0.06154429912567139,0.2779636085033417,0.22529160976409912
239,0.8227465406710877,-0.06374142316763458,-2.443424921682521,0.7315282225608826,0.06369826942682266,-0.6788291931152344,10.492711067199707,10.751009941101074,-1.5524870157241821,-0.21257680654525757,0.29581406712532043,0.5939140319824219
240,1.2785079304109466,0.07568207330627112,-2.996249943981622,0.9548459053039551,-0.07560984790325165,-0.28731948137283325,-7.777523517608643,-5.611039638519287,-0.3582257330417633,0.11633634567260742,-0.03492482006549835,1.5885738134384155
241,0.8003411308388813,-0.4359778175885294,-1.7704559345724609,0.6504682302474976,0.422296941280365,-0.631313145160675,-7.809974193572998,-3.330998182296753,4.9369354248046875,0.32717764377593994,1.1478781700134277,-0.22832119464874268
242,1.4481682812719392,-0.3595538195565071,-1.8141598134224495,0.9290246963500977,0.35185661911964417,-0.11449898779392242,8.979623794555664,9.385481834411621,-2.4374430179595947,-0.15720462799072266,0.30849799513816833,-1.1487609148025513
243,1.259240794091548,-0.45637814180417435,-1.7145034643510815,0.8544394969940186,0.44069981575012207,-0.27516669034957886,-12.239072799682617,-11.270736694335938,5.498299598693848,0.8122779726982117,-0.5216934680938721,0.24219247698783875
244,1.1337253817702138,-0.2285379825399655,-1.0827505386958454,0.8824382424354553,0.2265537679195404,-0.41228151321411133,5.208346843719482,8.33361530303955,-0.5485740900039673,-1.5382763147354126,0.866402804851532,0.039310961961746216
245,1.187135624257463,-0.42889173498593547,-1.4831901764624518,0.8433123230934143,0.41586318612098694,-0.34041455388069153,-4.242345809936523,-6.011167049407959,-0.9429137110710144,0.6437939405441284,-0.6555787324905396,0.44078683853149414
246,1.3129062200879458,-0.3945428284830315,-1.1527772104049638,0.8926432728767395,0.38438618183135986,-0.23544681072235107,0.11698974668979645,6.801700115203857,0.9464419484138489,-0.5867961645126343,0.35026347637176514,-0.3081628084182739
247,1.6503145637838723,-0.4874510830311309,-1.5361795636894489,0.8807377815246582,0.4683753550052643,0.07018270343542099,5.388733863830566,3.7741594314575195,-1.4087677001953125,0.3255152702331543,0.15714341402053833,-0.6559828519821167
248,1.610075959050021,-0.5869161421433124,-2.0073604240827247,0.8320100903511047,0.5537958741188049,0.03269786760210991,3.877157211303711,0.6550900340080261,0.9822676777839661,0.5244198441505432,-0.4812098741531372,-0.7174055576324463
249,1.2103769072299426,-0.3974651876745069,-2.2109895617462647,0.8628028035163879,0.38708236813545227,-0.3251746594905853,-2.630236864089966,-9.483702659606934,2.6040830612182617,0.5915123820304871,-0.07529950141906738,-0.10074388980865479
250,0.4729447228811988,-0.3695066589585296,-1.8474560050178834,0.42476537823677063,0.3611554205417633,-0.8301452398300171,2.5009734630584717,-3.1843695640563965,1.406261682510376,0.10077780485153198,0.6114092469215393,0.3066619634628296
251,1.037427724836472,0.15392265780802375,-2.4641804474820486,0.850918710231781,-0.15331558883190155,-0.5024257898330688,13.866950035095215,7.606964588165283,-0.5615529417991638,0.1545897126197815,0.7030745148658752,-0.17955046892166138
252,1.2135069296099354,0.37838958338025086,-2.9056280110722463,0.8705763220787048,-0.3694244623184204,-0.3249960243701935,-6.773828983306885,-5.658785820007324,0.7145620584487915,0.025297701358795166,0.3940216600894928,1.1381827592849731
253,0.38915018004670754,-0.10095090322961692,-2.1338895757887024,0.37747064232826233,0.10077952593564987,-0.9205212593078613,-5.495365619659424,-2.092519521713257,2.5544486045837402,0.22506839036941528,0.593663215637207,0.7484479546546936
254,0.8134890870442503,-0.290393222013979,-1.9593465202172728,0.6962630748748779,0.2863290011882782,-0.6582047939300537,-0.5464843511581421,7.606064796447754,-2.1778550148010254,0.13058024644851685,0.6623098850250244,0.13707131147384644
255,1.468888962660318,-0.48150413723451413,-2.3888819956986223,0.8817012310028076,0.46311280131340027,-0.0901641845703125,3.587589979171753,3.109250068664551,-2.7272119522094727,0.3485844135284424,-0.22843265533447266,-0.44329833984375
256,1.5579395356759527,-0.6082573150370135,-2.0362655884263705,0.8205773234367371,0.571438193321228,-0.010550572536885738,-9.211007118225098,-6.389371871948242,0.9916089773178101,0.6854651570320129,-0.767910361289978,-0.4263237714767456
257,1.2843695631616217,-0.3655403520497757,-1.0655712347414859,0.8958819508552551,0.35745400190353394,-0.2638600766658783,-3.3168141841888428,-4.739904880523682,3.0270254611968994,-0.5553516149520874,0.40220481157302856,-0.6546885371208191
258,1.266955726263307,-0.33712857109602407,-1.1404847022054778,0.9004813432693481,0.33077865839004517,-0.28234535455703735,4.870131969451904,4.576175689697266,-2.924621105194092,-0.6992789506912231,0.9031385779380798,-0.5772584676742554
259,1.5686532660166022,-0.4561532679902106,-2.4504722010561792,0.8977516889572144,0.4404979646205902,-0.001923939329572022,14.406487464904785,6.120881080627441,-0.09415832906961441,0.3798515796661377,0.5297017097473145,-0.7767625451087952
260,1.373858705714408,-0.18785872110375673,-2.9837196030265054,0.9634167551994324,0.1867557168006897,-0.19222456216812134,-5.119684219360352,-5.548463344573975,4.3737945556640625,0.5159838199615479,-0.05060155689716339,0.43567854166030884
261,0.7308118461260943,-0.1452682931211166,-2.3024255415286166,0.660443902015686,0.14475789666175842,-0.7367895841598511,2.6799018383026123,1.287685751914978,1.925191044807434,-0.2130257487297058,1.133135199546814,-0.01330190896987915
262,1.320654150159719,0.49855731719478075,3.0995431186244407,0.8509390950202942,-0.47815898060798645,-0.21740929782390594,8.389195442199707,-1.319661259651184,2.16518235206604,0.07041722536087036,1.2911319732666016,0.6584798097610474
263,0.7011476196167857,0.45173319516843,-2.8615415265926836,0.580386757850647,-0.43652552366256714,-0.6874567270278931,-7.797649383544922,-4.969976902008057,1.6371371746063232,-0.05244791507720947,0.8017598986625671,1.1093164682388306
264,0.670999529421831,0.22519264612419776,-2.699326530947063,0.6060701608657837,-0.22329415380954742,-0.7634256482124329,0.9497003555297852,4.229658126831055,-1.9551726579666138,-0.05681478977203369,0.7745636701583862,0.8724191784858704
265,1.2989429148949556,-0.13422528770881578,-2.851058684878081,0.9546104669570923,0.13382260501384735,-0.26610198616981506,0.4099598228931427,5.43109130859375,-4.801055431365967,0.9709723591804504,0.9901092648506165,-0.5241659879684448
266,1.5429887154944908,-0.6040448128294997,-2.800972634309285,0.8227267861366272,0.567976176738739,-0.022883964702486992,-3.646470069885254,-2.2058658599853516,-1.1729830503463745,1.44236421585083,-0.9770338535308838,-0.8062939047813416
267,1.3272950136440091,-0.5195380871540853,-1.8233977715525178,0.8424409627914429,0.49647921323776245,-0.2092883586883545,-8.249411582946777,-5.146410942077637,3.7725167274475098,-0.13249528408050537,0.0011251568794250488,0.06504702568054199
268,1.608607509274976,-0.4354729901551926,-1.3313924695105341,0.9060226082801819,0.42183929681777954,0.03427411988377571,0.21334657073020935,2.532968044281006,-0.8717814087867737,-0.4492354989051819,0.08914703130722046,-1.7990446090698242
269,1.5664870958293202,-0.5389178204757642,-1.5072955944220787,0.8582566976547241,0.5132074952125549,-0.0036984491162002087,1.4936455488204956,-0.18732839822769165,-0.6658951044082642,0.05644679069519043,-0.004326820373535156,-0.780664324760437
270,1.4325027940542965,-0.5740029717054685,-1.7182702046906477,0.8317169547080994,0.5429978370666504,-0.11575999110937119,2.436899185180664,0.8432497978210449,-0.5529503226280212,0.07000118494033813,0.2690443992614746,-0.6514519453048706
271,1.3649173405302704,-0.5511069111852245,-2.3715299878975484,0.833953857421875,0.5236305594444275,-0.17416122555732727,9.982318878173828,5.785930633544922,-0.5318986773490906,0.2158660888671875,0.5296531319618225,-0.8295619487762451
272,1.239169675093935,-0.17092342636680866,2.9776703971826786,0.9317360520362854,0.1700923889875412,-0.320837140083313,1.1141908168792725,-3.746333360671997,4.264297008514404,0.8007010221481323,0.3508121371269226,0.8000394105911255
273,0.6231818695840304,0.07995522317949644,-2.762099811042363,0.5817573666572571,-0.0798700600862503,-0.8094313740730286,-1.6623491048812866,-4.801844120025635,4.237142086029053,0.2517387270927429,0.8412531018257141,0.7709487080574036
274,0.36570347748458054,0.23075544251739674,-2.5447858459367967,0.3481276035308838,-0.2287130057811737,-0.9091191291809082,1.3548890352249146,-0.7527936697006226,1.2702102661132812,0.3610551655292511,0.3125905692577362,1.0235295295715332
275,0.4237323169829247,0.23268177467857462,-2.419891833771263,0.4000852704048157,-0.23058785498142242,-0.8869954943656921,-1.9361979961395264,2.2483553886413574,1.615058183670044,0.6639864444732666,0.15466012060642242,0.7511618137359619
276,0.9089955660407654,0.15565430160761165,-2.217152415740163,0.7793494462966919,-0.15502652525901794,-0.6071088314056396,0.48715856671333313,6.806207180023193,1.4332257509231567,0.8072746992111206,0.21085843443870544,-0.6043169498443604
277,0.9556654314985259,0.23691410434408172,-1.926263771616255,0.7938850522041321,-0.23470404744148254,-0.5609462261199951,-7.899739742279053,-6.667006969451904,4.152822017669678,1.2203972339630127,-0.07572078704833984,-0.22523242235183716
278,-0.07936894163887963,-0.002582172558602021,-0.8389301695515458,-0.07928537577390671,0.0025821696035563946,-0.9968486428260803,-0.656819224357605,-3.8667492866516113,9.67990779876709,0.4012000560760498,1.480556845664978,0.9063335061073303
279,0.3518881357451013,0.4179173201752014,-0.38297159140006903,0.31500717997550964,-0.4058578908443451,-0.8579334616661072,6.709065914154053,5.923356056213379,1.8359743356704712,-0.8276872634887695,1.2614182233810425,-0.5006023049354553
280,-0.01073060218971199,0.24869001512304834,-0.29985402770641145,-0.01040028315037489,-0.24613448977470398,-0.9691798686981201,-6.352903366088867,-4.115755558013916,3.019965648651123,0.16571949422359467,0.36464953422546387,0.5437648892402649
281,0.41882019821115,0.8615087381158895,-0.30010196381018145,0.2648698687553406,-0.7588260769844055,-0.5950016379356384,-0.20778164267539978,-7.3004150390625,-1.6904312372207642,-0.6813433170318604,1.3110417127609253,-0.15377765893936157
282,0.4452589511992503,0.3359212086438738,-0.46949317218861175,0.40661898255348206,-0.3296390175819397,-0.8520558476448059,2.5810067653656006,-3.0189836025238037,-3.972226142883301,-0.08781710267066956,0.7855716943740845,-2.2171733379364014
283,0.2462032524767569,0.2535079138527491,-1.0141086349289814,0.23593372106552124,-0.25080129504203796,-0.9388471245765686,0.8976007103919983,-2.6947290897369385,-3.56101393699646,0.49097973108291626,0.07852959632873535,-0.4606279134750366
284,0.0844184695770087,0.266904344465751,-1.3943650165554242,0.08133269846439362,-0.2637466490268707,-0.961156964302063,1.0756438970565796,-2.1750237941741943,-3.2199363708496094,0.6457333564758301,0.0034622550010681152,-0.279626727104187
285,0.01419337026349638,0.46056987585184006,-1.6613751640191259,0.012713984586298466,-0.44445866346359253,-0.8957090973854065,2.165356397628784,-1.8815873861312866,-1.2386860847473145,0.6880459189414978,-0.01432734727859497,0.09453117847442627
286,-0.028592895043279092,0.6601454253678443,-1.775350700400919,-0.022582538425922394,-0.6132317185401917,-0.789580225944519,1.7391878366470337,-0.6587565541267395,-0.24138447642326355,0.4475855827331543,-0.037769198417663574,0.21290481090545654
287,-0.05880755910276471,0.7479217564217865,-1.7715067659883774,-0.043087203055620193,-0.6801166534423828,-0.7318365573883057,0.8604137897491455,-0.18750019371509552,0.5654021501541138,0.4078638255596161,-0.10433763265609741,0.02280646562576294
288,-0.06559312436605583,0.7937359603907206,-1.7042202205321548,-0.045960038900375366,-0.7129778265953064,-0.6996786594390869,0.22641175985336304,0.7601640820503235,0.35997527837753296,0.32856807112693787,0.06418943405151367,0.11992102861404419
289,-0.07103137749877544,0.7909953326204305,-1.5849275704746373,-0.049902867525815964,-0.7110534906387329,-0.7013648748397827,-0.12883228063583374,1.0187848806381226,1.0445462465286255,0.06279653310775757,0.00409853458404541,0.19947278499603271
290,-0.07946777560939357,0.7772352506124254,-1.448312031522148,-0.05658941715955734,-0.7013112306594849,-0.7106055617332458,-0.32157349586486816,0.6227458119392395,0.8401243090629578,0.01545172929763794,0.027254223823547363,0.08005136251449585
291,-0.10483947685842997,0.8044246664925326,-1.3486363123576908,-0.07257577031850815,-0.7204317450523376,-0.6897179484367371,0.30646243691444397,0.29568764567375183,0.7662668228149414,-0.025385648012161255,-0.08002907037734985,0.023671865463256836
292,-0.20834471408693805,0.867772389592266,-1.1680154683155528,-0.13372822105884552,-0.762890636920929,-0.6325462460517883,0.8510575890541077,0.7975456118583679,1.6238491535186768,-0.015029698610305786,-0.22886961698532104,0.16626816987991333
293,-0.2564173658268245,0.8846831996559338,-0.8562789295943996,-0.16067494451999664,-0.7737143039703369,-0.6128210425376892,0.08411544561386108,3.263709783554077,1.8400325775146484,0.31082141399383545,0.2559989094734192,0.445065975189209
294,-0.0885699422334262,0.8933280602177472,-0.6534110717561662,-0.055445075035095215,-0.7791621685028076,-0.624365508556366,-0.7021535634994507,4.339076042175293,0.2278497964143753,0.5305885076522827,0.8121058940887451,0.864355742931366
295,0.3801455805142096,0.5854969898003752,-0.6942265995950617,0.30925172567367554,-0.5526136755943298,-0.7739389538764954,-4.7067670822143555,4.818581581115723,-1.166768193244934,1.0620708465576172,1.3007826805114746,0.6747568845748901
296,0.9082565625177121,-0.007811180414001773,-0.40103360866545057,0.7884084582328796,0.0078111011534929276,-0.6151025295257568,-8.809348106384277,5.513654708862305,-0.6883533596992493,2.337857961654663,2.469987392425537,-0.5701849460601807
297,1.1896062095587436,-0.1895698574837027,0.387528377998103,0.9115937352180481,0.18843647837638855,-0.36536073684692383,-2.1520137786865234,-1.3583462238311768,1.8554787635803223,0.05027449131011963,1.039743423461914,-1.1002459526062012
298,1.3785061635698646,-0.13627617550773757,0.4670939485822334,0.9724687337875366,0.13585476577281952,-0.18933553993701935,-2.0075888633728027,3.0140137672424316,1.5819017887115479,0.4262891411781311,0.6926974654197693,-0.11463473737239838
299,1.6232048057527957,0.1628841063785008,1.0707023598305847,0.9854087233543396,-0.1621648073196411,0.05169110372662544,-7.3062543869018555,0.4780336022377014,4.394149303436279,0.062473177909851074,1.3771764039993286,-1.4260655641555786
300,1.394289063228685,0.27908050056849554,1.3582658873154645,0.9463731646537781,-0.27547183632850647,-0.16879835724830627,-0.3951474130153656,-2.307042121887207,-2.720508575439453,-0.3953936696052551,1.0533497333526611,-0.6340276002883911
301,1.1724024198026655,0.1508514325681009,1.1638206549545824,0.9112180471420288,-0.1502799540758133,-0.38353288173675537,1.5391024351119995,-1.8791042566299438,-0.16310852766036987,-0.15773910284042358,0.2367972731590271,0.6248201131820679
302,1.0357667680152083,-0.042771055733698604,1.3373252885961286,0.8594667911529541,0.042758017778396606,-0.5094001889228821,-3.154252529144287,0.366408109664917,-1.495313286781311,-0.8141329288482666,-0.4242735207080841,0.5534980893135071
303,1.2561182389132892,-0.3440308134084331,1.4199852933086137,0.8951761722564697,0.3372844457626343,-0.29137393832206726,-0.850669264793396,0.012964176014065742,-0.37806808948516846,2.6629750728607178,-0.17807427048683167,-1.7423326969146729
304,0.9961877919685632,-0.23155431903837853,1.398221334000715,0.8170021176338196,0.22949063777923584,-0.5290005207061768,1.301483392715454,-1.8093464374542236,0.7006828188896179,0.11228859424591064,-0.30430448055267334,0.23504000902175903
305,0.8346995789200387,-0.0036235635063118967,1.3680712746211856,0.7410899996757507,0.0036235556472092867,-0.6713959574699402,1.112061619758606,-1.9797635078430176,3.165149688720703,-0.027268588542938232,-0.2179943025112152,0.5669037699699402
306,0.5879443047265513,0.2602651017573095,1.5737941291196513,0.535971999168396,-0.25733673572540283,-0.804059624671936,-0.2572730779647827,-1.0553475618362427,2.3031647205352783,0.537911057472229,1.4990969896316528,1.018872857093811
307,0.7040538345037547,-0.03779072256020627,1.8269374152288085,0.6468507647514343,0.0377817265689373,-0.7616801261901855,-4.642536640167236,1.9098687171936035,-1.2687749862670898,0.09265118837356567,0.7119436264038086,0.19817304611206055
308,1.014757117051817,-0.4069841353366874,1.8618316527375693,0.7799763083457947,0.3958415985107422,-0.48471277952194214,-3.689218282699585,2.7526817321777344,-1.311387538909912,0.14891773462295532,-0.7032756805419922,0.16949671506881714
309,1.3264689357475676,-0.518717336127801,2.1385157425572494,0.8426628708839417,0.49576660990715027,-0.21008270978927612,0.45309096574783325,-0.17429594695568085,1.140695333480835,0.9173926711082458,0.6789312362670898,-1.4056856632232666
310,1.1939124411261768,-0.5127131779479207,2.0883630303316516,0.8102572560310364,0.4905433654785156,-0.32070302963256836,2.5964982509613037,-2.3778905868530273,0.4487055540084839,0.3564450144767761,-0.024372100830078125,-0.6897797584533691
311,0.8958491129080856,-0.2636366677857563,1.8333297335602743,0.7537643313407898,0.2605932950973511,-0.6032664775848389,4.687133312225342,-1.2655478715896606,1.4299062490463257,-0.048808276653289795,-0.16102969646453857,0.04259753227233887
312,0.7105625425742217,0.33164261429923725,1.7295727537984973,0.6167178153991699,-0.32559657096862793,-0.7166910171508789,1.9163318872451782,-2.4797348976135254,5.198129177093506,0.7728848457336426,1.842564344406128,0.9666910171508789
313,0.5715812340000644,0.22456440228178645,1.9334209085688334,0.5273796916007996,-0.22268171608448029,-0.8199290037155151,-4.522039413452148,1.709951400756836,-1.585020899772644,-0.22739195823669434,0.5761821269989014,1.1528605222702026
314,0.8584250312915441,-0.30141318020369406,1.9233775864176217,0.7226952910423279,0.2968699634075165,-0.6241632103919983,-4.460812091827393,2.8222463130950928,-2.715301990509033,0.4700689911842346,-0.15140795707702637,0.4680505394935608
315,1.35245955743284,-0.6683241172730489,2.2906815731418355,0.7662279009819031,0.6196715235710144,-0.17000579833984375,-0.3021625280380249,2.196013927459717,1.0228198766708374,1.7264630794525146,-0.0854918360710144,-2.2036056518554688
316,1.1991990426415757,-0.5308422221406862,2.3793634083990907,0.8035221695899963,0.5062598586082458,-0.313134104013443,-0.4792865514755249,-2.60296368598938,0.5231019258499146,-0.05333912372589111,-0.06613534688949585,-0.29375365376472473
317,1.0091934054885907,-0.4259976267367163,2.2366605148144787,0.7707569599151611,0.41322946548461914,-0.4849485158920288,2.1972854137420654,-0.9078061580657959,0.5714260339736938,-0.4113362431526184,-0.8753113746643066,0.3072446882724762
318,0.9272850703252706,-0.09977503364300537,2.3293254508958907,0.796015202999115,0.09960956871509552,-0.5970240235328674,-0.7571260929107666,-1.8720024824142456,4.156488418579102,0.97189861536026,1.7326505184173584,0.3783961534500122
319,0.9050581940875433,-0.24981197114203252,2.651460059359566,0.7620485424995422,0.24722176790237427,-0.5984676480293274,-4.444321632385254,1.0510081052780151,-1.817944049835205,-0.25831013917922974,0.502534031867981,0.3882778286933899
320,1.1271450185729435,-0.7747934120720513,2.618246579246861,0.6453889012336731,0.6995684504508972,-0.3067202866077423,-3.04351806640625,2.3865299224853516,-3.775533437728882,0.8199278712272644,-0.7813860774040222,0.09950590133666992
321,1.3773381421760884,-0.8647244556783652,2.6894964213095287,0.6367455124855042,0.760916531085968,-0.1247437447309494,-0.46836748719215393,-0.20537033677101135,3.176635980606079,0.7819250822067261,-0.3196476697921753,-0.4611174166202545
322,1.3874423140618841,-0.626637480770611,2.719220432537793,0.7964264154434204,0.5864244103431702,-0.14768670499324799,4.043704986572266,-3.061258554458618,2.0162198543548584,0.8135894536972046,0.9176191687583923,-1.3094818592071533
323,0.9430365750026871,-0.1863876697921072,2.2502236210293893,0.7953274846076965,0.18531034886837006,-0.5771604776382446,6.702431678771973,-2.3652026653289795,3.3139443397521973,0.5731874704360962,0.9470138549804688,0.1191832423210144
324,0.7663575534992739,0.4971629601537071,2.0658418017751194,0.60955810546875,-0.47693386673927307,-0.6332243084907532,5.05383825302124,-1.2230175733566284,4.5505900382995605,0.3630980849266052,1.5076651573181152,0.8106382489204407
325,0.6584678981438373,0.8552439814140438,2.1183383975576313,0.40143129229545593,-0.7547309994697571,-0.5188778042793274,-1.2222388982772827,1.2544296979904175,-2.156909942626953,-0.7382385730743408,1.5709388256072998,1.4694392681121826
326,0.9886013785986878,0.28462139409436954,1.946498855474302,0.8016536831855774,-0.28079408407211304,-0.5277367234230042,-1.1684495210647583,1.4177393913269043,-6.16536808013916,0.2153751254081726,0.736574113368988,0.09287649393081665
327,1.0650685931572133,-0.1923092141210461,1.7003481466363455,0.8586952686309814,0.1911260485649109,-0.4755137264728546,-1.6358610391616821,0.6508955955505371,-4.767086029052734,0.5489432215690613,0.3226678967475891,0.4539988338947296
328,1.318144809051612,-0.6505251328836813,1.8825283529690124,0.7705026268959045,0.605604350566864,-0.19891931116580963,-3.1099021434783936,0.3570120334625244,-1.9027347564697266,1.4789021015167236,0.6431443691253662,-1.461496353149414
329,1.1658774323543386,-0.7539895812603161,1.8371184697616,0.6700155138969421,0.6845524311065674,-0.28717100620269775,2.2315707206726074,-2.019056797027588,-0.6736424565315247,0.04829198122024536,-0.9653446674346924,-0.057235121726989746
330,0.9301180792565433,-0.600365019024415,1.722738001693734,0.661498486995697,0.5649436712265015,-0.49321234226226807,0.33389556407928467,1.1267764568328857,2.6506752967834473,0.327881395816803,-0.6096062064170837,0.7671533823013306
331,1.1390957180330115,-0.35940817180134205,2.0248909000085296,0.8502225875854492,0.35172027349472046,-0.39168134331703186,-1.623761773109436,-0.8303225636482239,2.192129135131836,0.348935067653656,1.1423897743225098,-0.26968035101890564
332,1.0286791365765395,-0.4246468567542235,1.8221268452136858,0.7805370688438416,0.41199901700019836,-0.470126211643219,3.2709970474243164,0.19345584511756897,-3.5235953330993652,-0.48566097021102905,-0.5128749012947083,0.5505247712135315
333,0.9902556694637614,-0.5555649488706293,1.5307240004454525,0.7104090452194214,0.5274233818054199,-0.4659867286682129,-0.12482250481843948,3.455698013305664,-0.7259580492973328,0.2376652956008911,-0.8199648261070251,0.4365830421447754
334,1.283610461893339,-0.4185875907032082,1.6050105746037564,0.8762446045875549,0.406470388174057,-0.25879937410354614,0.9025918841362,-2.3768482208251953,2.626878261566162,0.8328922986984253,0.8580254316329956,-1.5543261766433716
335,0.9576126727428215,-0.13046251560177016,1.3733558409178015,0.8108701109886169,0.13009274005889893,-0.5705835819244385,5.561168670654297,-1.3823622465133667,0.6066202521324158,0.06576257944107056,0.3910864591598511,0.2939417362213135
336,0.9906248775299771,0.30190612214602836,1.0790947387066678,0.7985409498214722,-0.29734066128730774,-0.5233745574951172,2.626405715942383,1.180087924003601,3.2323083877563477,0.22785675525665283,0.7625963687896729,0.7834911346435547
337,0.9233609852458864,0.5642031256486767,1.2815915576533312,0.6740121245384216,-0.5347425937652588,-0.5096646547317505,-3.2197399139404297,-0.4604666531085968,0.5923229455947876,-0.15319913625717163,1.9979078769683838,0.872869610786438
338,1.0043090500649257,0.12706662980624797,1.3565984229865438,0.836988627910614,-0.126724973320961,-0.5323446989059448,-2.07147479057312,0.9796839356422424,-3.894298553466797,0.2822282314300537,0.7612464427947998,0.30739957094192505
339,1.1123371151636712,-0.33483206873397664,1.5610795753375226,0.8469356894493103,0.3286105692386627,-0.41798919439315796,-5.130032539367676,0.015512702986598015,-1.925048828125,0.2885775566101074,0.2434871792793274,-0.13021326065063477
340,1.4337162562806982,-0.6806303371109147,2.056870667951267,0.7698855996131897,0.6292830109596252,-0.10620202124118805,-4.595409870147705,1.1774659156799316,-2.049553155899048,0.7539027333259583,0.21579444408416748,-0.8950186371803284
341,1.6018415664892462,-0.7985037585156838,2.2588118083079767,0.6974429488182068,0.716312825679779,0.02165924198925495,1.1688312292099,-2.121238946914673,0.39168915152549744,0.7437038421630859,-0.49197816848754883,-0.855979323387146
342,1.42131971778652,-0.7656475877331984,1.9959136399501571,0.7128946781158447,0.6930040121078491,-0.10736188292503357,2.782196044921875,1.1181052923202515,0.8881517648696899,0.4967610239982605,-0.5320848226547241,-0.5625295042991638
343,1.2807616552160541,-0.4943579312250096,1.745584003533105,0.8435080647468567,0.47446656227111816,-0.25174543261528015,2.7060327529907227,-0.887699544429779,2.9679131507873535,0.4190042018890381,0.3363398015499115,-0.47420671582221985
344,1.1114620818528078,-0.10680567477855013,1.5764175701953302,0.8912402391433716,0.1066027283668518,-0.44082513451576233,3.0966243743896484,-1.1661202907562256,2.7715139389038086,0.16579711437225342,0.8073071837425232,0.010222077369689941
345,1.0385678006268833,0.23560378289840184,1.4159500201483444,0.8378732204437256,-0.23343013226985931,-0.49343568086624146,3.049790143966675,-0.6048651337623596,1.6941114664077759,-0.02592259645462036,0.8734753131866455,0.40281376242637634
346,1.0333102909886671,0.45009793252045865,1.2288483357623858,0.7734461426734924,-0.4350537061691284,-0.4609874188899994,0.576179563999176,-0.6343989372253418,0.4337467551231384,0.060263633728027344,1.1912182569503784,0.985645592212677
347,1.0427615111110602,0.19771957296608733,1.3885752834552059,0.8469695448875427,-0.19643384218215942,-0.4940205514431,-4.265719413757324,1.8990064859390259,-2.4770848751068115,0.12220770120620728,0.9375074505805969,0.48103538155555725
348,1.2133343798676377,-0.20836685633782992,1.6674715130199047,0.9165251851081848,0.20686236023902893,-0.3423294723033905,-5.153375625610352,1.1700433492660522,-2.749098539352417,0.2897583246231079,0.7985239624977112,-0.07783651351928711
349,1.6050730978352872,-0.6061123691884138,2.17183379309398,0.8213861584663391,0.5696766376495361,0.02816549688577652,-4.714909076690674,2.3998630046844482,-2.7379162311553955,0.5886937379837036,0.07770794630050659,-0.922498345375061
350,1.8719043203057741,-0.6767011854243937,2.4466743072069757,0.7445654273033142,0.6262245178222656,0.23122531175613403,-0.7034862637519836,-2.2322897911071777,0.8254730105400085,0.312044620513916,-0.6005592942237854,-0.9993374347686768
351,1.8424310091857388,-0.6370382351841517,2.424834917633438,0.774386465549469,0.5948172211647034,0.21568121016025543,1.4806625843048096,1.5616852045059204,0.6285880208015442,0.44041162729263306,-0.3469228744506836,-1.1949903964996338
352,1.654872258668339,-0.5654688037924809,2.035950003810207,0.8413550853729248,0.535811722278595,0.07090485841035843,5.314311504364014,0.0876358151435852,1.7423053979873657,0.8090965151786804,0.53862065076828,-0.9457064867019653
353,1.465173290859149,-0.28426552060291976,1.4286537836030677,0.9545186161994934,0.28045251965522766,-0.10119575262069702,4.734781265258789,0.9905029535293579,3.572286605834961,0.4679362177848816,0.7274362444877625,-0.3859410881996155
354,1.4601308136110154,0.14128250730324118,1.0877967465597724,0.9839800000190735,-0.1408129632472992,-0.10933937132358551,3.436940908432007,0.00011985469609498978,3.568887233734131,0.13400089740753174,1.1632890701293945,-0.3054555654525757
355,1.5657384407072228,0.45943966648350604,0.8036907437876276,0.8962897062301636,-0.44344595074653625,-0.004533370025455952,2.4230048656463623,0.13876961171627045,2.3319928646087646,-0.013446688652038574,1.1988322734832764,-0.2990555167198181
356,1.6576914141605494,0.6783255747641069,0.589930100308284,0.7756868004798889,-0.6274901628494263,0.06757353246212006,1.316996693611145,-0.6598168015480042,1.9907883405685425,-0.14401870965957642,1.1416198015213013,-0.31264495849609375
357,1.673579994317331,0.7507601471731584,0.37383572538586957,0.7273117303848267,-0.6821947693824768,0.07502013444900513,1.615640640258789,-1.7375978231430054,-0.8715479373931885,-0.00561678409576416,1.539097785949707,0.04578375816345215
358,1.4017740098346092,0.41429723137358415,0.41033551023341763,0.9023547172546387,-0.4025467038154602,-0.15398728847503662,-2.2244739532470703,-2.5847432613372803,-5.415451526641846,-0.17284733057022095,1.1226547956466675,0.3751786947250366
359,1.3232307823076692,-0.3043514597921924,0.6586447721349118,0.9249544739723206,0.29967451095581055,-0.233782559633255,-5.708038330078125,1.318565845489502,-6.509260177612305,1.1226681470870972,1.351341724395752,-0.2365390509366989
360,1.7293129379914458,-1.0330986416882928,0.8949237727867562,0.5057387351989746,0.8588901162147522,0.08084627985954285,3.6054067611694336,1.7622992992401123,-3.088758945465088,2.594831943511963,-1.81270170211792,-1.7990927696228027
361,1.4670617001819788,-0.8624304636216751,0.7849460012835934,0.6470962166786194,0.7594260573387146,-0.06736810505390167,-1.027245044708252,-0.24367235600948334,2.6803817749023438,0.5614761114120483,-0.5079307556152344,-0.059203557670116425
362,1.6979800644577354,-0.582924712593394,0.8643755357246958,0.828113317489624,0.5504680275917053,0.10589413344860077,-0.06753326207399368,2.6771271228790283,2.8736507892608643,0.437069296836853,0.31098222732543945,-0.8141002655029297
363,1.782404401555671,-0.4124464099129777,0.6261869136147186,0.895707905292511,0.4008517861366272,0.19241969287395477,4.25041389465332,1.5056229829788208,1.5867902040481567,0.1607648730278015,0.3340877890586853,-1.0284183025360107
364,1.7379835187510602,-0.27742795105285045,0.13869644587580243,0.9483530521392822,0.2738828659057617,0.16004645824432373,3.584777593612671,0.9086559414863586,3.1742918491363525,0.4770773649215698,0.6305665969848633,-0.7612885236740112
365,1.7199013843149913,0.08682398541577875,-0.2323976854495301,0.9851792454719543,-0.08671493828296661,0.14799357950687408,2.681256055831909,-0.46507498621940613,4.682338714599609,0.46365785598754883,1.3701775074005127,-0.7702012062072754
366,1.6866656005844776,0.486987360025049,-0.5535418032697271,0.8778208494186401,-0.46796560287475586,0.10217010974884033,2.522970676422119,-1.892518401145935,3.4603824615478516,0.022768139839172363,1.4584136009216309,-0.35070526599884033
367,1.7033707495996513,0.6661241371772801,-0.8940984333308031,0.7793235182762146,-0.6179433465003967,0.10392796248197556,2.56357741355896,-1.6561806201934814,0.9259300231933594,-0.18676358461380005,1.3220601081848145,0.13511623442173004
368,1.603153637024129,0.6529338828394203,-1.0344312049645956,0.7938888669013977,-0.6075193881988525,0.025697076693177223,-1.6017639636993408,-1.818619728088379,-0.5457054972648621,-0.25745099782943726,1.218572974205017,0.7194658517837524
369,1.2669020731347853,0.3533874961052639,-0.5190954204659998,0.895215630531311,-0.34607794880867004,-0.28074705600738525,-5.536447048187256,0.7768362760543823,-4.13116455078125,0.04913550615310669,1.4793176651000977,0.20425477623939514
370,1.4162053527165017,-0.25262338721557115,0.042829330760431515,0.956713080406189,0.24994494020938873,-0.1490887701511383,-8.393327713012695,1.3760849237442017,-4.175921440124512,0.963010311126709,1.5041749477386475,-0.6872302293777466
371,1.7761558111517501,-0.6179429844387423,0.7609278305676569,0.7979454398155212,0.579359769821167,0.16620874404907227,-1.6526148319244385,-1.3477468490600586,-2.1795783042907715,0.991239070892334,-0.477278470993042,-1.9103341102600098
372,1.678461254864266,-0.6534979153260719,0.9879604214484314,0.7893648147583008,0.6079673171043396,0.08531681448221207,-4.029046535491943,-0.39178380370140076,-0.7006372213363647,0.15854167938232422,-0.24189376831054688,-0.18559765815734863
373,1.9310009580843468,-0.6349977105622379,1.2954717447517872,0.7534072995185852,0.5931756496429443,0.2837606966495514,0.9084884524345398,-1.4548091888427734,0.03898432105779648,0.5696823596954346,-0.35040831565856934,-1.832161545753479
374,1.4773689633909148,-0.6208119368651007,0.9531017162072151,0.809859037399292,0.5816957950592041,-0.0758839100599289,4.975021839141846,-1.8780720233917236,1.327523112297058,0.906846284866333,-0.0696718692779541,-0.4230174422264099
375,1.2033302400616124,-0.16304851600604992,0.5403000480487441,0.9208630919456482,0.16232703626155853,-0.3544870913028717,3.205826759338379,-0.07837381958961487,4.967475414276123,1.025578498840332,0.8448293209075928,0.5074107050895691
376,1.1380916519994924,0.3591956910370984,0.49628653861921546,0.8498967289924622,-0.351521372795105,-0.39256614446640015,2.4137368202209473,-0.5328942537307739,3.6431639194488525,0.23535406589508057,1.240132212638855,0.5486636161804199
377,1.1525556728229915,0.6357004015322903,0.5024192900586596,0.7352986931800842,-0.593741238117218,-0.32681378722190857,-0.1918344497680664,0.6883215308189392,1.3251718282699585,-0.29923295974731445,1.0606296062469482,0.6309519410133362
378,1.1326703513512304,0.6291134355604675,0.7074125562126998,0.7321807146072388,-0.5884281396865845,-0.3430216610431671,-3.1052629947662354,1.5798149108886719,-0.5038436651229858,-0.45207512378692627,1.1458622217178345,0.5874674320220947
379,1.168875140144238,0.25246912243745673,1.075138777231322,0.8911359310150146,-0.2497955709695816,-0.37878596782684326,-6.315981864929199,1.7766326665878296,-3.1380906105041504,0.4510881304740906,1.607110619544983,0.06277647614479065
380,1.2996675832115399,-0.302716613631772,1.6169238159679131,0.9196604490280151,0.2981143891811371,-0.2556414306163788,-5.273614883422852,0.7825890779495239,-2.75752329826355,0.7090169191360474,0.8804897665977478,-0.8882794976234436
381,1.3943224365957927,-0.5706896988265611,1.9118242455778331,0.8284586071968079,0.5402125716209412,-0.14773817360401154,-2.0797340869903564,-1.267339825630188,-0.6213574409484863,0.4023151993751526,-0.19765281677246094,-0.49642688035964966
382,1.4589162850880144,-0.6335423366368517,2.259730925713152,0.8008967041969299,0.592003345489502,-0.0899801030755043,-3.5600016117095947,-0.8139424920082092,-0.12276441603899002,-0.10968893766403198,-0.30843406915664673,-0.3541116714477539
383,1.6658395392840282,-0.6838202648193298,2.6046043112779595,0.7716665863990784,0.631758987903595,0.07356330752372742,-0.9821838736534119,0.10833235085010529,-0.8006236553192139,-0.007918298244476318,-0.5484306812286377,-1.0840613842010498
384,1.5588917910598616,-0.7375530506280008,2.574976045264333,0.7400640249252319,0.6724789142608643,-0.008810535073280334,1.110203742980957,-1.7875884771347046,-0.021220147609710693,0.5472590327262878,-0.5086604952812195,-0.6443419456481934
385,1.2848952216401612,-0.6826924678992161,2.3040017747526877,0.7443825602531433,0.6308843493461609,-0.21881446242332458,4.152896404266357,-0.04619640111923218,1.1205081939697266,1.368151068687439,-0.11782276630401611,-0.4478878676891327
386,1.08591437869714,-0.2472740057675143,1.9665598232944073,0.8578193187713623,0.24476179480552673,-0.4519265294075012,3.134766101837158,-0.4600920081138611,4.08284854888916,0.8909599184989929,0.5458875894546509,0.318076491355896
387,0.9842488106150705,0.2428130359497233,1.961513568976574,0.8084250688552856,-0.24043409526348114,-0.5372525453567505,1.7727515697479248,-0.5173941254615784,3.4195268154144287,0.12399369478225708,1.0306867361068726,0.7064878344535828
388,0.9544026019547085,0.4921338273584189,2.023380479532681,0.7191348075866699,-0.4725075662136078,-0.5094916820526123,-0.28336405754089355,0.25974321365356445,1.6028871536254883,-0.2763552665710449,0.8738136887550354,0.7953498363494873
389,0.9485356621501235,0.4773558164089563,2.160805529497024,0.7217287421226501,-0.4594321846961975,-0.5177158117294312,-1.8574128150939941,1.0290453433990479,-0.6449230909347534,-0.44313377141952515,0.8921714425086975,0.7253726720809937
390,1.0423090067428604,0.140374836461157,2.3102639359280315,0.8550764322280884,-0.13991427421569824,-0.4992678761482239,-3.6130166053771973,1.9140739440917969,-3.2994842529296875,0.43140745162963867,1.0421359539031982,0.2978520393371582
391,1.2306201579883411,-0.3569915781090222,2.8602120044038783,0.8832612037658691,0.3494570851325989,-0.31261715292930603,-5.758543968200684,-0.38967618346214294,-3.377525806427002,0.32389211654663086,0.8288114070892334,-1.0067493915557861
392,1.4710226602351697,-0.7146585531064434,-3.0716956745158805,0.7515605688095093,0.6553595662117004,-0.0752357766032219,-4.1758198738098145,-0.1586979776620865,-0.785939633846283,0.49320554733276367,-0.31328803300857544,-0.6418662667274475
393,1.7366633890578955,-0.725374521121954,-2.562761395542399,0.7379815578460693,0.6634157299995422,0.12354187667369843,-3.4325671195983887,0.19384725391864777,0.10346758365631104,0.06254017353057861,-0.3516329526901245,-0.5871191024780273
394,2.0541588530182144,-0.6237050448921704,-2.169935204370101,0.7187273502349854,0.5840466022491455,0.3772543966770172,-2.2206764221191406,0.7115913033485413,-0.1679040938615799,0.4100721478462219,-0.21907156705856323,-1.5363423824310303
395,1.9163641951397223,-0.6880504348111985,-2.229835505568947,0.7268187403678894,0.6350323557853699,0.26166483759880066,2.9452834129333496,-0.882178008556366,-0.9853853583335876,1.0650665760040283,0.03820067644119263,-0.992042064666748
396,1.3338120404733427,-0.5903772804125716,-2.9409492243819524,0.8075122833251953,0.5566744804382324,-0.19503258168697357,5.075724124908447,-1.4526891708374023,3.28094220161438,1.1067485809326172,0.26163917779922485,0.23536154627799988
397,1.1201826878188896,-0.04959196171769901,3.049886914210879,0.8990733027458191,0.04957163706421852,-0.434982568025589,4.214081764221191,-1.2084606885910034,4.9986491203308105,0.7271320819854736,1.0832561254501343,0.3671267330646515
398,1.055257538489187,0.41520600713262684,2.9901160257391295,0.796103835105896,-0.4033784568309784,-0.4511147737503052,2.2069122791290283,-0.20885466039180756,2.507190704345703,-0.1178659200668335,1.0973329544067383,0.6036874055862427
399,1.0652597964041606,0.6052052952449646,2.9664832101651055,0.7195170521736145,-0.5689309239387512,-0.3982622027397156,-0.1527508944272995,0.050595708191394806,0.538408637046814,-0.5140727162361145,0.9768136739730835,0.7467730045318604
400,1.0440496719054733,0.4781236944138845,3.0832844739892695,0.7675078511238098,-0.46011409163475037,-0.44634810090065,-3.0338857173919678,0.8197933435440063,-1.981973648071289,-0.3812164068222046,1.0665441751480103,0.6160868406295776
401,1.1648430616321526,-0.07028153032529773,-2.897297450558211,0.916458249092102,0.07022368907928467,-0.39391982555389404,-7.437991142272949,2.751373052597046,-5.170351028442383,0.7149198651313782,1.6591616868972778,-0.11540326476097107
402,1.4849345846309718,-0.6300025033636074,-2.393491326358532,0.8050494194030762,0.5891467928886414,-0.069293312728405,-6.048000335693359,-0.48742103576660156,-2.093554973602295,0.9661602973937988,0.19777953624725342,-0.8383299708366394
403,1.7565079534957682,-0.666199863943216,-1.7934558014242235,0.7726576924324036,0.6180028915405273,0.14516420662403107,-2.7920994758605957,-0.9667827486991882,0.1260584443807602,0.3772294521331787,-0.20717519521713257,-0.9084851741790771
404,1.9592180004246866,-0.5708604185899988,-1.428073749539525,0.7787560224533081,0.5403562188148499,0.31867560744285583,-3.27699875831604,0.4638368487358093,-0.450385183095932,-0.02678769826889038,-0.30621016025543213,-1.1996570825576782
405,1.9593257000120992,-0.5848901677877921,-1.333851278650193,0.7716293931007385,0.5521078109741211,0.31585633754730225,1.756412148475647,-0.5922075510025024,-0.8916299939155579,0.2521438002586365,-0.2907400131225586,-1.2669366598129272
406,1.6436669192433502,-0.7249193960767678,-1.6637500727788461,0.7465664148330688,0.6630750894546509,0.05449923872947693,3.923051357269287,-1.5740299224853516,-0.2719566524028778,0.9570621848106384,-0.0983319878578186,-0.7932382822036743
407,1.2027374601173835,-0.5757480024642542,-2.2524053295549384,0.7826097011566162,0.5444623827934265,-0.30179911851882935,5.31424617767334,0.3995111882686615,1.8108367919921875,0.879743754863739,0.1664903163909912,-0.23462364077568054
408,1.1017458155172626,-0.059298185410616586,-2.5984374963022603,0.8904301524162292,0.0592634417116642,-0.4512450397014618,4.057226657867432,-0.07991006970405579,3.9776647090911865,0.5360072255134583,1.0161302089691162,0.22684931755065918
409,1.1288978352906582,0.39925794093151723,-2.715668906848277,0.8328461647033691,-0.38873475790023804,-0.39402109384536743,2.0133798122406006,0.33514639735221863,2.7857203483581543,-0.11257034540176392,1.0812244415283203,0.5958948731422424
410,1.1701302930057573,0.5572522972019642,-2.6568031063693147,0.7814947366714478,-0.5288562178611755,-0.3310243785381317,-1.1656163930892944,0.8842797875404358,0.6809548735618591,-0.423706591129303,0.9169177412986755,0.4864962100982666
411,1.1857944330855188,0.4302857054067229,-2.496813497799858,0.8423169851303101,-0.4171304702758789,-0.3413272500038147,-2.5924453735351562,1.2232513427734375,-2.280886173248291,-0.36488473415374756,1.010605812072754,0.3935733437538147
412,1.2918955674085923,-0.1008425068062656,-2.119550356355478,0.9564747214317322,0.1006716787815094,-0.27390044927597046,-7.463162422180176,0.9000054597854614,-5.405149936676025,0.9271618723869324,1.498144268989563,-0.5863291025161743
413,1.4631152650694057,-0.49522561274733967,-1.7023712000103692,0.8747652769088745,0.4752301573753357,-0.09456142038106918,-3.65051531791687,-1.0453574657440186,-1.1827547550201416,0.5807857513427734,-0.04670238494873047,-0.7720004916191101
414,1.5241908903208983,-0.4677749913033462,-1.315742934627497,0.8916045427322388,0.45090141892433167,-0.04158373177051544,-4.317551136016846,-0.5052201151847839,1.7001498937606812,0.07484132051467896,0.11793094873428345,-0.044155415147542953
415,1.7570624840897962,-0.2612155781448196,-0.7496108911185869,0.9493662714958191,0.25825509428977966,0.17890869081020355,-5.887941837310791,0.3332054316997528,1.2069472074508667,-0.21392297744750977,0.4374847114086151,-0.75941401720047
416,1.8317829325211195,-0.1225952715814688,-0.31431602917603696,0.9588846564292908,0.12228840589523315,0.2560972273349762,-2.4009339809417725,0.1455647051334381,-0.9519860148429871,-0.40985816717147827,0.32841044664382935,-1.0077300071716309
417,1.8769877935840893,-0.2681994942628029,-0.13655396027181674,0.9194008111953735,0.2649957239627838,0.29065319895744324,-0.7710133194923401,0.609660804271698,-2.570650815963745,0.5666983127593994,0.0473821759223938,-1.0237921476364136
418,1.7373418112293921,-0.42057067372190804,-0.3139815443339388,0.9002251029014587,0.40828147530555725,0.15133018791675568,3.5168094635009766,-0.6416628956794739,-0.3847716152667999,0.2379125952720642,-0.21377775073051453,-0.4411860704421997
419,1.5397500321100612,-0.44692413054533,-0.789233563572768,0.9013462662696838,0.4321938157081604,-0.027992455288767815,5.636232852935791,0.12219229340553284,0.9781017303466797,0.35999107360839844,0.1354483962059021,-0.3950117230415344
420,1.3710438370049416,-0.1992823776930716,-1.2639919015390342,0.9607179760932922,0.19796596467494965,-0.19449962675571442,3.418088912963867,-0.28465133905410767,2.6989195346832275,0.26622581481933594,0.5360122919082642,0.1321827471256256
421,1.3368925705135166,0.10288220529103186,-1.430685484901087,0.9676252603530884,-0.10270080715417862,-0.23055115342140198,1.2690140008926392,0.010636587627232075,2.0553932189941406,-0.25706928968429565,0.6814819574356079,0.2552093267440796
422,1.3426829520431702,0.20739678646026655,-1.4922587898674284,0.9532203078269958,-0.20591317117214203,-0.2212940752506256,0.4839247465133667,0.14611279964447021,-0.7660079598426819,-0.4252356290817261,0.7289081811904907,0.4022327661514282
423,1.3884566822126374,0.04070134423310369,-1.4303477894879795,0.9826077222824097,-0.0406901091337204,-0.18118076026439667,-3.245452880859375,0.8390329480171204,-2.3037679195404053,-0.11604583263397217,0.7157999873161316,0.4239633083343506
424,1.564618693866683,-0.3107507146211666,-1.040169498593332,0.9520862698554993,0.30577346682548523,-0.005881714168936014,-3.455458164215088,1.4041963815689087,-3.604217290878296,0.4621899724006653,0.46783187985420227,-0.5532613396644592
425,1.833257573759414,-0.5391873402699109,-0.6593759522320125,0.8287390470504761,0.5134388208389282,0.22264795005321503,-3.0148167610168457,0.5938194394111633,-1.1008859872817993,0.5413628220558167,-0.2675892114639282,-0.853827714920044
426,1.9834997277767907,-0.5364464823333723,-0.482774993849278,0.7873640656471252,0.5110848546028137,0.3447466492652893,-0.0028896359726786613,0.3449782431125641,-0.31923139095306396,0.2211962342262268,-0.3794472813606262,-1.011311650276184
427,1.9595827960503098,-0.6074262038005707,-0.5926881644160622,0.7598392963409424,0.5707559585571289,0.31125831604003906,2.311434030532837,0.5119835138320923,0.08670280873775482,0.35098522901535034,-0.5366984009742737,-0.7452335357666016
428,1.8598052446139035,-0.5479693492918558,-0.8689365439656757,0.8181833028793335,0.520954966545105,0.24327352643013,1.056148648262024,1.078859567642212,2.1103365421295166,0.3112112283706665,-0.08035743236541748,-0.4513270854949951
429,1.9406713913320124,-0.39018434392301454,-1.0411014118168045,0.8622944951057434,0.38035890460014343,0.3343283236026764,2.7233240604400635,1.0326048135757446,1.276900053024292,0.3901163935661316,0.38644102215766907,-1.381447434425354
430,1.8505081576300888,-0.3515898164066873,-1.578583021153838,0.9023389220237732,0.3443908095359802,0.2591899633407593,4.842998027801514,1.5334477424621582,3.254634380340576,0.5033159255981445,0.4580078721046448,-0.7586711645126343
431,1.8177000462577753,-0.09160540852154293,-2.0615833934756327,0.9656082987785339,0.09147734194993973,0.24337805807590485,3.1377899646759033,-0.05471707880496979,3.679185628890991,0.2976669669151306,0.8646689057350159,-0.7614444494247437
432,1.7738750809272772,0.20013451498851645,-2.3804942071538093,0.9599004983901978,-0.1988011598587036,0.19766013324260712,1.8209189176559448,-0.8102049827575684,3.4582905769348145,0.1354823112487793,0.9999486207962036,-0.48434218764305115
433,1.744927096068717,0.4604912142774224,-2.6110324816713484,0.8822872638702393,-0.444388210773468,0.15520521998405457,1.6465078592300415,-1.3901818990707397,2.074981212615967,-0.13118845224380493,1.1218326091766357,-0.38105058670043945
434,1.6685543733190629,0.5014025483389145,-2.8839543933338403,0.8727226257324219,-0.4806559085845947,0.0855884775519371,3.1560568809509277,-3.1188833713531494,-0.8228680491447449,-0.2714956998825073,1.2711222171783447,0.0029430463910102844
435,1.4109874342146784,0.21408296821518216,-2.9736017109947745,0.9647203087806702,-0.21245141327381134,-0.15549688041210175,-2.9011828899383545,-2.6650760173797607,-4.491947174072266,-0.23358017206192017,0.9257540702819824,0.7195990085601807
436,1.335117141860015,-0.3515665419719954,-2.705927390789828,0.9128813147544861,0.34436896443367004,-0.2192210853099823,-5.323390960693359,0.32599931955337524,-5.296128273010254,0.7861696481704712,1.0484075546264648,0.09026899933815002
437,1.695883063405175,-0.9516289503510258,-2.1903671060285252,0.5758230090141296,0.8143619298934937,0.0724058523774147,-2.3512086868286133,-0.023663818836212158,-4.694698333740234,1.4388407468795776,-0.03253203630447388,-0.9280881881713867
438,1.9272164148824003,-1.2141054895355157,-2.0093696020158425,0.3272302448749542,0.9370574355125427,0.12183476239442825,0.2944016456604004,-1.0412176847457886,0.32423847913742065,1.1309759616851807,-1.064849853515625,-0.37838077545166016
439,1.8996877357740323,-1.1124927972129932,-2.0847858371194268,0.41871386766433716,0.8968043327331543,0.1429014652967453,0.5764535069465637,1.7632968425750732,2.011639356613159,0.7621790766716003,-0.6952204704284668,-0.7052030563354492
440,1.7573344361548224,-0.8420850052149935,-2.362011286579877,0.6543567776679993,0.7460331916809082,0.12349825352430344,0.8895058631896973,-0.4146904945373535,3.602935314178467,0.529999852180481,-0.013046741485595703,-0.8053371906280518
441,1.606405233044727,-0.5950454333913242,-2.6118874106110495,0.8275982141494751,0.5605463981628418,0.02948232926428318,3.9471960067749023,0.8485853672027588,1.1406935453414917,0.4057697653770447,0.465393602848053,-0.8976311683654785
442,1.4608293546016782,-0.35581818512037483,-3.1110679248137547,0.9316999316215515,0.3483574092388153,-0.10287121683359146,3.8903892040252686,0.9858148097991943,3.806659460067749,0.709916889667511,0.6234290599822998,-0.25979965925216675
443,1.4343415981968601,0.10656951530628839,2.99079338179646,0.9850839972496033,-0.10636790841817856,-0.13525992631912231,1.8274462223052979,-0.813187301158905,4.788087844848633,0.22010087966918945,1.158263087272644,-0.2871796488761902
444,1.3722371695841764,0.5295560408692325,2.853457012471327,0.8460742831230164,-0.5051502585411072,-0.17023897171020508,1.7431644201278687,-1.048902153968811,2.9499502182006836,-0.2211201786994934,1.204979419708252,0.13294650614261627
445,1.3170012897774426,0.7506695297747646,2.7530193228135267,0.7078084945678711,-0.6821284890174866,-0.18359726667404175,0.8072629570960999,-1.42036771774292,0.5916264057159424,-0.6494131088256836,1.1347193717956543,0.3557164669036865
446,1.2428617689904846,0.588442623846297,2.6848683844576606,0.7874789834022522,-0.5550662875175476,-0.26791509985923767,-0.5961449146270752,-1.100468635559082,-3.631713628768921,-0.4875063896179199,1.1404850482940674,0.5302289128303528
447,1.2579377101397393,-0.016141276456733602,2.809045702376708,0.95133376121521,0.01614057645201683,-0.3077396750450134,-6.190228462219238,1.6437304019927979,-6.0304412841796875,1.0283567905426025,1.7356599569320679,0.03585857152938843
448,1.5338531166218667,-0.8368661369673122,-3.086518426645018,0.6693361401557922,0.7425477504730225,-0.024738680571317673,-2.2262322902679443,4.136447429656982,-7.3015594482421875,1.98012375831604,-0.6943299770355225,-1.2199053764343262
449,1.4542005898433141,-0.8898057653286705,-2.971561177053804,0.6252884268760681,0.7769494652748108,-0.07323814928531647,-4.745072841644287,-2.545219659805298,-1.582468867301941,-0.05514383316040039,-0.21480047702789307,0.2616078853607178
450,1.7914535567212637,-1.1293140039115641,-2.9146938105609204,0.4169202148914337,0.9041193127632141,0.09351921826601028,2.24065899848938,2.0279552936553955,0.8685786724090576,1.3633378744125366,-1.3084313869476318,-0.7286663055419922
451,1.6347634232130628,-0.8659726522811992,-3.1324532630502544,0.6465745568275452,0.7617257833480835,0.041416000574827194,0.11562133580446243,0.367684930562973,3.688168525695801,0.6138777136802673,-0.106681227684021,-0.3888891935348511
452,1.6432445515063114,-0.5242854391112235,3.0408938499357183,0.8634110689163208,0.5005945563316345,0.0626622661948204,1.3805742263793945,0.7421748042106628,2.9942626953125,0.2369154691696167,0.318909227848053,-0.6093083620071411
453,1.6489509127884763,-0.33246185360211716,2.8381252347175026,0.9423564076423645,0.32637107372283936,0.07379979640245438,2.5371317863464355,1.2522045373916626,0.6911447644233704,0.2789570689201355,0.7527457475662231,-0.728523850440979
454,1.6448724502284573,-0.2936969158862266,2.394573392581419,0.9545553922653198,0.28949281573295593,0.07083938270807266,4.477790355682373,1.8040289878845215,1.2637414932250977,0.14178872108459473,0.34209901094436646,-0.43657732009887695
455,1.7031342758491688,-0.1046209967407073,1.9888082556042408,0.9858360290527344,0.10443024337291718,0.13123050332069397,2.634185791015625,0.6072961091995239,3.200937509536743,0.10715091228485107,0.5754708647727966,-0.4804431200027466
456,1.673156128404033,0.1883874506147406,1.7839734450879743,0.9771658182144165,-0.18727512657642365,0.1003732979297638,1.2296526432037354,-1.0253509283065796,2.9375603199005127,-0.10900187492370605,0.8907358050346375,-0.3780221939086914
457,1.600573446623692,0.3939456220614476,1.618876479724672,0.9229925274848938,-0.3838347792625427,0.027492184191942215,2.019810914993286,-1.497519612312317,1.035828709602356,-0.2142065167427063,1.0246275663375854,-0.15046274662017822
458,1.5317969882443265,0.4221189980045074,1.3546279375762058,0.9115291833877563,-0.4096943736076355,-0.03556707128882408,2.7013559341430664,-2.244985580444336,-0.4950219392776489,-0.05152863264083862,1.1614644527435303,0.4561450481414795
459,1.3249785924645407,0.1874491518029348,1.4519041592109128,0.9529479742050171,-0.18635334074497223,-0.23908674716949463,-3.350348949432373,-1.3737362623214722,-3.8832778930664062,-0.06473392248153687,0.944745659828186,0.5197569131851196
460,1.3688679549060283,-0.3039524243142319,1.7698305196273088,0.9347739219665527,0.29929378628730774,-0.19136545062065125,-5.8319411277771,0.6960791945457458,-4.413064956665039,0.6442817449569702,0.9333570003509521,-0.09470632672309875
461,1.7517762510725898,-0.8198259462255164,2.219206522750976,0.6712040901184082,0.7310270667076111,0.12281832844018936,-1.296188473701477,2.9268906116485596,-5.139896869659424,1.1037744283676147,-0.45176076889038086,-0.8908084630966187
462,1.7592875033857809,-0.89040114601863,2.240953454788176,0.617957592010498,0.7773241996765137,0.11787890642881393,-0.5428207516670227,-1.3184714317321777,1.0297033786773682,0.5107349753379822,-0.867763102054596,-0.37968921661376953
463,1.7519212609837256,-0.7526779691253306,2.182364857477524,0.7179213762283325,0.6835957765579224,0.1314743459224701,0.5731928944587708,1.4035125970840454,1.924862027168274,0.4998214840888977,-0.31807154417037964,-0.6589707136154175
464,1.7060242318098637,-0.5254666591311492,2.0301392627816615,0.8571920394897461,0.5016167759895325,0.11662805825471878,1.089916467666626,-0.02153719775378704,2.3372802734375,0.9138801693916321,0.8984228372573853,-0.7129567861557007
465,1.520546475488173,-0.3670277427758003,1.6110428002684887,0.932219922542572,0.35884273052215576,-0.04688338190317154,5.332311153411865,0.2091224044561386,2.917947769165039,0.7288365960121155,0.5370465517044067,-0.40167927742004395
466,1.5173526984364833,0.09369585281337776,1.1913666935501344,0.9941921830177307,-0.09355881810188293,-0.05318388342857361,3.5196242332458496,0.23749031126499176,4.907572269439697,0.5079439878463745,1.3233866691589355,-0.3300405740737915
467,1.5844344302908513,0.5334537009496455,0.8536122071068916,0.860975980758667,-0.508510172367096,0.011742807924747467,2.646510124206543,-0.4409869909286499,3.569851875305176,-0.0005174875259399414,1.4121966361999512,-0.07505154609680176
468,1.6890154936325132,0.784389204627342,0.603490819044712,0.7028792500495911,-0.7063930034637451,0.08348307758569717,1.0859043598175049,-0.7637990117073059,1.5782471895217896,-0.4316696524620056,1.1514461040496826,-0.03135908395051956
469,1.6917168068678627,0.7618949283819132,0.5109894047932947,0.7182461619377136,-0.6902937293052673,0.08727645874023438,-0.09128417074680328,-0.2753766179084778,-1.8127894401550293,-0.46801722049713135,1.1638044118881226,0.16867446899414062
470,1.5289285584550283,0.42107855516658016,0.6920702394008006,0.9118488430976868,-0.40874502062797546,-0.038199398666620255,-2.673149347305298,-0.5360164642333984,-5.285767555236816,0.09655869007110596,1.4678270816802979,0.10369014739990234
471,1.4651714160639164,-0.2641614601628946,0.9925245758615837,0.9599319100379944,0.2610999047756195,-0.10177147388458252,-2.997654914855957,-0.24374252557754517,-6.1825385093688965,1.3597854375839233,0.9003685712814331,-0.3169907331466675
472,1.6850632011437277,-0.7340578578257897,1.483364068396562,0.7376202344894409,0.6698879599571228,0.0846543237566948,-2.366753101348877,-1.2892611026763916,-0.8906057476997375,1.4660539627075195,-0.8800320625305176,-1.2805771827697754
473,1.591756749731316,-0.7515924952077528,1.640780972680581,0.7304418683052063,0.6828030943870544,0.015312612988054752,-0.2398994266986847,0.2122383862733841,-1.2208473682403564,0.4031335115432739,-0.6250180602073669,-0.24639177322387695
474,1.6373562404009658,-0.7549937298268227,1.596969343154179,0.72666335105896,0.6852840781211853,0.04843820258975029,0.7334694862365723,0.6339524388313293,1.440750241279602,0.5461028218269348,-0.6486935019493103,-0.4782630205154419
475,1.6137982034034737,-0.5546123124182786,1.4706906315290487,0.84931880235672,0.5266137719154358,0.036544833332300186,0.9043998718261719,0.3186703324317932,2.452249526977539,0.26463377475738525,0.04975646734237671,-0.5130615234375
476,1.5671566922894786,-0.3406245715839398,1.3108984015513716,0.9425401091575623,0.33407583832740784,-0.003430516691878438,1.615796446800232,0.41385364532470703,1.619966983795166,0.39293980598449707,0.8154298067092896,-0.4734676480293274
477,1.5426992282143577,-0.32001483876529124,0.9847375089532908,0.9488561749458313,0.31458064913749695,-0.026667121797800064,4.674190044403076,1.0491127967834473,-0.38836029171943665,0.2324487566947937,0.23279789090156555,-0.48978185653686523
478,1.596055689067959,-0.17212135726566133,0.5178827964194811,0.9849093556404114,0.17127273976802826,0.02488347515463829,2.9652798175811768,2.2356526851654053,2.884376287460327,0.26954615116119385,0.49358320236206055,-0.326641321182251
479,1.7030727393472722,0.16896177937861362,0.25576180101417717,0.9771482944488525,-0.16815900802612305,0.13001284003257751,1.8173238039016724,-0.24433356523513794,3.918809652328491,0.18633413314819336,1.050696849822998,-0.5769580602645874
480,1.701435308860982,0.49949098485183574,0.029651196402268962,0.8703464865684509,-0.4789787828922272,0.11435245722532272,1.8687371015548706,-0.978185772895813,2.86861252784729,-0.11767613887786865,1.2028862237930298,-0.3653900623321533
481,1.743966408983371,0.6536414138117189,-0.2708501505401077,0.7820011973381042,-0.6080812811851501,0.13678929209709167,2.286953926086426,-1.6697144508361816,0.8419637084007263,-0.20733994245529175,1.3456759452819824,-0.023538589477539062
482,1.601865374253101,0.5227118759236312,-0.3370261114058522,0.8660502433776855,-0.4992317259311676,0.02691601775586605,-1.695167899131775,-1.91415274143219,-3.237938404083252,-0.1808239221572876,1.3361001014709473,0.4909672737121582
483,1.3947665460346537,0.07202769997383571,0.03055841744228815,0.9819939136505127,-0.07196543365716934,-0.17466802895069122,-4.8443732261657715,-0.5085996985435486,-3.8734383583068848,0.4868171215057373,0.9755451679229736,0.13269110023975372
484,1.501603692982636,-0.4055839130041483,0.7132777938928635,0.9166733622550964,0.39455536007881165,-0.06352846324443817,-8.217697143554688,0.005580528173595667,-3.8498849868774414,0.7811567187309265,1.0093295574188232,-0.7417541742324829
485,1.8737944032852998,-0.5842634538442696,1.399801174942673,0.7961212992668152,0.5515851378440857,0.2488868236541748,-2.4613943099975586,-1.2226290702819824,-0.6872068047523499,0.7055113911628723,-0.31673723459243774,-1.5062415599822998
486,1.7373421032033998,-0.47331348677897556,1.6185861910201917,0.877747118473053,0.45583799481391907,0.14755183458328247,-2.8649415969848633,-1.778880000114441,1.0160328149795532,-0.18228214979171753,-0.20287784934043884,-0.32298222184181213
487,1.8081078073306718,-0.35680474687293773,1.9254862923095797,0.9107563495635986,0.34928202629089355,0.22028377652168274,-1.7023838758468628,-0.4794205129146576,-0.29555684328079224,-0.17082715034484863,-0.035897016525268555,-1.1488573551177979
488,1.708115592892929,-0.48945039149729147,1.8153786453220568,0.8742832541465759,0.47014087438583374,0.12081628292798996,3.9933364391326904,0.005723887588828802,-0.003843149170279503,0.9513698816299438,0.06359627842903137,-0.9874697923660278
489,1.4082979489025838,-0.3764772228629119,1.229920535563014,0.9177142977714539,0.3676466941833496,-0.15045370161533356,6.291184425354004,-0.4455667734146118,2.2603886127471924,0.6482341289520264,0.6135544180870056,-0.13203226029872894
490,1.350366884990627,0.0808637019637814,0.6686910150499427,0.9726150631904602,-0.08077560365200043,-0.21793422102928162,5.893243789672852,0.9591354131698608,4.184253215789795,0.6749984622001648,1.3684648275375366,0.22902733087539673
491,1.5310743132729625,0.548685533151053,0.3144480679751844,0.8525378704071045,-0.5215661525726318,-0.03388234227895737,2.021773099899292,0.01322862133383751,3.409018039703369,-0.1668078899383545,1.4572198390960693,0.20513170957565308
492,1.526530736417424,0.717751036093336,0.2805896554661843,0.7525487542152405,-0.6576921939849854,-0.03333378955721855,-1.5943938493728638,0.5308137536048889,-0.3617965579032898,-0.6483466029167175,1.2366716861724854,0.5267419815063477
493,1.4179748680768143,0.4919189236167357,0.6721935336616884,0.8711555004119873,-0.4723181426525116,-0.13417743146419525,-4.743741035461426,1.3498111963272095,-3.074530601501465,-0.09964066743850708,1.3302741050720215,0.07623983919620514
494,1.4216076160361675,-0.03114447911113498,1.1575032171610906,0.9884124994277954,0.031139444559812546,-0.14856383204460144,-4.79298734664917,0.9858056902885437,-5.055349349975586,0.5505889654159546,0.9961280226707458,-0.5557665824890137
495,1.5711695799552898,-0.45110722460142977,1.5423945063633497,0.8999647498130798,0.4359622597694397,0.00033591469400562346,-3.3809268474578857,-0.028822530061006546,-2.7583210468292236,0.7207016348838806,0.16996419429779053,-0.7927248477935791
496,1.5282962278172953,-0.5767285571366807,1.7723125661616943,0.837493896484375,0.5452845692634583,-0.035615019500255585,-1.6133867502212524,-1.988031029701233,-0.8638423085212708,0.19953906536102295,-0.2681087851524353,-0.2140035629272461
497,1.5810938349272383,-0.6787798153879365,1.928105155463499,0.7782982587814331,0.6278437972068787,0.008014815859496593,-0.5126122236251831,0.45642009377479553,-0.7750656604766846,0.42571187019348145,-0.6062525510787964,-0.4323312044143677
498,1.5103598250733543,-0.6504713396879718,1.8162945839051063,0.794345498085022,0.6055615544319153,-0.048065997660160065,1.6945852041244507,-0.12459961324930191,1.2165412902832031,0.442837119102478,-0.47604501247406006,-0.12835609912872314
499,1.4506356260252593,-0.4753701376215436,1.6813258790630323,0.8827121257781982,0.45766758918762207,-0.10658076405525208,0.8840081691741943,0.2605155110359192,1.8921388387680054,0.1948024034500122,-0.07126933336257935,-0.05862610042095184
500,1.4861931830984005,-0.29206589760706364,1.6178149637597827,0.9542258381843567,0.2879312336444855,-0.08092367649078369,0.6858990788459778,0.8074514269828796,1.467730164527893,-0.05679541826248169,0.22316184639930725,-0.3004239797592163
501,1.538218971778064,-0.1655236968356885,1.5662817386914032,0.9858089685440063,0.16476888954639435,-0.03212641552090645,0.7650096416473389,-0.09545183181762695,0.8130297660827637,0.2133641242980957,0.7538712620735168,-0.7111902236938477
502,1.4276588386086504,-0.1308235164437896,1.2888136440712683,0.9813154339790344,0.13045066595077515,-0.14143024384975433,5.301119327545166,-0.9408990740776062,0.5323818922042847,0.3878251314163208,0.42690709233283997,-0.583987832069397
503,1.426876660043962,0.19406424248272364,0.7462629713438873,0.9710841774940491,-0.19284842908382416,-0.1407310962677002,4.852396011352539,-0.07413408160209656,3.502936601638794,0.501282274723053,1.2227556705474854,-0.0456855446100235
