,attitude.roll,attitude.pitch,attitude.yaw,gravity.x,gravity.y,gravity.z,rotationRate.x,rotationRate.y,rotationRate.z,userAcceleration.x,userAcceleration.y,userAcceleration.z
0,-0.5326152413136088,0.015461154789764252,-0.8029279430117584,-0.5077273845672607,-0.015460538677871227,-0.8613790273666382,5.035299301147461,3.2795250415802,-0.2907065451145172,-0.15035361051559448,0.5773044228553772,-0.23595672845840454
1,0.44902012284721526,0.6203787556213909,0.19031506656791702,0.35319527983665466,-0.5813433527946472,-0.733002781867981,-0.6749886870384216,0.38554468750953674,-0.11922365427017212,-0.04956063628196716,0.04844546318054199,0.13708603382110596
2,0.4134888023402567,0.562953366558718,0.22092550669825753,0.3398008346557617,-0.5336861610412598,-0.7744123935699463,-0.30367234349250793,-0.16009756922721863,-0.1711004674434662,-0.04907512664794922,0.021616458892822266,-0.002061605453491211
3,0.39417988804359294,0.553621795691557,0.23490922321754212,0.32668378949165344,-0.52577143907547,-0.7853929400444031,0.031912364065647125,0.035017695277929306,0.04383446276187897,-0.01157456636428833,-0.07751524448394775,-0.017722904682159424
4,0.3876685849765343,0.597116386568779,0.23602997733093908,0.3126167058944702,-0.5622601509094238,-0.7655940651893616,1.1826565265655518,-0.4869353771209717,-0.6735638976097107,-0.14599072933197021,-0.0991930365562439,-0.023315787315368652
5,0.3132407890262947,0.6490624733193416,0.27335994123293633,0.2454826533794403,-0.6044397950172424,-0.757885754108429,-0.4553263783454895,-0.9206173419952393,1.212180495262146,0.203446164727211,-0.15494436025619507,-0.08575743436813354
6,0.2768907615590489,0.5824907913536334,0.2992085225557069,0.2282867431640625,-0.5501056909561157,-0.8032863140106201,0.978456437587738,-0.48456871509552,0.6784039735794067,0.2038269191980362,0.20714914798736572,-0.3504765033721924
7,0.2522122854918351,0.6541945748936234,0.3142271789389978,0.19802500307559967,-0.6085203289985657,-0.7684329748153687,0.4559415578842163,-0.4783893823623657,0.3106265068054199,0.054797857999801636,0.2368314266204834,0.27545201778411865
8,0.17249579881706179,0.6430227626507139,0.3438208777762641,0.1373625546693802,-0.5996172428131104,-0.7884102463722229,-0.7181140184402466,0.5142859816551208,-0.16043750941753387,0.013028055429458618,-0.07439398765563965,0.1256905198097229
9,0.18495244007070916,0.6262105608394921,0.34751928189663306,0.14900557696819305,-0.5860785841941833,-0.7964353561401367,0.6013329029083252,-0.5962215662002563,-0.14008179306983948,0.06068068742752075,-0.03625112771987915,-0.02048969268798828
10,0.1329867511567988,0.6705862732435662,0.322890198337656,0.10388263314962387,-0.6214454174041748,-0.7765398025512695,0.2507534325122833,-0.21617469191551208,-0.10519566386938095,0.07348553091287613,-0.1709129810333252,0.12585926055908203
11,0.08573391943776071,0.7007630098708193,0.3424661367870227,0.0654505118727684,-0.6448010802268982,-0.7615430355072021,1.1695034503936768,-1.1598693132400513,0.723092794418335,0.050241634249687195,-0.2567797303199768,-0.19754815101623535
12,0.06664310307249059,0.7741750035486076,0.29614864349859915,0.04761442542076111,-0.6991264224052429,-0.7134108543395996,-0.14316105842590332,-0.1842348277568817,-1.3056364059448242,-0.2318643033504486,0.1865837574005127,-0.14053195714950562
13,0.06083591158227941,0.763391584551318,0.2610550937953861,0.043926551938056946,-0.6913757920265198,-0.7211587429046631,0.25025588274002075,-0.36832261085510254,0.08115841448307037,0.02254074066877365,0.10159313678741455,-0.06903290748596191
14,0.0811610584334368,0.7710768076191147,0.23617951099453263,0.05814163759350777,-0.6969078779220581,-0.7147999405860901,0.3985365033149719,-0.05043669790029526,-0.20151376724243164,-0.08545487374067307,0.1936730146408081,0.12814533710479736
15,0.14580708065268477,0.7413663985616115,0.23223662985729085,0.10715886950492859,-0.6752963066101074,-0.729720413684845,-0.4323900043964386,0.41422754526138306,0.2922654449939728,0.1306951344013214,0.12048673629760742,0.13580256700515747
16,0.19866808966619692,0.695190325268393,0.30430912785981973,0.1515619307756424,-0.640531599521637,-0.7528268694877625,-0.17087383568286896,0.879133939743042,0.640914797782898,0.053653523325920105,-0.09700191020965576,-0.12531650066375732
17,0.20298353210711692,0.7086742582276726,0.40662518864122205,0.1530541330575943,-0.6508278250694275,-0.7436380386352539,-0.3366328775882721,0.9978343844413757,1.3789151906967163,0.1751624047756195,-0.372014582157135,-0.2272787094116211
18,0.2609972245051397,0.6776878725661439,0.46098111450819573,0.2010226994752884,-0.6269934773445129,-0.7526413798332214,0.33106839656829834,0.6956019997596741,0.5551510453224182,0.19564476609230042,0.3610938787460327,-0.29667502641677856
19,0.2532955316474492,0.7384934543741746,0.5229890919878809,0.18531139194965363,-0.6731746196746826,-0.7158879637718201,-0.05311669409275055,0.04246984422206879,0.42012107372283936,-0.14237315952777863,0.12852740287780762,0.25775814056396484
20,0.2059891549592255,0.7162223277667035,0.5272212036491949,0.15427935123443604,-0.6565399169921875,-0.7383449077606201,-0.03784792125225067,-0.24686825275421143,-0.8189300298690796,-0.30708086490631104,0.01861572265625,-0.009244203567504883
21,0.2427071469475337,0.7155695708630113,0.39637104476467516,0.18138277530670166,-0.6560474038124084,-0.7325996160507202,-0.08696657419204712,-0.727983295917511,-0.8352968096733093,0.05813443660736084,0.10724979639053345,0.2893317937850952
22,0.18096372767465904,0.6890202514673263,0.3513406037934723,0.13891921937465668,-0.6357812285423279,-0.7592651844024658,0.2438650280237198,-0.8739722371101379,-0.243744358420372,0.0009886175394058228,-0.08489131927490234,-0.1727110743522644
23,0.06404212847130661,0.7673317298739659,0.3653834684408256,0.04606381803750992,-0.6942172050476074,-0.7182900905609131,1.0992096662521362,-1.7178783416748047,0.13598701357841492,-0.23096983134746552,-0.3372159004211426,-0.3098776340484619
24,0.047333385870043945,0.7739421194362802,0.22398488208706419,0.03383834660053253,-0.6989598870277405,-0.7143598794937134,0.09873639792203903,-0.8020530939102173,-1.0055787563323975,0.16113846004009247,0.24955809116363525,-0.3732255697250366
25,0.063957173378214,0.8281674535900572,0.12196026007621702,0.04322008416056633,-0.7366933822631836,-0.6748443841934204,0.07044152915477753,0.33627617359161377,-0.35203978419303894,0.2763599753379822,0.2594900131225586,0.2216888666152954
26,0.05307307544225721,0.8701416794165432,0.1278440075417065,0.03420111536979675,-0.7644202709197998,-0.6438103914260864,0.2462366819381714,0.06464194506406784,0.3952985107898712,0.06249382719397545,0.3209541440010071,0.1789667010307312
27,0.07249019947001586,0.8389372165269772,0.21822042724679278,0.048399437218904495,-0.7439333200454712,-0.6664988398551941,-0.3230040967464447,1.3066608905792236,0.727089524269104,0.045365817844867706,-0.11834084987640381,-0.1516926884651184
28,0.18470118750630063,0.8645644036122353,0.32560227286785204,0.11918545514345169,-0.7608126401901245,-0.6379333138465881,0.1749449372291565,2.34224271774292,0.876381516456604,0.0072488561272621155,-0.016775190830230713,-0.03996884822845459
29,0.13946632841355028,0.9038191424724348,0.5289639822822755,0.08599637448787689,-0.7856951951980591,-0.6126072406768799,-0.3271043300628662,0.5539225339889526,0.3680994212627411,-0.14335417747497559,-0.20685851573944092,-0.08708453178405762
30,0.21395385436840675,0.9123378145073867,0.5781812916514341,0.12992148101329803,-0.7909364104270935,-0.5979465246200562,0.31064167618751526,1.1416891813278198,0.23659443855285645,-0.024788424372673035,0.295376718044281,0.08816564083099365
31,0.24406105172736905,0.8695950483450783,0.6714676418886751,0.15589407086372375,-0.7640677690505981,-0.6260170936584473,-0.5866134762763977,0.41142240166664124,0.4800967872142792,-0.04502373933792114,-0.00569230318069458,-0.04462188482284546
32,0.29050936364027163,0.871086490927598,0.6893229307117855,0.18446631729602814,-0.7650290727615356,-0.6170110702514648,0.23246024549007416,0.6065157055854797,-0.15248948335647583,-0.09585851430892944,0.06307899951934814,0.12956905364990234
33,0.35302093998857864,0.869150999340866,0.6651618187338679,0.22316274046897888,-0.7637811899185181,-0.6056703925132751,0.09222932904958725,0.20218725502490997,0.1401892751455307,0.10133065283298492,0.027575194835662842,0.05990934371948242
34,0.32741917742784354,0.8960644406918793,0.6915858991256142,0.20089992880821228,-0.780874490737915,-0.5915018320083618,0.20582996308803558,-0.5644687414169312,0.7209210395812988,0.1843387484550476,-0.1654452085494995,0.01977020502090454
35,0.21683878499900888,0.9437538997653986,0.750281964918463,0.1262359619140625,-0.809766411781311,-0.5730120539665222,-0.23782174289226532,0.8600956201553345,-0.995589017868042,-0.07562255859375,-0.08914411067962646,-0.10019046068191528
36,0.3071747328398023,0.8760253179734279,0.7184531316308997,0.19357813894748688,-0.7682003378868103,-0.6102424263954163,-0.5052037835121155,0.38786131143569946,0.3161173462867737,0.34012851119041443,0.0991634726524353,0.02894359827041626
37,0.3614674634402097,0.849898573740736,0.8134927794848238,0.2334281951189041,-0.7512134909629822,-0.6174056529998779,-0.006352720782160759,1.4596585035324097,0.7744952440261841,0.00392228364944458,0.2381213903427124,0.01569056510925293
38,0.41955136066642545,0.8391661557326378,0.9274290782625784,0.2721443176269531,-0.7440863251686096,-0.6101418137550354,-0.49907228350639343,0.7210152745246887,0.47211095690727234,-0.1411324143409729,-0.02269834280014038,0.06612026691436768
39,0.43177788149465207,0.8258009177706263,0.9823899899289421,0.2837204039096832,-0.7350910305976868,-0.6157466173171997,0.04479279741644859,0.4718039929866791,0.14549924433231354,-0.21345368027687073,-0.05706900358200073,-0.08452498912811279
40,0.43756550486722884,0.8379389741751783,0.996162590890042,0.2834774851799011,-0.7432658672332764,-0.6059672832489014,0.614601731300354,-0.5684208869934082,0.6537318825721741,0.09385713934898376,-0.22290539741516113,-0.22241711616516113
41,0.4463715862389675,0.8737483051141106,0.9815298904892638,0.27713000774383545,-0.7667405605316162,-0.5790578126907349,0.5814114212989807,0.8432416319847107,-0.33188769221305847,0.03327956795692444,0.12310957908630371,-0.12867534160614014
42,0.5198816250714843,0.8642466266510374,0.9000566098056594,0.32251447439193726,-0.7606064081192017,-0.5634378790855408,-0.5319293737411499,-0.7968151569366455,-0.806172251701355,-0.14189618825912476,0.07838600873947144,0.16168928146362305
43,0.5265851075530489,0.8168080961635141,0.8050980354654046,0.34404465556144714,-0.7289645075798035,-0.5918142199516296,0.68290776014328,-0.5036091804504395,-0.8169833421707153,-0.02345752716064453,0.024466276168823242,-0.10212498903274536
44,0.5419229489216505,0.8261871056870453,0.6642759629492402,0.3495391011238098,-0.7353527545928955,-0.5805848836898804,-0.015615763142704964,-0.8644812107086182,-0.6661479473114014,0.030816733837127686,0.08935666084289551,0.26077592372894287
45,0.5355181719624479,0.8024981009544185,0.5642714776845775,0.3546046018600464,-0.7190942764282227,-0.5976276993751526,0.47484347224235535,-0.45316198468208313,-0.6428572535514832,-0.009572893381118774,-0.034384727478027344,-0.0022715330123901367
46,0.5064978996410486,0.8169113041237128,0.4681680516136797,0.3320516049861908,-0.7290351986885071,-0.598539412021637,0.3424047827720642,-1.2298263311386108,-0.11301787197589874,0.13357028365135193,-0.17904585599899292,-0.17856019735336304
47,0.4334859565893993,0.7977743084377205,0.357567385139461,0.2933124303817749,-0.7158036828041077,-0.6337136030197144,0.2043909728527069,-0.6726598739624023,-1.2841969728469849,-0.0818866491317749,0.05737161636352539,-0.41691505908966064
48,0.5450028400740745,0.7991094954471051,0.14467310308098102,0.3615180552005768,-0.7167353630065918,-0.5963178873062134,0.2637462913990021,-0.32787227630615234,-1.1225810050964355,0.01876145601272583,0.2942653298377991,0.2650648355484009
49,0.5201346698979555,0.7313459914758507,0.04605887384492827,0.36990299820899963,-0.6678720116615295,-0.6458472609519958,-0.3257824182510376,-0.6945736408233643,-0.49028876423835754,0.11204585433006287,0.08004242181777954,-0.10044485330581665
50,0.5191860697109894,0.745426642656568,0.019508033062677756,0.3645876944065094,-0.6782853603363037,-0.6379692554473877,0.2247852385044098,0.21798841655254364,0.14862854778766632,0.0714016854763031,0.01887679100036621,0.1474602222442627
51,0.5256568076351864,0.772975998026211,0.05726954602081457,0.35919296741485596,-0.6982686519622803,-0.6191940307617188,0.06378595530986786,0.42698824405670166,0.27357250452041626,-0.07762253284454346,-0.008594751358032227,0.00029754638671875
52,0.4982383055479317,0.8104765680768172,0.1539710141070199,0.3293316960334778,-0.7246156930923462,-0.6053699851036072,0.2912571132183075,0.37958455085754395,1.269892692565918,0.18809384107589722,-0.4569333791732788,-0.17002063989639282
53,0.5425437673086104,0.8152980476223477,0.1889243789376873,0.3540128767490387,-0.7279300093650818,-0.5871905088424683,0.3974757194519043,0.3188897669315338,0.2005922794342041,0.02037671208381653,0.3412112593650818,-0.05286985635757446
54,0.5036204848139029,0.8009783695505973,0.24300429349724967,0.33589157462120056,-0.7180373668670654,-0.6095893383026123,-0.5407671928405762,-0.254373162984848,0.1924174726009369,-0.10934430360794067,0.053089916706085205,-0.061797380447387695
55,0.5028935893374703,0.8039853478528902,0.2184629480511834,0.3344062268733978,-0.7201269865036011,-0.607938826084137,0.31958112120628357,-0.13489937782287598,-0.523944079875946,-0.08964002132415771,0.014545321464538574,0.10296446084976196
56,0.5194870029670703,0.7965728133719988,0.1561982617725998,0.3470879793167114,-0.7149641513824463,-0.6069235801696777,0.29321351647377014,-0.48633527755737305,-0.12907619774341583,0.059497714042663574,0.03568863868713379,0.07420873641967773
57,0.4929546303309753,0.8258769394108695,0.12469684109281134,0.32080909609794617,-0.7351425290107727,-0.5971992611885071,0.37581169605255127,-0.27992701530456543,-0.09142914414405823,0.055579423904418945,-0.0852157473564148,0.03132706880569458
58,0.4244649896279126,0.869130110407629,0.13645686114225467,0.265834778547287,-0.7637677192687988,-0.5882098078727722,0.07340236753225327,-1.0071042776107788,-0.06325719505548477,-0.05523297190666199,-0.27317380905151367,-0.12089663743972778
59,0.4543820722114641,0.8704568501690542,0.07858952638734935,0.2828657329082489,-0.7646234631538391,-0.5790838003158569,0.5628196597099304,-0.210605189204216,-0.36545172333717346,0.0834062397480011,0.2837885022163391,-0.012819886207580566
60,0.4745333030182236,0.8357847289463053,0.06607725689420756,0.30641090869903564,-0.7418229579925537,-0.5964990854263306,-0.4943070709705353,0.020384270697832108,-0.18544641137123108,0.12629783153533936,0.01724410057067871,0.024477601051330566
61,0.47210777856334263,0.8241737829413024,0.10419110831809038,0.30885952711105347,-0.7339869141578674,-0.6048711538314819,-0.1782691776752472,0.2990327775478363,0.21280038356781006,-0.12792080640792847,0.11458688974380493,0.16055047512054443
62,0.48184278808344994,0.7763777273901862,0.148133014436182,0.33062490820884705,-0.7006996870040894,-0.6322239637374878,-0.2536942660808563,0.21165600419044495,0.21212318539619446,0.027804046869277954,-0.034926533699035645,-0.1362544298171997
63,0.4912755538099572,0.7967038503477268,0.19397912276047866,0.32978570461273193,-0.7150557637214661,-0.6163899302482605,0.26823869347572327,0.5127511620521545,0.6661095023155212,0.08702334761619568,-0.01033174991607666,-0.09819436073303223
64,0.5058117680136699,0.7984077251694278,0.24472510196278124,0.3381197452545166,-0.7162458300590515,-0.6104645729064941,-0.4917426109313965,0.6756983995437622,-0.15763793885707855,0.1631162166595459,-0.134782612323761,-0.05649709701538086
65,0.5344418680445425,0.8237192281771228,0.29081141658422477,0.3461092710494995,-0.7336781024932861,-0.5847434401512146,0.4085453748703003,0.22954076528549194,0.708608090877533,-0.02422511577606201,0.31250500679016113,0.0976676344871521
66,0.5126859961799253,0.794014284644534,0.35393669885957363,0.34384843707084656,-0.713172972202301,-0.610862135887146,-0.3808402419090271,0.19368767738342285,-0.09523192048072815,0.019005566835403442,-0.1277998685836792,-0.13048607110977173
67,0.5553233734120621,0.7957239068576145,0.3288299103972768,0.36893028020858765,-0.7143703699111938,-0.5946137309074402,-0.007277158088982105,0.13663680851459503,-0.037362925708293915,0.026577472686767578,0.09303247928619385,0.2850434184074402
68,0.5493309970703835,0.7738500044960479,0.34156567711301467,0.3734310567378998,-0.6988940238952637,-0.6099969744682312,0.17371109127998352,-0.09315115958452225,0.052651628851890564,-0.034945398569107056,-0.07620662450790405,-0.04259085655212402
69,0.5595883944331588,0.7700972341979877,0.3228716533850503,0.3810579180717468,-0.6962050199508667,-0.6083530187606812,-0.16043198108673096,-0.15084390342235565,0.12480878829956055,0.1644285023212433,-0.08342748880386353,0.07974284887313843
70,0.5020709501096565,0.8387848094794432,0.3163843674364894,0.3216463625431061,-0.74383145570755,-0.5858826041221619,0.7658832669258118,-0.4889439642429352,-0.4039555788040161,-0.1956087350845337,-0.20615017414093018,-0.08275753259658813
71,0.5569106121094174,0.8031934064019399,0.22439850985381535,0.3670428991317749,-0.7195773124694824,-0.5894811749458313,0.0005362154915928841,-0.5464588403701782,-0.26246392726898193,0.1537243127822876,0.2578463554382324,-0.1027185320854187
72,0.5336140847976909,0.8002558811616426,0.19142230553733838,0.354285329580307,-0.7175343632698059,-0.5996886491775513,0.3047400116920471,-0.33326655626296997,-0.37481334805488586,-0.04225835204124451,-0.08469647169113159,-0.06818854808807373
73,0.5392607947043216,0.7968387688657861,0.15223001997139035,0.3589228689670563,-0.7151500582695007,-0.599778950214386,0.018025878816843033,-0.10975085943937302,-0.0698840469121933,-0.07011979818344116,0.12382620573043823,0.08662587404251099
74,0.5316564794269748,0.77911309434483,0.15612705800335608,0.3607220947742462,-0.7026486396789551,-0.6133224368095398,-0.06356383115053177,-0.06347936391830444,0.09832649677991867,-0.053242266178131104,-0.029315471649169922,-0.03140711784362793
75,0.5271089965127526,0.7911360197258427,0.1607215584175521,0.35365399718284607,-0.7111523747444153,-0.6076110601425171,-0.015062259510159492,0.08479130268096924,-0.014606272801756859,-0.09083661437034607,-0.016371428966522217,0.03496396541595459
76,0.49092445449658373,0.8213243105445431,0.21266615448670187,0.32117053866386414,-0.7320486903190613,-0.6007946729660034,0.042835086584091187,0.05296427011489868,0.27111756801605225,0.07322338223457336,-0.3861916661262512,-0.13245117664337158
77,0.50977920395992,0.8202192687224352,0.21310364105755134,0.3328351378440857,-0.7312954068183899,-0.5953383445739746,0.2674594223499298,0.08194185793399811,0.5127697587013245,0.17152884602546692,0.30424773693084717,0.10414272546768188
78,0.45976377874436025,0.8196414163734583,0.2647708802185492,0.3028426766395569,-0.7309011220932007,-0.6116123795509338,-0.5105571746826172,-0.09856121242046356,-0.024194451048970222,-0.14695891737937927,0.06390905380249023,0.008554577827453613
79,0.46337023402043576,0.7993268934946673,0.2484793919476578,0.3116196095943451,-0.7168869972229004,-0.6236716508865356,0.08374299854040146,-0.03829139098525047,-0.3151118755340576,-0.010426372289657593,0.04249429702758789,0.055907368659973145
80,0.4692325362141384,0.7937846179195231,0.22022939345513282,0.31706222891807556,-0.7130119800567627,-0.6253682971000671,-0.016412369906902313,-0.09370274841785431,-0.13860414922237396,-0.01879867911338806,-0.01019364595413208,0.10003870725631714
81,0.4718519339914382,0.7918678703898963,0.1960681958478344,0.31931981444358826,-0.7116667032241821,-0.625751793384552,-0.06308632344007492,-0.06881633400917053,-0.26254579424858093,-0.018889516592025757,-0.030474960803985596,0.06256520748138428
82,0.4271900286489851,0.8068336299250574,0.21032324704297237,0.28661832213401794,-0.7221003174781799,-0.629619836807251,0.6412917971611023,-1.053559422492981,0.5683473348617554,-0.07383450865745544,-0.31572622060775757,-0.21445059776306152
83,0.4593534061031011,0.8005694245490368,0.1092481298230113,0.308716744184494,-0.7177526950836182,-0.6241194009780884,-0.4621436297893524,0.0551961287856102,-1.4265135526657104,-0.04803559184074402,0.32235169410705566,-0.16857469081878662
84,0.4725482829640405,0.7648570303085431,0.03471136855917082,0.32838714122772217,-0.6924338340759277,-0.6424151659011841,0.11212807148694992,0.1621376872062683,-0.5087972283363342,0.16982758045196533,-0.033899784088134766,-0.021448969841003418
85,0.5191430752479497,0.7926452551608019,-0.016743751086907673,0.3482697308063507,-0.7122126221656799,-0.6094763278961182,0.07532527297735214,-0.07715276628732681,-0.08515165746212006,-0.1404145061969757,0.26424509286880493,0.34792542457580566
86,0.5087016653569104,0.7434314854523991,0.00785605884229944,0.3585374355316162,-0.6768179535865784,-0.6429373025894165,-0.35690736770629883,0.1055387482047081,0.08686459064483643,-0.009736806154251099,-0.040329813957214355,-0.058249831199645996
87,0.5183615212703341,0.7649575947184877,0.02711132322336787,0.3574288785457611,-0.6925064325332642,-0.6266413331031799,0.2599411606788635,0.2307460904121399,0.3369543254375458,0.008598923683166504,-0.08376920223236084,-0.03952682018280029
88,0.48379529709896496,0.7762617241850093,0.10560146189676102,0.33189651370048523,-0.7006168961524963,-0.6316491961479187,0.1848324090242386,-0.06491558253765106,0.8493942022323608,0.17060592770576477,-0.32472795248031616,-0.3670690655708313
89,0.4769487928759044,0.8062063410356164,0.10948265343528794,0.3177875578403473,-0.7216662764549255,-0.6149868965148926,0.32523611187934875,-0.03301890566945076,-0.0646614208817482,0.06809192895889282,0.37310969829559326,0.024685382843017578
90,0.5008150704427852,0.7593242730049559,0.13627762726398074,0.348246693611145,-0.6884315013885498,-0.6362282037734985,-1.1218196153640747,0.6127722263336182,-0.20856845378875732,-0.06293785572052002,-0.042021989822387695,0.11335527896881104
91,0.561008192198196,0.7132630344586722,0.10126605855365499,0.402345210313797,-0.6543048620223999,-0.6403152346611023,0.3001716434955597,0.49668389558792114,-0.4836348295211792,-0.029161006212234497,0.1642688512802124,0.0707961916923523
92,0.5870958474255722,0.7047175328180831,0.0687189675195678,0.42199262976646423,-0.6478186845779419,-0.6342342495918274,-0.3280267119407654,-0.07399321347475052,-0.09382641315460205,0.04347670078277588,-0.0009697079658508301,0.15370452404022217
93,0.5560219660233369,0.6981491415650004,0.06836299113070073,0.40432122349739075,-0.6428009867668152,-0.6506391167640686,0.2849852442741394,0.20648601651191711,0.028796501457691193,0.07260745763778687,-0.16737967729568481,-0.12833726406097412
94,0.5098838713849434,0.750911330428732,0.08467661113258815,0.3568163812160492,-0.6823052763938904,-0.6380764842033386,0.4724496006965637,-0.5682371854782104,0.2921242117881775,-0.0637408196926117,-0.3105841279029846,-0.15277129411697388
95,0.5688069159675838,0.7335965230863964,-0.012206390422794849,0.4000767469406128,-0.6695453524589539,-0.6258175373077393,-0.3430677354335785,0.2981506884098053,-0.7629234194755554,0.09111890196800232,0.40558362007141113,0.026528656482696533
96,0.5738346808944345,0.6901710459461586,-0.023019342497379046,0.4186168313026428,-0.6366690993309021,-0.6476206183433533,-0.5674784779548645,0.3122390806674957,-0.3256717920303345,0.10399675369262695,-0.017795681953430176,0.05463355779647827
97,0.5871257847275081,0.6846694526591405,-0.012129616987853553,0.42912107706069946,-0.6324170231819153,-0.6449060440063477,0.029998280107975006,0.15267379581928253,0.20783260464668274,-0.07958799600601196,0.15133792161941528,0.08313846588134766
98,0.5721973531023508,0.697094324963977,0.015022615083604005,0.41515910625457764,-0.6419925689697266,-0.6445838809013367,-0.02552996203303337,0.2451179474592209,0.22578613460063934,-0.13409224152565002,-0.07318681478500366,0.036216020584106445
99,0.5855025271099441,0.7093675544406981,0.029839273129186314,0.41931235790252686,-0.6513540148735046,-0.6323884129524231,0.18152619898319244,0.12313403934240341,0.33798593282699585,0.09838783740997314,-0.09002476930618286,-0.1312834620475769
100,0.492250086437318,0.8539166212591223,0.0913973344749767,0.31052166223526,-0.7538595199584961,-0.5790269374847412,1.3769586086273193,-0.40736931562423706,1.186569333076477,0.08077472448348999,-0.23004239797592163,-0.07162308692932129
101,0.5423131531833159,0.8565835190935358,0.055465847475241546,0.33806949853897095,-0.7556090950965881,-0.5610383152961731,-0.2909754812717438,0.45938923954963684,-0.495696097612381,0.15752071142196655,0.3547302484512329,-0.04246211051940918
102,0.4968197979976506,0.8202873905267878,0.1312860675968662,0.32506847381591797,-0.7313418388366699,-0.5995578765869141,-0.15154297649860382,-0.09189030528068542,0.27330392599105835,-0.09321117401123047,-0.014935016632080078,-0.11151695251464844
103,0.5325409647044534,0.8243706430006026,0.08716782396183248,0.34475430846214294,-0.7341206073760986,-0.5849882960319519,-0.4956592619419098,0.23667767643928528,-0.7125242948532104,-0.10885345935821533,0.2292683720588684,0.3623321056365967
104,0.545053453321227,0.7607615831317444,0.07601545031990128,0.37552911043167114,-0.6894732713699341,-0.6193581223487854,0.46995043754577637,-0.4274223744869232,0.2045232653617859,0.17780035734176636,-0.05533874034881592,-0.12464511394500732
105,0.520293565368339,0.8222444123726473,0.0689379797023141,0.33833929896354675,-0.7326751947402954,-0.5905197262763977,0.0655195340514183,-0.04554848000407219,-0.006277363747358322,0.041421473026275635,-0.06291806697845459,0.1994827389717102
106,0.44782465210428396,0.8395096416002119,0.11774242487511213,0.28917327523231506,-0.7443157434463501,-0.6019741296768188,0.2694971263408661,-0.5460894703865051,0.3964662253856659,-0.01654452085494995,-0.3611987829208374,-0.25364720821380615
107,0.4985396359800697,0.8533228212642383,0.06491606325021428,0.314371258020401,-0.7534692883491516,-0.5774555206298828,0.5332299470901489,0.39907288551330566,-0.3568921685218811,0.06442815065383911,0.34415221214294434,0.0063800811767578125
108,0.5192054216225874,0.8356145711206219,0.06198738371673145,0.3328058123588562,-0.7417088747024536,-0.5823299884796143,-0.32106873393058777,-0.11718267947435379,0.16024544835090637,0.1276586353778839,0.008249402046203613,-0.025549590587615967
109,0.5188610857292166,0.8488139135573997,0.0828937924240486,0.3277216851711273,-0.7504971027374268,-0.5738925933837891,-0.2647199332714081,0.390140563249588,0.11002247035503387,-0.04790598154067993,0.19291043281555176,0.31836891174316406
110,0.4846392668092014,0.7952088446977772,0.1726616616446681,0.3261856138706207,-0.7140098214149475,-0.6195101141929626,-0.31471213698387146,0.17750826478004456,0.5387210249900818,0.010362207889556885,-0.058390021324157715,-0.1603664755821228
111,0.4635256514876947,0.8229683555280969,0.23181454983297514,0.304052472114563,-0.7331677079200745,-0.6082903742790222,-0.28967660665512085,0.2755175232887268,0.25328895449638367,-0.12756934762001038,-0.04951661825180054,0.160750150680542
112,0.4366048800365942,0.8161337157481281,0.30968255456956567,0.2896808385848999,-0.7285026907920837,-0.6207807660102844,0.3242233693599701,0.19600670039653778,1.0126556158065796,0.1410442292690277,-0.3570990562438965,-0.2024461030960083
113,0.4630514355608386,0.7897651618978555,0.33365813605187006,0.3144683241844177,-0.7101879715919495,-0.6298751831054688,-0.47356635332107544,0.740096926689148,-0.3046189248561859,0.1934356987476349,0.25752073526382446,-0.2613906264305115
114,0.4753642802954858,0.8141317265290109,0.37444514759836167,0.3141852021217346,-0.7271298170089722,-0.6103850603103638,-0.29951947927474976,-0.29987046122550964,0.4000932276248932,-0.05771550536155701,0.18010222911834717,0.23514097929000854
115,0.45560490769638906,0.7879309894339132,0.41084916535549104,0.31034189462661743,-0.7088955044746399,-0.6333680748939514,0.05918741598725319,0.29294803738594055,-0.24030102789402008,-0.07378488779067993,-0.029950320720672607,0.06418472528457642
116,0.48052239387870205,0.7627915099316334,0.398001728118393,0.3341597318649292,-0.6909421682357788,-0.6410430669784546,-0.11226314306259155,-0.1719295233488083,0.19690287113189697,0.0855027437210083,0.05199563503265381,0.07942807674407959
117,0.45214259770040377,0.7917595583367977,0.4122765674855658,0.3069591522216797,-0.7115906476974487,-0.6319928765296936,0.1490556001663208,-0.21900822222232819,0.05417483299970627,-0.06200981140136719,-0.10594475269317627,0.1252484917640686
118,0.41823794633382155,0.8139206553929316,0.41491633743781586,0.2788849472999573,-0.7269848585128784,-0.6274680495262146,0.21065698564052582,-0.9820212125778198,0.43721407651901245,0.11343377828598022,-0.2588702440261841,-0.12137222290039062
119,0.39308811958895973,0.8015717903837944,0.38030125265072084,0.26643630862236023,-0.7184503078460693,-0.6425269842147827,0.41964560747146606,0.04166833311319351,-0.5386558771133423,0.05291491746902466,0.22347038984298706,-0.2899070978164673
120,0.4454810256840479,0.8149126355126884,0.3190791952777987,0.29556262493133545,-0.7276656627655029,-0.6189874410629272,-0.3051261901855469,-0.22293749451637268,-0.24139675498008728,0.06326305866241455,0.11345362663269043,0.24325501918792725
121,0.437457952905299,0.7859034936865845,0.30836536629928035,0.2994060218334198,-0.7074640393257141,-0.640195906162262,-0.08200608193874359,0.1272190809249878,-0.1458825170993805,-0.05500602722167969,0.1410577893257141,0.024412155151367188
122,0.43104274455176383,0.7564457602203662,0.32669440469755356,0.3038709759712219,-0.686340868473053,-0.6607561707496643,-0.3894537687301636,-0.009202495217323303,0.10847321152687073,0.11649340391159058,-0.03839057683944702,-0.05254644155502319
123,0.4096080479905487,0.8174668449910889,0.3975736651352087,0.2724311947822571,-0.7294152975082397,-0.6274826526641846,0.6419666409492493,0.6459562182426453,1.3157413005828857,0.2502281069755554,-0.04269462823867798,-0.01657557487487793
124,0.36821263857078523,0.8294511481348231,0.514043717016474,0.24306620657444,-0.7375608682632446,-0.6300180554389954,-0.2743426263332367,0.39266636967658997,0.6184605956077576,0.1543947458267212,0.003872513771057129,-0.12372034788131714
125,0.37106904545307173,0.8250188119748103,0.5913657177099749,0.24604780972003937,-0.7345605492591858,-0.6323615908622742,-0.41002094745635986,0.3517942428588867,0.464335173368454,-0.049346789717674255,0.1410089135169983,0.13959431648254395
126,0.3751440388854233,0.7984184560571316,0.6243708630275444,0.2556932866573334,-0.7162533402442932,-0.649308979511261,0.020637400448322296,0.2811463475227356,-0.1447432041168213,-0.12536796927452087,0.06513029336929321,0.033571064472198486
127,0.4096238591857798,0.7986263099293801,0.5893710374514304,0.2778656482696533,-0.7163983583450317,-0.6399719715118408,-0.10788014531135559,-0.14008675515651703,-0.2813992202281952,-0.02041935920715332,-0.05630671977996826,0.22957158088684082
128,0.4111251400139422,0.7955207324884012,0.5585957690986003,0.279713898897171,-0.7142281532287598,-0.641590416431427,0.5142219662666321,0.3327915370464325,-0.37615543603897095,-0.03670239448547363,-0.22772735357284546,-0.1509968638420105
129,0.36679622144907664,0.8720602661487131,0.5567923773336053,0.2306867390871048,-0.7656558156013489,-0.6004621386528015,1.4016116857528687,-0.521595299243927,0.24353769421577454,-0.1615339070558548,-0.28900110721588135,-0.2899187207221985
130,0.48320920262716877,0.8939891240441614,0.3985599277948427,0.2909969091415405,-0.7795763611793518,-0.5546002388000488,-0.12102014571428299,-0.12599824368953705,-0.770606517791748,-0.06376305222511292,0.3797503709793091,-0.010280072689056396
131,0.47980978224991755,0.8276213393885141,0.3548054605947403,0.31233906745910645,-0.7363240122795105,-0.6002259850502014,-0.3754386603832245,-0.10999564081430435,-0.4907083511352539,0.15174171328544617,0.029597938060760498,-0.09470498561859131
132,0.49716716906799574,0.8494696438119903,0.32832937655257766,0.3149607479572296,-0.7509302496910095,-0.5804338455200195,-0.25903427600860596,-0.04227907210588455,-0.08776649087667465,-0.089222252368927,0.22451728582382202,0.42703723907470703
133,0.4536900156391988,0.7819867983535409,0.3858107479844083,0.31096988916397095,-0.7046904563903809,-0.637737512588501,-0.06221514567732811,-0.19858749210834503,0.43029049038887024,0.04172176122665405,-0.08280038833618164,-0.2781102657318115
134,0.44208836201438834,0.8414305952740719,0.4355546696976637,0.2851032316684723,-0.745597243309021,-0.6023296117782593,-0.29313924908638,0.6870787143707275,0.7262769937515259,0.05135306715965271,-0.1338125467300415,0.22365224361419678
135,0.4432584267717349,0.8703863927027754,0.4931692854365492,0.2764299511909485,-0.7645780444145203,-0.5822430849075317,-0.610984742641449,0.8216224908828735,-1.0965467691421509,-0.242631733417511,0.15416544675827026,-0.09005916118621826
136,0.46852890126936986,0.7899655025039889,0.4086406530587364,0.3178494870662689,-0.710328996181488,-0.6280163526535034,-0.5939608812332153,-1.3069653511047363,-1.4186384677886963,-0.23961764574050903,-0.21919065713882446,0.14724242687225342
137,0.5019160907694192,0.698449054735678,0.2684860091859744,0.3684505522251129,-0.6430307030677795,-0.6713834404945374,0.19122205674648285,-0.5277289748191833,-0.9876564741134644,-0.0327267050743103,0.23833703994750977,0.20303016901016235
138,0.48140291398109203,0.6561899114310992,0.21507018176420856,0.3668636381626129,-0.6101024746894836,-0.7022720575332642,-0.11737644672393799,-0.937704861164093,-0.1349191814661026,0.0801120400428772,0.04671746492385864,0.14062660932540894
139,0.4484168136133521,0.6485570291997802,0.1940805838343763,0.34551194310188293,-0.6040370464324951,-0.71816486120224,0.6387851238250732,-0.11200656741857529,-0.18233218789100647,0.09340709447860718,-0.11086767911911011,-0.1767173409461975
140,0.41196413565080864,0.7244728825432927,0.18109973350761177,0.29984650015830994,-0.6627408266067505,-0.6861972808837891,0.14464062452316284,-0.9716975688934326,-0.22100910544395447,-0.17872223258018494,-0.3081454038619995,-0.18890953063964844
141,0.45800654446199723,0.7151873815301859,0.06686728999724344,0.3338184654712677,-0.6557589173316956,-0.6771599054336548,0.8169123530387878,0.05697052925825119,-0.6660961508750916,0.1510295569896698,0.20008569955825806,0.044271111488342285
142,0.47412110893940035,0.6992829154970622,0.027522339350360046,0.3494046628475189,-0.643669068813324,-0.6808866262435913,-0.1912493109703064,0.00847059115767479,-0.004309147596359253,0.12834802269935608,0.22946923971176147,0.09804666042327881
143,0.47157177069353834,0.6938146717802092,0.08695313746802989,0.34926146268844604,-0.6394745707511902,-0.6849005222320557,-0.6738224029541016,0.34870246052742004,0.5385634899139404,-0.06679072976112366,0.09296578168869019,0.32241272926330566
144,0.41910859067991346,0.6424729471671156,0.17165207102893204,0.32580798864364624,-0.5991771817207336,-0.7313248515129089,-0.3070027530193329,0.20031774044036865,0.492435097694397,-0.03398364782333374,-0.15576672554016113,-0.27464139461517334
145,0.42607422030186637,0.7032864083806531,0.23108741080927958,0.31523191928863525,-0.6467278003692627,-0.6945300102233887,0.1657571643590927,0.7872676849365234,0.9180307984352112,0.18124327063560486,-0.27264469861984253,0.05912357568740845
146,0.4600892125699226,0.6470937736706984,0.237704589740945,0.35426297783851624,-0.6028702259063721,-0.7148742079734802,-0.7045060396194458,0.7039359211921692,-0.4186088740825653,0.257828027009964,0.33393412828445435,-0.2137603759765625
147,0.4194027724771104,0.651975439106638,0.3032149179372246,0.32368984818458557,-0.6067578196525574,-0.7259957194328308,-0.6164723038673401,-0.2000671923160553,0.6455884575843811,-0.16135159134864807,0.10810059309005737,0.12220543622970581
148,0.416655294729727,0.6563622600918746,0.31688751832125495,0.32061365246772766,-0.6102390289306641,-0.7244412899017334,0.5160980224609375,0.09262905269861221,-0.4303164780139923,-0.28011682629585266,0.06704139709472656,0.1517789363861084
149,0.41420304766659827,0.6170748027892375,0.26757802912230716,0.32823657989501953,-0.5786519050598145,-0.7466074824333191,-0.5918580889701843,-0.5772705078125,-0.5418963432312012,-0.010701179504394531,-0.020896434783935547,0.06336468458175659
150,0.4216422363108546,0.640928770543661,0.19946602132201244,0.3280380964279175,-0.5979401469230652,-0.7313402891159058,1.0364452600479126,0.16986222565174103,-0.4398156404495239,0.01522362232208252,-0.08884268999099731,-0.14533817768096924
151,0.4091259095048711,0.7018354493900765,0.12041819021693198,0.30378907918930054,-0.6456204056739807,-0.7006328701972961,0.0635446310043335,-0.5421878099441528,-1.0289769172668457,-0.29399293661117554,-0.03898036479949951,-0.21689331531524658
152,0.5017291252287379,0.748284016577363,-0.06588721029950761,0.35246214270591736,-0.6803821921348572,-0.6425344944000244,1.2112587690353394,0.0786411315202713,-1.2762194871902466,-0.09623655676841736,0.2521442174911499,0.17944550514221191
153,0.5242075985396675,0.681382854673507,-0.20386207220889116,0.3887607157230377,-0.629867672920227,-0.6724075675010681,-0.7867956757545471,-0.8498970866203308,-1.1292744874954224,0.05577358603477478,0.19490063190460205,0.15266263484954834
154,0.49579531476704075,0.6013540189482173,-0.2325763473216222,0.3922739624977112,-0.5657594799995422,-0.7252843379974365,-0.4922831654548645,0.021892951801419258,-0.11017117649316788,0.08849996328353882,0.022226154804229736,0.12419486045837402
155,0.46835379011343975,0.5795145544695133,-0.18848579262263596,0.3777143061161041,-0.5476177930831909,-0.7466234564781189,-0.3519595265388489,0.33233076333999634,0.331413209438324,0.030198901891708374,-0.0873613953590393,0.06067991256713867
156,0.448183042132958,0.583239733621662,-0.09649186677288582,0.36169207096099854,-0.5507309436798096,-0.7522461414337158,-0.4904092252254486,0.23696282505989075,1.2984485626220703,0.31596601009368896,-0.26054835319519043,-0.10085749626159668
157,0.4333395621492902,0.49964136217055605,-0.05181777107248697,0.3685726225376129,-0.4791107773780823,-0.7966223359107971,-0.16304698586463928,0.14795948565006256,0.1382082849740982,0.2996707856655121,0.3938141465187073,-0.36502933502197266
158,0.38037845022867806,0.5245204837627055,0.03346402545222926,0.32135966420173645,-0.5007979869842529,-0.8036972880363464,-0.5420829653739929,0.007656809873878956,0.952865481376648,-0.08310893177986145,0.15037989616394043,0.10040444135665894
159,0.3252012230999853,0.5510803278715581,0.0769365208150695,0.2722005546092987,-0.5236079096794128,-0.8073051571846008,-0.029775550588965416,-0.029543371871113777,-0.44512441754341125,-0.3196401596069336,-0.04903918504714966,0.19136887788772583
160,0.31320111469315093,0.5365597383345386,0.02090494259606307,0.2648082673549652,-0.5111821889877319,-0.817660927772522,-0.003381304442882538,-0.42637643218040466,-0.3827626407146454,0.06581917405128479,-0.032412171363830566,0.12201273441314697
161,0.2990157035236653,0.5469385896422827,-0.01366834234688128,0.25160664319992065,-0.5200748443603516,-0.8162207007408142,0.5008546710014343,-0.1313297301530838,-0.3392256796360016,0.039012253284454346,-0.11598777770996094,-0.07884460687637329
162,0.24041485160061685,0.6101659114863436,-0.013587170358936597,0.19514012336730957,-0.5730034708976746,-0.7959820032119751,1.1089469194412231,-0.8225409388542175,0.0072122421115636826,-0.24821020662784576,-0.28864508867263794,-0.3332293629646301
163,0.3187832364640622,0.6356138436700208,-0.17411751733946454,0.25220441818237305,-0.5936716198921204,-0.7641642093658447,-0.21577778458595276,-0.1560101956129074,-0.9655635356903076,0.16893815994262695,0.44691258668899536,0.08607888221740723
164,0.2755531744548647,0.5824066323287269,-0.2017988694594298,0.22722464799880981,-0.5500354170799255,-0.8036354780197144,-0.7086993455886841,-0.08041582256555557,-0.16772587597370148,0.3313080668449402,0.05789369344711304,0.08653342723846436
165,0.2757973391976108,0.6042289030800786,-0.16891539146782,0.22409838438034058,-0.5681276917457581,-0.7918401956558228,0.6509066224098206,0.5941492319107056,0.7195647954940796,0.06476575136184692,0.25037866830825806,0.19467222690582275
166,0.24471439261818922,0.6443396669808641,-0.0017561699387997488,0.19370143115520477,-0.6006706357002258,-0.7756768465042114,-0.21662361919879913,0.3263552188873291,2.2270612716674805,0.18726475536823273,0.04633408784866333,-0.012012362480163574
167,0.14651464868359038,0.7813565948301838,0.263104771805282,0.10364760458469391,-0.7042431831359863,-0.7023522257804871,1.735478401184082,1.474046230316162,2.126333475112915,-0.1803840547800064,-0.06809568405151367,-0.16710877418518066
168,0.12024564058349374,0.9154242370016163,0.44727170516232695,0.07310774177312851,-0.7928212285041809,-0.6050534844398499,-0.34826985001564026,0.6185256838798523,-0.5198725461959839,-0.3345975875854492,-0.3624369502067566,0.09248024225234985
169,0.2598466983072594,0.8590161736545344,0.38773693313180424,0.16782380640506744,-0.757200300693512,-0.6312549710273743,0.7444550395011902,0.7488593459129333,0.5379716157913208,0.24068447947502136,0.31950199604034424,-0.18684494495391846
170,0.2342380000956248,0.9086521795550874,0.43524297620048635,0.14269837737083435,-0.7886757850646973,-0.5980197787284851,-0.927307665348053,0.30196189880371094,-0.09486639499664307,-0.27410709857940674,0.04299408197402954,0.3110629916191101
171,0.3018257656903268,0.8271125532068249,0.37921866605790516,0.20124879479408264,-0.7359796166419983,-0.6464000344276428,-0.38677477836608887,-0.1067870706319809,-0.5301764607429504,0.07386717200279236,-0.02740234136581421,0.06221729516983032
172,0.3033343526353154,0.811366993585868,0.35433811998905873,0.20566000044345856,-0.725229024887085,-0.6570744514465332,0.18349198997020721,-0.13853773474693298,0.05171036720275879,0.021253451704978943,-0.04889512062072754,0.0474858283996582
173,0.2716465230343886,0.8200426400868623,0.35857661207678126,0.18304385244846344,-0.7311749458312988,-0.6571744680404663,-0.12050560861825943,-0.4182089865207672,0.08967810869216919,0.10415709018707275,-0.23241764307022095,-0.04524862766265869
174,0.16423029434937028,0.9113370218827341,0.3701779147030393,0.10017047077417374,-0.7903236150741577,-0.6044455170631409,0.7715664505958557,-0.25706493854522705,-0.9875769019126892,-0.19652973115444183,-0.10844957828521729,-0.07141202688217163
175,0.2729632986048264,0.8560529636864831,0.19805367356661244,0.1766931712627411,-0.7552614808082581,-0.631157398223877,-0.29113927483558655,-0.5191141963005066,-0.6221570372581482,0.07919670641422272,0.22008997201919556,-0.09157508611679077
176,0.3200687115771335,0.7997929019630904,0.10781333704587237,0.219252809882164,-0.7172117829322815,-0.6614646315574646,-0.01092250645160675,-0.001925759483128786,-0.3660455644130707,0.11610487103462219,0.1873655915260315,-0.0036507248878479004
177,0.37123111526681013,0.7966480708671141,0.09354899719325206,0.253610223531723,-0.715016782283783,-0.6514850854873657,-0.343535453081131,0.45923781394958496,0.12152387201786041,-0.00019228458404541016,0.12927764654159546,0.2305561900138855
178,0.3655363957539548,0.7748384559151444,0.1343204812460129,0.25541043281555176,-0.6996006369590759,-0.6673263907432556,-0.07307880371809006,0.37927210330963135,0.2969730794429779,0.0018374919891357422,-0.14288288354873657,-0.14489895105361938
179,0.38220589547469375,0.8401388217245299,0.19240988976257967,0.2489037960767746,-0.7447357773780823,-0.6192055940628052,0.30918338894844055,0.4213256239891052,0.9776344299316406,0.1592077612876892,-0.17938226461410522,0.043979763984680176
180,0.45393002101002367,0.8239631895095301,0.22136827449425112,0.2978816628456116,-0.7338438630104065,-0.6105241775512695,-0.4847038984298706,1.1969376802444458,-0.06468097865581512,0.31829872727394104,0.206728994846344,-0.07082653045654297
181,0.39192684760759167,0.8488043043168413,0.33568093214978356,0.2524366080760956,-0.7504907250404358,-0.610769510269165,-0.15660333633422852,-0.35922273993492126,0.876964807510376,-0.22335335612297058,0.14148199558258057,0.07594895362854004
182,0.37107899909990505,0.8451928728347141,0.3486396146591265,0.24063070118427277,-0.7480990886688232,-0.6184210181236267,-0.2305392175912857,-0.09470465779304504,-0.5672798156738281,-0.15731774270534515,0.20519143342971802,0.2080969214439392
183,0.3848237323884183,0.8044696088605771,0.30128470856129097,0.2603345215320587,-0.7204629182815552,-0.6427745819091797,0.19609187543392181,-0.44399958848953247,-0.14989230036735535,0.0636247992515564,-0.047023653984069824,-0.024431228637695312
184,0.3589096144984087,0.832408139270767,0.26207665631555416,0.23642763495445251,-0.7395544052124023,-0.630207359790802,0.22621646523475647,-0.3695760667324066,-0.263672798871994,0.03777278959751129,-0.07642459869384766,0.0626872181892395
185,0.2707882475114842,0.8308960760354234,0.24552019744853895,0.1803462654352188,-0.7385358214378357,-0.6496460437774658,-0.4416707456111908,-0.7354497313499451,-0.805439829826355,-0.1313502937555313,-0.27829456329345703,-0.3959624171257019
186,0.33284118573756466,0.8942690660434197,0.11707493083275675,0.20456179976463318,-0.7797516584396362,-0.5917279124259949,1.1087183952331543,-0.5326356291770935,-0.46012482047080994,0.03658808767795563,0.34911811351776123,0.2466808557510376
187,0.38596825054668565,0.8419740014416688,0.04659242528601808,0.25071677565574646,-0.7459592223167419,-0.6169975399971008,-0.5001986026763916,-0.07905743271112442,-0.4459144175052643,0.16571083664894104,0.13833904266357422,0.04477769136428833
188,0.3812463184776976,0.827518064658559,0.05582952813610383,0.25178685784339905,-0.736254096031189,-0.6281189322471619,-0.3219832479953766,0.1775534749031067,0.027148840948939323,-0.11827248334884644,0.07055890560150146,0.15857547521591187
189,0.38231026035968607,0.795626780794431,0.08596956735044703,0.26108473539352417,-0.7143023610115051,-0.6493126749992371,-0.054299496114254,0.27809804677963257,0.27449822425842285,0.03235703706741333,-0.1513439416885376,-0.13952094316482544
190,0.38415462750452034,0.8179391762333503,0.1381175287868091,0.2562439441680908,-0.7297383546829224,-0.6338934898376465,-0.047584980726242065,0.4418765604496002,0.9926618933677673,0.1718108355998993,-0.20902812480926514,-0.08687067031860352
191,0.422642918611,0.8250510439770459,0.18780606263461685,0.2783098518848419,-0.7345824241638184,-0.6188151836395264,-0.2866244912147522,1.2304936647415161,-0.06549488753080368,0.23783394694328308,0.22593075037002563,0.0002849698066711426
192,0.4302640240546474,0.8328010233759685,0.26500844862088396,0.28063470125198364,-0.739818811416626,-0.6114836931228638,-0.6768234968185425,0.3208773732185364,0.5379083156585693,-0.009287655353546143,0.11555123329162598,0.24135124683380127
193,0.41398906434384813,0.8086257531839699,0.329775896847518,0.27776092290878296,-0.7233389616012573,-0.6321626305580139,0.1774083971977234,0.2643400728702545,-0.004485538229346275,-0.15703341364860535,0.034297823905944824,0.06188070774078369
194,0.4671897494276735,0.7586060326174965,0.3142981813595455,0.32688310742378235,-0.6879103779792786,-0.6480175852775574,-0.5026270747184753,0.23089271783828735,-0.31746023893356323,0.0011503398418426514,-0.041810691356658936,0.06221741437911987
195,0.4680154279183704,0.7503916902288501,0.27732819506630957,0.3299560844898224,-0.6819252967834473,-0.652768611907959,0.376125693321228,-0.4824772775173187,-0.39813801646232605,-0.060043394565582275,-0.14223241806030273,0.030850887298583984
196,0.4509596938448523,0.7437230631178323,0.19720636625113366,0.32075002789497375,-0.6770325899124146,-0.662379264831543,0.2662523090839386,-1.8283895254135132,-0.018335286527872086,0.13791391253471375,-0.41531360149383545,-0.17674732208251953
197,0.4027597361570312,0.7246346386743251,0.1102088099838649,0.29347583651542664,-0.6628619432449341,-0.6888294816017151,0.7802539467811584,-0.13713058829307556,-0.7153520584106445,0.09774422645568848,0.3015490770339966,-0.2973307967185974
198,0.40927563946692785,0.7652779353694497,0.02470155492935607,0.2869938313961029,-0.6927374601364136,-0.6616263389587402,-0.6416067481040955,-0.5900682210922241,-0.4198404848575592,0.005807071924209595,0.16524118185043335,0.41809606552124023
199,0.2662220011317699,0.7042760128965109,-0.0004922182458510066,0.20049455761909485,-0.6474822759628296,-0.7352337837219238,-0.524212121963501,-0.9798988699913025,-0.22847908735275269,0.012823313474655151,0.07156980037689209,-0.04612302780151367
200,0.12749674624197202,0.688048516845897,-0.014533359009578181,0.09822292625904083,-0.6350309252738953,-0.7662166953086853,-0.23280730843544006,-1.2903974056243896,0.08702948689460754,0.08089999854564667,-0.004342854022979736,0.1045040488243103
201,-0.05955098321616063,0.7161479967687338,-0.04003975181728,-0.044895149767398834,-0.6564838290214539,-0.753002941608429,0.18715378642082214,-0.4960660934448242,0.3534811735153198,-0.033809684216976166,-0.12467461824417114,0.016003429889678955
202,-0.1534196410154637,0.7271019372914175,0.014200217611574058,-0.11417129635810852,-0.6647073030471802,-0.7383286356925964,0.5092081427574158,-0.6406651139259338,0.5393278002738953,-0.026331640779972076,-0.2912711501121521,-0.31469565629959106
203,-0.18659117766294925,0.7577937970679869,0.02764032329324838,-0.13474619388580322,-0.6873206496238708,-0.7137463092803955,0.5797269344329834,-0.402657687664032,-0.17002952098846436,0.16044197976589203,0.43011850118637085,-0.06333804130554199
204,-0.2013734306721784,0.7180407675416794,0.061986600146744605,-0.15063068270683289,-0.6579104661941528,-0.7378782033920288,-1.5846357345581055,0.46894949674606323,0.9107303619384766,0.13459369540214539,-0.03398406505584717,0.16016525030136108
205,-0.22020075335855555,0.6385422137292502,0.11352849305224441,-0.1753881722688675,-0.5960255265235901,-0.7835768461227417,0.3627329468727112,-0.7246221303939819,-0.008148247376084328,0.03366453945636749,0.05443006753921509,0.1416395902633667
206,-0.2827413967831204,0.6238429128836793,0.11970867557139873,-0.2264387309551239,-0.5841585397720337,-0.7794128656387329,0.06340853124856949,-1.4832825660705566,0.2551930546760559,0.1780073344707489,-0.11632674932479858,0.02608644962310791
207,-0.4880992039320295,0.6406594568488582,0.16942206885738362,-0.37595632672309875,-0.5977242588996887,-0.7080836296081543,0.7631974220275879,-2.1732592582702637,0.6809079051017761,0.21923336386680603,-0.083626389503479,-0.08811992406845093
208,-0.7400232653007729,0.6369835961616842,0.33674772362898836,-0.5420694351196289,-0.5947732925415039,-0.5936374068260193,1.9407345056533813,-2.6898443698883057,1.1724741458892822,-0.1343069076538086,-0.2619619369506836,-0.25484275817871094
209,-0.9278943050713646,0.6910496762685043,0.36736224966975123,-0.6167388558387756,-0.6373463869094849,-0.46197709441185,1.65988028049469,-1.7988132238388062,0.052558526396751404,0.16658931970596313,0.44113361835479736,-0.3092326521873474
210,-1.2512745719349658,0.7070086392087253,0.6411070551521071,-0.7218258380889893,-0.6495622992515564,-0.23882238566875458,1.1875873804092407,-0.7619388699531555,1.2854920625686646,0.40921908617019653,0.18319278955459595,0.12317599356174469
211,-1.4226890594146904,0.5992539309080219,0.8198367023662188,-0.8167164921760559,-0.5640265345573425,-0.12185393273830414,1.7184484004974365,-0.5524513721466064,1.3181612491607666,-0.1253764033317566,0.17523258924484253,-0.17949187755584717
212,-1.62770494661362,0.5137135008759358,1.110421543097475,-0.8695157766342163,-0.4914148151874542,0.04953642934560776,1.9045023918151855,-0.37189462780952454,0.8571983575820923,-0.05956137180328369,-0.34865784645080566,0.04825711250305176
213,-1.8837396179907762,0.4321514825086951,1.440116794266808,-0.8639633655548096,-0.4188254475593567,0.2795577049255371,1.9626933336257935,-1.7738051414489746,0.3804094195365906,-0.021534621715545654,-0.2844826281070709,0.2841629981994629
214,-2.129422182241018,0.25147200511426526,1.5989893810449096,-0.821312665939331,-0.2488299310207367,0.5133507251739502,2.7476046085357666,-2.2697877883911133,1.582725167274475,-0.1795417070388794,0.08269229531288147,0.01202458143234253
215,-2.4798675386504896,-0.06529973350279894,1.7639815952180833,-0.6131691932678223,0.06525333970785141,0.7872520089149475,3.5135436058044434,-2.3042423725128174,0.3690650463104248,-0.593205988407135,-0.3104010224342346,-0.17801427841186523
216,-2.4627774249881442,-0.011196708134245247,1.8547829802189812,-0.6278319954872131,0.01119647454470396,0.7782683968544006,-0.3849189281463623,-0.33911585807800293,-1.2483232021331787,0.23323971033096313,0.17558634281158447,-0.30738210678100586
217,-2.387551576379054,0.09700938043764304,1.8937419660723336,-0.6813714504241943,-0.09685729444026947,0.7255013585090637,-0.9770121574401855,1.6313291788101196,-0.37266141176223755,0.5683189034461975,0.22634336352348328,0.06385129690170288
218,-2.187989154871859,0.22419927313913543,1.8020812025347626,-0.7950963377952576,-0.22232574224472046,0.564263641834259,-2.1330811977386475,1.545772910118103,-0.8005406856536865,-0.32763028144836426,-0.02596527338027954,0.405905544757843
219,-2.0224594625742003,0.40796040562183195,1.6446329650947378,-0.8258840441703796,-0.3967379331588745,0.40064290165901184,-1.5181154012680054,0.8295839428901672,0.10756763815879822,0.10061842203140259,0.021692126989364624,0.13263660669326782
220,-2.032110438878368,0.5463210946385891,1.5033003121649406,-0.7651255130767822,-0.5195473432540894,0.3803335726261139,0.05522017180919647,-2.9385085105895996,-1.6491936445236206,-0.5419423580169678,0.12776267528533936,-0.626656174659729
221,-2.4224258615199896,0.5665507780796375,1.682020414812989,-0.5558319091796875,-0.5367249250411987,0.634804904460907,0.117770716547966,-1.554374098777771,-0.5675262212753296,0.123077392578125,0.07607734203338623,-0.1669245958328247
222,-2.672826488046063,0.5333358187527406,1.7934513294326708,-0.3890399932861328,-0.5084086656570435,0.7682241797447205,-0.21124133467674255,-0.7793974280357361,-0.7450493574142456,-0.010709673166275024,0.23617666959762573,-0.12042760848999023
223,-2.6311622878856697,0.6098964717932391,1.788525738610632,-0.40047019720077515,-0.572782576084137,0.7152225375175476,-1.3888623714447021,1.2519196271896362,-0.35877183079719543,0.10959196090698242,-0.042466938495635986,0.08510076999664307
224,-2.5552903319806446,0.7719674861624646,1.795306174910404,-0.396450400352478,-0.6975463628768921,0.5968719124794006,-1.9490970373153687,0.2213895469903946,-1.0539546012878418,0.020107626914978027,0.10887753963470459,0.1847289800643921
225,-2.479653733918619,0.8155656662335268,1.7616709510949216,-0.4213142395019531,-0.7281134724617004,0.5406896471977234,-0.9842460751533508,0.6175032258033752,-0.11586273461580276,-0.5387688279151917,-0.28110289573669434,0.10017949342727661
226,-2.3694454717415954,0.8944430836648898,1.7024841111447566,-0.4367120563983917,-0.7798606157302856,0.44844192266464233,-1.225511908531189,1.2564479112625122,0.5341057181358337,0.17827391624450684,0.1414937973022461,0.10449081659317017
227,-1.824926818791866,0.923918241656932,1.3143707499362711,-0.5833408832550049,-0.7979692816734314,0.15152069926261902,-1.6428720951080322,1.0407943725585938,0.7517285346984863,0.16730999946594238,0.2706102132797241,-0.1060953140258789
228,-1.4686944500543335,0.8657378430892774,0.9816142217819284,-0.6447032690048218,-0.7615736722946167,-0.06605511158704758,-1.982354760169983,0.9945619106292725,1.2519853115081787,0.2886546850204468,0.0972975492477417,-0.050445735454559326
229,-1.209211306163071,0.7497340770173071,0.7883879650489958,-0.6845453977584839,-0.6814441680908203,-0.2589043378829956,-0.3537643253803253,-0.2601912319660187,-0.3244100511074066,-0.2618809938430786,-0.2525157928466797,-0.1844702959060669
230,-1.1861177837676082,0.8181315873801097,0.6858374285555757,-0.6336289644241333,-0.7298699021339417,-0.2565233111381531,-1.390998363494873,-0.5759374499320984,-1.0554375648498535,-0.3208997845649719,-0.11949527263641357,-0.017478734254837036
231,-1.0726861709823388,0.8136770803641364,0.4878517875967638,-0.6033716797828674,-0.7268176078796387,-0.328144371509552,-1.464531421661377,0.20755897462368011,0.33612433075904846,0.09793955087661743,-0.11533015966415405,-0.2945667803287506
232,-0.9905964900896909,0.7934994363345991,0.3819077702421323,-0.5865804553031921,-0.7128120064735413,-0.38447657227516174,-0.3124774396419525,-0.4143713414669037,-0.8905699253082275,0.22842621803283691,0.08579790592193604,-0.0007162690162658691
233,-0.9851126056961705,0.8485234123120317,0.3360029512123662,-0.5509105324745178,-0.7503050565719604,-0.3654312491416931,0.32619601488113403,-0.5044037699699402,-0.4104233682155609,0.27977705001831055,0.33964526653289795,-0.00415194034576416
234,-0.9425572167325199,0.8349031187706821,0.3310816243907569,-0.543083667755127,-0.7412315011024475,-0.3945074677467346,0.14044275879859924,0.6227120757102966,0.9167667031288147,0.10678911209106445,-0.07854694128036499,-0.09015744924545288
235,-0.9411385418051388,0.7775087827302775,0.4152002853604286,-0.5759952664375305,-0.7015061974525452,-0.41966482996940613,-0.0015687774866819382,0.40501460433006287,0.8263411521911621,-0.279671847820282,-0.45942825078964233,0.044970035552978516
236,-0.9197778857543518,0.7415441013883068,0.4175351752967126,-0.5865984559059143,-0.6754273772239685,-0.4468781054019928,1.8730322122573853,-0.48689985275268555,0.06978733092546463,0.00023376941680908203,0.10999774932861328,-0.5000671148300171
237,-1.4358639959139798,0.8798065909964573,0.9142301659283418,-0.6315073370933533,-0.7706156373023987,-0.08573168516159058,5.624420166015625,-2.9520323276519775,-0.460800439119339,0.43491315841674805,0.40089523792266846,-0.5080335736274719
238,-2.4080050643533313,0.6578802675155538,1.747476509800665,-0.5297994017601013,-0.611440896987915,0.5877522826194763,6.185711860656738,-3.4019341468811035,0.47216886281967163,0.6390981078147888,0.6611082553863525,0.021165013313293457
239,-2.8033948236595876,0.11011312490682255,1.935523303497855,-0.32977813482284546,-0.10989074409008026,0.9376408457756042,3.031528949737549,-0.3117320239543915,1.01939857006073,-0.13424164056777954,-0.06898804754018784,0.363353967666626
240,-2.695819459834999,-0.10929276373363533,2.0014303540532548,-0.4285831153392792,0.10907531529664993,0.8968940377235413,2.0989186763763428,0.764225959777832,-0.6264050602912903,-0.26575273275375366,-0.049382954835891724,0.5349753499031067
241,-2.6383142973394382,-0.20615308519073058,2.049494519049933,-0.4720875024795532,0.20469596982002258,0.8574571013450623,-0.8728638291358948,0.31582555174827576,-0.4201430678367615,-0.779285728931427,0.10383671522140503,0.4541119337081909
242,-2.546047661350357,-0.23021228088913545,2.1561048275243118,-0.5461606383323669,0.22818420827388763,0.8060025572776794,1.917231559753418,0.11594438552856445,-1.8237833976745605,-0.154477059841156,-0.19896367192268372,-0.2449827790260315
243,-2.374375664477003,-0.14158336623781945,2.3719146542071803,-0.6871888041496277,0.14111080765724182,0.7126421928405762,-0.5055164098739624,1.3059602975845337,-1.2102493047714233,0.6222628355026245,0.11088806390762329,-0.228587806224823
244,-2.362083261681945,-0.17707269730944084,2.4664029993208683,-0.6919392943382263,0.17614880204200745,0.7001369595527649,0.8178199529647827,0.6984319686889648,-0.7413303256034851,-0.15440475940704346,0.08982715010643005,0.22279095649719238
245,-2.2637800997214184,-0.1383031971233267,2.551842523227585,-0.7619970440864563,0.13786271214485168,0.6327354907989502,-0.5046768188476562,0.45371660590171814,-0.589108407497406,-0.17296987771987915,0.3855900168418884,0.46305912733078003
246,-2.3075926714180697,-0.2103868189298727,2.5490828651536606,-0.7242943048477173,0.20883820950984955,0.6571030020713806,1.1123651266098022,-2.1817798614501953,0.9260676503181458,-0.24831616878509521,-0.35428500175476074,0.2059950828552246
247,-2.376130304920703,-0.17962744300191924,2.509718078933189,-0.6817224621772766,0.17866303026676178,0.7094604969024658,-0.21744994819164276,-0.16520382463932037,-0.8441505432128906,-0.07131409645080566,-0.2826669216156006,-0.37813109159469604
248,-2.3417486843101485,-0.08212503615877272,2.560788550022059,-0.7148298621177673,0.08203275501728058,0.6944699287414551,-0.5274899005889893,-0.17487026751041412,-0.2525656521320343,0.5753952264785767,0.12740936875343323,-0.2654997706413269
249,-2.367066974797471,-0.12025847192418014,2.573230307843437,-0.6943259835243225,0.11996881663799286,0.7095906138420105,0.3970836400985718,0.8521071076393127,-0.44310852885246277,-0.158991277217865,-0.05495110899209976,0.14514565467834473
250,-2.316811065781878,-0.11937183242382218,2.625716876547573,-0.7291735410690308,0.11908853054046631,0.6738876104354858,0.15409298241138458,-0.7412335276603699,0.4434744119644165,0.04542696475982666,0.3418947756290436,0.386033833026886
251,-2.363561670207774,-0.18290226403594037,2.604874007216879,-0.6901708245277405,0.18188418447971344,0.7004157304763794,0.6397585868835449,-0.3030216693878174,1.2510067224502563,-0.42253053188323975,0.037949174642562866,0.38500291109085083
252,-2.437194527324551,-0.15132123303274567,2.5420842391474325,-0.6401752233505249,0.15074439346790314,0.7532937526702881,-2.147036075592041,-0.041802771389484406,-0.06333027780056,0.11975908279418945,-0.15564250946044922,-0.32635295391082764
253,-2.4284253916816727,-0.08025643915923428,2.491663765475617,-0.6521265506744385,0.08017031103372574,0.7538591623306274,0.15912151336669922,0.5126030445098877,-0.331282377243042,0.0012323856353759766,-0.08833376318216324,-0.3641497492790222
254,-2.3628949525105045,-0.04866564226044128,2.5248870778902863,-0.7015213966369629,0.048646435141563416,0.7109859585762024,-0.18955925107002258,0.36725226044654846,-0.5144606232643127,0.15252548456192017,0.07284403592348099,0.017850100994110107
255,-2.354038645852413,-0.015107982272157981,2.5550318610539264,-0.7085488438606262,0.015107407234609127,0.7055003643035889,0.3257099986076355,-0.34997740387916565,-0.04033847898244858,0.18270039558410645,0.198683500289917,0.03476470708847046
256,-2.4022623122956253,-0.059351919032595374,2.5952801258917853,-0.672606885433197,0.059317078441381454,0.7376188635826111,0.16917787492275238,-0.009094757959246635,-0.41893529891967773,-0.45103514194488525,0.11860039830207825,0.26877450942993164
257,-2.4206448272067838,-0.1348620750775844,2.647567555429857,-0.6541033387184143,0.1344536393880844,0.7443597316741943,0.32249870896339417,-1.6509983539581299,0.8130991458892822,-0.18947893381118774,-0.4286583364009857,0.18099433183670044
258,-2.436282222492861,-0.04657481808587142,2.6039913127426124,-0.647567093372345,0.04655798152089119,0.7605845332145691,-0.2874574363231659,1.3084897994995117,-0.9641717076301575,0.029723525047302246,0.07635155320167542,-0.4503124952316284
259,-2.349841582891256,-0.03156136072973455,2.616477070972085,-0.7112302184104919,0.03155612200498581,0.7022504210472107,-0.23941589891910553,-0.29663482308387756,0.9674655199050903,0.4188871383666992,0.07655240595340729,-0.0649518370628357
260,-2.3578244475620336,-0.05266686576738327,2.541021595821224,-0.7049742937088013,0.052642520517110825,0.7072761654853821,-0.7707977294921875,0.8696146607398987,0.13041093945503235,0.02290654182434082,-0.06910677254199982,0.018385887145996094
261,-2.300777030562339,-0.026301832579704486,2.514193990417656,-0.7449294328689575,0.026298800483345985,0.6666244864463806,-0.013304125517606735,0.29912862181663513,0.15095998346805573,0.029704272747039795,-0.01853208616375923,0.23361343145370483
262,-2.2728824221698116,-0.05933377658828637,2.4841629766051168,-0.7621530890464783,0.05929896980524063,0.6446753740310669,0.44201380014419556,-0.04262055456638336,0.7942228317260742,-0.26110124588012695,0.15958836674690247,0.3979882001876831
263,-2.4220586078359885,-0.11001996052513717,2.34894044958892,-0.655049741268158,0.1097981408238411,0.7475656270980835,-2.454925298690796,0.45264869928359985,0.6502703428268433,-0.30306488275527954,-0.1795460730791092,-0.36968159675598145
264,-2.3113494978135694,-0.04804608318422209,2.274449724375803,-0.7372438311576843,0.04802760109305382,0.673917829990387,0.7448043823242188,0.3245249390602112,0.1599089503288269,0.22460949420928955,-0.15192469954490662,-0.1975993514060974
265,-2.273373673212548,-0.05692469722224338,2.2607518842752747,-0.761942982673645,0.056893959641456604,0.6451400518417358,-0.30032116174697876,0.08141182363033295,0.2608228623867035,0.16306620836257935,0.009069785475730896,-0.056745946407318115
266,-2.2860322270874383,-0.08111904224624508,2.2539185064244993,-0.7524562478065491,0.08103010803461075,0.6536391973495483,0.19256006181240082,-0.6703963279724121,0.5699385404586792,0.04644721746444702,0.16365984082221985,0.294816792011261
267,-2.4341512488341226,-0.15025984452657462,2.146285387505817,-0.6425683498382568,0.14969505369663239,0.7514631748199463,-0.5192123055458069,-0.20666839182376862,0.5116657018661499,-0.6621800065040588,0.19146093726158142,0.3400741219520569
268,-2.5122577662999737,-0.1620606980634705,2.124238637065358,-0.5808945298194885,0.1613522469997406,0.7978262901306152,-1.9848353862762451,-1.5419307947158813,0.0344853475689888,-0.2983320355415344,-0.4237118661403656,0.22730481624603271
269,-2.6093241525729125,-0.09241539096929498,2.1039353479252743,-0.5053238272666931,0.09228389710187912,0.8579813241958618,-0.39557382464408875,1.0041306018829346,-0.23726584017276764,-0.09289711713790894,-0.24204888939857483,-0.3315834403038025
270,-2.4938351573475033,-0.0757098488423435,2.1879487290864064,-0.6016712188720703,0.07563754171133041,0.7951546311378479,0.8837764263153076,0.8510719537734985,-0.5948120355606079,0.19893068075180054,-0.015823088586330414,-0.006381988525390625
271,-2.420639907034454,-0.09334327704113489,2.2712177358506187,-0.6572270393371582,0.09320778399705887,0.7479070425033569,0.4056280851364136,0.016624802723526955,-0.32036879658699036,0.2255253791809082,0.011421740055084229,0.22900640964508057
272,-2.4174662086265895,-0.10475663057935357,2.2824294447953757,-0.6588494181632996,0.10456513613462448,0.744971752166748,0.521701991558075,0.07285968214273453,0.1871974766254425,0.029485583305358887,0.08569667488336563,0.07228869199752808
273,-2.3823955942231168,-0.15363549445919747,2.3114684489370667,-0.6802313923835754,0.15303181111812592,0.7168446779251099,0.612663745880127,0.9057420492172241,0.03199061006307602,-0.19437181949615479,0.2363114356994629,0.40543919801712036
274,-2.401167594778744,-0.194951965119694,2.3161526029839905,-0.6618226766586304,0.19371941685676575,0.7241984009742737,-1.6275542974472046,-0.6784728169441223,0.19456219673156738,-0.14509254693984985,-0.22255852818489075,0.17826730012893677
275,-2.445451988691071,-0.12156932505077576,2.220607100534921,-0.636528491973877,0.12127009779214859,0.7616597414016724,0.3320537507534027,1.2610164880752563,0.05428177863359451,-0.03757452964782715,0.0119849294424057,-0.526094377040863
276,-2.310881213287278,-0.17944111136145505,2.305706708079805,-0.7265552282333374,0.17847968637943268,0.6635230779647827,0.29566627740859985,0.7492319941520691,-0.1401328444480896,0.12487053871154785,0.02928401529788971,0.20793694257736206
277,-2.279435752262611,-0.15061737752705967,2.2845637729097388,-0.7506523728370667,0.15004855394363403,0.6434334516525269,0.13791821897029877,-0.07637126743793488,-0.21233420073986053,0.09301376342773438,-0.03193025290966034,-0.10754472017288208
278,-2.2740788624555073,-0.14966399084902993,2.326454259793234,-0.7541970610618591,0.14910589158535004,0.6394952535629272,0.3986322581768036,-0.32692477107048035,-0.2334420531988144,0.032715797424316406,0.12298883497714996,0.14021360874176025
279,-2.288102126105871,-0.13751178390287586,2.3519216738760775,-0.7464660406112671,0.13707880675792694,0.6511515974998474,-0.10576782375574112,0.40071946382522583,-0.09529145061969757,-0.13593465089797974,0.21788641810417175,0.1906149983406067
280,-2.355053725491386,-0.21533502994924775,2.3397523716757416,-0.6915636658668518,0.21367473900318146,0.6899876594543457,-1.1529995203018188,-1.1508307456970215,0.6987871527671814,-0.3146008849143982,-0.38962382078170776,0.15270954370498657
281,-2.3077125615542755,-0.08214231192405037,2.2817390374885314,-0.7380475997924805,0.08204996585845947,0.6697417497634888,0.608318567276001,1.3911739587783813,-1.125290036201477,0.2001141905784607,-0.02998698502779007,-0.42993444204330444
282,-2.245247346351177,-0.11373063390615358,2.3618075249854242,-0.7760041356086731,0.11348561197519302,0.6204344034194946,-0.017425397410988808,-0.23435354232788086,0.40844663977622986,0.22210997343063354,0.08521434664726257,0.16267722845077515
283,-2.250414124330811,-0.1399211826823498,2.3676042554930055,-0.770211398601532,0.1394650638103485,0.6223534941673279,0.8727803230285645,-0.09375791251659393,-0.05061016231775284,0.19899868965148926,-0.09536716341972351,0.021781086921691895
284,-2.25881917763307,-0.1949345606104532,2.4157796281378174,-0.7578719854354858,0.1937023401260376,0.6229841113090515,0.6825764179229736,-0.5414167642593384,0.18516665697097778,-0.008729398250579834,-0.11516538262367249,0.1840532422065735
285,-2.2329958673567973,-0.25115748440507024,2.4778417625279405,-0.763898491859436,0.24852529168128967,0.5955622792243958,0.9997943043708801,-0.8009042143821716,1.4792133569717407,0.18209600448608398,-0.2667747735977173,0.33531540632247925
286,-2.3849155868106884,-0.26755203049392473,2.4097844425909476,-0.6620835661888123,0.2643713653087616,0.7012507915496826,-1.5379021167755127,1.8738280534744263,-1.9540951251983643,-0.3284252882003784,-0.34748604893684387,-0.20169347524642944
287,-2.274509528640553,-0.1549418147632288,2.5148407443007548,-0.7533112168312073,0.15432260930538177,0.6393019556999207,0.5562022924423218,-0.5381578803062439,-0.5532643795013428,0.4325713515281677,0.21942616999149323,-0.07478779554367065
288,-2.2935660511840354,-0.1728408602851954,2.5517259154477387,-0.7388020157814026,0.1719815731048584,0.6516087055206299,0.870922863483429,0.11887840926647186,0.0822298601269722,0.1354237198829651,0.0813295841217041,-0.14256024360656738
289,-2.258312692828188,-0.220396353136462,2.607214525383058,-0.754130482673645,0.21861641108989716,0.6192687749862671,0.4703215956687927,0.1737200915813446,-0.17480139434337616,-0.06978297233581543,0.16198354959487915,0.30889278650283813
290,-2.250898119491262,-0.268047144005596,2.673027906292024,-0.7497438192367554,0.26484882831573486,0.6064150929450989,1.5306320190429688,-0.4359363317489624,0.6388375759124756,-0.08202797174453735,-0.20509544014930725,0.4749295115470886
291,-2.3981119365477372,-0.30608576735972604,2.6814559913069695,-0.6453943848609924,0.3013286590576172,0.7019027471542358,-2.090899705886841,0.06845227628946304,-2.0123283863067627,-0.6509312987327576,-0.2246226966381073,-0.06646567583084106
292,-2.2874569707471353,-0.10663742027857268,2.7175556129706235,-0.7497205138206482,0.10643543303012848,0.6531392931938171,0.5750554203987122,-0.24573546648025513,0.2078930288553238,0.8384044766426086,0.4095863103866577,-0.3511829972267151
293,-2.3343838462228086,-0.19464804315112777,2.662136304503982,-0.7087188959121704,0.19342122972011566,0.6784588694572449,-0.18966084718704224,-0.11867104470729828,0.7255442142486572,-0.16545730829238892,-0.12750321626663208,-0.04276221990585327
294,-2.314517018050018,-0.15569049488649497,2.6387802199363195,-0.7270528674125671,0.15506227314472198,0.6688417792320251,-0.4903210699558258,-0.609199047088623,0.21826352179050446,0.2434714436531067,0.17191827297210693,0.24389302730560303
295,-2.3884333662656823,-0.20583390713033872,2.5517075266210902,-0.6695094704627991,0.20438353717327118,0.7141320109367371,0.14807762205600739,-0.4499197006225586,1.6928796768188477,-0.5416111946105957,0.3326038122177124,0.27720099687576294
296,-2.462356233497715,-0.24842972856573692,2.432100142684256,-0.6089130640029907,0.24588219821453094,0.7541660666465759,-3.0289816856384277,-0.34159570932388306,0.7796149253845215,-0.21168923377990723,-0.13958953320980072,0.08113044500350952
297,-2.483866975068696,-0.1654418186557668,2.2940663476554533,-0.6029714345932007,0.1646881401538849,0.7805787920951843,0.10765311866998672,0.7603058218955994,0.608858585357666,0.2447102665901184,-0.1444244533777237,-0.4355013370513916
298,-2.429961945552497,-0.1812444018143652,2.2925254350657145,-0.6423724889755249,0.18025372922420502,0.7448936104774475,-0.43683117628097534,0.34968721866607666,-0.12484263628721237,0.18462401628494263,-0.16317914426326752,-0.1269126534461975
299,-2.3854207505666514,-0.1552112388063858,2.3348850410989046,-0.6778935790061951,0.15458880364894867,0.7187230587005615,0.9962046146392822,0.9693379998207092,-0.8721627593040466,-0.022988438606262207,0.15421858429908752,0.03925734758377075
300,-2.3574672287965175,-0.18739252917105428,2.4242236235790524,-0.6938427686691284,0.1862977147102356,0.6956111788749695,-0.1387985348701477,0.06530653685331345,-0.33677077293395996,-0.21356678009033203,0.3310515284538269,0.4374909996986389
301,-2.415685678513868,-0.3200484303553857,2.471588827872591,-0.6301055550575256,0.3146125376224518,0.7099193930625916,0.4913704991340637,-2.1746506690979004,1.384248971939087,-0.3624632954597473,-0.44629594683647156,0.3979905843734741
302,-2.4423278084540505,-0.17453688438509873,2.404726154186554,-0.6338761448860168,0.17365208268165588,0.7536880970001221,-0.5153911113739014,1.5853873491287231,-1.7023056745529175,-0.012089371681213379,-0.010993406176567078,-0.6571153402328491
303,-2.3436672034851833,-0.18718293708754588,2.5231599431777014,-0.7034040689468384,0.18609178066253662,0.685997724533081,0.33138829469680786,0.20557627081871033,0.3194078207015991,0.4819532036781311,0.12828506529331207,0.06555873155593872
304,-2.363474261007676,-0.200896552982453,2.473607601481533,-0.6878229975700378,0.1995479315519333,0.6979110240936279,-0.07644381374120712,0.34013575315475464,-0.10582592338323593,-0.08051794767379761,-0.046776965260505676,-0.0050400495529174805
305,-2.339971368690877,-0.20365863542450785,2.481434899163686,-0.7036358118057251,0.20225369930267334,0.6811680197715759,0.22063443064689636,0.16904349625110626,0.05549811199307442,-0.12477898597717285,0.2502304017543793,0.2620692253112793
306,-2.348664358529437,-0.25894835067335703,2.4653375723316877,-0.6886591911315918,0.25606411695480347,0.678365170955658,0.0937589630484581,-0.5351002216339111,1.2822387218475342,-0.2938235402107239,0.13155484199523926,0.37851953506469727
307,-2.4810003518723476,-0.24061791440235328,2.3152241353930973,-0.5959076881408691,0.2383027821779251,0.766880214214325,-2.4578115940093994,0.37188583612442017,0.10661342740058899,-0.3385251760482788,-0.22609581053256989,-0.30701106786727905
308,-2.39982962159,-0.1408004307966057,2.294085406767701,-0.6689029932022095,0.14033566415309906,0.729982316493988,0.4573424458503723,0.29788580536842346,-0.4903475046157837,0.2887151837348938,-0.0027014315128326416,-0.26555079221725464
309,-2.3746597538555445,-0.1324476928132608,2.3006689787188286,-0.6878524422645569,0.13206079602241516,0.7137361168861389,-0.08285810798406601,-0.015791187062859535,0.010317708365619183,0.1804213523864746,-0.03579306602478027,-0.16028445959091187
310,-2.3306940100471536,-0.13453940772595002,2.3547032665799223,-0.7183555364608765,0.13413389027118683,0.6826221942901611,0.7250983715057373,0.5269460082054138,-0.6219103336334229,-0.038053035736083984,0.06374204158782959,0.2564798593521118
311,-2.296069032495873,-0.13462787351219618,2.411048219286528,-0.7415474057197571,0.13422155380249023,0.6573373079299927,0.8489640951156616,0.6442735195159912,-0.14024490118026733,-0.12104737758636475,0.29558801651000977,0.2845420241355896
312,-2.399854692974665,-0.2566996866595025,2.4113862681307405,-0.6534340381622314,0.2538897693157196,0.7131367325782776,-0.9489102959632874,-1.383988618850708,0.7457842826843262,-0.38614726066589355,-0.4721056818962097,0.07298082113265991
313,-2.3436333463938848,-0.12145537593865295,2.4162510086583073,-0.7106587886810303,0.12115699052810669,0.6930259466171265,0.12715603411197662,1.5721505880355835,-1.7344125509262085,0.16831570863723755,0.035260848701000214,-0.40526050329208374
314,-2.248381742504486,-0.10467568508557377,2.481120511718509,-0.7748243808746338,0.10448463261127472,0.6234822869300842,0.21392230689525604,-0.16817735135555267,0.6957578063011169,0.4132978916168213,0.11246483027935028,-0.035133957862854004
315,-2.2469818492670965,-0.15819260835924273,2.477646978893111,-0.7702266573905945,0.1575336456298828,0.6180081963539124,0.6388401389122009,0.7255100607872009,-0.16346792876720428,-0.10115700960159302,-0.0025653839111328125,0.19261503219604492
316,-2.226194923204952,-0.15522048909238892,2.4856585980791888,-0.7832733988761902,0.1545979380607605,0.6021477580070496,-0.33566492795944214,-0.34807708859443665,0.27316489815711975,-0.026754558086395264,0.08153179287910461,0.1661779284477234
317,-2.238378121896437,-0.21954338495509546,2.4625770457186116,-0.7664709687232971,0.21778398752212524,0.6042287349700928,0.5303792357444763,-1.3475124835968018,1.6237666606903076,-0.1627739667892456,-0.23458392918109894,0.3177530765533447
318,-2.429476051404671,-0.16905673113041703,2.2855782638414865,-0.6441221237182617,0.1682526022195816,0.7461890578269958,-3.1085739135742188,0.41695636510849,-0.1736304759979248,-0.1885959506034851,-0.13536986708641052,-0.4751928448677063
319,-2.3541216456016083,-0.09283890788970776,2.280535578037803,-0.7055197954177856,0.09270559996366501,0.7026009559631348,0.9134063720703125,0.14928671717643738,-0.145640030503273,0.2791280150413513,-0.056465961039066315,-0.22616034746170044
320,-2.3151417731674835,-0.08367198049918251,2.304905158397232,-0.7329582571983337,0.08357438445091248,0.6751202940940857,0.019586196169257164,0.41636598110198975,-0.46566319465637207,0.043200016021728516,0.02779952436685562,-0.0635785460472107
321,-2.266086018430306,-0.05320025185918367,2.4023897244138843,-0.7667819261550903,0.05317515879869461,0.6397017240524292,0.2767622768878937,0.585364580154419,-0.8984989523887634,0.04420185089111328,0.1654985547065735,0.3890917897224426
322,-2.2571061322460704,-0.04441229100473779,2.4419225349468276,-0.7728268504142761,0.04439769312739372,0.6330618858337402,1.2281984090805054,0.6349849700927734,-0.10457150638103485,-0.2271425724029541,0.09210744500160217,0.1664833426475525
323,-2.3349895043762774,-0.15527424078073418,2.4864718925667306,-0.7132554054260254,0.15465104579925537,0.6836299896240234,-0.31725621223449707,-1.0646922588348389,0.0899648517370224,-0.2986922860145569,-0.45079362392425537,-0.07300370931625366
324,-2.261224970733193,-0.033675898337660756,2.54201251246612,-0.7705360054969788,0.03366953507065773,0.6365066766738892,0.33132949471473694,1.6140645742416382,-2.02897572517395,0.22727733850479126,0.11299794912338257,-0.25052034854888916
325,-2.168126725404588,0.013518957618754547,2.5994206434165674,-0.8267644643783569,-0.013518545776605606,0.5623857378959656,0.18584372103214264,-0.4542202353477478,0.7158389091491699,0.38548028469085693,0.1856987327337265,-0.05442070960998535
326,-2.1826957723709755,-0.06587982148478558,2.594958667687795,-0.8167827725410461,0.06583217531442642,0.5731772780418396,0.42655637860298157,0.7090209722518921,-0.12509037554264069,-0.13986694812774658,-0.049764662981033325,0.3091927766799927
327,-2.15918896884119,-0.06587347701988203,2.5833637196971027,-0.8300296664237976,0.06582584977149963,0.5538208484649658,-0.25580736994743347,-0.2247684895992279,0.5669686198234558,-0.10875195264816284,0.13870295882225037,0.2935759425163269
328,-2.2503575853025928,-0.16978696391464215,2.5579028224275904,-0.7666637897491455,0.16897237300872803,0.619415283203125,-0.4795004427433014,-1.0915822982788086,0.40188440680503845,-0.27949416637420654,-0.3360408544540405,0.2680969834327698
329,-2.325583207366893,-0.031997166005615085,2.40762543801948,-0.7280446290969849,0.03199170529842377,0.6847826242446899,-1.4013959169387817,0.4182317554950714,-0.41919562220573425,0.046709299087524414,-0.006845243275165558,-0.7310168743133545
330,-2.2533424460601426,-0.018769085299886062,2.4270979950037965,-0.7758325338363647,0.018767982721328735,0.6306596398353577,0.5311135053634644,0.7751349210739136,-0.15407879650592804,0.15203797817230225,0.07139620184898376,-0.04348623752593994
331,-2.2300397130292366,0.004142633118680971,2.4214646354303153,-0.7904490232467651,-0.00414262106642127,0.6125136613845825,-0.3184064030647278,0.08033764362335205,-0.4222813844680786,-0.03505134582519531,0.0562514066696167,0.002186596393585205
332,-2.230300832246209,0.0112993623886167,2.4561145879800703,-0.790245771408081,-0.011299122124910355,0.6126864552497864,0.799153208732605,-0.41726934909820557,0.08958052843809128,-0.07015186548233032,0.16080474853515625,0.147003173828125
333,-2.239153910675978,0.00033453856033252837,2.490939372385769,-0.7848407030105591,-0.00033453854848630726,0.6196979284286499,0.9786921739578247,0.5019590258598328,0.16125322878360748,-0.11310869455337524,0.18165473639965057,0.09047675132751465
334,-2.3552053282755,-0.11904696782780975,2.4979372027244735,-0.7027963995933533,0.11876597255468369,0.7014074325561523,-1.065300464630127,-0.9967257976531982,0.30428850650787354,-0.31585001945495605,-0.3959113359451294,-0.013968288898468018
335,-2.2820156080629777,0.005088309478008053,2.477829892440681,-0.7575568556785583,-0.005088287405669689,0.6527495980262756,0.4337402284145355,1.0203046798706055,-0.9040391445159912,0.2357824444770813,0.13442178070545197,-0.24627071619033813
336,-2.2613534052819513,-0.009614872861458361,2.47546990850075,-0.7708557844161987,0.009614724665880203,0.6369373798370361,0.005710657220333815,-0.4111497700214386,0.7092183232307434,0.20151972770690918,0.028959497809410095,-0.07451361417770386
337,-2.2442607284527227,-0.017237024864564163,2.4462475931426813,-0.7815496325492859,0.017236171290278435,0.6236051917076111,-0.12187877297401428,0.5845016837120056,-0.1954747885465622,0.06902515888214111,-0.023629603907465935,0.09941738843917847
338,-2.22989366405312,-0.030597736585107754,2.4418194535651065,-0.7901753783226013,0.030592963099479675,0.6121168732643127,0.28097349405288696,-0.19217468798160553,0.4271029233932495,-0.04158127307891846,-0.06678679585456848,0.17397010326385498
339,-2.2247679987369438,-0.0828153869695548,2.4482999045656553,-0.7909538745880127,0.08272075653076172,0.6062585115432739,0.7428024411201477,-0.4459705948829651,0.011341666802763939,-0.1776435375213623,-0.2879667282104492,0.20964419841766357
340,-2.30968195143248,0.005427812059828902,2.3646611245190434,-0.7392087578773499,-0.005427785217761993,0.673454761505127,-1.5908890962600708,-0.5060939192771912,-0.2478141486644745,0.04807710647583008,0.054942578077316284,-0.5383686423301697
341,-2.274979518214106,0.02772563305653348,2.3637509358179423,-0.7618475556373596,-0.027722081169486046,0.6471626162528992,0.2924762964248657,0.3137627840042114,0.032638706266880035,0.18555378913879395,0.0788847878575325,-0.06313258409500122
342,-2.258351391079771,0.028476064996777604,2.3407178313548096,-0.7724867463111877,-0.028472216799855232,0.6343923807144165,-0.31016743183135986,0.44611871242523193,0.010995244607329369,-0.06338977813720703,0.10246208310127258,0.006629347801208496
343,-2.2231208748326865,0.02674963894575206,2.34070493750898,-0.7943907976150513,-0.026746448129415512,0.6068183183670044,0.304813951253891,0.08377174288034439,0.16323824226856232,-0.024106085300445557,0.11814656108617783,0.2785273790359497
344,-2.2359759792426277,-0.014780045744304717,2.37375996384775,-0.7867199182510376,0.01477950718253851,0.6171330213546753,1.2514210939407349,-0.2951485812664032,0.5346763730049133,-0.022239983081817627,-0.07489913702011108,0.20501047372817993
345,-2.3947304081394125,-0.11791830177757544,2.3571500928968008,-0.6746221780776978,0.11764521896839142,0.7287283539772034,-1.0768519639968872,-0.6663257479667664,-0.19650347530841827,-0.451384961605072,-0.4963073134422302,-0.15818685293197632
346,-2.2959246413507945,0.0035547397305350364,2.422544557423053,-0.7484097480773926,-0.0035547323059290648,0.6632274389266968,0.17352327704429626,1.750014066696167,-1.5481595993041992,0.3087734580039978,0.13282719254493713,-0.11754244565963745
347,-2.219781173704921,0.021921490400901654,2.488811082297144,-0.7965064644813538,-0.02191973477602005,0.6042328476905823,0.0027609816752374172,-0.5065696835517883,0.4191342890262604,0.2965673804283142,0.05426836013793945,0.14611822366714478
348,-2.212609065156198,0.025169026045866422,2.4780137116787917,-0.8007583618164062,-0.02516636811196804,0.598459005355835,0.035811666399240494,0.5144942998886108,-0.11445580422878265,0.19158154726028442,0.05368504673242569,0.10251462459564209
349,-2.2008054021570937,-0.010000051113225114,2.487002460286286,-0.8079816699028015,0.00999988429248333,0.5891225337982178,0.12606656551361084,-0.049825623631477356,0.3155556917190552,-0.10066390037536621,0.020044667646288872,0.3035012483596802
350,-2.2206420348786486,-0.08166182734916373,2.464073493033431,-0.793523907661438,0.08157109469175339,0.6030471920967102,0.23829731345176697,-1.8107162714004517,1.6301989555358887,-0.16375142335891724,-0.3371405601501465,0.23954319953918457
351,-2.3643189156772118,-0.07409882201284237,2.347445906411985,-0.6994141340255737,0.0740310326218605,0.7108721733093262,-1.0507819652557373,0.8428980708122253,-0.48520317673683167,-0.012179434299468994,-0.3383132517337799,-0.6160235404968262
352,-2.2871317799345148,0.00822363275495633,2.376869878096753,-0.7541914582252502,-0.008223540149629116,0.6566029787063599,-0.1069251000881195,-0.10371618717908859,-0.3776789903640747,0.24076378345489502,0.1239004135131836,-0.16632288694381714
353,-2.268735031086591,0.007472161520005448,2.422134622265332,-0.7661469578742981,-0.007472091820091009,0.6426216959953308,0.327597975730896,0.5936523079872131,-0.5775355100631714,0.026111125946044922,0.017634453251957893,0.06852930784225464
354,-2.224765709310521,0.04093264145003251,2.4739205531030257,-0.7930104732513428,-0.04092121124267578,0.6078319549560547,0.24839971959590912,-0.06382259726524353,0.043405868113040924,0.07374179363250732,0.23385334014892578,0.15004152059555054
355,-2.239158497782096,0.010269147803956704,2.5286259550776893,-0.784796416759491,-0.010268967598676682,0.6196688413619995,0.6525415778160095,0.8520858287811279,-0.7004855871200562,-0.2564787268638611,0.18141154944896698,0.26131272315979004
356,-2.3051897175432137,-0.07508414330343677,2.5612336866945324,-0.7401461005210876,0.07501361519098282,0.6682488918304443,-0.2735965847969055,-1.950010061264038,1.2589001655578613,-0.24221467971801758,-0.3686537444591522,-0.003942310810089111
357,-2.2851020491219494,-0.020683555227673043,2.5485018493105613,-0.7553867697715759,0.0206820797175169,0.6549530625343323,0.4345143139362335,1.6323491334915161,-1.7155141830444336,-0.05334442853927612,-0.021063530817627907,-0.2668913006782532
358,-2.167815478460605,0.02561748720608518,2.632048397418771,-0.8267436623573303,-0.02561468444764614,0.561995267868042,0.10444945842027664,-0.3254469931125641,0.5814422369003296,0.4605480432510376,0.1819867640733719,0.05096554756164551
359,-2.201834001014917,-0.013759246133537007,2.592032776853463,-0.8073393702507019,0.013758812099695206,0.589927077293396,-0.2800223231315613,0.4339427053928375,0.01509460061788559,0.01586592197418213,-0.021830707788467407,0.031654953956604004
360,-2.1882546315908207,-0.026235141661985883,2.5844102292251887,-0.8150720000267029,0.02623213268816471,0.5787653923034668,0.04319557175040245,-0.32350635528564453,0.5715048909187317,0.057213783264160156,0.07044756412506104,0.2654728293418884
361,-2.200021906019998,-0.08304475516628364,2.5509039491547205,-0.8056972622871399,0.08294933289289474,0.5864906311035156,0.20089060068130493,-0.49190500378608704,1.032702922821045,-0.39010345935821533,-0.06080884486436844,0.4218100905418396
362,-2.348779504458583,-0.0761255609778058,2.4766839605007664,-0.7102673649787903,0.07605205476284027,0.6998114585876465,-2.3793251514434814,-0.6223786473274231,-0.056786805391311646,0.002168118953704834,-0.18390119075775146,-0.30294573307037354
363,-2.328210896545184,-0.01316950281565777,2.451014386523153,-0.72655189037323,0.01316912192851305,0.6869856715202332,0.06326816976070404,0.6982241272926331,-0.5310959815979004,0.1907394528388977,-0.040543392300605774,-0.2071118950843811
364,-2.323708123705981,-0.024535118450931113,2.467728113111635,-0.7294813990592957,0.024532657116651535,0.6835606098175049,0.2748204171657562,0.22483111917972565,0.09259544312953949,0.022007644176483154,0.02496686577796936,-0.09997296333312988
365,-2.281650410008437,-0.01760548311833363,2.506780775106906,-0.7576875686645508,0.01760457456111908,0.6523802280426025,0.3636540472507477,0.1076430007815361,-0.17143942415714264,0.18047797679901123,0.10260416567325592,0.16735249757766724
366,-2.312537388889644,-0.05122294637838879,2.5522351431087666,-0.7363263964653015,0.05120055004954338,0.6746864914894104,0.2886953353881836,-0.003045696299523115,-0.43089592456817627,-0.2587907314300537,0.10298950225114822,0.2051505446434021
367,-2.372689240468228,-0.16656833062090085,2.605410003249878,-0.6857238411903381,0.16579915583133698,0.7087270617485046,0.4480370283126831,-2.165717124938965,1.582728385925293,-0.2457643747329712,-0.4199037253856659,0.27177244424819946
368,-2.3910848608540336,-0.074694619727735,2.5787334175141923,-0.6801086664199829,0.0746251791715622,0.7293035984039307,-0.014166594482958317,1.7696022987365723,-2.1105639934539795,-0.06011056900024414,0.027761310338974,-0.5178471207618713
369,-2.257687297070416,-0.019094107473409283,2.6781719592389726,-0.7730804681777954,0.019092947244644165,0.6340208053588867,0.13312286138534546,-0.3333212733268738,0.5284534096717834,0.6654601097106934,0.27277716994285583,-0.10013097524642944
370,-2.287234207134317,-0.06237752398029548,2.616299371420225,-0.7526829242706299,0.062337081879377365,0.6554251909255981,-0.13114726543426514,0.589625358581543,0.006167764775454998,-0.16867315769195557,-0.10861700773239136,0.007157087326049805
371,-2.2144863349679333,-0.0593804951787253,2.629971527532484,-0.7984767556190491,0.059345606714487076,0.5990932583808899,0.1938866674900055,0.3754519522190094,0.06651691347360611,0.0008693933486938477,0.11877024173736572,0.41798120737075806
372,-2.249751076934227,-0.10653393978531946,2.5865375358650144,-0.7738175392150879,0.10633253306150436,0.6244197487831116,-0.43615925312042236,-1.855785608291626,1.355229377746582,-0.20613253116607666,-0.23352979123592377,0.22721904516220093
373,-2.3966185141373684,-0.08513386830613683,2.455986796004576,-0.6754974722862244,0.08503106981515884,0.73244309425354,-0.7183423042297363,0.9145534634590149,-0.14434921741485596,-0.12976986169815063,-0.18483881652355194,-0.5524656772613525
374,-2.2724739413854937,0.004639337728114191,2.4639252254522885,-0.7637521028518677,-0.004639321006834507,0.6454929113388062,-0.2898167371749878,0.24119605123996735,-0.46271124482154846,0.37164705991744995,0.10481326282024384,-0.08563274145126343
375,-2.2759017548880816,-0.004050624752120956,2.4662269876594345,-0.7615368366241455,0.004050613846629858,0.648108720779419,0.22416019439697266,0.42662763595581055,-0.0516551174223423,0.04506051540374756,-0.047629714012145996,-0.056388258934020996
376,-2.231374343775546,0.01347919944166009,2.5165342410271063,-0.7895658016204834,-0.01347879134118557,0.6135175228118896,0.22017203271389008,0.3578779995441437,-0.2764807343482971,0.0750424861907959,0.22350075840950012,0.2215651273727417
377,-2.236817942209118,-0.0006472548169746498,2.5617689674312674,-0.7862859964370728,0.000647254753857851,0.6178627610206604,0.18727225065231323,0.3419552743434906,0.03368871659040451,-0.20553547143936157,0.05533723533153534,0.3092308044433594
378,-2.354304303320199,-0.05490357447766812,2.5231317839886214,-0.7073746919631958,0.054875995963811874,0.7047055959701538,-1.4798942804336548,-0.587664783000946,-0.05092485994100571,-0.3917922377586365,-0.19281542301177979,-0.16469699144363403
379,-2.250834849237418,0.02006623639674644,2.5409660705620016,-0.7773919701576233,-0.020064890384674072,0.6286963820457458,-0.08332762867212296,1.5847841501235962,-0.7320751547813416,0.3266626000404358,0.05508381128311157,-0.061496734619140625
380,-2.1904084841444473,0.02822188571362616,2.528918898938064,-0.8137796521186829,-0.028218138962984085,0.5804882645606995,-0.08595956861972809,-0.34508395195007324,0.6012342572212219,0.23820286989212036,-0.04735863208770752,0.018342971801757812
381,-2.169353402731899,0.019971923767282806,2.5255690507638993,-0.8259848356246948,-0.019970595836639404,0.5633386969566345,0.6915706396102905,0.14736001193523407,-0.005838558077812195,0.05804044008255005,0.006481826305389404,0.17619383335113525
382,-2.1831480773618814,-0.014991718433216466,2.5355856216734156,-0.8182064294815063,0.0149911567568779,0.574728786945343,0.1021181046962738,-0.2278866022825241,0.3025694489479065,-0.26930272579193115,0.2970815896987915,0.37036967277526855
383,-2.3008260914996357,-0.12131331265802586,2.473865713328104,-0.739678144454956,0.12101597338914871,0.6619905829429626,-0.5100932121276855,-3.0323598384857178,1.9782671928405762,-0.29303669929504395,-0.2412094622850418,0.03625166416168213
384,-2.3832415739220596,-0.08618508043474163,2.3377286380107205,-0.6851726770401001,0.08607842773199081,0.7232763767242432,-0.597856342792511,2.754408121109009,-1.07772958278656,-0.05008727312088013,-0.2912328541278839,-0.32816535234451294
385,-2.195582168860436,0.014200325602049197,2.4151895907759107,-0.8110065460205078,-0.014199848286807537,0.5848645567893982,-0.6760657429695129,0.33264434337615967,-0.6167548298835754,0.5158405900001526,0.2204071283340454,0.17158979177474976
386,-2.215788653545472,0.013736205986477805,2.4076316392820396,-0.7990291118621826,-0.013735773973166943,0.6011356711387634,0.7092490792274475,-0.06467028707265854,0.14514277875423431,-0.057706236839294434,0.01163005456328392,-0.08361852169036865
387,-2.1883165569028766,-0.0026626411346890645,2.479492664057584,-0.8153138160705566,0.002662637969478965,0.5790130496025085,0.1552477478981018,-0.09522558748722076,-0.2575610280036926,-0.14046615362167358,0.17789462208747864,0.3734099268913269
388,-2.184497718673419,-0.04365049582806639,2.5152852072425613,-0.8167431950569153,0.043636634945869446,0.5753487348556519,1.465834617614746,-1.3168431520462036,1.4716273546218872,-0.03001272678375244,-0.33997759222984314,0.1844015121459961
389,-2.308953881937359,-0.05940676104875925,2.432172232125282,-0.7384046316146851,0.05937182530760765,0.6717389822006226,-1.4326746463775635,1.6041899919509888,-0.9881104826927185,-0.3817734718322754,-0.06295767426490784,-0.5813765525817871
390,-2.1221235825719527,-0.007759693742912538,2.505896357315735,-0.8518044948577881,0.007759615778923035,0.5238025784492493,0.5027408599853516,0.8605068325996399,0.19290043413639069,0.5859047770500183,0.23178812861442566,0.25401419401168823
391,-2.1392529379744634,-0.027157999350955607,2.424117148361001,-0.8424221873283386,0.02715466171503067,0.5381336212158203,-0.90482497215271,-0.13717815279960632,0.6142532229423523,-0.0015873312950134277,-0.06412670016288757,-0.09759706258773804
392,-2.089408731227709,-0.0260372991114677,2.4163570298564987,-0.8682132959365845,0.026034357026219368,0.4955074191093445,0.08319146931171417,0.32266467809677124,0.18331219255924225,0.0771520733833313,0.15392780303955078,0.30051305890083313
393,-2.096067836109783,-0.06357622237891755,2.3918157979983485,-0.8634399175643921,0.06353340297937393,0.5004348754882812,-0.2322380095720291,0.28196781873703003,0.6448770761489868,-0.4440551996231079,0.31685295701026917,0.35376739501953125
394,-2.1874372144898504,-0.10373529247526705,2.3151274477089965,-0.8114398121833801,0.10354934632778168,0.5751891136169434,-1.6646440029144287,-0.8094974160194397,0.12893815338611603,-0.30284833908081055,-0.26446855068206787,-0.2361847162246704
395,-2.112596114183877,-0.013647381875327868,2.277996894409286,-0.8567020893096924,0.013646958395838737,0.5156307816505432,0.24720659852027893,1.3940095901489258,-0.8827077746391296,0.28532153367996216,-0.1843622922897339,-0.09721964597702026
396,-2.1010008378633698,0.035759236181479304,2.2887530156812237,-0.8621521592140198,-0.03575161471962929,0.5053865313529968,-0.6497212648391724,-0.3974873125553131,-0.0071183908730745316,0.23910528421401978,0.2404177486896515,-0.12893688678741455
397,-2.090695706163026,0.029175986925529328,2.296718600780095,-0.8674997687339783,-0.02917184866964817,0.49658137559890747,0.406176894903183,0.759804368019104,-0.16421587765216827,-0.06075334548950195,0.028347881510853767,0.061707109212875366
398,-2.0694974538457025,0.016740947568875647,2.3300897740360096,-0.8780815601348877,-0.016740165650844574,0.47821828722953796,0.151223286986351,-0.38817137479782104,0.1533261388540268,-0.28753745555877686,0.18077212572097778,0.3196790814399719
399,-2.1544763978829535,-0.08859584749131709,2.3600440541123495,-0.8311675190925598,0.08847998827695847,0.5489370226860046,0.1582607924938202,-1.6313135623931885,0.6873207092285156,-0.20115059614181519,-0.5951175689697266,0.12443339824676514
400,-2.1672030848819026,-0.020679604719048485,2.3621003935415175,-0.827182412147522,0.02067813090980053,0.5615531802177429,0.550152599811554,1.1309757232666016,-1.1168490648269653,0.12576627731323242,-0.07972964644432068,-0.46292024850845337
401,-2.072646962493012,0.012541755195130753,2.449873938145673,-0.8766248822212219,-0.012541426345705986,0.48101097345352173,0.06663239747285843,0.05004064366221428,0.11232295632362366,0.5026929974555969,0.17619195580482483,0.11386823654174805
402,-2.0814711055001376,-0.007596169369089182,2.41991755933475,-0.8723896741867065,0.0075960964895784855,0.48875191807746887,0.24799825251102448,0.5617603063583374,-0.02455844171345234,-0.10565286874771118,-0.05744653940200806,-0.030942469835281372
403,-2.0533788771179418,-0.024656483583678532,2.441373755757064,-0.8855300545692444,0.02465398609638214,0.4639272391796112,-0.13802266120910645,-0.23705828189849854,0.39334210753440857,-0.08402854204177856,0.15851250290870667,0.43072599172592163
404,-2.0847954841603307,-0.08861413797231615,2.401686548665894,-0.8673685789108276,0.08849821239709854,0.4897344708442688,0.40970319509506226,-1.3746079206466675,0.9769763350486755,-0.32954609394073486,-0.28432950377464294,0.13290047645568848
405,-2.178616686395586,-0.060797175127289854,2.332949161062368,-0.8193778991699219,0.06075972691178322,0.570024311542511,-1.567258596420288,0.06234266236424446,-0.29485660791397095,0.059002041816711426,-0.2067863494157791,-0.5163288116455078
406,-2.0930420282385316,0.007448242645201306,2.3499275349235287,-0.8666772246360779,-0.007448173593729734,0.4988139867782593,0.2504578232765198,0.5861425995826721,-0.4804149866104126,0.3831719160079956,0.026735275983810425,0.0870015025138855
407,-2.120044334152592,0.026750068747781727,2.3330958814000016,-0.8526120781898499,-0.026746878400444984,0.5218591690063477,-0.45580610632896423,0.032649293541908264,0.03725314885377884,0.045101821422576904,0.08651555329561234,-0.2127925157546997
408,-2.082547046142313,0.03582750871069625,2.3638336633807455,-0.8713290691375732,-0.03581984341144562,0.48939019441604614,0.2806892395019531,0.38046905398368835,-0.26028305292129517,0.02042257785797119,0.16371899843215942,0.32291144132614136
409,-2.0976936965445474,0.014092822068970695,2.377467070247578,-0.8642854690551758,-0.014092355966567993,0.5028039813041687,0.1893327385187149,0.038944311439991,0.21433082222938538,-0.36246001720428467,0.006386669352650642,0.2296331524848938
410,-2.15198903058377,-0.028311975657955943,2.3964736710622505,-0.8354735970497131,0.028308194130659103,0.5488012433052063,-0.8189429640769958,0.04260935261845589,-0.7226427793502808,-0.12964493036270142,-0.3045075237751007,-0.0896185040473938
411,-2.0848895567717194,0.03436424113770551,2.4254406796756602,-0.8702249526977539,-0.034357476979494095,0.49145519733428955,0.8624797463417053,0.8705798387527466,-0.5322082042694092,0.1600046157836914,0.03864520788192749,-0.05029308795928955
412,-2.036383838889148,0.0433520473474428,2.471212069674373,-0.8927186131477356,-0.04333847016096115,0.44852614402770996,0.26956409215927124,-0.4560602903366089,0.1523406207561493,0.256716787815094,0.004901546984910965,0.05348813533782959
413,-2.0353352325079066,0.04829805999149064,2.48281845086285,-0.8929856419563293,-0.0482792854309082,0.4474881589412689,0.34603989124298096,0.2729101777076721,-0.0458589643239975,0.11756455898284912,0.0710301399230957,0.1335359513759613
414,-2.031849123216602,0.015488902763889,2.493649705237795,-0.8954770565032959,-0.015488283708691597,0.4448378086090088,0.22099421918392181,-0.18492576479911804,0.4707961082458496,-0.18281567096710205,0.08577027916908264,0.20723122358322144
415,-2.0919524980791335,-0.0697603908313452,2.4396141962058344,-0.8651347756385803,0.06970382481813431,0.4966721832752228,0.057918284088373184,-2.479008674621582,1.74289071559906,-0.3035511374473572,-0.3589951992034912,-0.1693406105041504
416,-2.1683174880339493,-0.031516115994850866,2.3548968359413407,-0.8263222575187683,0.03151090070605278,0.5623155236244202,-0.6751816272735596,1.4677696228027344,-1.1282285451889038,0.05613476037979126,-0.17498928308486938,-0.5328050255775452
417,-2.0645487054424754,0.06193008657625226,2.3859444215455263,-0.878872811794281,-0.061890505254268646,0.47302496433258057,-0.3399481773376465,-0.28319019079208374,-0.4095570147037506,0.35847169160842896,0.27520838379859924,0.09252697229385376
418,-2.077111417753256,0.0632168538796249,2.377308107347766,-0.8727904558181763,-0.06317475438117981,0.4839891791343689,0.09600844979286194,0.3611173927783966,0.007480276748538017,0.046634018421173096,0.008716151118278503,-0.026881664991378784
419,-2.057356836533947,0.05105555599622533,2.4097100130597227,-0.8827946782112122,-0.0510333776473999,0.46697914600372314,0.33997127413749695,0.1395522803068161,0.014729611575603485,-0.25714385509490967,0.2254413217306137,0.3490304946899414
420,-2.090195062716161,-0.0010609035443015528,2.429107145981051,-0.8681174516677856,0.0010609033051878214,0.49635806679725647,0.9114556908607483,-1.4382789134979248,0.8799168467521667,-0.2884225845336914,-0.3783954977989197,0.01797008514404297
421,-2.1356669189037274,0.019305383656767774,2.407840159068317,-0.8445006012916565,-0.019304184243083,0.5352068543434143,-0.9685354232788086,1.1419856548309326,-0.8735567331314087,0.017596185207366943,-0.08798035979270935,-0.35851001739501953
422,-2.0548938243972494,0.06510411212411887,2.4345452850165956,-0.8832201957702637,-0.06505812704563141,0.4644237458705902,0.04785902798175812,0.8124221563339233,-0.30318737030029297,0.34835392236709595,0.1852516233921051,0.09943434596061707
423,-2.0633745474121588,0.05496770746669319,2.4113685315019144,-0.87978595495224,-0.054940029978752136,0.47218504548072815,-0.28930190205574036,-0.11299919337034225,0.08884752541780472,0.09128779172897339,-0.07111285626888275,-0.06106734275817871
424,-2.051523553441344,0.058854284424780655,2.42340448869058,-0.8851237893104553,-0.05882031470537186,0.46162348985671997,0.18283793330192566,-0.18553918600082397,0.22180598974227905,0.14340919256210327,0.04795604199171066,0.27302616834640503
425,-2.0852060859467114,0.02223997475141323,2.4332961741599988,-0.8703681826591492,-0.022238140925765038,0.4918995201587677,0.4371563792228699,-0.32622671127319336,0.36472034454345703,-0.28882694244384766,0.3003295660018921,0.34002506732940674
426,-2.226973498680412,-0.0731257270651655,2.381889522577375,-0.7902127504348755,0.07306057214736938,0.608461856842041,-0.6345332264900208,-1.405316948890686,0.5079588890075684,-0.6673524975776672,-0.3788467049598694,-0.1271997094154358
427,-2.1649944944776522,0.03499126132136356,2.363416622806542,-0.828090488910675,-0.03498412296175957,0.5595018863677979,0.08899900317192078,0.8767521381378174,-1.134810209274292,0.24149686098098755,-0.11850401759147644,-0.11045098304748535
428,-2.1350464923899652,0.10387133719250971,2.386737363874995,-0.840435802936554,-0.10368465632200241,0.53190016746521,-0.13746732473373413,-0.25097331404685974,-0.05822094529867172,0.5169492363929749,0.22602957487106323,-0.1652313470840454
429,-2.1611634553181047,0.080284913443717,2.4087743895836815,-0.8280607461929321,-0.08019869029521942,0.5548731684684753,0.4210079312324524,0.5475393533706665,-0.26676616072654724,0.019390523433685303,0.044172681868076324,-0.06982660293579102
430,-2.1557888153741303,0.057340585088027064,2.4686279304533287,-0.8323462009429932,-0.057309169322252274,0.5512856841087341,0.26643452048301697,0.22786548733711243,-0.059359803795814514,-0.20093339681625366,0.17896749079227448,0.34493935108184814
431,-2.191027100431258,-0.03574651689789336,2.4992968811190854,-0.8132246732711792,0.035738904029130936,0.5808517932891846,-0.017779860645532608,-0.884009838104248,0.37534070014953613,-0.3581164479255676,-0.46403786540031433,0.292439341545105
432,-2.1583337049523967,-0.005159097776190461,2.500661930301345,-0.8322972059249878,0.005159074906259775,0.5543056726455688,0.4821566045284271,0.38675519824028015,-0.43674206733703613,0.1340092420578003,-0.19290320575237274,-0.028686165809631348
433,-2.121616330897903,0.035492704031074206,2.521777036075188,-0.8515588045120239,-0.03548525273799896,0.5230563879013062,-0.3429454267024994,-0.2285662293434143,-0.050911806523799896,0.5321162343025208,0.15828800201416016,-0.11201536655426025
434,-2.1276581873207707,0.024615809596185312,2.493264001223588,-0.8486605882644653,-0.02461332455277443,0.5283645987510681,-0.026175018399953842,0.5252189040184021,0.12458532303571701,0.26104480028152466,0.07627958059310913,-0.1382126808166504
435,-2.1212029135749826,-0.01298095609468777,2.4637901756242164,-0.8522400856018066,0.012980591505765915,0.5229897499084473,-0.6625607013702393,-0.22840218245983124,0.5499165058135986,-0.17832320928573608,0.08372962474822998,0.37097686529159546
436,-2.157911325822036,-0.07805842263834825,2.393484065275536,-0.8300073146820068,0.077979177236557,0.5522747039794922,0.7484517097473145,-1.5147480964660645,0.6675717830657959,-0.8198798894882202,-0.266821950674057,0.2028523087501526
437,-2.1844681024589447,-0.0016082814953426528,2.295239012642064,-0.8175378441810608,0.0016082808142527938,0.5758723020553589,-1.2537225484848022,1.154154658317566,-0.7399434447288513,-0.13169598579406738,0.05530700087547302,-0.44846153259277344
438,-2.110069813837463,0.031909333234157275,2.3301606093429292,-0.8576451539993286,-0.03190391883254051,0.5132513046264648,-0.031089361757040024,0.1591074913740158,-0.29108548164367676,0.5190068483352661,0.05866783857345581,0.00034427642822265625
439,-2.1372413087416184,0.0628319873759629,2.3227003827726023,-0.842149019241333,-0.0627906545996666,0.5355767607688904,0.20363673567771912,-0.2711268663406372,-0.16227535903453827,0.23079025745391846,0.0959174856543541,-0.4323052763938904
440,-2.1292396709284933,0.03162375911346228,2.4114521459130955,-0.8476569056510925,-0.03161848708987236,0.5296017527580261,0.6351655125617981,0.21789857745170593,-0.4022410809993744,-0.4449150562286377,0.11215439438819885,0.4413912296295166
441,-2.1475647113677065,-0.038569221323589295,2.4701667245842946,-0.8376057744026184,0.03855966031551361,0.5449123382568359,0.33798545598983765,-2.561706066131592,1.2274481058120728,-0.31559234857559204,-0.4697730541229248,0.4529055953025818
442,-2.1716775894471194,0.018791041861512314,2.4063619459764953,-0.8246919512748718,-0.01878993585705757,0.5652697086334229,1.0177419185638428,0.9582340717315674,-0.9229570031166077,0.014923453330993652,-0.15914282202720642,-0.4170153737068176
443,-2.097707950301033,0.05388021172012197,2.4766287240627567,-0.8631097674369812,-0.05385414510965347,0.5021364092826843,-0.8986676931381226,0.1255808025598526,-0.37947842478752136,0.6125910878181458,0.2637540400028229,0.04856842756271362
444,-2.137617764335409,0.061890453014941456,2.3999340345237377,-0.8419967889785767,-0.06185095012187958,0.5359252691268921,-0.1024605929851532,0.04614003747701645,0.7552999258041382,0.18969881534576416,0.011008679866790771,-0.1581939458847046
445,-2.1025896898258902,0.01571268935446669,2.3943193635717366,-0.8617926239967346,-0.015712043270468712,0.5070172548294067,-0.20018082857131958,0.6671023964881897,-0.09032425284385681,-0.3389672040939331,0.06435704231262207,0.6284807324409485
446,-2.1801270271726176,-0.05281538312577353,2.323613449434055,-0.8188877701759338,0.05279083177447319,0.5715206861495972,-1.020260214805603,-2.6857547760009766,1.945749282836914,-0.5263728499412537,-0.19095918536186218,0.25309473276138306
447,-2.267653467646275,-0.029088429487855283,2.181672348690691,-0.7665388584136963,0.029084326699376106,0.6415393352508545,-0.6660024523735046,2.2785563468933105,-0.37827467918395996,-0.07391542196273804,-0.33665573596954346,-0.4208361506462097
448,-2.0859226484674447,0.05328054406305395,2.239381593862358,-0.868995726108551,-0.053255338221788406,0.4919457733631134,-0.4675717055797577,0.8299373388290405,-0.6495782136917114,0.7071608901023865,0.2152579128742218,0.24447399377822876
449,-2.143926998924559,0.05616613640882086,2.1956822136426855,-0.8388825058937073,-0.056136611849069595,0.5414100289344788,0.3820013105869293,-0.8057913780212402,0.7326884865760803,0.04898083209991455,-0.018768783658742905,-0.29131847620010376
450,-2.108093722349847,0.03456719468402884,2.274826049107856,-0.8585818409919739,-0.03456031158566475,0.5115103125572205,0.21559742093086243,1.222846508026123,-0.9465872645378113,-0.3249813914299011,0.15244972705841064,0.46029138565063477
451,-2.1307059440762193,-0.015371576089150442,2.3509259271612373,-0.8472029566764832,0.015370970591902733,0.5310468673706055,0.20965313911437988,-2.890643835067749,1.7473647594451904,0.01422572135925293,-0.3977409601211548,0.525425910949707
452,-2.3281118489067976,-0.010824611005570946,2.2385108565952527,-0.7266401648521423,0.010824400000274181,0.6869328618049622,-0.0011242544278502464,2.110638380050659,-0.964005172252655,-0.5434556603431702,-0.22334882616996765,-0.7655156850814819
453,-2.096190093494765,0.0822585353797282,2.3897455753630705,-0.8622013330459595,-0.08216580003499985,0.4998578131198883,-0.16583257913589478,1.2233912944793701,-1.1122750043869019,0.7688784599304199,0.23627954721450806,0.36124151945114136
454,-2.1433543116304943,0.08899742567151421,2.3659846912376836,-0.8371915221214294,-0.08887998759746552,0.5396397709846497,-0.1643354594707489,-0.17112164199352264,0.8850938677787781,0.2914302349090576,0.00861871987581253,-0.14938092231750488
455,-2.095422695865524,0.05596987489947127,2.3838462192358265,-0.8641559481620789,-0.0559406578540802,0.5001053810119629,0.44810259342193604,0.5517994165420532,-0.21478791534900665,-0.1415509581565857,0.023546241223812103,0.5116592049598694
456,-2.132248109860348,0.0005173068643291631,2.386108757395527,-0.8464829325675964,-0.000517306849360466,0.5324155688285828,0.9278233647346497,-1.9698323011398315,0.9194627404212952,-0.5111525654792786,-0.20131069421768188,0.24605727195739746
457,-2.2786600399652834,0.026918917500085536,2.3197031744189434,-0.7594774961471558,-0.026915665715932846,0.6499767303466797,-0.4165818691253662,0.1669693887233734,-0.3123481869697571,-0.2416365146636963,-0.08837974071502686,-0.7532634139060974
458,-2.129606926044778,0.1283323044817289,2.3470757256124024,-0.8409137725830078,-0.1279803365468979,0.5258182287216187,-0.25041377544403076,1.076820969581604,-1.0301480293273926,0.49786579608917236,0.10698427259922028,0.08602863550186157
459,-2.1656547226673366,0.1494341712810081,2.3540944058883575,-0.8189976811408997,-0.14887863397598267,0.5541461706161499,-0.13975125551223755,-0.07281340658664703,0.3879358470439911,0.32375842332839966,0.06501632928848267,-0.18935436010360718
460,-2.113590312262733,0.15784845085390098,2.385449434454915,-0.8456236124038696,-0.15719376504421234,0.5101088285446167,0.811392605304718,0.5402225255966187,-0.31415411829948425,-0.06732511520385742,0.05868300795555115,0.19638842344284058
461,-2.1078557737057917,0.13676537875796826,2.4266901125915346,-0.8511934876441956,-0.13633941113948822,0.5068342685699463,0.5673344135284424,-0.5195123553276062,0.5413782596588135,-0.4604061245918274,-0.10403227806091309,0.27786415815353394
462,-2.180279658457626,0.12927450120745962,2.3929800773165475,-0.8131018877029419,-0.1289147287607193,0.5676671862602234,0.2958811819553375,-0.538678765296936,0.38622787594795227,0.023810625076293945,-0.1906195431947708,-0.7112830281257629
463,-2.0986414489336584,0.14232145684503672,2.4110949071134797,-0.8551597595214844,-0.14184148609638214,0.49858036637306213,-0.19643300771713257,1.256540060043335,-0.8231176137924194,0.3208581805229187,0.05636177957057953,0.049118489027023315
464,-2.0972496555758506,0.14019704117892087,2.393558211992999,-0.8561117053031921,-0.13973823189735413,0.497540146112442,-0.2596575915813446,-0.49255281686782837,0.8710989356040955,0.4556599259376526,0.10511602461338043,-0.12652260065078735
465,-2.0714922197865144,0.11361828910068121,2.3468605715767277,-0.8715924620628357,-0.11337399482727051,0.47694095969200134,0.2586733102798462,0.8261770009994507,-0.09488725662231445,-0.19792646169662476,-0.0570513978600502,0.1549864113330841
466,-2.037324380976969,0.09950473426357577,2.3427933178134643,-0.8887174129486084,-0.09934061020612717,0.44756320118904114,-0.34454670548439026,-0.2718965709209442,0.7451902627944946,-0.3423922061920166,0.20944803953170776,0.46736907958984375
467,-2.1474407822648627,0.07196479761916069,2.287176328271892,-0.8361272215843201,-0.07190269976854324,0.5438029766082764,-2.5543315410614014,-0.6468905210494995,-0.13476994633674622,-0.3275997042655945,-0.15971046686172485,-0.013926208019256592
468,-2.114320504910528,0.14900625034157206,2.199216725084369,-0.846407413482666,-0.14845547080039978,0.5114249587059021,-0.6514583230018616,1.693989634513855,-0.703750729560852,0.051271915435791016,-0.038998737931251526,-0.1643485426902771
469,-2.048899098922599,0.22654641526126373,2.1783584923762023,-0.8651825189590454,-0.22461353242397308,0.4483391344547272,-0.09722813963890076,-0.907896101474762,0.10513556748628616,0.5563446283340454,0.3008464276790619,-0.36951231956481934
470,-2.060557757566016,0.19059182778769237,2.1632451105849158,-0.8664661049842834,-0.1894400417804718,0.4618972837924957,0.418514609336853,0.1839497685432434,-0.014178883284330368,-0.27130550146102905,-0.0583321750164032,0.19113314151763916
471,-2.027879608452372,0.20910393724983,2.1756771543329263,-0.87779700756073,-0.2075834423303604,0.43171927332878113,0.27798280119895935,1.3247084617614746,-0.8652274012565613,-0.61872398853302,0.0890226662158966,0.470914363861084
472,-2.1116034342183307,0.1698389832718976,2.2320561548821916,-0.8449587821960449,-0.16902364790439606,0.5074207782745361,-1.3995640277862549,-2.6401822566986084,1.1506197452545166,0.012866377830505371,-0.29237163066864014,0.008890926837921143
473,-2.1663982210688153,0.1662446991869099,2.1636881753783754,-0.8163980841636658,-0.16548000276088715,0.5532726049423218,-0.3413311243057251,2.2595791816711426,-0.905632734298706,-0.31388145685195923,-0.20233309268951416,-0.3530620336532593
474,-1.9960425865977138,0.2416278691942574,2.244469958761569,-0.884473979473114,-0.2392835170030594,0.40056049823760986,-0.11250187456607819,0.08351387083530426,0.0017128586769104004,0.7370895743370056,0.33567333221435547,0.40315037965774536
475,-2.083258987328572,0.18107544684471005,2.178008349673312,-0.8572905659675598,-0.18008753657341003,0.4823085367679596,0.06975672394037247,-0.13507431745529175,0.7023980021476746,-0.051019370555877686,-0.042034655809402466,-0.1840449571609497
476,-2.04289916368894,0.13307971711860483,2.193709908115938,-0.8827391266822815,-0.1326872557401657,0.4507390856742859,0.5214295983314514,0.25339275598526,0.4664596617221832,-0.057949960231781006,0.1354643851518631,0.36519405245780945
477,-2.0556508837313183,0.055471368649889774,2.169808102300005,-0.8833817839622498,-0.055442925542593,0.4653627276420593,0.5881317257881165,-1.3825573921203613,1.0482463836669922,-0.3809308409690857,-0.1333235502243042,0.18998688459396362
478,-2.2066874440071027,0.05056466764938638,2.0788419526964694,-0.8035143613815308,-0.05054312199354172,0.5931355357170105,-1.08863365650177,-1.1618434190750122,0.13319121301174164,-0.2429637908935547,-0.12403266876935959,-0.908717930316925
479,-2.101009106029742,0.07342836708713715,2.1044186065920485,-0.8603748083114624,-0.07336240261793137,0.5043541789054871,1.0022192001342773,1.6129342317581177,-0.9375995397567749,0.21808665990829468,-0.012819252908229828,-0.01024407148361206
480,-2.0797616715853713,0.12322677558428696,2.103203874494242,-0.8666275143623352,-0.12291514873504639,0.4835791289806366,-1.2430769205093384,-0.8650764226913452,0.03996272385120392,0.33716267347335815,0.2230585664510727,-0.1317877173423767
481,-2.09782664324269,0.10228831809190442,2.1145019973591612,-0.859787106513977,-0.10211003571748734,0.5003399848937988,1.0927367210388184,0.8147662878036499,-0.3693438768386841,-0.11524969339370728,-0.06584345549345016,0.10840952396392822
482,-2.082790557080852,0.09944229383523871,2.2156820763411362,-0.8674625754356384,-0.09927847981452942,0.4874964654445648,0.1807774156332016,0.3447377681732178,-0.6896649599075317,-0.24470490217208862,0.21811391413211823,0.5021887421607971
483,-2.1928942730724335,0.022664381693350746,2.28429385900392,-0.8124488592147827,-0.022662442177534103,0.5825915932655334,0.06265907734632492,-1.509066104888916,-0.01998395286500454,-0.43707799911499023,-0.5708586573600769,0.06651723384857178
484,-2.1534476081434955,0.07693944646205737,2.3635813224734985,-0.8325364589691162,-0.07686355710029602,0.5486118793487549,1.0829815864562988,1.8241608142852783,-1.322630763053894,0.04716658592224121,-0.12334698438644409,-0.15937542915344238
485,-2.051009159259955,0.13492851191127228,2.469442683244171,-0.8788356184959412,-0.13451947271823883,0.45776912569999695,0.008767420426011086,-0.373262882232666,-0.04193078726530075,0.6982478499412537,0.30528056621551514,0.06992566585540771
486,-2.0925058516614308,0.08801661947177664,2.472726827530787,-0.8636123538017273,-0.08790302276611328,0.4964337646961212,0.5261505246162415,0.2464601695537567,0.1386510729789734,-0.008671462535858154,-0.014849655330181122,-0.028202712535858154
487,-2.063988081267933,0.041773006015737885,2.4896807763424076,-0.8800578713417053,-0.04176085814833641,0.47302666306495667,-0.13682611286640167,0.11138362437486649,0.48470982909202576,-0.12258189916610718,0.10549682378768921,0.5140491724014282
488,-2.2120265997294717,-0.09141108525916451,2.4284737347823384,-0.7980146408081055,0.09128383547067642,0.595684289932251,-0.7187831401824951,-2.465155839920044,1.6679939031600952,-0.6122636198997498,-0.4695187211036682,0.16765183210372925
489,-2.23052186184083,-0.0007592688992964202,2.294643513895316,-0.7901601195335388,0.0007592688198201358,0.6128997206687927,0.19403095543384552,1.5108509063720703,-0.8989344239234924,0.00947481393814087,-0.09064880013465881,-0.5867157578468323
490,-2.1233411786195693,0.03577844482534012,2.374077301472946,-0.8506469130516052,-0.03577081114053726,0.5245192050933838,-0.7243331670761108,0.512732982635498,-0.4578322470188141,0.5720519423484802,0.16634029150009155,0.2171494960784912
491,-2.1589833975853647,0.05159339537142384,2.3414218043459134,-0.8308408856391907,-0.05157050862908363,0.554115355014801,0.5978862047195435,-0.26108673214912415,0.24697965383529663,0.06761157512664795,0.08803901076316833,-0.3368454575538635
492,-2.1477629709676442,0.006623797235474457,2.4329326391897945,-0.8381025791168213,-0.006623748689889908,0.5454720258712769,0.35351622104644775,0.2430260181427002,-0.4934803247451782,-0.3406234383583069,0.09228658676147461,0.44161880016326904
493,-2.201108341866838,-0.07224348454417247,2.500138209641654,-0.8057364225387573,0.07218065857887268,0.5878593921661377,0.1617029309272766,-2.585825204849243,1.1116108894348145,-0.2169991135597229,-0.4938878118991852,0.42237919569015503
494,-2.227100426117962,0.014380808632172924,2.4076196894805353,-0.7921708822250366,-0.014380312524735928,0.6101298332214355,1.1436939239501953,2.003761053085327,-1.224416732788086,-0.1825299859046936,0.004370571114122868,-0.6246410012245178
