,attitude.roll,attitude.pitch,attitude.yaw,gravity.x,gravity.y,gravity.z,rotationRate.x,rotationRate.y,rotationRate.z,userAcceleration.x,userAcceleration.y,userAcceleration.z
0,-2.026469123071064,0.06692328794027255,2.6380762825892154,-0.8959552049636841,-0.06687334179878235,0.4390815496444702,0.9408815503120422,1.031029462814331,-0.7900588512420654,0.6284685134887695,0.23662737011909485,0.26967400312423706
1,0.16845958901510824,0.4059289804340522,0.05311183775093282,0.15403889119625092,-0.39487242698669434,-0.9057305455207825,-0.6817981600761414,0.4144306480884552,0.3161444365978241,0.00044108927249908447,-0.15572571754455566,-0.13298100233078003
2,0.10326977540862782,0.4453323028705854,0.16189709144170042,0.09303206205368042,-0.4307577908039093,-0.8976595997810364,1.2894115447998047,-0.5159204006195068,1.24307382106781,0.04083330184221268,-0.2851082682609558,-0.4921566843986511
3,0.09107092193840509,0.47972036514491295,0.19923372150167926,0.08067957311868668,-0.4615311324596405,-0.8834477066993713,0.7621166706085205,-0.5318377017974854,0.5114383101463318,-0.000677742063999176,0.378294438123703,-0.04523271322250366
4,-0.016356004361218104,0.4669091178028937,0.21314860418562748,-0.014604669064283371,-0.4501284062862396,-0.8928444385528564,-0.7121208310127258,-0.9572381377220154,0.3176315426826477,0.07231341302394867,0.09787926077842712,0.14012837409973145
5,-0.17520121752080342,0.5425079962170282,0.28824286222646267,-0.14927877485752106,-0.5162854790687561,-0.8433060646057129,1.0975558757781982,-1.170414686203003,0.3916286826133728,-0.10197243094444275,0.2741132378578186,0.4901566505432129
6,-0.7008393359849289,0.6605983924742191,0.5284446480153606,-0.5091972351074219,-0.6135894656181335,-0.6035115122795105,1.8957209587097168,-5.1654276847839355,2.6947450637817383,0.4616050720214844,0.15091246366500854,0.2361714243888855
7,-1.5990053060068041,0.6320423137110779,1.0461331445496855,-0.806501567363739,-0.590793788433075,0.02275662124156952,7.706589698791504,-4.712679862976074,0.7297693490982056,-0.6141831874847412,-0.27199918031692505,-0.8302822113037109
8,-2.2049327149943583,0.31434055245233217,1.6211541828669098,-0.7661105394363403,-0.30918940901756287,0.5634507536888123,1.0732873678207397,-0.9430590867996216,0.8619815707206726,-0.7725095748901367,-0.2013697326183319,0.8664503693580627
9,-2.3256600271368617,0.0939840693518778,1.7636461572934024,-0.7251505255699158,-0.09384576976299286,0.6821655035018921,3.040677547454834,0.7417471408843994,0.6463814973831177,0.01793617010116577,0.05797238647937775,-0.4083159565925598
10,-2.319930277395635,-0.07806846027645459,2.1024723635627938,-0.7300485372543335,0.07798918336629868,0.6789306402206421,1.7581602334976196,0.9267616868019104,-3.417431592941284,-0.114021897315979,-0.14283904433250427,0.2322937250137329
11,-2.251600000986599,0.11532014881521278,2.238484886562101,-0.7719059586524963,-0.11506471782922745,0.625237226486206,1.313198447227478,0.8631415963172913,-1.519538164138794,0.402368426322937,0.543699324131012,-0.5844351649284363
12,-2.1634017047809224,0.11248446359655474,2.303034112385105,-0.8242460489273071,-0.11224740743637085,0.5549942255020142,0.13999296724796295,0.12319513410329819,-0.03276173025369644,-0.2624390125274658,0.13890454173088074,0.3514845371246338
13,-2.142525104355361,0.11444533888461574,2.366243121223883,-0.8354652523994446,-0.11419567465782166,0.5375469326972961,1.8073209524154663,-1.2104047536849976,-0.6944698691368103,-0.3034352660179138,-0.23693954944610596,0.004338264465332031
14,-2.102936053217254,0.16902275234659953,2.3409891398779914,-0.8494437336921692,-0.16821910440921783,0.5001481771469116,-1.0913324356079102,2.16874623298645,-0.5485919713973999,-0.11933690309524536,-0.21637870371341705,-0.44394993782043457
15,-1.8826197785475243,0.3002112285199469,2.281988004031913,-0.909206748008728,-0.29572200775146484,0.29307299852371216,-1.804114818572998,1.212609052658081,-0.6941681504249573,0.478084921836853,0.24782463908195496,0.3297603130340576
16,-1.959548589684469,0.3216701605714894,2.3351539490869366,-0.8779186010360718,-0.31615149974823,0.35959291458129883,-0.2838110029697418,-0.26889365911483765,-0.46200016140937805,0.30900996923446655,0.07631388306617737,-0.14647343754768372
17,-1.761572101256795,0.3897482840470571,2.2537108680289317,-0.9082228541374207,-0.37995558977127075,0.1754000186920166,-0.9780576825141907,1.6162840127944946,-0.3484368920326233,-0.26372843980789185,-0.018024146556854248,0.5202786922454834
18,-1.7039429638462558,0.35999267069514357,2.2434843904851056,-0.9276157021522522,-0.35226738452911377,0.12424398213624954,-0.13281391561031342,-0.2174847275018692,0.45036977529525757,-0.48531752824783325,-0.24865421652793884,-0.02548910677433014
19,-1.6665062229587306,0.35431822044270506,2.180479984312888,-0.9335909485816956,-0.3469510078430176,0.08962773531675339,-0.8864892721176147,0.3250652849674225,-0.20467503368854523,0.06249719858169556,-0.09923124313354492,-0.3684821128845215
20,-1.5209559057435786,0.3649796719233437,2.1010360855946826,-0.932971179485321,-0.35693031549453735,-0.04653821885585785,-0.4815893769264221,0.8794034719467163,0.05413413792848587,0.33699333667755127,0.07621431350708008,0.12249648571014404
21,-1.3571737034133404,0.35263275836464214,2.038580986643715,-0.9171347618103027,-0.34536975622177124,-0.1989564150571823,-0.6231421828269958,1.8284538984298706,0.11675918102264404,0.32323217391967773,0.30844345688819885,0.1287660002708435
22,-1.2059067791515143,0.3226417616836459,1.971059259479094,-0.8859613537788391,-0.31707310676574707,-0.33843323588371277,-0.7056751251220703,0.589991569519043,0.8089120984077454,-0.12247669696807861,0.07160499691963196,0.14339545369148254
23,-1.1474110827538189,0.27903288586543296,1.8935326381806243,-0.876440703868866,-0.27542605996131897,-0.39495840668678284,-2.0166616439819336,1.125158667564392,-0.9773036241531372,-0.6042874455451965,-0.11150625348091125,-0.17494210600852966
24,-1.0327442091320367,0.29246881004789005,1.692831832478033,-0.8222434520721436,-0.28831708431243896,-0.49070248007774353,-0.7260853052139282,-1.8510017395019531,-0.5437517762184143,0.17755967378616333,-0.31812819838523865,-0.3985186517238617
25,-0.9927253849208795,0.3388014207220508,1.5859911750193243,-0.7899084687232971,-0.33235689997673035,-0.515347957611084,-0.08801968395709991,1.6156216859817505,0.12497740983963013,0.3304510712623596,0.06854769587516785,-0.27411121129989624
26,-0.890996824720326,0.39334307468131513,1.6767269640285944,-0.71830815076828,-0.3832783102989197,-0.5806298851966858,0.1395665556192398,1.9424868822097778,0.8198872208595276,0.34884709119796753,0.22957655787467957,0.6892725229263306
27,-0.8569925442660457,0.33009215613311926,1.718623224578592,-0.715069055557251,-0.32413020730018616,-0.6193673014640808,-0.39666301012039185,1.0322930812835693,1.090593934059143,0.011760950088500977,-0.04647526144981384,0.21607756614685059
28,-0.8665581861581767,0.27624983186091623,1.7431400669907144,-0.7332099080085754,-0.2727496027946472,-0.6229052543640137,0.04871300235390663,0.25254756212234497,-0.10725448280572891,-0.6178491115570068,-0.24125796556472778,-0.07005739212036133
29,-0.8682864761902999,0.26115347340606976,1.675129012886997,-0.7373441457748413,-0.25819507241249084,-0.6242266297340393,0.281686931848526,-1.836606740951538,-0.051785908639431,-0.2134615182876587,-0.15005382895469666,-0.8187360167503357
30,-0.9287153324990858,0.3785026505282771,1.661813374502192,-0.7441661953926086,-0.36952951550483704,-0.5564751625061035,-0.3214210569858551,0.08065364509820938,-0.7132077813148499,0.3730419874191284,0.17307260632514954,0.04246765375137329
31,-1.1651015328272782,0.46212395777627446,1.7986668953333154,-0.8224502801895142,-0.44585028290748596,-0.35326069593429565,3.085958957672119,-2.7684648036956787,0.07408560812473297,0.38371431827545166,0.28908151388168335,0.18990004062652588
32,-1.643838170073338,0.44381893165059916,2.073603174870727,-0.90071040391922,-0.4293915331363678,0.06590680032968521,3.9254119396209717,-4.404313564300537,0.38379567861557007,0.33328181505203247,0.3088318109512329,-0.18655800819396973
33,-2.0508552702342326,0.25528880217216093,2.4499681579996,-0.8582214713096619,-0.25252485275268555,0.44686368107795715,2.181401491165161,-0.6697797179222107,0.04344448074698448,-0.21448665857315063,-0.03870439529418945,0.5735831260681152
34,-2.1283691600889414,0.29876676491455334,2.6153694646905077,-0.8109514713287354,-0.2943418323993683,0.5056877732276917,0.9414098858833313,-0.44333815574645996,-0.2810509204864502,0.13121837377548218,0.25996384024620056,0.31773728132247925
35,-2.2047690845466206,0.2183166178864821,2.639434560344372,-0.7865563631057739,-0.21658650040626526,0.5782897472381592,-0.3221193850040436,1.6454839706420898,0.04456246644258499,-0.43985337018966675,-0.34533363580703735,-0.19082337617874146
36,-2.082045680700294,0.18168909403780695,2.682136582376715,-0.8577784299850464,-0.18069112300872803,0.4812138080596924,-0.7795026302337646,1.7280033826828003,-0.4201461970806122,0.21497154235839844,0.261715292930603,0.48488110303878784
37,-2.0828841869367856,0.21401800354438436,2.5960781332696414,-0.8518352508544922,-0.21238793432712555,0.47881919145584106,0.5038294196128845,-0.9154979586601257,1.074942946434021,0.584638774394989,0.25456327199935913,-0.8250411748886108
38,-2.0107566879363166,0.17841163560799095,2.5558752279249353,-0.8904069662094116,-0.17746664583683014,0.4191431403160095,0.21334302425384521,0.7032749056816101,0.13878431916236877,-0.09758436679840088,0.00878073275089264,0.2341313362121582
39,-2.0405851422536423,0.1356303177651863,2.521661374670095,-0.8834753036499023,-0.13521486520767212,0.4485406279563904,0.1989995837211609,-2.344006061553955,1.5489275455474854,-0.5813839435577393,-0.16489504277706146,0.4665747880935669
40,-2.183251699135024,0.11282924710172978,2.4940715947143524,-0.8130360245704651,-0.1125900074839592,0.5712227821350098,-0.38649851083755493,-0.09758153557777405,-0.7737747430801392,-0.30055028200149536,-0.3421066105365753,-0.5963541269302368
41,-2.0933452005863553,0.21056468146016727,2.5274208493059316,-0.8474105596542358,-0.20901213586330414,0.4880671799182892,-0.06786202639341354,0.8296608924865723,-0.9377208352088928,0.4901716709136963,0.19028957188129425,-0.03625434637069702
42,-2.1057246088410673,0.21242744129828317,2.5721705200607707,-0.8409673571586609,-0.21083340048789978,0.4983205795288086,0.23374906182289124,0.12177213281393051,0.1539820283651352,0.4621983766555786,0.08713039755821228,-0.3014974594116211
43,-1.9969101162057248,0.2263331816613321,2.610734404350481,-0.8873554468154907,-0.22440573573112488,0.4027934968471527,0.7919784784317017,1.5598528385162354,-0.38410207629203796,-0.20439577102661133,0.1350654810667038,0.31484276056289673
44,-1.970851188567457,0.22089732080754473,2.6668297769936418,-0.8986595869064331,-0.21910522878170013,0.38000527024269104,0.7294089198112488,-0.40757742524147034,1.0463811159133911,-0.28534621000289917,0.04126402735710144,0.28813135623931885
45,-2.100748064054084,0.1586248284328792,2.65554269957612,-0.8519989252090454,-0.157960444688797,0.49914541840553284,-0.32773271203041077,-0.5688405632972717,-0.34086379408836365,-0.3631041646003723,-0.3179153800010681,-0.528656005859375
46,-1.9131285831646703,0.23091648266996323,2.670874048590156,-0.9169715642929077,-0.22886978089809418,0.32677486538887024,-0.7792709469795227,2.3819468021392822,0.09606800228357315,0.4187263250350952,0.19444593787193298,0.26366400718688965
47,-1.92624028702906,0.2232382912943863,2.663517369498737,-0.9142289757728577,-0.22138871252536774,0.33937111496925354,-1.076934576034546,-1.2158350944519043,0.480038046836853,0.5776962637901306,0.09164321422576904,-0.035660117864608765
48,-1.8763778224273986,0.19142198293972812,2.5823342379993015,-0.9362530708312988,-0.1902550905942917,0.2953527271747589,0.07063012570142746,1.1286152601242065,0.5781300067901611,-0.1264910101890564,-0.04787357151508331,0.255718469619751
49,-1.8957479043476293,0.15874808682948774,2.560809763629236,-0.9357503652572632,-0.15808215737342834,0.3152485191822052,-0.27616849541664124,-0.8141107559204102,0.7013481855392456,-0.41796374320983887,0.14843860268592834,0.3473034203052521
50,-2.089308806633068,0.06974657468403624,2.5148047264244937,-0.866445779800415,-0.06969004124403,0.49438387155532837,-0.8171088695526123,-1.5510660409927368,0.08122966438531876,-0.581109881401062,-0.4017302691936493,-0.2691182494163513
51,-2.0210862671789616,0.1845917704087889,2.489718251657291,-0.8850255608558655,-0.18354526162147522,0.42783260345458984,-0.4541303217411041,1.9584113359451294,-1.5497652292251587,0.19059818983078003,-0.037844493985176086,-0.02422243356704712
52,-1.9690113162660947,0.26737515361864606,2.5085100847103723,-0.8890025019645691,-0.26420077681541443,0.3739950954914093,0.44179755449295044,-0.6643719673156738,0.1639622300863266,0.5665844082832336,0.23852026462554932,-0.1521475613117218
53,-1.9794956204245397,0.25767242058415923,2.511912981950724,-0.8873433470726013,-0.2548305094242096,0.38429567217826843,0.44268175959587097,0.9325733184814453,-0.05924888700246811,-0.12286478281021118,0.05271261930465698,0.06004020571708679
54,-1.9958177011536333,0.24035798935971495,2.5686418225423924,-0.8848403692245483,-0.23805034160614014,0.40048661828041077,0.4055752754211426,-0.10349135100841522,-0.09660425782203674,-0.41423189640045166,0.18731485307216644,0.3624681234359741
55,-2.1211174299811173,0.11910233197672393,2.595108620822715,-0.8463184237480164,-0.11882094293832779,0.5192562341690063,-0.07213514298200607,-2.4061951637268066,1.3433213233947754,-0.33269786834716797,-0.5662376880645752,-0.17658954858779907
56,-2.0669827185299305,0.1745307668926279,2.567223375255433,-0.8660445213317871,-0.17364604771137238,0.4688427448272705,0.04125596210360527,2.658161163330078,-1.3837748765945435,0.046952903270721436,-0.005507364869117737,-0.09764227271080017
57,-1.946309411366744,0.2517787297534275,2.589089960329591,-0.9009875059127808,-0.24912700057029724,0.3551866412162781,-0.0028468091040849686,-0.8766903281211853,0.39170098304748535,0.7211472988128662,0.42751747369766235,-0.043373316526412964
58,-1.9764276412353252,0.19168250831833086,2.506133570901079,-0.9020247459411621,-0.1905108541250229,0.38737189769744873,-0.7490838766098022,0.8438971638679504,0.4470045864582062,-0.1568131446838379,-0.1103009283542633,-0.07482612133026123
59,-1.892364264000027,0.20663206006321158,2.473585138325562,-0.9285590648651123,-0.20516477525234222,0.3093312978744507,-0.12403528392314911,-0.29894089698791504,0.17480649054050446,-0.27079713344573975,0.07705193758010864,0.42901113629341125
60,-2.041201927512404,0.10055270145799759,2.412079212149574,-0.8868818283081055,-0.10038334131240845,0.45095837116241455,-0.5692689418792725,-3.1016693115234375,1.865126132965088,-0.5723159909248352,-0.25473445653915405,-0.09536764025688171
61,-2.134012070833294,0.09082555132222889,2.306888228642669,-0.842057466506958,-0.09070073068141937,0.5317073464393616,-0.9782636165618896,2.5769925117492676,-0.7185536026954651,-0.08155703544616699,-0.33511102199554443,-0.3575587272644043
62,-1.9266118309308438,0.21824763692765164,2.345912680883565,-0.9151268601417542,-0.21651916205883026,0.3400913178920746,-0.36566162109375,0.7745437026023865,-1.0951277017593384,0.6266595125198364,0.36340028047561646,0.23777422308921814
63,-1.9805183572983454,0.18986962826347809,2.3526148819724524,-0.9007477164268494,-0.1887308657169342,0.3911954164505005,0.44607165455818176,-0.35518720746040344,0.9227151870727539,0.010809540748596191,0.1335856318473816,-0.12801188230514526
64,-1.9918570246651868,0.13148163369236862,2.4356613094475206,-0.9047784805297852,-0.13110312819480896,0.40520086884498596,0.010866808705031872,0.012859536334872246,-0.4475676119327545,-0.49878591299057007,0.06898461282253265,0.47636038064956665
65,-2.0432470709357036,0.08980965159231821,2.436596885672922,-0.8868669867515564,-0.0896889716386795,0.453235924243927,0.7861651182174683,-1.7401678562164307,0.7352545857429504,-0.28766298294067383,-0.3174307942390442,-0.07767140865325928
66,-2.04819746697986,0.08944241043271205,2.384598845889213,-0.8846417665481567,-0.08932320028543472,0.4576358497142792,0.21674522757530212,0.820376455783844,0.005598282441496849,-0.05890071392059326,-0.1781633496284485,-0.3934420347213745
67,-1.9471164719389613,0.11008188523909562,2.4268566193861463,-0.9243940114974976,-0.10985969007015228,0.3652762174606323,-0.5139445662498474,0.5164180994033813,-0.13675180077552795,0.6395887136459351,0.12163949012756348,0.14627468585968018
68,-1.9998164618319225,0.08943785201426692,2.3659765935125985,-0.9057389497756958,-0.0893186628818512,0.41431725025177,-0.2051776945590973,-0.6350110173225403,0.7328436374664307,0.21700316667556763,0.00492231547832489,-0.2103530764579773
69,-1.9442481149977549,0.0832834470856164,2.3471588684555953,-0.9278464913368225,-0.08318720012903214,0.36356696486473083,-0.05683760344982147,0.6881672143936157,-0.06519493460655212,-0.32818078994750977,0.04369743913412094,0.44028130173683167
70,-1.9770957046365132,0.02374379668572549,2.3138848832036367,-0.9183307886123657,-0.02374156564474106,0.3951013386249542,0.31619659066200256,-1.9047106504440308,1.6367155313491821,-0.43719905614852905,-0.19148364663124084,0.09034186601638794
71,-2.1095517614010286,0.0091009546235091,2.2120150492370874,-0.8583123087882996,-0.009100829251110554,0.5130468606948853,-1.8404390811920166,0.5299943685531616,-0.4392279386520386,-0.22983771562576294,-0.2694788873195648,-0.50279301404953
72,-1.9738635380236607,0.10285539847829026,2.2264187115778964,-0.9150007963180542,-0.10267414152622223,0.39016860723495483,0.3728671669960022,1.4704686403274536,-1.0710214376449585,0.4168776869773865,0.01933065801858902,-0.024766355752944946
73,-1.9585760821922382,0.1460445798293776,2.2439507495227655,-0.9158958792686462,-0.1455259621143341,0.37410855293273926,0.24356478452682495,-0.7766904234886169,0.23521310091018677,0.2950003743171692,0.2386350780725479,-0.18155786395072937
74,-1.9612063094801155,0.07290905632881933,2.3166488841429618,-0.922296404838562,-0.0728444829583168,0.3795565664768219,1.2571001052856445,0.4989614486694336,-0.24492554366588593,-0.4287625551223755,0.001875847578048706,0.3344327211380005
75,-1.9596214352686319,0.07961736972894233,2.3485109567436093,-0.9224237203598022,-0.07953327894210815,0.3779005706310272,0.37304964661598206,-0.6182180047035217,1.0628615617752075,-0.10137993097305298,0.11467427760362625,0.1570877730846405
76,-2.121585858790603,-0.03370090722704502,2.3239336451191814,-0.8516279458999634,0.03369452804327011,0.5230631232261658,-1.4260727167129517,-0.16795971989631653,0.19634798169136047,-0.3312488794326782,-0.2925446331501007,-0.2064584493637085
77,-2.0186646690608487,0.0449355120231135,2.32328302238906,-0.9004623293876648,-0.04492039233446121,0.4326079487800598,0.3968319296836853,1.6895781755447388,-1.0877394676208496,0.30121922492980957,0.11195224523544312,-0.04617920517921448
78,-1.9694715193711225,0.06363132743146803,2.310407599481816,-0.9197109341621399,-0.06358839571475983,0.38741210103034973,-0.6517505049705505,-0.8635636568069458,0.7210668921470642,0.44424718618392944,0.06720475107431412,-0.0077734291553497314
79,-1.9726590795475025,0.03785166146777939,2.2759378771009597,-0.9196747541427612,-0.03784262388944626,0.3908531963825226,0.27784809470176697,0.982597827911377,-0.2119034230709076,-0.2172728180885315,-0.045226242393255234,0.21066352725028992
80,-1.95318522245522,0.03434659360048777,2.2858614101864188,-0.9272288680076599,-0.034339841455221176,0.37291789054870605,-0.040653906762599945,-0.7235540747642517,0.6613878607749939,-0.24653834104537964,0.20664209127426147,0.32396629452705383
81,-2.0939072085306294,-0.037024459910641114,2.219012783186329,-0.8656755089759827,0.03701600059866905,0.49923500418663025,-1.3987005949020386,-0.930351972579956,0.1280304491519928,-0.4000714421272278,-0.27668580412864685,-0.19782811403274536
82,-2.0384898415799104,0.06402573469923094,2.120093237962132,-0.8907814025878906,-0.06398200243711472,0.4499048888683319,-0.06714656949043274,1.3873279094696045,-0.7797400951385498,0.23117464780807495,-0.14015008509159088,-0.28362998366355896
83,-1.9485493410807682,0.1419814842924612,2.1245548616884316,-0.9201428890228271,-0.1415049433708191,0.3651215434074402,-0.5681281685829163,0.10875685513019562,-0.3065822422504425,0.5052868127822876,0.1832224279642105,-0.09948131442070007
84,-1.9422174191494526,0.1240607345568935,2.126861219975926,-0.9246509075164795,-0.12374274432659149,0.360150545835495,0.6566025018692017,0.5782946944236755,0.2955118715763092,-0.213547945022583,0.043588317930698395,0.07805129885673523
85,-1.939154579713357,0.11417268396789973,2.1763839442863184,-0.9268459677696228,-0.11392480134963989,0.35773995518684387,-0.0565396249294281,-0.4670394957065582,-0.13788217306137085,-0.4037052392959595,0.0777614563703537,0.30668869614601135
86,-2.003054428897296,0.09314119118216761,2.1789440264265134,-0.904086172580719,-0.09300658106803894,0.41710638999938965,-0.35319676995277405,-0.7722903490066528,-0.2928583323955536,-0.09959107637405396,-0.32461124658584595,-0.11557754874229431
87,-2.0019215378057464,0.13415841139050574,2.179885671303673,-0.9003324508666992,-0.1337563395500183,0.41413816809654236,0.5794029831886292,0.6859397292137146,-0.6069079637527466,0.06895756721496582,-0.0962546169757843,-0.34962400794029236
88,-1.8369468092804615,0.20537946555915024,2.2343949009352193,-0.9445139765739441,-0.20393866300582886,0.25749167799949646,0.1279744654893875,0.6099305748939514,-0.22766786813735962,0.4407147169113159,0.14452096819877625,0.19567900896072388
89,-1.8363634094060446,0.1967783256273533,2.210801664329594,-0.9463216662406921,-0.1955108493566513,0.25739145278930664,-0.1530858725309372,0.4281237721443176,-0.029277678579092026,-0.08585888147354126,-0.027999848127365112,0.06392806768417358
90,-1.8132999311238476,0.189539116116386,2.2257105029086057,-0.9533550143241882,-0.18840628862380981,0.23583321273326874,0.007673619315028191,-0.07853519171476364,0.25374484062194824,-0.10533028841018677,0.07025748491287231,0.32179927825927734
91,-1.8435527279549349,0.11920290729981861,2.227131866397843,-0.9561980962753296,-0.11892081052064896,0.26747530698776245,0.6892088651657104,-0.45303982496261597,0.23720169067382812,-0.5737549066543579,-0.11424875259399414,0.03773093223571777
92,-1.9019381044861197,0.14759595743333365,2.1701067249050348,-0.9353898167610168,-0.14706066250801086,0.32158806920051575,0.06350314617156982,-2.214134454727173,0.20855271816253662,0.2222246527671814,0.00547434389591217,-0.7232909202575684
93,-1.861429258646652,0.16066076640506619,2.103583743224732,-0.9457247257232666,-0.1599704921245575,0.282868355512619,-0.3181556165218353,1.1388002634048462,-0.5964688062667847,0.18103039264678955,-0.10187037289142609,-0.12468048930168152
94,-1.792998157586621,0.21869714904192333,2.061856543608179,-0.9521811604499817,-0.21695798635482788,0.21512867510318756,-0.39154723286628723,-0.05200033634901047,0.1372741460800171,0.2336447834968567,0.185967355966568,-0.03130602836608887
95,-1.7916792070208074,0.1862251371511933,2.0744942894720912,-0.9588345885276794,-0.1851506233215332,0.21530307829380035,0.5271314978599548,-0.1319156289100647,0.32842186093330383,-0.009457588195800781,-0.0013270527124404907,0.21797022223472595
96,-1.8568975224295503,0.15696042618727274,2.1089606185865017,-0.9475581049919128,-0.15631672739982605,0.27874478697776794,0.23086382448673248,0.00814193207770586,0.12249161303043365,-0.20402264595031738,0.040838196873664856,0.007296532392501831
97,-1.916639921561739,0.06056192371175288,2.1689479831821945,-0.9390649795532227,-0.06052491068840027,0.3383689522743225,0.18613630533218384,-0.817201554775238,0.18827715516090393,-0.2587040662765503,-0.45816710591316223,-0.08052590489387512
98,-1.8383311198915737,0.10337027158275752,2.1973086270255573,-0.9592775106430054,-0.10318627953529358,0.26294365525245667,1.1502418518066406,1.3886202573776245,-0.8648533821105957,0.1203644871711731,-0.08159767091274261,-0.10893675684928894
99,-1.7566587609074578,0.13386447708597393,2.273897091049977,-0.9739848375320435,-0.13346503674983978,0.18314091861248016,0.29605475068092346,-0.5574454069137573,0.2406989485025406,0.48977768421173096,0.12466070055961609,0.18500792980194092
100,-1.8005385666373224,0.10700167395281364,2.2823374114911332,-0.9681559801101685,-0.10679760575294495,0.22642408311367035,0.37231266498565674,0.3835119307041168,-0.007847217842936516,-0.01702749729156494,-0.06860215216875076,-0.04510396718978882
101,-1.7716643627388997,0.09132496294851081,2.3069176257712622,-0.9758102297782898,-0.09119807183742523,0.1986885368824005,-0.0830497145652771,-0.025673313066363335,0.5700555443763733,-0.15761250257492065,0.09775934368371964,0.356166809797287
102,-1.827546602491652,0.019888426679220004,2.312436597203167,-0.9670291543006897,-0.01988711580634117,0.2538885176181793,0.7695305347442627,-0.9568187594413757,-0.2723766267299652,-0.5293546319007874,-0.3245648145675659,-0.012204498052597046
103,-1.8949096295693602,0.08798595975277802,2.2541998699756105,-0.9442664980888367,-0.08787248283624649,0.31723642349243164,-0.8752338886260986,-0.6281278729438782,-0.24463990330696106,0.1571420431137085,0.027813903987407684,-0.4886842668056488
104,-1.8420069315339131,0.11220189058930112,2.249098358261736,-0.9573891162872314,-0.11196661740541458,0.26621344685554504,0.18538270890712738,0.3794857859611511,-0.3060339093208313,0.39656758308410645,-0.0021996498107910156,0.057028770446777344
105,-1.8714251128845332,0.13373861172345708,2.2188307673047545,-0.9466213583946228,-0.13334029912948608,0.2934766113758087,-0.3727371394634247,-0.0021463213488459587,0.012756865471601486,0.19027364253997803,0.06397382915019989,-0.22719237208366394
106,-1.8028580414341053,0.14784197013029987,2.2384139109733394,-0.9625779390335083,-0.1473039835691452,0.2274756133556366,0.41412732005119324,0.37317997217178345,0.22831444442272186,-0.003791630268096924,0.07857842743396759,0.3729424476623535
107,-1.8391430392479267,0.12192381761288301,2.272991407568859,-0.9570525884628296,-0.12162196636199951,0.26316940784454346,0.515285849571228,0.3109257221221924,0.000698605552315712,-0.2692503333091736,0.046380892395973206,0.23153576254844666
108,-1.9613977058681547,0.00914371986144491,2.3674263648304144,-0.9246415495872498,-0.009143592789769173,0.3807286322116852,0.03928027302026749,-1.4154586791992188,0.5901841521263123,-0.26909923553466797,-0.560833215713501,-0.08399099111557007
109,-1.9352174584628503,0.09243468712508349,2.3845563731661916,-0.9303416013717651,-0.09230311214923859,0.3548870086669922,0.9629417657852173,2.3248188495635986,-1.9811711311340332,0.035382986068725586,0.1264522671699524,-0.3239879310131073
110,-1.827143721446904,0.15071156955460166,2.493269018339245,-0.9563575387001038,-0.1501416712999344,0.25067493319511414,0.14733295142650604,-1.3364081382751465,0.8029187321662903,0.8316778540611267,0.3392438292503357,0.27634838223457336
111,-1.930828447758898,0.05648194743413538,2.409421439923317,-0.934393048286438,-0.05645192041993141,0.3517424762248993,-1.3625000715255737,0.9148510098457336,0.9237251877784729,-0.22300130128860474,-0.029760237783193588,0.11853346228599548
112,-1.9509998241787017,-0.01840467430978662,2.3044629701345647,-0.9284321069717407,0.018403634428977966,0.37104666233062744,-1.2441844940185547,-0.38808494806289673,0.682791531085968,-0.3540388345718384,0.029570017009973526,0.5342116355895996
113,-2.058043493527093,-0.03405137384044902,2.154752296701919,-0.8831127882003784,0.034044794738292694,0.46792376041412354,-2.0174872875213623,-1.806567907333374,0.25843268632888794,-0.6177111268043518,-0.3281121850013733,0.09930643439292908
114,-2.1817860085193166,0.09537020927348154,1.9584444003268309,-0.8153586387634277,-0.09522569924592972,0.5710715055465698,-3.0585474967956543,0.8490819334983826,-0.4167346954345703,-0.16420996189117432,-0.06528152525424957,-0.15948086977005005
115,-2.0615339694649646,0.2590952234403087,1.7920217816688566,-0.8525466918945312,-0.25620606541633606,0.45554640889167786,-4.0350542068481445,1.6977046728134155,-1.0180187225341797,0.3862839341163635,-0.047489553689956665,0.42926499247550964
116,-1.6311193666385126,0.521012124610408,1.3005976300801663,-0.8657382726669312,-0.4977582097053528,0.052287403494119644,-3.0138320922851562,0.022966627031564713,-2.3060693740844727,-0.2574306130409241,-0.007322937250137329,0.04231714829802513
117,-1.222052176220156,0.6164599575532612,0.792787415223912,-0.766813337802887,-0.5781503319740295,-0.27881789207458496,-3.2809600830078125,1.7811822891235352,-1.3498283624649048,-0.38304316997528076,-0.1462147831916809,-0.02892133593559265
118,-1.0150334221784887,0.6745260413913471,0.5522236657333744,-0.6634606719017029,-0.6245272159576416,-0.41205060482025146,-3.283525228500366,1.583279013633728,-2.4029409885406494,-0.6285467743873596,-0.23223847150802612,0.12086713314056396
119,-0.6438491662180841,0.7665053793409756,0.09923732920403759,-0.4324040114879608,-0.6936221718788147,-0.5761207938194275,-0.7684147953987122,0.4395095407962799,-3.2735488414764404,-0.18939167261123657,0.6279636025428772,0.02486652135848999
120,-0.5271398385814545,0.8433733023763715,-0.005547607597333302,-0.3345106244087219,-0.7468904256820679,-0.5746801495552063,0.07472853362560272,1.3477065563201904,0.23119759559631348,0.2038496434688568,0.28020042181015015,0.4240301847457886
121,-0.4053755914304992,0.849963329589543,-0.17349003042226493,-0.2602843940258026,-0.7512562274932861,-0.6065196394920349,-1.25431227684021,-1.1961140632629395,-1.3189455270767212,0.2085113525390625,0.42749524116516113,0.5054302215576172
122,-0.47731101930131387,0.6271948450614792,-0.2456398195118987,-0.3719594180583954,-0.5868757963180542,-0.7191821336746216,-1.8962053060531616,-0.8531748652458191,1.6896227598190308,-0.0055735111236572266,-0.1894150972366333,-0.5395916700363159
123,-0.4916800896709489,0.5796690532231618,-0.22020966714526055,-0.39498600363731384,-0.5477470755577087,-0.7375358939170837,0.8835586309432983,1.065467119216919,-1.0442919731140137,-0.34776607155799866,-0.6827979683876038,-0.47295910120010376
124,-0.2763165021732609,0.6643024127989178,-0.44741195407093665,-0.21479909121990204,-0.6165100336074829,-0.7574805617332458,0.39802661538124084,0.2851897180080414,-2.253800868988037,-0.42298775911331177,0.5399566888809204,0.17757022380828857
125,-0.2518140919691836,0.644906862196389,-0.554523005494543,-0.19911864399909973,-0.6011239886283875,-0.7739520072937012,-1.1253327131271362,-0.15112324059009552,0.5032056570053101,0.30123046040534973,0.17761635780334473,0.16027402877807617
126,-0.20940847051729342,0.6208050825247202,-0.5724497166635628,-0.1690928339958191,-0.5816901922225952,-0.7956407070159912,0.08104048669338226,1.0188015699386597,-0.9420267343521118,-0.08455401659011841,0.2920936346054077,0.4546372890472412
127,-0.24638094458866378,0.6128184391342525,-0.5770580992443811,-0.19951412081718445,-0.5751752853393555,-0.7933268547058105,-0.847112238407135,-0.8744449615478516,2.0833051204681396,0.28563475608825684,-0.02928638458251953,0.010917186737060547
128,-0.2544570490343292,0.4174512916872194,-0.4455879740234407,-0.23010358214378357,-0.40543192625045776,-0.884690523147583,0.1609165221452713,0.9747003316879272,0.9539627432823181,-0.15370073914527893,-0.5198152661323547,-0.6966845989227295
129,-0.20900835523250455,0.4320270744725347,-0.48718104695548636,-0.18842552602291107,-0.4187124967575073,-0.8883556127548218,1.1278985738754272,1.1575931310653687,-0.5850365161895752,-0.29128026962280273,0.20060336589813232,-0.3764454126358032
130,-0.10264388924972112,0.5848502914784329,-0.525982569133115,-0.085433728992939,-0.5520745515823364,-0.8294062614440918,0.39646220207214355,0.46827587485313416,0.7809394001960754,0.2761380672454834,0.3501092195510864,0.3952479362487793
131,-0.1046554481222988,0.6132888145993903,-0.4846482941120984,-0.08542684465646744,-0.5755600333213806,-0.813285231590271,0.9552068114280701,0.17124800384044647,-0.9908274412155151,-0.12338967621326447,0.15646213293075562,0.432273268699646
132,-0.09595065408147166,0.6099890516010754,-0.5720509382431049,-0.07852574437856674,-0.5728585124015808,-0.8158841133117676,-2.2060797214508057,-0.9158741235733032,0.6801799535751343,0.37956637144088745,0.2309243083000183,0.19945955276489258
133,-0.1783830190755267,0.5050395083388682,-0.5068196181942789,-0.15528623759746552,-0.48384201526641846,-0.8612682819366455,1.0902817249298096,0.3447985351085663,-0.11640126258134842,-0.03048953413963318,-0.5012654066085815,-0.819319486618042
134,-0.09909026695752546,0.6209980798340339,-0.6182603858731961,-0.08045810461044312,-0.5818471908569336,-0.8093085289001465,0.3765404522418976,1.0331743955612183,-1.6199430227279663,-0.4423843026161194,0.0005331039428710938,-0.2773919105529785
135,0.04072151341939174,0.6867443772135081,-0.7638497191209928,0.031481824815273285,-0.6340229511260986,-0.7726731300354004,-0.3645418882369995,-0.08505574613809586,0.058582138270139694,0.17406931519508362,0.5290424823760986,0.3886857032775879
136,0.005344245871936576,0.5624346332913218,-0.669613014119732,0.004520993214100599,-0.5332473516464233,-0.845947265625,-0.4945594370365143,0.17096997797489166,0.4988616406917572,-0.059834107756614685,0.05718839168548584,0.2300567626953125
137,-0.030452430068148233,0.6155608295909638,-0.6545355574011793,-0.02485903538763523,-0.5774164795875549,-0.8160711526870728,0.6525371074676514,-0.7601355314254761,0.638441264629364,0.20486697554588318,0.23590964078903198,0.25816410779953003
138,-0.22987299595122945,0.6259718976701862,-0.4865417796083888,-0.1846514195203781,-0.5858851671218872,-0.7890769839286804,0.29095953702926636,-0.8758372664451599,1.257846713066101,-0.0034131407737731934,-0.3387516736984253,-0.21598899364471436
139,-0.4013692913166112,0.7113800546488227,-0.2683194506145234,-0.29592448472976685,-0.6528797149658203,-0.697263777256012,1.590182900428772,0.12923847138881683,0.986246645450592,0.18339091539382935,-0.5543041229248047,-0.45834535360336304
140,-0.38211767798143403,0.8382295160542304,-0.31348575738671264,-0.24937894940376282,-0.7434602379798889,-0.6205458641052246,2.424015998840332,-0.6569774150848389,-0.46044278144836426,-0.21775364875793457,0.6534638404846191,-0.17443710565567017
141,-0.7065792657594611,0.9267727046856135,-0.021341696910645,-0.38981276750564575,-0.7996863722801208,-0.4566701352596283,1.5029970407485962,-1.3947757482528687,2.194352388381958,0.34110674262046814,0.2564735412597656,0.1309865415096283
142,-1.2429617159292958,0.919405128329634,0.4690073073785015,-0.5740031599998474,-0.795241117477417,-0.1952226310968399,2.6795191764831543,-2.023646831512451,2.105604887008667,0.3127117156982422,0.5216510891914368,0.2182634174823761
143,-1.619409503291057,0.7322440025138824,0.8241661031680285,-0.7427974939346313,-0.6685401201248169,0.03613821789622307,2.3296306133270264,-0.3261568248271942,1.9016008377075195,-0.26367223262786865,-0.3038719892501831,-0.036092400550842285
144,-1.814628323885671,0.5177212031854761,1.1965231549936242,-0.8432456851005554,-0.49490126967430115,0.2097843587398529,4.183714389801025,-0.08490166813135147,0.7568058967590332,-0.48817527294158936,-0.22125470638275146,0.5682917833328247
145,-2.0335523191287526,0.3059649158498567,1.4021735225877756,-0.8532670736312866,-0.30121341347694397,0.4256829619407654,2.0337982177734375,-1.972575068473816,0.41371625661849976,-0.5297133922576904,0.14679443836212158,-0.4670495390892029
146,-2.146141331869497,0.07564823098719484,1.6104387634349329,-0.8366052508354187,-0.07557609677314758,0.5425682067871094,4.376736640930176,-0.10136104375123978,-0.4724063575267792,-0.18448251485824585,-0.18626472353935242,-0.3557395339012146
147,-2.11656795499716,0.036842180166015225,1.8866563776665914,-0.8541469573974609,-0.03683384507894516,0.5187255144119263,1.648671269416809,-0.047560323029756546,-2.554107666015625,0.1762600541114807,0.10134801268577576,-0.032717883586883545
148,-2.1402170755761247,0.072749524340454,2.09934252992645,-0.8399858474731445,-0.0726853683590889,0.5377182960510254,2.2119193077087402,0.21474657952785492,-1.4657243490219116,-0.05689537525177002,0.2252122461795807,0.18649441003799438
149,-2.158451040272595,0.049741086027209065,2.2353477647415194,-0.8312140107154846,-0.04972057789564133,0.5537250638008118,0.8468138575553894,0.3567213714122772,-0.6947158575057983,-0.40920358896255493,0.3035963177680969,0.5411846041679382
150,-2.292652743377734,-0.08070633373461032,2.244912832743227,-0.7481371760368347,0.08061874657869339,0.6586283445358276,-0.09615722298622131,-2.8119287490844727,0.9725449085235596,-0.4790356755256653,-0.4633549451828003,-0.0006388425827026367
151,-2.2596572824038255,0.014767868036342311,2.1825239664484983,-0.7718861699104309,-0.014767331071197987,0.6355888247489929,0.8992668390274048,1.401114821434021,-1.057498812675476,0.14099645614624023,-0.048892345279455185,-0.3801111578941345
152,-2.177758785792313,0.038627547569419086,2.2509823480963926,-0.8207716345787048,-0.03861794248223305,0.5699496269226074,-0.7391668558120728,-0.33261987566947937,0.35463446378707886,0.6401839256286621,0.17860206961631775,-0.14160490036010742
153,-2.1818448832964052,0.007923764370755183,2.2171918231323002,-0.8190209865570068,-0.007923681288957596,0.5737084746360779,0.4517243802547455,1.2869279384613037,0.16907991468906403,-0.08448231220245361,-0.0800279974937439,-0.04857742786407471
154,-2.04539552146859,-0.020406838609021052,2.2768985703215234,-0.8892908096313477,0.020405422896146774,0.4568868577480316,0.13403068482875824,1.5622785091400146,-0.34655773639678955,-0.34545040130615234,0.17411363124847412,0.6171334981918335
155,-2.0583886881274847,-0.07814804686862703,2.263115869843609,-0.8807672262191772,0.07806852459907532,0.46707043051719666,0.06683601438999176,-2.2661280632019043,1.3980950117111206,-0.3218848705291748,-0.17395475506782532,0.09280520677566528
156,-2.242845390870019,-0.06970539483590052,2.114095391025614,-0.7806471586227417,0.06964895874261856,0.6210787892341614,-1.4696937799453735,-0.11851847916841507,0.004753691144287586,-0.2552414536476135,-0.22151970863342285,-0.5839695334434509
157,-2.1724176194542424,-0.014735274115291457,2.155324252514424,-0.8243296146392822,0.014734741300344467,0.5659183859825134,0.29403436183929443,0.9345867037773132,-0.8729248642921448,0.4593698978424072,0.029942989349365234,-0.1128087043762207
158,-2.1507793503284205,0.03642266753838452,2.1422986802107182,-0.8359171152114868,-0.03641461580991745,0.5476462244987488,0.10574419796466827,-0.4187909662723541,0.27577537298202515,0.2365519404411316,0.12903547286987305,-0.32405930757522583
159,-2.119326444360051,-0.011239484473176726,2.198494481436016,-0.8532378077507019,0.011239247396588326,0.521400511264801,0.9357462525367737,0.9310913681983948,-0.19519908726215363,-0.22235417366027832,0.05377844348549843,0.35558271408081055
160,-2.0621417151583943,0.03295212528359436,2.243367251005895,-0.881220281124115,-0.032946161925792694,0.4715564250946045,0.11962690949440002,1.4895391464233398,-0.7547655701637268,-0.1933494210243225,0.1824517548084259,0.2585766315460205
161,-2.2032026790623642,-0.046785452313822286,2.233821523017206,-0.8057246208190918,0.04676838591694832,0.5904405117034912,-1.2232385873794556,-2.2047786712646484,0.583513617515564,-0.4194948673248291,-0.3133547306060791,-0.25131410360336304
162,-2.1146328482286063,0.06690579880166574,2.2280298592355203,-0.8538154363632202,-0.06685589253902435,0.5162652134895325,0.7019041180610657,1.6597565412521362,-1.4144444465637207,0.27900147438049316,-0.04326678067445755,-0.20048445463180542
163,-2.0410921692087167,0.16814442935556337,2.2449561716638393,-0.8788623213768005,-0.16735324263572693,0.4467592239379883,-1.1455579996109009,-0.7947613000869751,0.16165544092655182,0.5930347442626953,0.3682504892349243,-0.03472617268562317
164,-2.0370205013237754,0.09243048235480787,2.183109360960168,-0.8894590139389038,-0.09229892492294312,0.4475979208946228,0.9436354637145996,1.1851340532302856,0.817496657371521,-0.27640414237976074,-0.10202176123857498,0.05438584089279175
165,-1.937127029429347,0.049305717503049525,2.2038083133567032,-0.9325133562088013,-0.04928574338555336,0.35775673389434814,-0.5117961764335632,0.30120784044265747,0.0391702726483345,-0.45946967601776123,0.09011825919151306,0.5184181928634644
166,-2.060323581592737,-0.007999136034243725,2.155141256935595,-0.8825269937515259,0.007999050430953503,0.47019365429878235,-1.3250683546066284,-1.9087175130844116,0.4125882089138031,-0.29804545640945435,-0.17071875929832458,-0.02784135937690735
167,-2.1162479209486524,0.05548112450310755,2.045802270252142,-0.8535776734352112,-0.05545266717672348,0.5180059671401978,0.12883882224559784,0.9268226623535156,-0.4515286087989807,0.14810287952423096,-0.03803795203566551,-0.5247350335121155
168,-1.9927811713942085,0.11369353731082119,2.0869658763575853,-0.9063881039619446,-0.11344875395298004,0.40692776441574097,-0.41148510575294495,0.2948489785194397,-0.6330059766769409,0.47300785779953003,0.08904995024204254,0.020715057849884033
169,-1.9966664972217771,0.15292924828147106,2.084431085871017,-0.9000511169433594,-0.1523338407278061,0.4082919657230377,0.5240924954414368,0.5275787115097046,0.055016763508319855,-0.05765146017074585,0.1608329862356186,3.3229589462280273e-05
170,-1.9660583157266358,0.12027642854476696,2.15549488046723,-0.9162282943725586,-0.1199866458773613,0.3822682201862335,0.14683738350868225,-0.5590492486953735,-0.05221954733133316,-0.30535978078842163,0.0857153832912445,0.44341540336608887
171,-2.049253266642505,0.037223154344063994,2.187675420168483,-0.887091338634491,-0.03721455857157707,0.4600909352302551,0.9136155247688293,-1.7558403015136719,1.1197888851165771,-0.14516568183898926,-0.40487831830978394,0.022757887840270996
172,-2.11759347057789,0.03706270770860261,2.1478174665956655,-0.8536075353622437,-0.03705422207713127,0.5195969343185425,-0.06956709921360016,1.2039027214050293,-0.8820667862892151,-0.1611628532409668,-0.32744771242141724,-0.5068559050559998
173,-1.942363047611528,0.1343783387153828,2.2589491048433574,-0.9233596920967102,-0.13397428393363953,0.3598025143146515,-0.027352340519428253,1.7497429847717285,-1.0495326519012451,0.6426436901092529,0.28808802366256714,0.2456052601337433
174,-1.9503979534359919,0.10866702008919933,2.237176641745855,-0.9233337044715881,-0.10845328122377396,0.36836478114128113,0.4550034999847412,-1.2834525108337402,1.5141898393630981,0.1851745843887329,0.031945712864398956,-0.0955529510974884
175,-1.9615060520290755,0.021881647903676298,2.2646758430768794,-0.9244176149368286,-0.021879902109503746,0.3807535767555237,-0.05408674478530884,0.4451172947883606,-0.009163428097963333,-0.2861993908882141,-0.05780148506164551,0.39449965953826904
176,-1.9677625315506753,-0.003766792868086642,2.2534410434315753,-0.9222316741943359,0.003766783978790045,0.38661953806877136,0.3796676993370056,-0.8850432634353638,1.2850747108459473,-0.37656599283218384,-0.11967253684997559,0.20146948099136353
177,-2.111975220283965,-0.02188646729305656,2.1839028758198236,-0.8568968176841736,0.021884720772504807,0.5150234699249268,-2.1293485164642334,-0.5205686092376709,-0.2578906714916229,-0.1675478219985962,-0.2056615948677063,-0.3469478487968445
178,-2.0500328609612,0.045754130308445815,2.181405318783459,-0.8864185810089111,-0.04573816806077957,0.4606192708015442,0.9749875068664551,1.4225702285766602,-0.9034695625305176,0.30037426948547363,-0.04537203907966614,-0.11194074153900146
179,-1.991244456356343,0.10838243503393638,2.2076537289156963,-0.9075496792793274,-0.10817036777734756,0.40577468276023865,-0.4596405327320099,-0.7542008757591248,-0.04446760565042496,0.44381964206695557,0.16536027193069458,-0.17204049229621887
180,-2.001600958278283,0.056394819066122405,2.2474628738794182,-0.907185435295105,-0.05636493116617203,0.4169381260871887,1.4343340396881104,0.8683690428733826,0.1569141298532486,-0.13839244842529297,-0.04992779344320297,0.15616673231124878
181,-1.9641487503404582,0.04663001889680741,2.3271931181294114,-0.9226254224777222,-0.04661312326788902,0.3828703761100769,0.3869536817073822,-0.07415342330932617,-0.44969990849494934,-0.20225250720977783,0.18568173050880432,0.41905534267425537
182,-2.109621311106257,-0.06945888306420847,2.354806487084734,-0.8562427759170532,0.06940304487943649,0.5118906497955322,0.2756974697113037,-2.276060104370117,0.6551700830459595,-0.35417604446411133,-0.5021270513534546,-0.1101875901222229
183,-2.079480373017404,0.013047225940295545,2.373870588579115,-0.8733116984367371,-0.01304685603827238,0.48698681592941284,0.9635483622550964,1.8865734338760376,-1.8847062587738037,0.08678215742111206,-0.06210264936089516,-0.2741727828979492
184,-1.9288095599514414,0.11990934707831548,2.475390062371533,-0.9298695921897888,-0.11962220817804337,0.3478979766368866,-0.34630078077316284,0.04571134224534035,-0.15482378005981445,0.7577962875366211,0.39913269877433777,0.12845084071159363
185,-1.9901592012927245,0.04785075700301423,2.4442281339480054,-0.9123030304908752,-0.04783250018954277,0.40671250224113464,0.5472274422645569,0.06920384615659714,0.8852585554122925,-0.22659766674041748,-0.08192824572324753,-0.05316644906997681
186,-1.9132245635012253,0.039119099523120364,2.517624721888453,-0.9412214159965515,-0.03910912200808525,0.3355184495449066,-0.4996532201766968,0.9059941172599792,-0.8969449400901794,-0.2650773525238037,0.17564478516578674,0.6956247091293335
187,-2.0022608784248703,-0.019606497702009746,2.4796347457444456,-0.9081797003746033,0.01960524171590805,0.41812121868133545,-0.0005302801728248596,-1.8776651620864868,0.98481684923172,-0.34320884943008423,-0.22260814905166626,0.08876049518585205
188,-2.094350400008272,0.023809534434882648,2.3530652554299523,-0.8658023476600647,-0.023807285353541374,0.4998196065425873,-1.055614709854126,0.21285879611968994,-0.5391960740089417,-0.1015133261680603,-0.23257088661193848,-0.5514705181121826
189,-1.9823939597813722,0.1169791562800064,2.3972272694873693,-0.9102194309234619,-0.1167125478386879,0.3973398804664612,0.03146177902817726,1.2047300338745117,-1.264507532119751,0.43440449237823486,0.0888042002916336,0.02149873971939087
190,-1.9750129187328251,0.17939682216382352,2.3895415685934207,-0.9046556949615479,-0.17843611538410187,0.38698679208755493,0.38919201493263245,-0.5296659469604492,0.19246318936347961,0.30028557777404785,0.20750412344932556,-0.23392581939697266
191,-1.9557187564480136,0.11591850718059689,2.4746876169488776,-0.9206075072288513,-0.11565908044576645,0.37296730279922485,0.8292883038520813,0.4395763576030731,-0.1940436214208603,-0.29864591360092163,-0.007296226918697357,0.5079835653305054
192,-1.9938033791862242,0.07668711226359227,2.5217244745685123,-0.9091785550117493,-0.0766119658946991,0.40929779410362244,1.0170562267303467,-1.2855228185653687,1.4448411464691162,-0.1324777603149414,-0.21174860000610352,0.20326632261276245
193,-2.168247050873341,-0.00014057956836784495,2.4953386716385455,-0.8267723321914673,0.0001405795628670603,0.5625365972518921,-1.0695866346359253,0.23010145127773285,-0.38500624895095825,-0.36532050371170044,-0.36560383439064026,-0.37715762853622437
194,-2.0108447593916545,0.1081987997345235,2.5875683951222994,-0.899440348148346,-0.10798780620098114,0.4234922230243683,0.3713868260383606,2.426891803741455,-1.7786548137664795,0.3906208276748657,0.18231335282325745,0.059753626585006714
195,-1.9241837487977096,0.1607988774470652,2.5763126490862454,-0.9261025190353394,-0.16010682284832,0.3416133224964142,-0.21510033309459686,-1.175991177558899,0.9124470949172974,0.5455332398414612,0.2337915599346161,-0.0019679665565490723
196,-1.9695099202056892,0.051826017996606445,2.552608774293931,-0.92032390832901,-0.05180282145738602,0.38771194219589233,0.6913462281227112,0.5240992307662964,0.5537551045417786,-0.277521550655365,-0.08998185396194458,0.16831839084625244
197,-1.9418365708137761,0.04436675504471413,2.5278242962338524,-0.9310336112976074,-0.044352199882268906,0.36222830414772034,0.20728595554828644,-0.750751256942749,0.7682362794876099,-0.24848604202270508,0.2053782045841217,0.35202038288116455
198,-2.127783648694627,-0.07643646754590364,2.474939247684394,-0.8463732004165649,0.07636205852031708,0.5270878672599792,-1.0298936367034912,-1.9361295700073242,0.5540487170219421,-0.3802046775817871,-0.4232095777988434,-0.1056857705116272
199,-2.09646133149727,0.039171883672849905,2.4149838901442044,-0.8643268346786499,-0.03916186839342117,0.5014033913612366,0.5115788578987122,1.8830070495605469,-1.4366929531097412,0.13123369216918945,-0.11305981874465942,-0.3338924050331116
200,-1.9845971054865696,0.13014461843993846,2.4742700741757777,-0.9078561663627625,-0.12977753579616547,0.3986918032169342,-0.5806352496147156,-0.15976789593696594,-0.5010371208190918,0.5845529437065125,0.22545012831687927,0.060307860374450684
201,-2.0369775770980443,0.11400771830129669,2.4730839303698215,-0.8874920010566711,-0.11376090347766876,0.4465603232383728,0.8529533743858337,0.09489244967699051,0.2008136659860611,0.02979564666748047,0.14829155802726746,-0.2045254409313202
202,-1.9922429604592804,0.07101436549498573,2.557043571082594,-0.9101980328559875,-0.07095469534397125,0.4080497920513153,0.2612210810184479,0.6245705485343933,-0.7360680103302002,-0.4338874816894531,0.12182751297950745,0.5253912806510925
203,-2.035941664385444,-0.025441584888827154,2.627750882209107,-0.893467366695404,0.025438839569687843,0.4484076499938965,0.8888503909111023,-2.8044486045837402,1.8182685375213623,-0.31171780824661255,-0.3976617455482483,0.40690863132476807
204,-2.135794950632723,0.035022009188426566,2.516301554990205,-0.844071626663208,-0.03501484915614128,0.535086452960968,-0.8768982887268066,3.094163656234741,-1.8313493728637695,-0.23293966054916382,-0.12239481508731842,-0.46773403882980347
205,-1.9668930154910909,0.13698053302390734,2.5948870929767804,-0.9139319062232971,-0.13655255734920502,0.3822060823440552,-1.1815227270126343,0.294941782951355,-0.3279959559440613,0.7135841846466064,0.4255082607269287,0.33887845277786255
206,-2.0424376097155648,0.10380727769933945,2.472439497762893,-0.8860283493995667,-0.10362093895673752,0.45190316438674927,-0.1456601619720459,-1.0691651105880737,1.6363948583602905,0.29267507791519165,0.05457920581102371,-0.23925676941871643
207,-2.0355529655962914,-0.011242002090183254,2.486862329800835,-0.8938742280006409,0.011241765692830086,0.4481769800186157,-0.22728422284126282,0.6358627676963806,-0.0870141014456749,-0.33891385793685913,-0.25121673941612244,0.5451396703720093
208,-2.001160004013963,-0.01003246336483259,2.4671054463949513,-0.9087682366371155,0.010032295249402523,0.41718029975891113,-0.23499201238155365,-1.222253441810608,1.6251665353775024,-0.30132991075515747,-0.1300274133682251,0.4754282534122467
209,-2.190732997895264,0.016417548314289328,2.279278557797699,-0.8138054609298706,-0.01641681045293808,0.5809052586555481,-1.9745162725448608,0.46486130356788635,-0.1649184674024582,-0.27852535247802734,-0.21333476901054382,-0.6774782538414001
210,-2.0586332144319512,0.08227019104148016,2.318217579475977,-0.8803612589836121,-0.08217741549015045,0.46713095903396606,0.2679585814476013,1.5749437808990479,-1.082741618156433,0.4789023995399475,0.04212307184934616,-0.08213633298873901
211,-1.9989877658450093,0.13950336176026576,2.3412558098244247,-0.9008805155754089,-0.13905131816864014,0.411192387342453,0.5050885677337646,-0.647903561592102,0.16104698181152344,0.42329561710357666,0.18012797832489014,-0.21331632137298584
212,-1.9989197239072605,0.0920347415165642,2.3842126977922766,-0.9058963656425476,-0.09190487116575241,0.4134072959423065,0.6572610139846802,0.9396548867225647,-0.36882728338241577,-0.49985021352767944,0.05920528620481491,0.42727571725845337
213,-1.9448106837888377,0.08128664150065314,2.409169145145211,-0.9277944564819336,-0.08119715750217438,0.3641487956047058,0.14918985962867737,-1.509831428527832,0.951290488243103,-0.23387229442596436,-0.3887735605239868,0.4609549939632416
214,-2.1417141918464906,0.048554034351893274,2.360759935053308,-0.8404137492179871,-0.04853495955467224,0.5397677421569824,0.5156062245368958,-1.1947630643844604,0.21087832748889923,-0.03878241777420044,-0.40439167618751526,-0.8759951591491699
215,-2.0477829403930587,0.09574417076246142,2.4438467226586287,-0.8843137621879578,-0.09559796005487442,0.45700159668922424,0.33713456988334656,2.548074245452881,-1.6570982933044434,0.3924923539161682,0.09425519406795502,-0.15896695852279663
216,-1.935822071423418,0.13482528524494572,2.4819306753150507,-0.9256373047828674,-0.13441719114780426,0.35373374819755554,-0.2619360089302063,-0.6452842950820923,1.192979335784912,0.5991449952125549,0.23686470091342926,0.02213597297668457
217,-1.959706204529196,-0.01109966805576675,2.4770485712954797,-0.9252661466598511,0.011099440045654774,0.3791566491127014,1.4808846712112427,1.0990196466445923,0.705102801322937,-0.5066492557525635,-0.1823640763759613,0.30791622400283813
218,-1.8693894322644853,-0.024608865572781292,2.4903062825900237,-0.9554621577262878,0.024606382474303246,0.29408684372901917,-0.7413570880889893,-0.22735907137393951,0.6199409365653992,-0.3824286460876465,0.1701415479183197,0.4328419268131256
219,-2.0160165637249388,-0.0657447326932664,2.421111850844303,-0.9005661010742188,0.06569737941026688,0.4297263026237488,-2.4415664672851562,-2.3933472633361816,0.5815157890319824,-0.12790685892105103,-0.07106848806142807,0.012168347835540771
220,-2.1605089044214965,-0.026416082741357295,2.2643633414836737,-0.8308106064796448,0.02641301043331623,0.5559281706809998,0.013469336554408073,1.5070703029632568,0.17761746048927307,0.14619451761245728,-0.052490293979644775,-0.5415085554122925
221,-1.947369173785192,-0.01933585163184908,2.3382276097713413,-0.9297564625740051,0.019334645941853523,0.3676668703556061,0.7280901074409485,0.9074374437332153,-0.41520196199417114,0.4576649069786072,-0.06645378470420837,0.18688330054283142
222,-1.931380050120452,0.017489156759721118,2.3118400526234435,-0.9355480670928955,-0.01748826541006565,0.35276657342910767,0.3439944088459015,0.19505451619625092,0.02705935761332512,0.014344334602355957,0.1924913227558136,-0.043760746717453
223,-1.9426545775299688,-0.03681142599598657,2.413001235693803,-0.9310226440429688,0.03680311143398285,0.36310118436813354,0.3908434212207794,-0.6550427675247192,-0.2974812984466553,-0.46277618408203125,0.047181278467178345,0.5182464122772217
224,-2.004554797357954,-0.02150908011278425,2.453784293481786,-0.9071828126907349,0.021507421508431435,0.4201870560646057,0.3613142967224121,-2.454777717590332,0.8424100875854492,-0.11520200967788696,-0.2160111963748932,0.15874680876731873
225,-2.207671431281347,0.026546113498842356,2.330953021633606,-0.8036747574806213,-0.026542995125055313,0.5944765210151672,-1.282714605331421,1.2377289533615112,-0.8541480302810669,-0.33072465658187866,-0.08615842461585999,-0.7434786558151245
226,-1.994321331477841,0.08490367061689144,2.4889525469439233,-0.9083620309829712,-0.08480170369148254,0.40949615836143494,1.1896426677703857,2.743922710418701,-0.8758265376091003,0.6338869333267212,0.28479862213134766,0.13777554035186768
227,-1.93901020240646,0.07731141812755844,2.443007400050509,-0.9301849603652954,-0.0772344246506691,0.35887444019317627,-0.8602293133735657,-1.5197067260742188,1.111130952835083,0.3462158441543579,0.1291143000125885,0.00997614860534668
228,-1.9781777553966884,-0.03057713866541465,2.456404286037057,-0.9177324175834656,0.030572373420000076,0.3960212767124176,1.1483052968978882,1.3143342733383179,-0.3006150424480438,-0.5375136733055115,0.016790930181741714,0.35460442304611206
229,-1.9650418690193985,-0.03393638513345315,2.413019018180619,-0.9227551221847534,0.03392987325787544,0.3838905990123749,-0.8328735828399658,-2.49259877204895,1.8439102172851562,-0.33661389350891113,0.11957356333732605,0.23911052942276
230,-2.2321214794848045,-0.08052974988716055,2.207872964715461,-0.7866213917732239,0.08044274151325226,0.6121727228164673,-2.2535243034362793,-0.033563438802957535,0.32261285185813904,-0.6215205788612366,-0.19651637971401215,-0.46568846702575684
231,-2.1161657701618135,0.003553245826332505,2.215333041189643,-0.8549302220344543,-0.0035532384645193815,0.518730640411377,0.3078378736972809,1.0471127033233643,-1.1234407424926758,0.4569506049156189,-0.08967795968055725,-0.19471031427383423
232,-2.0529318711957862,0.08811813487222493,2.1840194560730115,-0.8825689554214478,-0.08800414204597473,0.46187323331832886,0.2050185352563858,-0.56355220079422,0.31933194398880005,0.6023872494697571,0.16377931833267212,-0.4088796377182007
233,-2.0377849310238854,0.03623823314875008,2.238294534664854,-0.892341673374176,-0.03623030334711075,0.4499037265777588,1.027073621749878,1.5853458642959595,-0.3165733516216278,-0.30960822105407715,0.04543135315179825,0.29838716983795166
234,-1.9875926274791373,0.04278267373743777,2.309282218425115,-0.9135540127754211,-0.042769622057676315,0.4044627249240875,0.039231542497873306,0.8332532048225403,-0.6865526437759399,-0.29236340522766113,0.2908622622489929,0.5350515246391296
235,-2.1636549222398602,-0.05672117854212172,2.306869066404683,-0.8280132412910461,0.0566907674074173,0.557835578918457,-1.4077564477920532,-3.9287397861480713,0.8534354567527771,-0.4089711308479309,-0.3807111382484436,-0.18668073415756226
236,-2.137638667798598,0.03914101433743895,2.2818267941013084,-0.8429546356201172,-0.03913101926445961,0.5365596413612366,2.0034048557281494,2.4017412662506104,-1.603283166885376,0.1831188201904297,0.04799637198448181,-0.4422602653503418
237,-1.9338509697391537,0.11082716754516979,2.385334696980421,-0.9290813207626343,-0.11060043424367905,0.3529526889324188,-1.2160017490386963,0.3701213598251343,-0.439872145652771,0.7064402103424072,0.32460492849349976,0.2559645473957062
238,-1.9983599160113898,0.07691476003737237,2.292058963323237,-0.9072885513305664,-0.07683894783258438,0.4134291112422943,0.5878795981407166,-0.22201895713806152,1.189111590385437,-0.13194191455841064,0.11696954816579819,-0.10155469179153442
239,-1.96362484613251,-0.005241412130176803,2.318178234977638,-0.92381751537323,0.005241387989372015,0.38279783725738525,-0.1850041151046753,0.2889576554298401,-0.14307107031345367,-0.5054734945297241,0.0185775775462389,0.5743098258972168
240,-2.0598293278524245,-0.07851558057903416,2.279287402454909,-0.8800678849220276,0.07843493670225143,0.4683251976966858,-0.6804574131965637,-2.51649808883667,0.8455681800842285,-0.4063395857810974,-0.25070667266845703,0.25793206691741943
241,-2.2439808751548,0.015915218541771706,2.098047194778986,-0.7817410826683044,-0.015914546325802803,0.6233999729156494,-0.09859210252761841,0.2979295551776886,-0.43657392263412476,0.16012859344482422,-0.04954564571380615,-0.8817008137702942
242,-2.1067251490606957,0.060675551427919416,2.163104151095037,-0.8582125306129456,-0.06063832715153694,0.5097001791000366,0.017719978466629982,1.280407428741455,-0.9622928500175476,0.5154848694801331,0.07962027192115784,-0.0902666449546814
243,-2.0765542287476966,0.08555931923143138,2.16806381904865,-0.8716074824333191,-0.08545497059822083,0.4826984107494354,0.5896351337432861,0.1033288910984993,0.49249178171157837,0.12588006258010864,0.18947413563728333,-0.19410890340805054
244,-2.030794112295441,-0.03631696483452662,2.311325321514607,-0.8954627513885498,0.036308981478214264,0.4436534345149994,0.6444624066352844,0.6515932083129883,-0.3820626139640808,-0.47921693325042725,0.13779380917549133,0.814555823802948
245,-2.0846188485018544,-0.09376063314524596,2.2838582499402884,-0.8670468330383301,0.0936233177781105,0.4893508553504944,-0.07107564061880112,-2.297508955001831,1.035614252090454,-0.32936418056488037,-0.3144179880619049,0.15765231847763062
246,-2.1970383563783695,-0.06216901631625783,2.170676605424118,-0.8086705207824707,0.06212897598743439,0.5849717855453491,0.1027023196220398,0.9109811186790466,-0.7581480145454407,-0.0605463981628418,-0.2893933653831482,-0.6021379232406616
247,-2.082451886382407,-0.02186084599146855,2.2609558200828745,-0.871726930141449,0.021859105676412582,0.4895045757293701,-0.44464877247810364,0.8351436853408813,-0.44564902782440186,0.5867688655853271,0.18491274118423462,-0.006991028785705566
248,-2.0618372319025893,-0.01127894634089544,2.1797173892705577,-0.8817864656448364,0.011278707534074783,0.47151410579681396,0.21039636433124542,-0.10966090112924576,1.1578413248062134,0.24737179279327393,0.07450619339942932,-0.26666486263275146
249,-2.031265100493121,-0.12724095748557773,2.2135689140414883,-0.8886022567749023,0.1268978863954544,0.4407758116722107,0.16919897496700287,0.9485446810722351,0.07816556841135025,-0.493386447429657,-0.10835841298103333,0.5510607957839966
250,-2.0572575291491573,-0.15016386104809712,2.168414476185233,-0.8740450143814087,0.14960014820098877,0.46223965287208557,-1.0970247983932495,-1.8122248649597168,1.002912998199463,-0.49543148279190063,-0.0055114030838012695,0.3804270029067993
251,-2.2423554690202923,-0.02506685291178495,1.9409187668741157,-0.7826067209243774,0.02506422810256481,0.6220120191574097,-2.1572842597961426,-0.05114569142460823,-0.36112043261528015,-0.02246236801147461,-0.13865065574645996,-0.7309901118278503
252,-2.2033793117485394,0.012397268159285546,1.9562539124560248,-0.806441068649292,-0.012396950274705887,0.5911844372749329,-0.0744248703122139,1.150834560394287,-0.63661128282547,0.38735848665237427,-0.03965076804161072,-0.3294505476951599
253,-2.1318874420429257,0.029463618718530586,1.9904351215594016,-0.8463077545166016,-0.029459355399012566,0.5318795442581177,0.9271902441978455,0.10504598915576935,-0.011395588517189026,0.134973406791687,0.008448000997304916,-0.15198129415512085
254,-2.033388731039312,0.009319522546327227,2.09522901824565,-0.8948596715927124,-0.009319387376308441,0.44625014066696167,1.288996934890747,0.27583298087120056,-0.08929011970758438,-0.3427806496620178,0.24998101592063904,0.47945472598075867
255,-1.9983816624846715,0.034990605323411875,2.109802228337546,-0.909412682056427,-0.03498346731066704,0.4144209027290344,0.8282424807548523,-0.24800749123096466,0.6365842223167419,-0.06592905521392822,-0.02014651522040367,0.26721975207328796
256,-2.277685516436838,-0.05378144194151685,1.9995403725343175,-0.7592867612838745,0.053755518049001694,0.6485326886177063,-2.850247859954834,-2.269972085952759,0.7138639688491821,-0.5796874165534973,-0.2575671672821045,-0.4411197304725647
257,-2.157925509390477,0.028336205021632324,1.9995491819255895,-0.832200288772583,-0.028332412242889404,0.5537508726119995,1.7903727293014526,3.0278706550598145,-1.1751177310943604,0.266373872756958,-0.026355087757110596,-0.3284701108932495
258,-1.9817175119094224,0.054401391054815396,2.0614161123300367,-0.9153972268104553,-0.054374560713768005,0.39886313676834106,-1.3138538599014282,0.02815447747707367,0.01096812728792429,0.458976149559021,0.1682966947555542,0.310838520526886
259,-2.013285831775312,0.07125752313189077,1.9383347225300842,-0.9013952016830444,-0.07119723409414291,0.4271039068698883,-0.02832356095314026,-0.04795026034116745,0.5832803249359131,-0.052797913551330566,0.05052158236503601,-0.07955443859100342
260,-1.9846868790649972,0.030340653394837887,1.930135937574342,-0.9151417016983032,-0.03033599816262722,0.40198931097984314,-0.4053603708744049,0.38178789615631104,0.4309622049331665,-0.18326222896575928,0.00985872745513916,0.402377724647522
261,-2.062958448503114,-0.040597309418726316,1.8706302245154658,-0.8805872797966003,0.04058615863323212,0.4721432626247406,-0.7525599002838135,-1.5964738130569458,0.28026294708251953,-0.5949530005455017,-0.1683022379875183,0.11997419595718384
262,-2.1707534952802794,0.05951802814510064,1.7003912428900814,-0.8238983750343323,-0.05948289483785629,0.563607394695282,-0.2231181561946869,-0.3409055471420288,0.2946939468383789,0.0834503173828125,0.1780589520931244,-0.889565646648407
263,-2.022112061951886,0.09164870997413956,1.6661441279771803,-0.8960976004600525,-0.09152046591043472,0.43431955575942993,-0.15181539952754974,0.9916976094245911,-0.44375890493392944,0.42775946855545044,-0.08407769352197647,-0.02369016408920288
264,-2.0377436077565356,0.11695398581867546,1.6150774679172144,-0.8868467211723328,-0.11668755114078522,0.4470873177051544,-0.3250807523727417,-0.5287197828292847,0.5102057456970215,0.2878934144973755,0.16595815122127533,-0.19823163747787476
265,-2.0363094930087198,0.05554338263366642,1.6706843499809074,-0.8922132253646851,-0.055514827370643616,0.4481891393661499,1.2201142311096191,0.8145014047622681,-0.2342851758003235,-0.25553756952285767,0.08018830418586731,0.3263164460659027
266,-2.0244274517551126,0.05557731311181211,1.699187396777479,-0.8974738717079163,-0.05554870516061783,0.4375556409358978,-0.5778895020484924,-0.31226953864097595,0.28635650873184204,-0.5000175833702087,0.23212343454360962,0.2734428644180298
267,-2.130918498458756,0.026952211291185368,1.5939789752132123,-0.8468825221061707,-0.026948947459459305,0.5310967564582825,-1.7562116384506226,-1.3842976093292236,1.1003077030181885,-0.12180638313293457,-0.1674174964427948,-0.29696589708328247
268,-2.131064087963868,0.047205208440044374,1.4919735489450239,-0.8461692929267883,-0.0471876785159111,0.5308210849761963,0.6020120978355408,2.0954065322875977,-0.8715758323669434,0.10305094718933105,-0.1047135591506958,-0.4566786289215088
269,-1.96122317315643,0.06213681272686753,1.5776129747771874,-0.9229621887207031,-0.06209683418273926,0.37984874844551086,-0.4891503155231476,0.41784852743148804,-0.0032173916697502136,0.5731543302536011,0.12595486640930176,0.2311132550239563
270,-1.9895997142883604,0.03965372738674387,1.493235662477738,-0.9128581285476685,-0.039643336087465286,0.4063479006290436,0.38869696855545044,-0.3535975515842438,0.9855920672416687,-0.11175429821014404,0.037171393632888794,-0.12326681613922119
271,-1.9590181594873635,-0.030150063625337856,1.5561316977880044,-0.9251629710197449,0.030145496129989624,0.37837114930152893,0.5225278735160828,0.7779077887535095,0.008915182203054428,-0.36408257484436035,0.060705333948135376,0.49907028675079346
272,-2.056183677126961,-0.07256736759796777,1.5230248380517593,-0.8821665644645691,0.07250369340181351,0.46532315015792847,-1.0809097290039062,-1.9973900318145752,0.39660364389419556,-0.45424413681030273,-0.07193910330533981,0.12799960374832153
273,-2.2090346193824173,0.04348127934739342,1.3215500134665954,-0.8023872971534729,-0.043467581272125244,0.5952182412147522,-0.8865810632705688,-0.13018092513084412,-0.006504414603114128,0.142139732837677,-0.02151959016919136,-0.9978978037834167
274,-2.11984398577623,0.041862852879617,1.3484552316725942,-0.8522745966911316,-0.04185062646865845,0.5214179158210754,0.14888446033000946,1.0840442180633545,-0.34941941499710083,0.5024668574333191,-0.05028194189071655,-0.22402405738830566
275,-2.0609000023499258,0.08214853284598048,1.333643700358914,-0.8793087005615234,-0.08205617219209671,0.4691299498081207,0.053691789507865906,0.7152225375175476,-0.14605233073234558,0.024908125400543213,0.1305028200149536,-0.23284760117530823
276,-1.949517499688379,0.016281299318948516,1.461359845442791,-0.9290151596069336,-0.016280580312013626,0.3696835935115814,1.1731088161468506,0.6289278268814087,0.13367705047130585,-0.5382394790649414,0.2501062750816345,0.7782809734344482
277,-2.0007383496796973,-0.013496095373028443,1.4518609494545445,-0.9089072346687317,0.013495685532689095,0.41678017377853394,-0.035593461245298386,-2.370786666870117,1.2798140048980713,-0.18798625469207764,-0.15055012702941895,0.16163474321365356
278,-2.2460240806414107,-0.03323950027013805,1.3002259706692254,-0.7801333665847778,0.03323337808251381,0.6247297525405884,-1.8950754404067993,0.12709343433380127,0.009794104844331741,-0.4078701138496399,-0.2918393313884735,-0.7608078122138977
279,-2.049126080599715,0.02666786903511219,1.4262397088665766,-0.8874492645263672,-0.02666470780968666,0.46013331413269043,2.4013633728027344,3.100337505340576,-1.3468356132507324,0.561674177646637,0.15125271677970886,-0.09904935956001282
280,-1.8810488197483792,0.04220671638733781,1.4850956152240258,-0.9514085054397583,-0.0421941876411438,0.30502718687057495,-0.8385002017021179,-0.2446867823600769,0.5080329179763794,0.4969559907913208,0.1913946270942688,0.24415183067321777
281,-1.941098544957571,-0.03123643413607131,1.4491834381193678,-0.9317631721496582,0.031231354922056198,0.36172059178352356,0.5306553244590759,0.5036566257476807,0.28697469830513,-0.5446008443832397,-0.0508541539311409,0.20232051610946655
282,-1.8931559145306436,-0.03496064332952066,1.4495612186556142,-0.9479109644889832,0.034953523427248,0.3166119158267975,-0.42169320583343506,-0.6862540245056152,0.6212930083274841,-0.35103923082351685,0.2524305284023285,0.4259112775325775
283,-2.1478938505916565,-0.07465728200775774,1.2979567162114045,-0.8357155323028564,0.07458794862031937,0.5440741777420044,-2.8498802185058594,-2.700253486633301,0.9189850687980652,-0.3727959990501404,-0.10515128076076508,-0.3822544813156128
284,-2.1595809618154402,0.009838216588799152,1.2078493460341626,-0.8315760493278503,-0.009838057681918144,0.5553238987922668,0.6575244069099426,1.7373642921447754,-0.8034889101982117,0.31479138135910034,-0.1786080002784729,-0.49752354621887207
285,-2.050230528614896,0.05556553464190313,1.3074691842849542,-0.8858867287635803,-0.055536944419145584,0.46056532859802246,-0.8394560217857361,0.3632506728172302,-0.5882734656333923,0.5342631936073303,0.08845016360282898,0.11797162890434265
286,-2.0203318446814733,0.08464025481267433,1.3019338025960736,-0.8974248170852661,-0.08453923463821411,0.432991623878479,0.9122201204299927,1.062950611114502,0.08458711206912994,-0.1701257824897766,0.08276922255754471,0.03232511878013611
287,-1.9813072450517966,0.05014856533996008,1.4106661525833397,-0.915764331817627,-0.0501275472342968,0.39857614040374756,0.15374065935611725,0.3749541938304901,-0.25740551948547363,-0.508948802947998,0.3977380096912384,0.7236620187759399
288,-2.164416963936745,-0.024256785394889995,1.358926096071029,-0.828677237033844,0.02425440587103367,0.5592014789581299,-1.8283876180648804,-3.1761319637298584,1.2068458795547485,-0.15836822986602783,-0.3188405930995941,-0.16232025623321533
289,-2.2103936005829845,0.053327465768306034,1.215419869478605,-0.801195502281189,-0.05330219492316246,0.5960237979888916,0.6813745498657227,1.7048925161361694,-0.8359007239341736,-0.034284114837646484,0.052325643599033356,-0.6625369191169739
290,-2.030101976446614,0.06863808425818174,1.2977685415214113,-0.8942499160766602,-0.06858420372009277,0.44228193163871765,-0.30379199981689453,0.6748009920120239,0.04301676154136658,0.6665430068969727,0.20122885704040527,0.21448683738708496
291,-2.0163703890845786,0.05980668427088675,1.1458215685885322,-0.9007500410079956,-0.059771038591861725,0.43020540475845337,-1.4697105884552002,0.4400272071361542,1.2560703754425049,-0.02004152536392212,0.07045218348503113,-0.0056143105030059814
292,-1.9691694495580183,-0.01963509327484574,1.1137115370262671,-0.9215156435966492,0.019633831456303596,0.38784462213516235,0.5562264919281006,0.6175881028175354,0.6252043843269348,-0.39931559562683105,-0.03937870264053345,0.45058009028434753
293,-2.010014829580837,-0.0396037331662156,1.0914062299644671,-0.9043745994567871,0.03959337994456291,0.4248988628387451,-0.9664487838745117,-1.351454734802246,-0.2670987546443939,-0.3635239601135254,-0.11446824669837952,0.09589886665344238
294,-2.124637986005792,0.03598638993931004,0.9909846997022752,-0.8499597311019897,-0.03597862273454666,0.5256180167198181,-0.11747501790523529,0.3086528182029724,0.1108044683933258,0.1287529468536377,0.07063132524490356,-0.5789780020713806
295,-2.0099833644729785,0.029614063850046488,1.0640431393954572,-0.9047008752822876,-0.029609736055135727,0.425017386674881,0.9194239974021912,0.9725108742713928,-0.6221395134925842,0.4948955774307251,-0.06302636861801147,0.012024879455566406
296,-1.9734428087010103,0.09375445644332174,1.016627379535196,-0.9159867763519287,-0.09361717104911804,0.39013367891311646,-0.9881770014762878,-0.25214070081710815,0.016673436388373375,0.10350203514099121,0.21378013491630554,-0.10783076286315918
297,-1.9507255888681687,0.09665182143996384,1.0536439755658868,-0.9243564605712891,-0.0965014100074768,0.3691239058971405,0.9324585199356079,0.008733795024454594,-0.10127424448728561,-0.3427485227584839,0.0478716641664505,0.4195265471935272
298,-1.9799663874776026,0.07914950848288749,1.0416330268750091,-0.9145790338516235,-0.07906689494848251,0.39660248160362244,-0.037132032215595245,-1.6278398036956787,1.1086317300796509,-0.2487967610359192,-0.3292430341243744,0.1291237771511078
299,-2.1568655844418587,0.09494023471550099,0.8510523117876791,-0.8293694257736206,-0.09479767084121704,0.5505998134613037,-1.3048136234283447,-0.9177588224411011,-0.03330344706773758,-0.36225056648254395,-0.11287447810173035,-0.6840378642082214
300,-2.1228549682072124,0.1607598700994422,0.7780176224115309,-0.8404681086540222,-0.1600683182477951,0.51767897605896,-1.3054312467575073,0.4706647992134094,-0.3782254159450531,0.6441943049430847,0.1920507401227951,-0.07006239891052246
301,-1.9866831836074648,0.3086461568606857,0.5480203644740266,-0.8715319633483887,-0.303769052028656,0.3849104940891266,-5.075930595397949,2.2565579414367676,-0.512124240398407,0.0950276255607605,0.2574129104614258,0.5804978013038635
302,-1.7963390240130006,0.4597705910332327,0.265175445134488,-0.8734573721885681,-0.4437425434589386,0.20041179656982422,-1.7562916278839111,0.8950075507164001,-0.2981979548931122,-0.2830825448036194,-0.3455335795879364,0.22788715362548828
303,-1.7224677983778471,0.5426481892354159,0.13742472294337438,-0.8465132117271423,-0.5164055824279785,0.1293855756521225,-1.0497422218322754,-0.6107349991798401,-0.8014411330223083,-0.7390427589416504,-0.3617072105407715,0.3622220754623413
304,-1.6796455721123624,0.7250721652494201,-0.04447236990866948,-0.7440218925476074,-0.6631894707679749,0.08130759000778198,-0.47010868787765503,-1.090687870979309,-2.1065144538879395,-0.2118496298789978,0.36378157138824463,-0.5245143175125122
305,-1.622476215357134,0.8750829719427281,-0.07837630737440994,-0.6400772929191589,-0.7675966620445251,0.033108603209257126,-0.12071307003498077,1.5940128564834595,-1.3365139961242676,0.3505418300628662,0.2944675087928772,-0.09924019128084183
306,-1.5362314475485082,0.9858083667942276,-0.07038281638551742,-0.5518594980239868,-0.8337187170982361,-0.019082557410001755,-0.13325676321983337,0.5033677816390991,-0.04760368913412094,0.4357096552848816,0.6061949729919434,0.013803007081151009
307,-1.196654154785919,0.8440592269810151,-0.3027314743957507,-0.6184699535369873,-0.7473463416099548,-0.24283367395401,-1.1001391410827637,1.3829772472381592,1.8068821430206299,-0.08271712064743042,-0.4365983009338379,-0.1077980250120163
308,-1.2066911016758883,0.8035541501253636,-0.25413776120539505,-0.6486461162567139,-0.7198277711868286,-0.24719709157943726,1.580389380455017,-0.7616873979568481,-0.15078413486480713,-0.1773732304573059,-0.6233577132225037,-0.029368489980697632
309,-1.4149153454336874,0.9438132144507924,-0.2112555111363399,-0.5795905590057373,-0.8098012208938599,-0.09108611196279526,-0.9247150421142578,-1.2689305543899536,-1.459169864654541,-0.09028548002243042,0.5595723986625671,-0.37352877855300903
310,-1.3891227413511682,0.9333320511518833,-0.25844911377721086,-0.5853649377822876,-0.8036075234413147,-0.10753098130226135,1.0226025581359863,1.551769495010376,1.537818431854248,0.2945476770401001,0.09941446781158447,-0.16729509830474854
311,-1.3481859591744851,0.9062594654812826,-0.17151854435758018,-0.6014771461486816,-0.7872024774551392,-0.136151522397995,0.6688612103462219,-1.523632526397705,-0.7186790108680725,0.2801119089126587,0.3467118740081787,0.41857650876045227
312,-1.388355459328208,0.8785828688758686,-0.2714903296534287,-0.627650260925293,-0.7698351740837097,-0.11579667776823044,-1.5570662021636963,0.5803150534629822,1.852418065071106,0.35822588205337524,0.03895449638366699,-0.28586041927337646
313,-1.2914624780807105,0.714162380585165,-0.2681365079275305,-0.7263530492782593,-0.654984712600708,-0.20834219455718994,1.1872661113739014,0.6269098520278931,0.3781183063983917,-0.4719196557998657,-0.5601489543914795,-0.03070199489593506
314,-1.3978436311302378,0.7766377830338844,-0.222963340444497,-0.7026328444480896,-0.7008851766586304,-0.12274860590696335,-0.8272135257720947,-1.811977744102478,-2.0488057136535645,-0.6239967942237854,0.0998719334602356,-0.20378948748111725
315,-1.5253597665764724,0.8678222664583952,-0.24071807928272768,-0.6458224654197693,-0.7629228830337524,-0.02936416119337082,0.06934460997581482,0.6737406849861145,0.964840829372406,0.3127840757369995,0.1667313575744629,-0.3586515784263611
316,-1.4767219841574923,0.8263748087257056,-0.1867689304526619,-0.6745504140853882,-0.7354799509048462,-0.06364575028419495,0.7301704287528992,-0.7518350481987,-0.7371059656143188,0.24721282720565796,0.29038113355636597,0.30450570583343506
317,-1.6706836268241347,0.8537632660275352,-0.11807433869852417,-0.6538756489753723,-0.7537587881088257,0.06553196161985397,0.7105099558830261,-0.4002116620540619,1.092481017112732,0.2799437642097473,0.2925924062728882,-0.35906529426574707
318,-1.650628067273568,0.7094350939589105,0.01450918581075983,-0.7563135027885437,-0.6514052748680115,0.060506414622068405,1.0790557861328125,0.8451868891716003,0.5584882497787476,-0.4813116192817688,-0.381263792514801,0.43905115127563477
319,-1.7277570305995613,0.6728836561391932,0.12030438358476549,-0.7724140882492065,-0.6232436895370483,0.1222442090511322,0.6269581913948059,-2.4400041103363037,-0.26219987869262695,-0.5842447876930237,-0.3135696053504944,-0.07198167592287064
320,-1.9220050940693576,0.7211484983175491,0.15839288042842234,-0.7052021622657776,-0.6602476835250854,0.2583853304386139,0.3954896628856659,1.328853726387024,0.7123860716819763,0.07068067789077759,0.17857348918914795,-0.586983323097229
321,-1.7245619614762238,0.6522073301045608,0.16966256586942663,-0.7853692173957825,-0.6069421768188477,0.12172365188598633,0.5117631554603577,0.11304496228694916,-0.29147636890411377,0.2928764224052429,0.12474912405014038,0.40356016159057617
322,-1.8673924130779986,0.6478764043089958,0.17321981466010467,-0.7625516057014465,-0.6034944653511047,0.23304380476474762,-0.39411792159080505,-0.8873271346092224,0.6851786971092224,0.23453646898269653,0.3535860776901245,-0.24204647541046143
323,-1.8981488051662894,0.4935824206967005,0.23387617819671913,-0.8338766098022461,-0.4737837612628937,0.2831589877605438,2.3207952976226807,0.35207128524780273,1.8282639980316162,0.05547994375228882,-0.0325486958026886,-0.09193584322929382
324,-1.9625672483761032,0.21626075606161743,0.45309822970424407,-0.9027059078216553,-0.21457898616790771,0.3729317784309387,0.6916592121124268,0.9089239835739136,1.5707314014434814,-0.8470195531845093,-0.07544484734535217,0.864113450050354
325,-2.1212445899529646,0.04498952022381867,0.5698635698167948,-0.8514278531074524,-0.044974345713853836,0.5225401520729065,0.7705199122428894,-0.7723032236099243,1.2441012859344482,-0.14683270454406738,0.14456845819950104,-0.14650243520736694
326,-1.9829443565412512,-0.01615366267449816,0.682455484107732,-0.9161427021026611,0.016152959316968918,0.4005260467529297,0.9011373519897461,2.020352363586426,-0.9757949113845825,0.2177940011024475,-0.2462707757949829,0.14007747173309326
327,-1.8852214076218339,0.05760324840684411,0.7097557269705678,-0.9493969082832336,-0.057571396231651306,0.3087567687034607,0.30588197708129883,-0.39620810747146606,-0.19858959317207336,0.616816520690918,0.2474822849035263,-0.20325762033462524
328,-1.8735479332526987,0.021101146772739773,0.8353073674039535,-0.9543073773384094,-0.021099580451846123,0.2980814576148987,3.1639366149902344,0.5813319683074951,-0.3477994501590729,-0.2537310719490051,-0.05815458297729492,-0.23758038878440857
329,-1.7608656409604908,0.010556739228775522,1.1299113943988184,-0.9819364547729492,-0.010556543245911598,0.18891644477844238,0.9400258660316467,1.2055633068084717,-0.7895017266273499,-0.4683809280395508,0.30111441016197205,0.7948024272918701
330,-1.967498866903777,-0.10982065267639038,1.1341288656853303,-0.9167835712432861,0.10960003733634949,0.3840513825416565,-0.9852909445762634,-2.945321798324585,1.0973302125930786,-0.3627268075942993,-0.2683982849121094,-0.215975821018219
331,-1.9735858723554465,-0.10350730121984543,1.1330520653351808,-0.9150473475456238,0.1033225730061531,0.3898882269859314,1.7190427780151367,1.5698120594024658,-0.9885706305503845,0.19742655754089355,-0.1887717843055725,-0.21001756191253662
332,-1.8655512583403175,-0.03556537660095424,1.1930023459164527,-0.9562681913375854,0.035557880997657776,0.29032161831855774,-0.927168607711792,-0.3077511191368103,-0.318578839302063,0.6508635878562927,0.16724666953086853,0.09615299105644226
333,-1.9239133224226128,-0.0774693142896567,1.1476897501146133,-0.9354851841926575,0.0773918479681015,0.34478697180747986,0.6502876877784729,0.583716630935669,0.7565986514091492,-0.1651923656463623,-0.0458061620593071,0.008118301630020142
334,-1.8593624380508467,-0.09703748155993323,1.1885836803050056,-0.9541431069374084,0.09688526391983032,0.2832391560077667,-0.14770998060703278,0.20228488743305206,-0.15080328285694122,-0.26947450637817383,0.12802928686141968,0.47046875953674316
335,-1.9952951668925876,-0.15309044524389065,1.1342301281311344,-0.9005878567695618,0.1524931639432907,0.40704721212387085,-1.0118809938430786,-2.200634479522705,0.6258464455604553,-0.5164806842803955,-0.2694975435733795,-0.19742202758789062
336,-2.004682145771272,-0.045898573750994036,1.0509063655244921,-0.9063834547996521,0.0458824597299099,0.4199569821357727,-0.060310378670692444,2.1522018909454346,-1.288786768913269,0.0980491042137146,-0.1853172779083252,-0.4763381779193878
337,-1.8606458130027614,0.03006145723290489,1.1368321017848888,-0.9578539729118347,-0.03005692921578884,0.2856788635253906,-0.3249078691005707,-0.18450583517551422,-0.6099639534950256,0.6210619211196899,0.1929597556591034,0.30863574147224426
338,-1.9353158291098713,0.04379397392756746,1.094314888503697,-0.9333992600440979,-0.04377997666597366,0.3561585545539856,0.5678446292877197,-0.646419882774353,0.5082448124885559,0.08301180601119995,0.12144720554351807,-0.3762390911579132
339,-1.8601985870637752,0.0013060179249099332,1.1845606830624944,-0.9584138989448547,-0.00130601751152426,0.28537917137145996,0.6166315078735352,0.04314540699124336,0.06634782254695892,-0.38118577003479004,0.04891344904899597,0.39877915382385254
340,-1.8803717332074172,-0.03581222946812712,1.2338112964853514,-0.9518522024154663,0.03580457344651222,0.304458886384964,0.5183421969413757,-2.035973072052002,1.6473115682601929,-0.21605539321899414,-0.2195204198360443,0.1690060794353485
341,-2.0098099073269076,-0.06531117517428636,1.1521066314662565,-0.9032415151596069,0.0652647539973259,0.4241405725479126,-0.7407320737838745,1.013791561126709,-0.24064885079860687,-0.3477197289466858,-0.2512693703174591,-0.6621929407119751
342,-1.8200836114277608,-0.03919160173508805,1.2812248460440963,-0.9683444499969482,0.03918156772851944,0.246523916721344,0.6626418232917786,1.6611112356185913,-0.8310726284980774,0.5320804119110107,0.09002983570098877,0.4037904739379883
343,-1.8305358999303183,0.022020216892679356,1.2187248892306148,-0.9662225246429443,-0.022018438205122948,0.25676658749580383,-1.3723559379577637,-0.6728411316871643,-0.6134731769561768,0.1921900510787964,0.05422976613044739,-0.06403282284736633
344,-1.800275072915792,0.05258569902524995,1.1751337267138189,-0.9724389910697937,-0.05256146565079689,0.22715553641319275,0.45836925506591797,-0.1480385661125183,0.3123330771923065,-0.09175467491149902,-0.05876666307449341,0.19883930683135986
345,-1.8578256430697047,-0.004677418051534888,1.1362528729849048,-0.9590786695480347,0.004677400924265385,0.28310123085975647,-0.05056961625814438,-1.799483299255371,1.4864935874938965,-0.6053744554519653,0.131522536277771,0.18955504894256592
346,-2.0717469284812005,-0.03487842577099513,0.9607073986746224,-0.8765928149223328,0.03487135469913483,0.4799673855304718,-2.4000988006591797,-2.340958595275879,1.126457929611206,-0.1873871088027954,0.11081954091787338,-0.4056418836116791
347,-2.218906357136411,0.05640215367399688,0.7230037011699699,-0.795958399772644,-0.056372255086898804,0.6027207970619202,-4.274025917053223,-1.7384668588638306,0.5870924592018127,0.38381850719451904,-0.07288496196269989,0.13839852809906006
348,-2.042070192022903,0.5338350735272752,0.18987426880353656,-0.7670199871063232,-0.5088385343551636,0.3908499777317047,-10.242010116577148,4.214555740356445,-2.7509212493896484,-0.08831137418746948,0.6343573927879333,0.1766701638698578
349,-1.016311055647919,0.7239551819945349,-0.8353430713979293,-0.63694167137146,-0.6623530387878418,-0.39445385336875916,-4.560002326965332,3.704275369644165,-0.27821436524391174,0.31942152976989746,0.2273859977722168,-0.09288132190704346
350,-0.41878034909047746,0.2347919601226743,-1.2309324897977596,-0.39548924565315247,-0.23264065384864807,-0.8885193467140198,-5.530553340911865,2.7273871898651123,-0.007669929414987564,-0.44885584712028503,-0.09287509322166443,-0.4258880019187927
351,-0.17754195811746326,0.11389368239321171,-1.3970002101947012,-0.17546646296977997,-0.11364760994911194,-0.9779037237167358,0.32108691334724426,3.4334216117858887,0.02010136842727661,0.029729783535003662,0.32424941658973694,-0.2875991463661194
352,0.056214487273522386,0.2579178637152891,-1.3830186296833462,0.05432646721601486,-0.2550678551197052,-0.9653958082199097,2.3484392166137695,1.7464641332626343,0.6550754308700562,0.19420868158340454,0.3251972198486328,0.25659453868865967
353,0.19284566038901588,0.4551285536867692,-1.35974984666709,0.17214320600032806,-0.43957778811454773,-0.881554365158081,2.155747652053833,0.9739635586738586,0.441927433013916,-0.15102505683898926,0.17541763186454773,0.6045310497283936
354,0.22529286464544962,0.4945233166992123,-1.364094970628749,0.1966283917427063,-0.47461211681365967,-0.8579514026641846,-1.0801317691802979,-0.27574464678764343,-0.13140572607517242,0.1424219012260437,-0.14150723814964294,0.19370579719543457
355,0.21207969148530303,0.46713726188505605,-1.3808044414201905,0.18794141709804535,-0.4503321051597595,-0.8728567957878113,0.3559423089027405,-0.2690380811691284,0.22554057836532593,0.44485580921173096,-0.3409428894519806,-0.5041115283966064
356,0.26694338281233027,0.48063315727591793,-1.412809280334475,0.23389817774295807,-0.46234068274497986,-0.8552969098091125,1.2689073085784912,0.2001481056213379,-0.24874937534332275,-0.3397178649902344,0.40833985805511475,-0.2899820804595947
357,0.2565996686093495,0.4854799476503196,-1.4190374044536893,0.22446751594543457,-0.4666329026222229,-0.855492889881134,-0.8992769122123718,0.08811868727207184,0.17755267024040222,0.07463523745536804,0.05601891875267029,0.18482333421707153
358,0.2665825499487192,0.5193354584982707,-1.4014374774054261,0.22870196402072906,-0.4963033199310303,-0.8374834060668945,0.658460795879364,0.04593673720955849,-0.1281166821718216,-0.23282182216644287,0.20562338829040527,0.5238542556762695
359,0.21177000714098612,0.4774277659973602,-1.3719986702791795,0.18668712675571442,-0.45949608087539673,-0.8683382272720337,-0.9163811206817627,-1.231388807296753,0.5588076114654541,0.08354601263999939,-0.0047067999839782715,0.2581239938735962
360,-0.10989575181913006,0.34885369137559785,-1.2069793731512248,-0.10306844860315323,-0.34182077646255493,-0.9340960383415222,-1.2762808799743652,-3.3265888690948486,2.348226308822632,-0.020481958985328674,0.06365305185317993,-0.2873852252960205
361,-0.6524232872649566,0.3645621200716753,-0.8324496658946575,-0.5672142505645752,-0.3565402328968048,-0.7423928380012512,0.45541054010391235,-2.1677167415618896,1.4966230392456055,-0.9067389369010925,0.3932376205921173,-0.23540562391281128
362,-1.082071817386443,0.5057039929906499,-0.519881913844414,-0.7724189758300781,-0.48442342877388,-0.41073447465896606,5.639385223388672,-3.508326768875122,1.8555299043655396,0.4191780090332031,0.2066372036933899,-0.13096779584884644
363,-1.6652587828546421,0.4039855818112955,0.1262693048114119,-0.9154022932052612,-0.39308619499206543,0.0867292657494545,7.143421649932861,-2.798349380493164,0.9475327134132385,-0.05270683765411377,0.35606837272644043,0.04850935935974121
364,-2.0410517983578953,0.28898938777906424,0.5252187087181013,-0.8544862866401672,-0.28498366475105286,0.4343245327472687,4.956937313079834,-2.157925844192505,0.11352255195379257,0.24512642621994019,0.24486827850341797,-0.2345563769340515
365,-2.1217616601339353,0.14051799433137338,0.7392222911788373,-0.8436216711997986,-0.14005602896213531,0.5183500051498413,0.4759743809700012,0.876931369304657,0.7647404074668884,-0.07210409641265869,-0.14722122251987457,0.6104035973548889
366,-2.1912979091145033,0.02237038649309014,0.90543745546943,-0.813383162021637,-0.022368520498275757,0.5812976956367493,1.5941089391708374,-1.1615593433380127,0.2978494167327881,-0.3357560634613037,-0.47265711426734924,0.39070218801498413
367,-2.2143910384531584,0.047634910869734065,0.8661027362473965,-0.7990363836288452,-0.04761689901351929,0.5993941426277161,0.7567599415779114,1.1991567611694336,-0.21613961458206177,-0.09097814559936523,0.07177156955003738,-0.5142653584480286
368,-2.072437694188252,0.0054753589771537724,1.0361880420805645,-0.8767814636230469,-0.00547533156350255,0.4808582067489624,0.9096675515174866,1.599711537361145,-1.417454481124878,0.4223440885543823,-0.08421581983566284,0.07323426008224487
369,-1.9615094201373222,0.16541636180272123,1.0665992109743103,-0.9120164513587952,-0.16466301679611206,0.3756493031978607,-0.21204590797424316,0.1423502415418625,-1.672587275505066,0.35380399227142334,0.13489307463169098,-0.25466230511665344
370,-1.8846443144501834,0.23802101181038499,1.1080485785340204,-0.9243362545967102,-0.23577989637851715,0.30001696944236755,0.5026028752326965,0.6666931509971619,-0.4062581956386566,-0.4421340227127075,0.13801686465740204,0.37651190161705017
371,-1.9410850867574978,0.18805764611955922,1.150348050754435,-0.9157872200012207,-0.186951145529747,0.3555043935775757,0.45542946457862854,-2.0367305278778076,1.5518841743469238,-0.31776392459869385,-0.4279017448425293,-0.0850881040096283
372,-2.0138108658516956,0.1320139911974787,1.1234553076710068,-0.8956022262573242,-0.13163088262081146,0.424934983253479,-0.5232442021369934,1.681013822555542,-0.6524450778961182,-0.36840522289276123,-0.35478878021240234,-0.2823874354362488
373,-1.839064895423715,0.21103098349766605,1.192369414697128,-0.9428404569625854,-0.20946812629699707,0.2591820955276489,0.03146233409643173,1.0957624912261963,-0.4337196350097656,0.7046201229095459,0.35410618782043457,0.30214300751686096
374,-1.8916400359669943,0.17673702747617745,1.1775666480649738,-0.9341871738433838,-0.17581836879253387,0.31045469641685486,-0.5233052372932434,-0.7081050276756287,0.454430490732193,0.39370566606521606,-0.01346684992313385,-0.19773808121681213
375,-1.8199718195256673,0.1903659899817422,1.1234841972833653,-0.9516091346740723,-0.18921828269958496,0.24215011298656464,-0.3704719543457031,1.3102059364318848,-0.2463328093290329,-0.36081457138061523,-0.001821756362915039,0.25458455085754395
376,-1.8243825657215453,0.14261960270398505,1.118208818986486,-0.9581907987594604,-0.1421366035938263,0.2483299970626831,0.13204458355903625,-2.8203835487365723,1.5329474210739136,-0.4702303409576416,-0.1652974933385849,0.3491584360599518
377,-2.0702979915864614,0.07378886294095809,1.0703045419720756,-0.8754326701164246,-0.07372192293405533,0.47768476605415344,-0.7433417439460754,-0.22479109466075897,-0.021069977432489395,-0.27401185035705566,-0.33474060893058777,-0.7069480419158936
378,-1.8882174642673222,0.16676841533371906,1.067158748735322,-0.9368630051612854,-0.1659964770078659,0.30778738856315613,0.2918661832809448,1.660415768623352,-0.9167750477790833,0.48448556661605835,0.06676854193210602,0.08385995030403137
379,-1.9004743292543624,0.18918787554481792,1.0674941824465998,-0.9292647838592529,-0.18806132674217224,0.31796202063560486,-0.4944295883178711,-0.9208074808120728,0.3314771056175232,0.4687088131904602,0.24007852375507355,-0.14874210953712463
380,-1.8500559971328405,0.17158999919953524,1.0567356944579207,-0.9471431374549866,-0.1707492172718048,0.27159610390663147,0.14640720188617706,1.7282062768936157,-0.22973039746284485,-0.33767735958099365,-0.01656767725944519,0.22825133800506592
381,-1.8290097281288116,0.1775193507501636,1.0870440722102965,-0.9516537189483643,-0.17658846080303192,0.25134071707725525,0.2146054357290268,-0.21912360191345215,0.31333038210868835,-0.3517979383468628,0.30576932430267334,0.4111044704914093
382,-2.025952400326463,0.02346162515511945,1.0852552192935114,-0.8979452252388,-0.023459473624825478,0.4394815266132355,-0.5474108457565308,-2.1152451038360596,0.723399817943573,-0.4345895051956177,-0.5242547988891602,-0.3883645534515381
383,-1.892423388267938,0.07559059695736921,1.101783755092184,-0.9460132122039795,-0.07551863044500351,0.31520792841911316,1.691246747970581,2.661350965499878,-0.8915436267852783,0.2223803997039795,-0.018933266401290894,-0.011680126190185547
384,-1.8358337052736613,0.11795540819218285,1.1353898372454951,-0.9583765268325806,-0.1176820695400238,0.26012513041496277,-1.1911104917526245,-1.1795763969421387,0.16477513313293457,0.6208369731903076,0.3056246042251587,0.13724419474601746
385,-1.929671405233041,0.09596974120108356,1.051794812363078,-0.9319841265678406,-0.09582249075174332,0.3496050536632538,-0.016145598143339157,1.1154985427856445,0.4297058880329132,-0.048576176166534424,0.0028659701347351074,-0.14722776412963867
386,-1.8619203729913456,0.03405123641940297,1.062041517409148,-0.9573663473129272,-0.03404465690255165,0.28686270117759705,0.2911323010921478,-0.3010372817516327,0.28106847405433655,-0.5261996984481812,-0.04644545167684555,0.4874139428138733
387,-1.9910287085988772,-0.051996103163686525,1.0426929715833773,-0.9117604494094849,0.05197267606854439,0.407421350479126,-0.3495153784751892,-2.1554677486419678,1.0346494913101196,-0.29374516010284424,-0.10801820456981659,0.0073584020137786865
388,-2.172001166947329,-0.09273142154880637,0.8640555399271773,-0.8211115598678589,0.0925985798239708,0.5632061958312988,-0.659153938293457,-1.3183640241622925,1.4191017150878906,0.13733476400375366,-0.04741731286048889,-0.34468507766723633
389,-2.358794465464455,-0.1408986984478091,0.6943037678917039,-0.6982767581939697,0.14043296873569489,0.7019172310829163,-4.17450475692749,-1.2524285316467285,1.466860294342041,0.25214046239852905,-0.05155056715011597,0.3963797688484192
390,-2.259607827046868,0.4635402309901332,0.1936013803059918,-0.6905365586280823,-0.44711753726005554,0.5685463547706604,-12.029380798339844,3.8786747455596924,-3.1539318561553955,-0.19453418254852295,0.6492049694061279,0.46047574281692505
391,-0.9693754842901064,0.47820381287497354,-1.1053362975355518,-0.7320387959480286,-0.4601852297782898,-0.5023431181907654,-0.6906412839889526,-0.21051187813282013,-0.5802346467971802,-0.4474959969520569,0.6020767688751221,-1.6808691024780273
392,-2.2036039221908377,0.7277223618135599,0.20522255559312783,-0.6021095514297485,-0.6651706695556641,0.44160139560699463,7.827115535736084,-4.518057346343994,-1.4672995805740356,-0.20843720436096191,-0.05730235576629639,0.8880951404571533
393,-1.5740248753336648,0.8992347641472541,-0.31271712116364614,-0.6222061514854431,-0.782850980758667,0.0020088297314941883,-9.209511756896973,7.472043037414551,1.6893105506896973,0.6024459600448608,0.30726492404937744,0.18887865543365479
394,-1.2502070531501692,0.9420737766204198,-0.7875434746837624,-0.5581476092338562,-0.8087794780731201,-0.18532928824424744,8.3483247756958,-1.9716376066207886,-5.365442752838135,-0.06593680381774902,0.4171321988105774,-0.50128573179245
395,-2.207364223146619,1.132356345784476,0.25731339151716087,-0.34137994050979614,-0.9054150581359863,0.25235581398010254,-9.627504348754883,5.480058193206787,-0.13868087530136108,0.18371087312698364,0.49943971633911133,1.3232972621917725
396,-0.7748632207717003,0.7438518914553787,-1.1798234348990804,-0.5148252248764038,-0.6771274209022522,-0.525788426399231,4.841657638549805,-3.0236189365386963,-1.1558921337127686,-0.2618318796157837,0.0466800332069397,-1.4778584241867065
397,-1.8445767820695107,1.0082569513448416,-0.002499527896637566,-0.5134724974632263,-0.8459035158157349,0.14419972896575928,-8.73817253112793,5.757784366607666,-0.11765161901712418,-0.6002665758132935,-0.2752666473388672,2.0760457515716553
398,-0.5692680295212676,0.4318336089344079,-1.3608809483009925,-0.489533931016922,-0.4185367822647095,-0.7649728655815125,2.624321699142456,-5.125505447387695,-3.6155624389648438,-0.249937504529953,0.633365273475647,-1.9116170406341553
399,-2.0835701159183846,1.0431311857733072,0.06158078310019467,-0.43875852227211,-0.8639850616455078,0.24702370166778564,0.18398259580135345,-0.4761793315410614,-0.6205268502235413,0.5673291087150574,0.019273757934570312,1.4034889936447144
400,-0.5301564664314853,0.5434611473764,-1.2975930163377907,-0.43281370401382446,-0.5171015858650208,-0.738429605960846,-9.659158706665039,-1.3235946893692017,1.0683659315109253,0.15989500284194946,0.9599269032478333,-0.7683300375938416
401,-2.0494954806979417,1.1082434894597957,0.12469414484929707,-0.39607536792755127,-0.8949162364006042,0.20554669201374054,10.708207130432129,-2.1638247966766357,0.5699402689933777,0.1778135895729065,0.05331766605377197,0.5191541910171509
402,-0.49092910374169896,0.45666460389226693,-1.2011911300030702,-0.4231356382369995,-0.4409569501876831,-0.7915259003639221,-14.110651969909668,0.04049617797136307,3.579242706298828,0.3775118589401245,0.5099877119064331,-0.7208032011985779
403,-0.8637960839139694,0.9164796541774293,-1.0783757297063334,-0.4627401828765869,-0.7934640049934387,-0.3953310251235962,13.941495895385742,-0.4748230278491974,-2.079249143600464,-0.09405308961868286,0.43469923734664917,-0.3154844641685486
404,-0.6297016305738559,0.7326281634376426,-1.1695570221734646,-0.4378022849559784,-0.6688257455825806,-0.6008338332176208,-11.544670104980469,2.957839250564575,2.602832555770874,0.8035097122192383,0.5549341440200806,0.5578956007957458
405,-0.5592885651819194,0.342310063801041,-1.4841340618208243,-0.49979981780052185,-0.3356640338897705,-0.7984546422958374,8.566764831542969,-2.224691152572632,-4.388249397277832,-0.02794066071510315,0.372514009475708,-0.8702770471572876
406,-1.4192606153883578,1.1251598814067005,-0.5417970169184896,-0.4260929524898529,-0.9023365378379822,-0.0650671049952507,-4.697863578796387,2.3563878536224365,-0.13282638788223267,0.6477420926094055,0.24362975358963013,1.6571385860443115
407,-0.3922491529400944,0.026661682673337114,-1.4673296406028344,-0.3821318447589874,-0.026658523827791214,-0.9237232208251953,-9.801377296447754,-3.880436658859253,-1.1567180156707764,-0.4001252055168152,0.9611067771911621,-1.7154674530029297
408,-1.1077972966585299,1.0033217890483257,-0.823783326878397,-0.48091423511505127,-0.8432611227035522,-0.24006734788417816,10.809999465942383,-0.7213193774223328,-1.6493465900421143,-0.23786628246307373,0.034209609031677246,-0.15635597705841064
409,-0.38842731783923673,0.4795773571396034,-1.3678080103597225,-0.3360084593296051,-0.4614042639732361,-0.8210995197296143,-11.847732543945312,0.7383998036384583,1.3073230981826782,0.5903419256210327,0.7467131018638611,0.05153781175613403
410,-0.7749429683596606,0.8944261780549483,-1.2787976052744423,-0.4379732310771942,-0.7798500061035156,-0.4472285509109497,16.650676727294922,-0.5530234575271606,-2.800726890563965,0.1793062686920166,0.8997688293457031,-0.3070286512374878
411,-0.4673363951952258,0.7906560574481202,-1.251387044787345,-0.3168792426586151,-0.710814893245697,-0.627956748008728,-12.418519973754883,3.89939284324646,1.8817763328552246,0.6404876708984375,0.6833338737487793,0.6293453574180603
412,-0.6826755022399764,0.8677346847297185,-1.1624509607532352,-0.40789374709129333,-0.7628662586212158,-0.5016550421714783,14.592972755432129,-1.677376627922058,-1.8444061279296875,-0.32550472021102905,0.07754826545715332,-0.32180076837539673
413,-0.9128995829420189,1.054401148180212,-0.8109096652468979,-0.3906934857368469,-0.8696047067642212,-0.3019045889377594,-10.58398723602295,4.339785575866699,0.17730097472667694,-0.22928640246391296,-0.3389829397201538,0.8114413022994995
414,-0.4001077284541998,0.24669043860065656,-1.4863778814680062,-0.3777252733707428,-0.24419593811035156,-0.8931360244750977,1.5619020462036133,-4.6125874519348145,-3.9980921745300293,-0.2254546582698822,0.8421268463134766,-1.4283361434936523
415,-1.5949594085972278,1.180374976110863,-0.28113900501486533,-0.3804672360420227,-0.9247487783432007,0.009195050224661827,4.389082908630371,0.03746788576245308,0.03692683205008507,0.16235807538032532,0.4354909658432007,0.575796365737915
416,-0.3800232905763157,0.4017673358790339,-1.339252461660311,-0.3414044678211212,-0.39104557037353516,-0.8547083735466003,-9.732014656066895,-1.7298808097839355,-0.33353129029273987,0.11336186528205872,0.9500360488891602,-0.26716357469558716
417,-1.0565932099217046,1.0700151320428877,-0.7419077383460934,-0.4180254340171814,-0.8772077560424805,-0.23613835871219635,13.91611385345459,-1.0099300146102905,0.8128148317337036,0.226100355386734,-0.19969654083251953,-0.29497432708740234
418,-0.5818178878214254,0.7732392620166801,-1.0485018123824283,-0.3932819664478302,-0.6984570622444153,-0.5979021787643433,-10.283060073852539,2.729337215423584,0.40896672010421753,-0.0023173987865448,0.07933175563812256,0.14734071493148804
419,-0.5255669418879065,0.5949385248165092,-1.4707844546732707,-0.41550227999687195,-0.5604578256607056,-0.7164110541343689,10.198955535888672,-2.2961130142211914,-3.705080509185791,-0.19767212867736816,0.46994268894195557,-0.9310345649719238
420,-1.0698782765832346,1.0632287176521353,-0.8319134215429838,-0.42633751034736633,-0.8739293813705444,-0.23341770470142365,-11.165038108825684,4.169833660125732,1.421514630317688,0.09195637702941895,0.5680059194564819,1.5940287113189697
421,-0.46411870083803475,0.3500891955032238,-1.5844905886371492,-0.4204823076725006,-0.34298160672187805,-0.839975118637085,6.396904945373535,-1.3275299072265625,-3.657440423965454,-0.062046319246292114,-0.12532588839530945,-0.9147703051567078
422,-0.9916954089789557,1.0540861216022448,-0.8570550552454599,-0.4134746491909027,-0.8694491386413574,-0.27036452293395996,-8.922324180603027,3.95878529548645,1.8035377264022827,0.3108745515346527,0.08124113082885742,2.6896302700042725
423,-0.29925309372847037,-0.12141223600369157,-1.4548889178656166,-0.2926363945007324,0.12111416459083557,-0.948522686958313,-5.289247512817383,0.4257424771785736,-1.9059032201766968,-0.5998501777648926,0.30115756392478943,-1.4794405698776245
424,-0.5803083742947098,0.5987265593027881,-1.3857621280366885,-0.4529104232788086,-0.5635910034179688,-0.6908236742019653,9.48969841003418,-3.403679370880127,-2.7665557861328125,-0.3174905776977539,0.5510787963867188,-0.03723418712615967
425,-0.8017565807425829,0.9217340187058618,-1.1133656344271705,-0.4343375265598297,-0.7966509461402893,-0.42035484313964844,-2.1288650035858154,0.9208619594573975,-1.1500272750854492,-0.2179146707057953,-0.1082410216331482,0.2544460594654083
426,-0.2219883482261782,1.12290054281356,-1.8596887514348102,-0.09534881263971329,-0.9013603925704956,-0.4224429428577423,5.169448375701904,-0.32214102149009705,-4.112555980682373,0.5411190986633301,0.6835716962814331,0.20564612746238708
427,-1.0850978156187687,0.8551333533418783,-1.0397877833117668,-0.5802372097969055,-0.7546584010124207,-0.3062930107116699,-8.093714714050293,0.2928195297718048,8.996947288513184,-0.20015829801559448,0.4868515133857727,0.19311854243278503
428,-1.0264926349485557,0.7775600008753775,-1.300241049653295,-0.6096442341804504,-0.7015426754951477,-0.36901453137397766,9.251927375793457,-1.124024748802185,-8.754927635192871,-0.8326165080070496,0.049961864948272705,-1.0191080570220947
429,-2.051837510520592,1.1745509711726363,-0.183048390915732,-0.34215646982192993,-0.9225166440010071,0.17858341336250305,-7.096048355102539,1.5876930952072144,7.474365234375,0.9348536133766174,0.3243415951728821,1.2053581476211548
430,-1.0254430025734245,0.40600180603686664,-1.3918803008850622,-0.7854433059692383,-0.3949393332004547,-0.47655197978019714,2.513082981109619,-1.7395687103271484,-4.900214672088623,-0.9608030319213867,-0.1355782151222229,-1.8570661544799805
431,-2.21000098048931,1.2836692425706875,-0.1365196804724279,-0.22728675603866577,-0.9590614438056946,0.16894413530826569,2.0967459678649902,0.8555653691291809,-4.317249298095703,0.8458322286605835,0.6567999720573425,0.4160168170928955
432,-0.9810035716864298,0.5394554593843431,-1.1845850067706218,-0.7130364775657654,-0.5136688351631165,-0.4772036075592041,-5.8218207359313965,1.5408246517181396,5.29341983795166,-0.8840246200561523,0.5787934064865112,-0.328445166349411
433,-1.6137911985489375,1.1873354737718,-0.6432171852267251,-0.3737863302230835,-0.9273753762245178,0.016080806031823158,5.509638786315918,-1.7378615140914917,-7.501270294189453,-0.2995840013027191,-0.1068042516708374,-0.030042530968785286
434,-1.4530068664720688,1.0261704271832353,-0.6308789043418392,-0.5145082473754883,-0.8553211688995361,-0.060885488986968994,-7.227698802947998,4.866934299468994,9.433323860168457,0.03405475616455078,0.9999897480010986,0.611575186252594
435,-1.2352646792456223,0.9640514761644062,-0.9819290065668266,-0.5383995771408081,-0.8215084671974182,-0.1877492368221283,8.620481491088867,-2.8888516426086426,-6.944706916809082,0.06997007131576538,0.08971220254898071,-1.2062784433364868
436,-1.496876361879533,1.0142263663226159,-0.5995251299097737,-0.5268341302871704,-0.8490720987319946,-0.03901464864611626,-7.265920639038086,4.562924861907959,8.602926254272461,1.2143495082855225,0.7905547618865967,0.34672343730926514
437,-1.1633286449227058,1.0779860556819245,-1.0654295237107572,-0.4343694746494293,-0.8810067772865295,-0.18748420476913452,8.202919960021973,-4.096996307373047,-11.361032485961914,-0.1472192406654358,0.47750335931777954,-0.7396398186683655
438,-1.381083163158306,1.010169005503387,-0.8359427506098465,-0.5221776962280273,-0.8469217419624329,-0.10026982426643372,-10.689340591430664,4.099867820739746,15.32614517211914,1.5443029403686523,1.464902639389038,-0.0253710076212883
439,-1.3640319226344368,0.8991451385090043,-0.9055715401318122,-0.6090250611305237,-0.782795250415802,-0.127750426530838,13.161561965942383,-4.203393936157227,-11.438056945800781,-0.4145802855491638,0.2404521107673645,-1.0382347106933594
440,-1.8339742000816601,1.1650438216710892,-0.3891467485485583,-0.38111960887908936,-0.9188056588172913,0.10268398374319077,-6.048194885253906,1.5959969758987427,7.517204284667969,1.1340187788009644,1.136197566986084,0.2224808931350708
441,-1.3400862485834457,0.7468964607432017,-0.9482167038073704,-0.714358389377594,-0.6793646812438965,-0.16779741644859314,4.71839714050293,-3.9190940856933594,-7.872674942016602,-1.3948488235473633,0.2132086157798767,-1.102573037147522
442,-2.567214789204693,1.1587495405434227,0.2861744239691378,-0.21758872270584106,-0.9163030385971069,0.3362196385860443,-2.7692220211029053,3.8723387718200684,2.9083869457244873,1.4740432500839233,0.7577338218688965,0.5685654878616333
443,-1.1197410899605558,0.4113680631918699,-0.88822082030848,-0.8249057531356812,-0.3998636305332184,-0.39954903721809387,2.4045231342315674,-9.46875661611557e-05,-1.5506881475448608,-2.2571558952331543,-0.25983479619026184,-1.0334954261779785
444,-2.423488275121253,1.1123701991548562,0.2776915748513553,-0.2911714017391205,-0.8967500925064087,0.33325496315956116,4.538121700286865,0.2997380197048187,-4.21061372756958,0.4654878079891205,0.27988290786743164,0.3764618933200836
445,-1.258427973447866,0.5295908289580188,-0.7407444821080039,-0.8212512731552124,-0.5051802396774292,-0.26521560549736023,-8.323380470275879,3.8304121494293213,6.37479305267334,-1.1451336145401,0.6550062894821167,-0.14849591255187988
446,-2.2506603663853344,1.0378426605971387,0.00934929583871004,-0.39511221647262573,-0.8613101243972778,0.3194231390953064,8.512049674987793,0.22536152601242065,-5.344285488128662,0.49672049283981323,0.5411350131034851,-0.19594910740852356
447,-1.0662255836710466,0.449015184064076,-0.9201418294276469,-0.7886099219322205,-0.43407854437828064,-0.43551161885261536,-7.6643829345703125,0.788195013999939,3.741424322128296,-0.2478281855583191,0.8332178592681885,-0.41283130645751953
448,-2.7273079114921264,1.0810480013733086,0.41423187895278873,-0.18935400247573853,-0.8824512958526611,0.43060943484306335,3.472362995147705,0.18603263795375824,-2.769092082977295,0.7985764741897583,0.3833364248275757,0.24263876676559448
449,-1.5365086135920878,0.8875957280011291,-0.734855855377672,-0.6309072971343994,-0.775556206703186,-0.021640850231051445,-0.018273357301950455,-0.6711688041687012,-4.541235446929932,-2.9209420680999756,-0.5281088352203369,-0.3238639235496521
450,-3.0612292996341277,1.1786750883916495,0.7079446809245897,-0.030677758157253265,-0.9241005182266235,0.3809159994125366,-0.6432905197143555,-0.7541869878768921,-0.27585187554359436,0.6276779174804688,0.4117562174797058,0.284763902425766
451,-1.2932430514370612,0.6111454569272703,-0.9883803837106051,-0.7876474857330322,-0.5738059282302856,-0.2244063913822174,-4.67924690246582,1.4917186498641968,5.762486934661865,-2.0271260738372803,0.7524558901786804,-0.9962051510810852
452,-2.2975478642060545,1.0113702059920355,0.03034449963184608,-0.39661169052124023,-0.8475598096847534,0.35262125730514526,4.227421283721924,2.786222457885742,-3.0549676418304443,0.917226254940033,0.6711070537567139,0.63181471824646
453,-1.3126242210693848,0.6186868605714374,-0.7657140967310437,-0.7876423001289368,-0.5799659490585327,-0.2079889476299286,-3.194460391998291,-1.2810766696929932,1.8192178010940552,-1.0188459157943726,0.09549933671951294,-0.9267309904098511
454,-2.5030778289188476,1.011906313403416,0.30027306761119105,-0.3160282075405121,-0.8478441834449768,0.42577749490737915,-0.6287816166877747,4.120453357696533,1.0288102626800537,1.4569735527038574,0.0808916687965393,0.9592475891113281
455,-1.1813158914122968,0.4640921607362073,-0.843583735200272,-0.8272563815116882,-0.4476111829280853,-0.33954545855522156,0.8049046993255615,-1.7671250104904175,-3.4231948852539062,-2.921400785446167,-0.13098686933517456,-1.7738730907440186
456,-2.400640483203075,1.0517233892016111,0.15914381357580495,-0.33484625816345215,-0.8682794570922852,0.3660173714160919,0.8774908781051636,-0.5847074389457703,-1.8046543598175049,0.34296393394470215,0.6738215088844299,0.4220075309276581
457,-1.1965054838040436,0.43683439230484655,-0.9110557953460232,-0.8433640003204346,-0.4230732321739197,-0.3312799334526062,-5.432582855224609,2.310145139694214,6.262530326843262,-0.8574265241622925,0.6492084264755249,-0.8515814542770386
458,-2.067393151124635,0.9785279449416894,-0.13222427812976653,-0.4908134341239929,-0.8296765089035034,0.26596778631210327,7.930744647979736,-0.7742884159088135,-5.608489513397217,0.4247123897075653,0.5411787033081055,0.3975606858730316
459,-1.1634291801270147,0.6298141899589016,-0.851586097491283,-0.7420048117637634,-0.5889946222305298,-0.32017847895622253,-12.979303359985352,4.148847579956055,9.918498992919922,0.8051761984825134,0.7663169503211975,-0.08977943658828735
460,-1.786691432813445,0.9413426810283417,-0.4396921315693545,-0.5750367045402527,-0.8083492517471313,0.1261131316423416,12.586315155029297,-0.10331037640571594,-7.281007289886475,0.10180056095123291,-0.0817875862121582,0.1519477516412735
461,-0.872742602191642,0.761911345011773,-1.0128744255828344,-0.5542831420898438,-0.6903055906295776,-0.4650251567363739,-9.574899673461914,0.6670920848846436,2.4650187492370605,0.11879730224609375,0.6064890623092651,-0.12382680177688599
462,-2.043778336874915,0.9949307223210089,-0.3226035071059084,-0.4847758412361145,-0.8387212157249451,0.24807097017765045,11.607470512390137,-4.29976224899292,-3.979128360748291,0.2631571590900421,0.6553868055343628,-0.10169336199760437
463,-1.4192154495067455,0.667493573555968,-0.6872314290919513,-0.7763702273368835,-0.6190194487571716,-0.11859256029129028,-9.761435508728027,5.356313705444336,6.051712512969971,0.26193541288375854,0.4170236587524414,0.06831485778093338
464,-1.8713039616980331,0.8601608911143022,-0.47793207693926554,-0.62308269739151,-0.7579475045204163,0.19308869540691376,9.476264953613281,-7.572032928466797,-7.853341102600098,0.44394463300704956,0.4647042155265808,0.19129547476768494
465,-1.431823448937136,0.7558139197010603,-0.7101724481879564,-0.7206975817680359,-0.6858811974525452,-0.10080722719430923,-16.18662452697754,11.320124626159668,8.61761474609375,0.8458349108695984,0.8565202355384827,0.775215208530426
466,-1.2547663260464113,0.559117688193114,-0.9427244551600483,-0.8057414293289185,-0.5304384231567383,-0.26346874237060547,14.280191421508789,-10.82037353515625,-11.834671974182129,-0.5005329847335815,0.9380159378051758,-1.1130266189575195
467,-1.5877901424759662,0.8450506586123229,-0.5344290043670871,-0.6635974645614624,-0.7480047345161438,0.011278138495981693,-11.474777221679688,6.464415073394775,4.703640937805176,0.5800709128379822,0.7441748380661011,0.6179943084716797
468,-1.3714158144667827,0.6156971256480591,-0.9327826248431969,-0.8001982569694519,-0.5775277614593506,-0.16169220209121704,9.834403038024902,-5.882599830627441,-7.663288116455078,-0.4037201404571533,0.6420724391937256,-0.933980405330658
469,-1.6204002627740546,0.8121561800993196,-0.44209591106955437,-0.6870889067649841,-0.7257722020149231,0.03411029279232025,-9.515218734741211,6.776861667633057,2.513000726699829,0.6460733413696289,0.7505219578742981,0.898400068283081
470,-1.2340802606095744,0.5003504742551905,-0.9099457756330254,-0.8281430602073669,-0.47973307967185974,-0.2898884117603302,7.365464210510254,-7.161598205566406,-2.8959872722625732,-0.26972687244415283,0.13082554936408997,-0.9944438934326172
471,-2.1946140284237434,0.4659332971454751,0.06985302868691728,-0.7251341342926025,-0.4492568075656891,0.5218705534934998,2.647329807281494,-0.3479752540588379,1.2522016763687134,-0.3127838969230652,-0.4087449014186859,1.00226891040802
472,-2.183541110101613,0.7187464977473296,-0.10160546575820957,-0.6157074570655823,-0.6584417819976807,0.4328499138355255,-3.022547960281372,-3.2676148414611816,-4.212508201599121,-0.748687744140625,0.29207807779312134,-0.09593585133552551
473,-2.3921777679423477,1.0865027677467083,-0.011953272943002278,-0.31716006994247437,-0.8850041031837463,0.34084758162498474,-0.7459858059883118,0.7321013808250427,2.0718727111816406,1.1365418434143066,0.8145543932914734,-0.29250770807266235
474,-1.052760613854502,0.25405912254593416,-1.209150138137806,-0.8409053683280945,-0.2513348460197449,-0.4792795181274414,-6.982506275177002,5.322109222412109,6.664264678955078,-0.6976840496063232,0.8448255062103271,-0.5027303695678711
475,-1.495236219443249,0.9342796351729239,-0.9546522247490601,-0.5927018523216248,-0.804171085357666,-0.0448700375854969,9.091748237609863,-4.095250129699707,-10.4655122756958,0.07889270782470703,0.5859399437904358,0.1755615472793579
476,-1.462812755229667,0.7429314338848675,-0.9014950964154805,-0.73219895362854,-0.6764497756958008,-0.07937420904636383,-8.90758991241455,3.06315541267395,12.704946517944336,1.152029275894165,1.0269289016723633,-0.18524372577667236
477,-1.6357615249078044,0.7419384932315872,-0.8665568951589917,-0.735605001449585,-0.6757181882858276,0.04785606637597084,3.8152916431427,-2.912843704223633,-5.826545715332031,-0.6330015063285828,-0.30732929706573486,-0.44112086296081543
478,-2.0314613923470555,1.092535494861035,-0.4836116434787594,-0.4122597277164459,-0.8877967000007629,0.2045951634645462,1.5751488208770752,1.2093417644500732,1.4816797971725464,1.4408392906188965,0.6655980944633484,-0.2027488648891449
479,-1.0975204217216776,0.11616547797984426,-1.173587038216503,-0.8840810656547546,-0.11590439081192017,-0.4527325928211212,-1.99409019947052,4.027500152587891,2.205345630645752,-1.8860299587249756,0.5637498497962952,-0.6956286430358887
480,-1.6724970685380514,0.9867488249753054,-0.7371609467935369,-0.5485560297966003,-0.8342376947402954,0.05598169565200806,5.374576568603516,-3.4870669841766357,-7.827315807342529,0.5669122934341431,0.7457060813903809,0.6799038648605347
481,-1.3784374279227667,0.6272696891590158,-0.9562049734489086,-0.7947001457214355,-0.5869364142417908,-0.15478144586086273,-10.207234382629395,5.418381690979004,13.808225631713867,0.7206340432167053,0.9810251593589783,0.023128584027290344
482,-1.8254402108546215,0.8213571981884885,-0.6106252769896365,-0.659260630607605,-0.732071042060852,0.17160190641880035,10.76763916015625,-3.484548568725586,-8.618175506591797,0.15083783864974976,-0.1835629940032959,0.27429044246673584
483,-1.90338796938427,0.8864074140801478,-0.4976540972037626,-0.5975548028945923,-0.7748055458068848,0.2064092755317688,-7.983263969421387,3.29363751411438,6.619809627532959,0.9190727472305298,0.8449196815490723,0.18018746376037598
484,-1.340393242918038,0.3490616157743529,-0.9832741027524804,-0.9148620367050171,-0.34201616048812866,-0.2145978957414627,5.323723316192627,-2.0845649242401123,-3.2867038249969482,-1.0319151878356934,0.19191545248031616,-0.9488542675971985
485,-1.8933833302794012,0.7729052423267602,-0.4154749700785947,-0.6789585947990417,-0.6982179880142212,0.2269507199525833,1.3659921884536743,0.26862263679504395,-2.071068525314331,0.788562536239624,0.8423678278923035,0.4941338002681732
486,-2.0276049138514116,0.7357681105002591,-0.29689559362264306,-0.6653044819831848,-0.6711567640304565,0.3269839882850647,1.3976434469223022,-1.3385056257247925,-0.24149690568447113,-0.4479157328605652,-0.34637558460235596,-0.014880776405334473
487,-2.2113742940964127,0.7363393225413869,-0.04767450987302266,-0.5940424799919128,-0.6715800762176514,0.4428245425224304,1.6805875301361084,-0.1010189801454544,-0.6796314716339111,0.030779600143432617,-0.37321966886520386,0.3586890399456024
488,-2.299751615871546,0.8466826311520826,-0.04557639117924918,-0.49411824345588684,-0.749086856842041,0.44126632809638977,-2.0110769271850586,0.526835560798645,0.07953284680843353,-0.16214698553085327,0.3855767846107483,-0.49049118161201477
489,-2.0794452653689346,0.844550796310283,-0.1530528016341413,-0.5799987316131592,-0.7476729154586792,0.32339930534362793,-0.569719672203064,2.30849027633667,0.7769038081169128,0.44564497470855713,0.2994915843009949,-0.006748825311660767
490,-1.0486335577378203,0.3979805391217144,-0.8951002127197862,-0.7990027070045471,-0.3875575065612793,-0.4597758650779724,-11.186736106872559,4.934422492980957,4.937342166900635,0.22304445505142212,0.5664820671081543,0.3941935896873474
491,-1.4707155812924333,0.6266469603435944,-0.6470738120449543,-0.8059453964233398,-0.5864320993423462,-0.08092999458312988,15.589659690856934,-7.532866954803467,-8.229869842529297,0.5184391736984253,0.3635163903236389,0.22364544868469238
492,-1.3980684541415154,0.6610785232483896,-0.5889646942391389,-0.7775850892066956,-0.6139684915542603,-0.13566246628761292,-13.734543800354004,7.382363796234131,4.618005275726318,0.4074830412864685,0.29446470737457275,0.4148373007774353
493,-1.1515311329431823,0.3996007660865543,-1.031875911387786,-0.8414283394813538,-0.38905060291290283,-0.3750174641609192,7.936049938201904,-7.959287643432617,-6.880863666534424,-0.43397754430770874,0.8657656908035278,-1.2344796657562256
494,-2.2396478729144946,0.6714775387259478,0.04337885242069432,-0.6142145395278931,-0.6221434473991394,0.48546692728996277,-0.4437723159790039,5.874807834625244,2.2311744689941406,0.5180231332778931,-0.1402009129524231,0.5376501083374023
495,-1.0953784512216969,0.2701307517982803,-0.9363476092329621,-0.8568591475486755,-0.26685744524002075,-0.44111162424087524,0.44478312134742737,-2.594653844833374,-0.19774988293647766,-0.11675834655761719,0.29110369086265564,-1.403645396232605
496,-2.0136565274982225,0.6342536094698044,0.0164490938484653,-0.7278062701225281,-0.5925764441490173,0.34518349170684814,1.1464027166366577,1.6072920560836792,-0.9744787812232971,0.4080735445022583,-0.01637136936187744,0.7001354694366455
