,attitude.roll,attitude.pitch,attitude.yaw,gravity.x,gravity.y,gravity.z,rotationRate.x,rotationRate.y,rotationRate.z,userAcceleration.x,userAcceleration.y,userAcceleration.z
0,-1.5188572634716984,0.572079819388338,-0.3622600621134099,-0.8396430611610413,-0.5413818955421448,-0.04364953190088272,-9.420001983642578,8.31304931640625,1.798549771308899,0.8046851754188538,0.3360901474952698,0.295984148979187
1,0.025840789753609237,0.23373303734744427,-1.277676044023482,0.02513534389436245,-0.23161065578460693,-0.9724838137626648,0.8216215968132019,0.03366474062204361,0.3882707953453064,0.0587117075920105,0.36102044582366943,-0.4086807370185852
2,0.0072919123394778965,0.38557733783691617,-1.230316692962243,0.006756491027772427,-0.37609416246414185,-0.9265568256378174,0.7380908131599426,0.09367088973522186,0.7007742524147034,0.2274811863899231,0.16096049547195435,0.2644779682159424
3,-0.013799115760995878,0.40659181284453616,-1.1069064110805693,-0.012673727236688137,-0.39548128843307495,-0.9183865785598755,0.3650941848754883,0.7195009589195251,0.7118474245071411,-0.2903963327407837,0.01715487241744995,0.2746182680130005
4,0.06771535183769842,0.4738291925658512,-1.134328065119899,0.06020894646644592,-0.4562969505786896,-0.8877882361412048,-0.22968833148479462,-0.2563166320323944,-0.9848004579544067,-0.021421119570732117,0.023740798234939575,0.41180557012557983
5,-0.01525870248783827,0.4758952794849446,-1.1861630442951476,-0.013562673702836037,-0.4581344425678253,-0.8887794613838196,0.3275037705898285,-0.9866406321525574,-0.04051430895924568,0.11187505722045898,-0.21926426887512207,-0.19436568021774292
6,-0.10354918952816393,0.515934102151401,-1.239625220647485,-0.08990955352783203,-0.4933475852012634,-0.8651731014251709,-0.11957481503486633,-0.5908267498016357,-0.9199279546737671,-0.16454602777957916,-0.019027292728424072,-0.3492586612701416
7,-0.2518279740610707,0.5621506545041648,-1.2755571107440855,-0.21082939207553864,-0.5330071449279785,-0.8194231986999512,2.430704355239868,-3.918630599975586,0.9275212287902832,0.5166918039321899,0.469179630279541,-0.0006146430969238281
8,-1.5239403296689982,0.7018650977479518,-0.3877019434437127,-0.7628010511398315,-0.6456430554389954,-0.03576798364520073,10.912222862243652,-8.706717491149902,4.81321907043457,0.8031301498413086,0.8877848982810974,-0.36144882440567017
9,-2.337612532231694,0.18295627208562623,0.3759773653324105,-0.7081044912338257,-0.1819372922182083,0.6822656989097595,3.7162973880767822,0.1901758760213852,-0.23832634091377258,-0.01174396276473999,0.2318488359451294,0.7306522727012634
10,-2.3289624985550312,0.030821971842685026,0.54589257376813,-0.725753128528595,-0.030817091464996338,0.6872643828392029,1.2935357093811035,0.08610089123249054,-0.05399417504668236,-0.06040996313095093,0.32117658853530884,0.8199986815452576
11,-2.0981503766410725,0.14683159839332688,0.3835021670691919,-0.854843020439148,-0.14630456268787384,0.49783340096473694,-4.536053657531738,2.8641977310180664,-0.6835117936134338,-0.3389739394187927,-0.07500888407230377,0.6773831844329834
12,-1.2859931345254656,0.4888366111177513,-0.5482133564537227,-0.847314715385437,-0.46959906816482544,-0.24806149303913116,-12.04478931427002,7.578493595123291,-0.8452803492546082,0.6619967222213745,1.2046759128570557,-0.19302433729171753
13,-0.827066586359164,0.2978169334159065,-0.88077988207425,-0.7035515904426575,-0.29343393445014954,-0.6472339034080505,11.365771293640137,-9.379095077514648,1.0267852544784546,0.8987115621566772,0.8682783246040344,-1.6624126434326172
14,-2.1554920767276733,0.3279771606658482,0.3576816303889574,-0.7894307374954224,-0.32212868332862854,0.5225246548652649,-0.43470293283462524,-0.43270638585090637,1.8672887086868286,1.0294973850250244,0.5449375510215759,2.5971806049346924
15,-1.8127192331991964,0.3952884774606136,-0.008107767336480576,-0.8960104584693909,-0.3850744366645813,0.2210957109928131,-7.027822494506836,5.12295389175415,-0.5952553749084473,-0.5528116822242737,-0.17037606239318848,0.8423656225204468
16,-0.9277045515716263,0.25226699616553205,-0.8762423313070625,-0.7749170064926147,-0.24959984421730042,-0.5806922912597656,-8.258194923400879,6.736408710479736,-0.44783729314804077,-0.22100889682769775,0.3469356596469879,-0.3372459411621094
17,-0.7671833636348467,0.2338178348999584,-0.9851857127903203,-0.6752229332923889,-0.23169314861297607,-0.7002801895141602,12.209702491760254,-11.271411895751953,-0.5857036709785461,0.5888276100158691,1.2564581632614136,-1.5092229843139648
18,-2.314806667297419,0.21829972945346546,0.1668899296375833,-0.7182969450950623,-0.21657001972198486,0.6611711382865906,0.7878304123878479,-3.077218770980835,2.1482832431793213,0.39624476432800293,0.025728300213813782,1.3991470336914062
19,-1.9682412150790474,0.22866359688606822,-0.05966775126906235,-0.8980522751808167,-0.2266761064529419,0.3769885301589966,-3.4475178718566895,4.399430751800537,-1.483622431755066,-0.4343300461769104,-0.316277414560318,0.4980115294456482
20,-1.007436036891374,0.3205647001209601,-0.6680736731917359,-0.8023954033851624,-0.31510254740715027,-0.5068254470825195,-2.445786476135254,4.683461666107178,0.34110555052757263,0.5943875908851624,0.37188050150871277,-0.16498851776123047
21,-1.5301008928150583,0.30023957573048904,-0.19017913015561846,-0.954474687576294,-0.29574906826019287,-0.038864221423864365,10.880441665649414,-11.80594539642334,1.444270133972168,0.04154139757156372,0.38705766201019287,-0.16120904684066772
22,-2.140157540727123,0.018641419664697952,0.2295349673095415,-0.8420993089675903,-0.018640339374542236,0.5390005707740784,-3.725476026535034,2.647670269012451,-0.3957584500312805,-1.1866788864135742,-0.23813456296920776,1.201554298400879
23,-1.5123986394091493,0.37434857509326475,-0.35214168926422623,-0.9291592836380005,-0.36566630005836487,-0.05432252213358879,-8.816104888916016,9.336345672607422,-2.5077247619628906,0.48048996925354004,0.5805863738059998,0.2913525104522705
24,-0.7694822129245579,0.23988238051669042,-0.8542996971979492,-0.6758409142494202,-0.23758837580680847,-0.697704017162323,-1.3819676637649536,1.0086356401443481,0.03856227919459343,0.44982773065567017,0.24462267756462097,-0.093036949634552
25,-1.9567385983484369,0.30904848501089466,-0.02496874121613483,-0.8825523257255554,-0.30415233969688416,0.35859817266464233,15.292137145996094,-14.331954956054688,0.8461403846740723,1.0266258716583252,0.9666889905929565,-0.31614819169044495
26,-1.9992417217830156,0.25214806859324024,-0.037534174904572205,-0.8808495402336121,-0.24948467314243317,0.40231990814208984,-6.402691841125488,8.111987113952637,0.7389113306999207,0.1522272229194641,0.13483016192913055,0.2839440703392029
27,-0.7559195400137383,0.1914178493351073,-0.8511517404630317,-0.6734293699264526,-0.19025103747844696,-0.7143510580062866,-7.163099765777588,8.280474662780762,-2.6406891345977783,-0.20724689960479736,0.17223039269447327,-0.18356764316558838
28,-0.9876297805476607,0.34820309459798643,-0.8595860915027852,-0.784629225730896,-0.3412092924118042,-0.5176227688789368,12.379854202270508,-13.594958305358887,0.7619326710700989,1.0580514669418335,1.2476576566696167,-0.9335033297538757
29,-2.297093826882162,0.07099141128488082,0.11831065091156588,-0.7457551956176758,-0.0709317997097969,0.6624332666397095,-3.901366949081421,3.8145644664764404,0.5773329138755798,-0.20593547821044922,-0.4660097360610962,1.8578760623931885
30,-0.9843062333926578,0.3208570730085746,-0.6915945578923345,-0.7903823256492615,-0.3153800070285797,-0.5251964926719666,-6.420299053192139,10.731059074401855,-3.6120476722717285,-0.021171629428863525,0.1829337477684021,0.07809871435165405
31,-0.5397405718486219,0.33042481825112685,-0.9498551193444127,-0.48611313104629517,-0.32444489002227783,-0.8114367723464966,7.482693195343018,-8.907927513122559,3.005042791366577,1.055586338043213,0.44566071033477783,-0.5746563673019409
32,-2.0732289550051437,0.20457036806459464,0.25165863142684036,-0.858138918876648,-0.20314650237560272,0.4715175926685333,8.52235221862793,-5.569350719451904,2.6480374336242676,-0.15557861328125,0.22899490594863892,0.8553256988525391
33,-1.777607001652676,0.23078984595496227,0.15459894810127417,-0.9527418613433838,-0.22874650359153748,0.1998952329158783,-4.535167217254639,3.931262969970703,-2.8257761001586914,-0.6564042568206787,-0.19903364777565002,0.21877539157867432
34,-0.8526859920169485,0.35854976354721585,-0.5384242092309782,-0.705161452293396,-0.3509165942668915,-0.6161208152770996,-4.5768208503723145,5.9248948097229,-1.301857590675354,0.7333139181137085,0.313761442899704,0.02572774887084961
35,-1.2426508125287885,0.36857046641210367,-0.19190064558493813,-0.883068323135376,-0.3602822721004486,-0.30064424872398376,11.946418762207031,-11.803348541259766,4.412410736083984,1.049206018447876,1.0726083517074585,-0.34167447686195374
36,-1.9486486984974496,0.09876194269021503,0.26146453934481156,-0.9249298572540283,-0.09860146790742874,0.3671274185180664,-3.4992382526397705,0.7466926574707031,-0.8123855590820312,-0.7248961925506592,-0.15339744091033936,0.6463918685913086
37,-2.024371486191555,0.4373790003684028,-0.04888375863896435,-0.8142697811126709,-0.42356663942337036,0.39693382382392883,-6.1009979248046875,-1.9524600505828857,-3.725170612335205,-0.7608799338340759,0.08393645286560059,0.5670555830001831
38,-1.9513423790411073,0.9279828221937512,-0.3437095116722797,-0.5565664768218994,-0.8004123568534851,0.22265219688415527,-2.432811737060547,-0.5187630653381348,-1.5560585260391235,0.26739710569381714,0.48672211170196533,-0.08239337801933289
39,-0.7378396688347392,0.04000141744879782,-1.4064157129947203,-0.6721528768539429,-0.03999074921011925,-0.7393316030502319,-12.059696197509766,4.6232099533081055,5.610928535461426,-0.34434181451797485,1.2949804067611694,-1.445436954498291
40,-1.0302096825696891,0.5977894690711357,-1.3699019277366355,-0.7087169289588928,-0.5628166794776917,-0.4253912568092346,4.265607833862305,0.3347453474998474,-5.405913352966309,0.6759410500526428,0.30575186014175415,0.20058351755142212
41,-0.7978162369849229,0.5177983687517008,-1.2264175410616978,-0.6219951510429382,-0.49496832489967346,-0.60673588514328,-5.696933746337891,2.941615581512451,4.159495830535889,-0.5922992825508118,0.45868295431137085,0.6448370814323425
42,-1.2920800208972079,1.002088604883137,-1.0084248974155796,-0.5177608132362366,-0.8425976037979126,-0.1481650322675705,2.8952786922454834,-1.5823657512664795,-3.145031213760376,0.3355403542518616,0.03212708234786987,0.7503225803375244
43,-1.3666317081313384,1.0095446627555562,-0.8629397699868523,-0.5211917757987976,-0.8465895652770996,-0.10791248828172684,2.8465116024017334,-1.0872949361801147,-1.7848474979400635,-1.4119288921356201,-0.6551803946495056,-0.18087536096572876
44,-1.9208313227566596,1.2633547861264827,-0.31298412283382643,-0.2842704951763153,-0.953110933303833,0.10377810895442963,0.9867329001426697,-0.3727951943874359,-0.4568026661872864,0.4974815547466278,0.5457470417022705,0.10790705680847168
45,-1.093722692644486,0.6648166044915306,-0.9787506682591908,-0.6991521120071411,-0.6169148087501526,-0.3613896071910858,-6.1833391189575195,3.185236930847168,8.347423553466797,0.3217869997024536,1.0048847198486328,-0.009688854217529297
46,-0.8996406194880504,0.18025855896100743,-1.015770509874541,-0.7704150676727295,-0.17928394675254822,-0.6118151545524597,4.082086086273193,-2.0202476978302,-3.109849214553833,-0.7756206393241882,-0.1497718244791031,-0.9762279987335205
47,-1.1744911256298933,0.6870079767660378,-0.7974272825875577,-0.7132232189178467,-0.6342267394065857,-0.2984444797039032,2.662153959274292,-2.1345062255859375,-2.4981048107147217,0.24703669548034668,-0.2798357605934143,0.3954293727874756
48,-1.3795038749903323,0.8034798026948694,-0.685140453332905,-0.6815433502197266,-0.7197761535644531,-0.13198797404766083,0.7259827256202698,0.0740387886762619,0.14384949207305908,-0.2506159543991089,-0.3759116530418396,-0.27511656284332275
49,-1.48917293525076,0.9191597438036533,-0.6443649906636005,-0.6044691205024719,-0.7950922846794128,-0.049448683857917786,0.37574708461761475,-1.651017665863037,-1.789905071258545,-0.3635331988334656,0.4146144986152649,-0.20412182807922363
50,-1.47580139918382,0.9765200558035859,-0.699346643611955,-0.557384729385376,-0.8285539150238037,-0.053108565509319305,0.35827332735061646,0.13449627161026,-0.5164169669151306,0.11840462684631348,0.07316768169403076,-0.1805034875869751
51,-1.571095470352517,1.140436696655302,-0.6409116711919631,-0.417197585105896,-0.9088158011436462,0.00012480196892283857,0.3248848617076874,-1.7150472402572632,-0.6024666428565979,0.7871164083480835,1.0262627601623535,0.28544342517852783
52,-0.9048897980747805,0.16575578275946773,-1.1570502047977833,-0.7755792140960693,-0.16499780118465424,-0.6093049645423889,-4.9063286781311035,-0.5612035989761353,10.16988754272461,-0.7920629978179932,1.085392713546753,-1.8949520587921143
53,-1.1957075692374468,0.4116721060688456,-0.7584551168338525,-0.85273677110672,-0.40014228224754333,-0.33574727177619934,5.205355167388916,1.5716553926467896,-1.2160744667053223,-0.06349247694015503,-0.2954295873641968,0.09378862380981445
54,-1.3736250570729982,0.5736979930998805,-0.5565435537206627,-0.8236263394355774,-0.5427417159080505,-0.16453315317630768,-0.9173353314399719,-2.925567388534546,-1.901057243347168,-0.4613468050956726,0.017610549926757812,-0.18332146108150482
55,-1.5675277512244152,0.7180102723733719,-0.5284151759766631,-0.7531121373176575,-0.6578874588012695,-0.0024616126902401447,0.7875184416770935,-0.39313143491744995,-0.6621830463409424,0.16609132289886475,0.21750354766845703,-0.6216381192207336
56,-1.669629012325977,0.8127082227855656,-0.3357045791995501,-0.6841793060302734,-0.7261518239974976,0.06784030795097351,0.82105553150177,0.6344866156578064,-1.6574578285217285,0.40410423278808594,0.5463269948959351,0.3252565860748291
57,-1.257452870337924,0.5630940770462791,-0.6877412407480803,-0.8044335246086121,-0.5338051319122314,-0.2606509327888489,-9.535866737365723,6.273133277893066,9.061073303222656,1.3702600002288818,0.8227302432060242,0.6025241017341614
58,-0.8628077419929432,-0.12266021457900177,-0.7881658670076203,-0.7539637684822083,0.12235286831855774,-0.6454210877418518,4.037825584411621,-3.536067485809326,-2.4525182247161865,-1.398883581161499,-0.012489601969718933,-1.6960554122924805
59,-1.0744475223800545,0.2607500836962935,-0.4825924804358238,-0.8496032357215881,-0.25780534744262695,-0.4601204991340637,1.73013174533844,-1.3349220752716064,-1.6431063413619995,-0.6627106666564941,-0.16017866134643555,1.0086281299591064
60,-1.3568620876346809,0.5046746421462328,-0.6111205747390764,-0.8553770780563354,-0.4835226833820343,-0.1858382672071457,-0.6001920104026794,-3.2661874294281006,-2.4948678016662598,-0.08313000202178955,0.7506277561187744,-0.24813693761825562
61,-1.597488631607163,0.6817690458606536,-0.5494306405816204,-0.7761824727058411,-0.6301676034927368,0.020723022520542145,1.8234903812408447,-1.6219985485076904,-2.907163143157959,0.12418973445892334,0.2353007197380066,-0.45224153995513916
62,-1.3557439556031399,0.7323501727015469,-0.6109116674101679,-0.7264763712882996,-0.6686190962791443,-0.15868429839611053,-8.433197975158691,6.483035087585449,8.51054859161377,1.8490808010101318,0.5647067427635193,1.1695027351379395
63,-0.785251730954688,-0.1408715186145073,-0.7961531096653713,-0.6999996900558472,0.1404060572385788,-0.7002046704292297,6.83941650390625,-5.740474700927734,-1.7189394235610962,-1.4433108568191528,0.39993816614151,-2.4252071380615234
64,-1.061089163924142,0.3055129841308037,-0.3673908593593488,-0.8324664235115051,-0.3007824420928955,-0.46532735228538513,2.3427321910858154,-1.2380197048187256,-0.06370053440332413,-0.2777935862541199,-0.2564685046672821,1.0545302629470825
65,-1.5136712849013951,0.45320351374008844,-0.32350000125312317,-0.897582471370697,-0.43784788250923157,-0.05133028328418732,-0.3877543807029724,-2.6515285968780518,-2.178159713745117,-0.5639348030090332,0.39550480246543884,-0.5041812062263489
66,-1.7193634686622545,0.595333324719543,-0.20868885136694165,-0.8188410997390747,-0.5607847571372986,0.12255590409040451,1.358370304107666,0.2609417736530304,-0.6823294162750244,0.37264353036880493,0.1930326223373413,-0.25936615467071533
67,-1.6036260729329448,0.652629000227523,-0.22984425922656368,-0.7940621376037598,-0.6072772145271301,0.026078227907419205,-0.7787876129150391,-0.6094379425048828,-0.12694081664085388,0.7005714178085327,0.5831224918365479,0.2565908432006836
68,-1.289503098122416,0.3453936295929906,-0.5383940186664071,-0.903960645198822,-0.3385670781135559,-0.26120397448539734,-5.109029769897461,4.019741535186768,6.344642639160156,0.5738825798034668,0.2023213505744934,-0.13772177696228027
69,-0.9234819893504409,-0.1922334330767941,-0.5394619301476195,-0.7830125093460083,0.1910516619682312,-0.5919381380081177,2.5389797687530518,0.6733859777450562,0.774089515209198,-1.3991622924804688,-0.2303125113248825,-1.2206535339355469
70,-1.2684044420902256,0.1816280311396568,-0.16770956127921038,-0.938924252986908,-0.18063105642795563,-0.2929058372974396,4.59730339050293,-3.2303004264831543,-3.3061635494232178,-0.553049623966217,0.10435236990451813,0.30976682901382446
71,-1.5149211276173946,0.4930973734294884,-0.21920056945315217,-0.8794962763786316,-0.47335654497146606,-0.049193233251571655,-2.29622745513916,-2.451183795928955,-1.9981669187545776,0.4681040644645691,0.5677779316902161,-0.20169180631637573
72,-1.4764818548352572,0.5520880204443481,-0.38590002632241405,-0.8476471304893494,-0.5244661569595337,-0.08018328249454498,-0.08420421183109283,0.5195611715316772,-0.3499497175216675,0.5001741051673889,0.31458163261413574,-0.3076798915863037
73,-1.4379032679042245,0.5120569794293515,-0.34459010116040784,-0.8640520572662354,-0.48997142910957336,-0.11550729721784592,-0.15978531539440155,0.910123348236084,1.9006381034851074,0.5687945485115051,0.5193141102790833,0.04778880625963211
74,-1.1770655165854857,0.17403716263904034,-0.34646874053907273,-0.9095337986946106,-0.17315992712974548,-0.37784111499786377,-1.6306545734405518,2.4168331623077393,3.597032308578491,-0.6667753458023071,-0.18943467736244202,-0.09222114086151123
75,-1.1862957277425918,0.10727957784411582,-0.18752573345905954,-0.9216567277908325,-0.10707391798496246,-0.3729398548603058,3.3102810382843018,-1.8989073038101196,-0.2828468978404999,-1.1094406843185425,-0.43648993968963623,-0.0506136417388916
76,-1.3270129859610447,0.33380977612394713,-0.20623838247005843,-0.9168647527694702,-0.32764488458633423,-0.22805209457874298,-0.3236863613128662,-0.4402290880680084,-2.7732839584350586,0.1337990164756775,0.46706444025039673,-0.2062588334083557
77,-1.446540855186273,0.514127660438199,-0.20778890938897726,-0.864008903503418,-0.4917754828929901,-0.1079137846827507,1.2525784969329834,-0.7311147451400757,-0.7647189497947693,0.7285109162330627,0.3447875678539276,-0.2163507342338562
78,-1.3753240164225284,0.5580354691557576,-0.19465932761382732,-0.832142174243927,-0.5295206904411316,-0.1647646427154541,-1.5179170370101929,1.4832998514175415,0.7440816760063171,0.7062113881111145,0.6616007685661316,0.2515413761138916
79,-1.1768889088650283,0.19729254803349267,-0.319184460043836,-0.9055030345916748,-0.1960151195526123,-0.3763541579246521,-1.74186372756958,-0.29748278856277466,3.769130229949951,-0.4818565845489502,-0.2273399829864502,-0.2202034592628479
80,-1.2518272128145553,0.08849351438459525,-0.19583202562373436,-0.9458435773849487,-0.08837805688381195,-0.3123607635498047,2.9582619667053223,-0.5688431859016418,-1.1828948259353638,-1.5259428024291992,-0.5296486616134644,-0.12077519297599792
81,-1.4049515802613586,0.3860996887494017,-0.1561890474756721,-0.9136741757392883,-0.37657809257507324,-0.15293274819850922,-1.3049390316009521,-1.0690124034881592,-3.4175710678100586,-0.31922072172164917,0.6329562664031982,0.1296631097793579
82,-1.3403809838004017,0.5858661022089887,-0.4118057153385916,-0.8112124800682068,-0.5529212355613708,-0.19029545783996582,-1.1862949132919312,-0.5124688148498535,-0.7338159680366516,0.7652682662010193,0.3225288391113281,-0.2692840099334717
83,-1.2864960412223911,0.624534569253314,-0.47596191818237016,-0.7786709070205688,-0.5847197771072388,-0.22754009068012238,0.1535618156194687,0.5415723323822021,-0.3895677626132965,0.49673426151275635,0.5892211198806763,0.06631577014923096
84,-1.1815690111076398,0.4558181067492187,-0.5064123731948212,-0.8307405114173889,-0.44019705057144165,-0.34072983264923096,-1.8572938442230225,1.6155338287353516,3.618196487426758,0.16850906610488892,0.11011889576911926,0.025696873664855957
85,-1.1728341377084055,0.22449584814259457,-0.42961045707953927,-0.8987200856208801,-0.22261488437652588,-0.3778158128261566,2.4466943740844727,-0.7941146492958069,0.9867103099822998,-0.8854596018791199,-0.4516404867172241,-0.501120924949646
86,-1.2721363648726878,0.31267534265644725,-0.18893297026411568,-0.9093919992446899,-0.3076053559780121,-0.27997323870658875,-1.0442583560943604,-1.2469213008880615,-2.0975377559661865,-0.5982068181037903,-0.19115865230560303,0.327595978975296
87,-1.2485402584010066,0.4467628309890881,-0.36896421115435146,-0.8554261326789856,-0.43204835057258606,-0.28562259674072266,0.7208374738693237,-1.0607187747955322,0.0029094861820340157,0.7541230320930481,0.38694342970848083,-0.4616002142429352
88,-1.3066088154223727,0.42737397382288034,-0.22490432497917162,-0.8784827589988708,-0.4144824147224426,-0.23763874173164368,0.8578808307647705,1.6276946067810059,-0.14441688358783722,0.2928505539894104,0.17078432440757751,0.11839136481285095
89,-1.219722888600938,0.42655965156059344,-0.21982154764103895,-0.8548642992973328,-0.41374117136001587,-0.31309014558792114,-1.386999249458313,0.7040846943855286,1.7562459707260132,0.7056485414505005,0.26806551218032837,0.5331829190254211
90,-1.2079583778203271,0.05819223646134071,-0.3125471630251975,-0.9333108067512512,-0.05815939977765083,-0.3543280363082886,-1.0146057605743408,-1.6650121212005615,2.3896334171295166,-1.003212571144104,-0.42044776678085327,-0.7134972810745239
91,-1.2353302764621976,0.14038890007226543,-0.24775066987986563,-0.9349671006202698,-0.1399281919002533,-0.3259704113006592,1.03390371799469,-0.14257051050662994,-2.415034532546997,-0.8498533964157104,-0.1988932192325592,-0.3071167469024658
92,-1.2443401596202885,0.4901094976701944,-0.29991613119110727,-0.8356834650039673,-0.470722496509552,-0.2829373776912689,-0.2774374186992645,-0.9293681979179382,-3.5718135833740234,0.4827629327774048,0.825641930103302,0.2241147756576538
93,-1.2867881100416296,0.6098071373602737,-0.4286686239079849,-0.7869188785552979,-0.5727093815803528,-0.22970083355903625,-1.9355692863464355,-0.3418373763561249,-1.1437413692474365,0.4701007604598999,0.3355420231819153,0.22748835384845734
94,-0.9792218400971591,0.47377202749563874,-0.7342786624459139,-0.7386351823806763,-0.4562460780143738,-0.4962434768676758,-7.366380214691162,4.2427287101745605,3.6179001331329346,0.7301665544509888,0.4491965174674988,0.8381929397583008
95,-0.7586248325008927,-0.2559763805826921,-0.9178432539452969,-0.6655091047286987,0.2531901001930237,-0.7021341919898987,-0.5444440841674805,-1.448846697807312,1.6248562335968018,-0.6797667741775513,0.20761007070541382,-1.5591267347335815
96,-0.7801459542386936,-0.027105720043713342,-0.6681100305934615,-0.7031247615814209,0.027102401480078697,-0.7105497717857361,4.000729560852051,-0.7598018646240234,0.023508472368121147,-0.5789796710014343,-0.09659092128276825,-0.14830642938613892
97,-0.9744316703935371,0.37114312321143367,-0.6513935102265483,-0.7710491418838501,-0.36268097162246704,-0.5233983397483826,3.381649971008301,-4.7439284324646,-4.4232072830200195,-0.023170828819274902,0.5599465370178223,-0.03989511728286743
98,-1.512192496590672,0.7538452107059402,-0.4148825089466113,-0.7278108596801758,-0.6844472289085388,-0.04270140081644058,0.6853179335594177,1.1151078939437866,-0.2401178479194641,0.7031831741333008,0.41064345836639404,-0.002556145191192627
99,-0.7464624610505363,-0.11419874174095435,-0.7938391031484302,-0.6746230721473694,0.1139506846666336,-0.7293140292167664,-8.163270950317383,4.332441329956055,7.43981409072876,0.42003023624420166,0.7989063858985901,-0.7512615323066711
100,-1.1325069500342202,0.28689185380389354,-0.4354751007573289,-0.8684701919555664,-0.2829724848270416,-0.4070454239845276,5.303905487060547,-2.0980446338653564,-1.9036346673965454,0.18641763925552368,-0.4248217046260834,0.5925770401954651
101,-1.016906804127744,0.28175266396614634,-0.5592319482950294,-0.8169500827789307,-0.2780396342277527,-0.5052587985992432,-5.011631011962891,3.8140335083007812,1.3741774559020996,-0.11946648359298706,-0.23387745022773743,0.01413947343826294
102,-0.8234455249414495,0.30350601808326844,-0.8475424084480176,-0.6999675035476685,-0.2988678216934204,-0.6486320495605469,1.7069423198699951,-1.5613151788711548,-5.131917476654053,-0.30032241344451904,0.7850128412246704,-0.15811538696289062
103,-0.8391872794168899,0.5907912524985003,-1.1555399344637711,-0.6179755330085754,-0.5570183396339417,-0.5548304319381714,-0.5312490463256836,-0.9675153493881226,-0.9103806018829346,0.9405463337898254,0.29446035623550415,-0.2636204957962036
104,-0.55426358791244,0.1326509141281205,-1.165259385190157,-0.5216934680938721,-0.1322622299194336,-0.8428182601928711,-6.4341206550598145,4.097656726837158,4.985687732696533,0.24514317512512207,0.5858755111694336,0.3512868881225586
105,-0.7456283524101353,0.25775053628853883,-1.007566032600324,-0.6560220718383789,-0.2549060583114624,-0.7103927731513977,4.902454376220703,-3.590437889099121,-3.065587282180786,-0.1585073471069336,-0.2922588586807251,0.20387732982635498
106,-0.9603523603710786,0.5540397196143058,-0.8850725769823395,-0.6968172192573547,-0.5261269211769104,-0.4874793589115143,1.6450756788253784,-0.7036516070365906,0.5213256478309631,0.2027987241744995,-0.14985263347625732,-0.2781914174556732
107,-0.8997856997466686,0.3647056046156578,-0.7461331947865006,-0.7316821217536926,-0.35667428374290466,-0.5808827877044678,-1.5949162244796753,0.8370368480682373,1.048789620399475,-0.7539898753166199,0.04560860991477966,-0.4814493656158447
108,-1.1679004239949975,0.8562785052708995,-0.7268257348046483,-0.6027867794036865,-0.755409300327301,-0.256914347410202,4.84115743637085,-3.4758806228637695,-4.6304779052734375,0.493854284286499,0.5250778198242188,-0.24780058860778809
109,-1.3501914358879954,0.9273617504398047,-0.5171049971990376,-0.5854070782661438,-0.8000399470329285,-0.13128025829792023,-3.081632137298584,3.128518581390381,5.407535552978516,1.320499300956726,0.8208835124969482,0.665673553943634
110,-0.9906109599372938,0.36070127721480905,-0.8267914044959959,-0.7825408577919006,-0.3529304563999176,-0.5129034519195557,4.474796772003174,-3.7446823120117188,-5.184671401977539,-1.0709290504455566,-0.06993633508682251,-1.4460046291351318
111,-1.2582136559261452,0.7862723087820189,-0.6568476099580186,-0.6722537875175476,-0.7077246308326721,-0.2172573357820511,-3.867858648300171,2.7474846839904785,2.429581642150879,1.1046116352081299,0.01119142770767212,0.4434841275215149
112,-1.0772730637226764,0.5027054200672827,-0.830521266175167,-0.7717148661613464,-0.4817980229854584,-0.4151226580142975,3.488189220428467,-1.6735433340072632,-3.666273593902588,-1.1866743564605713,-0.6238080263137817,-1.1166614294052124
113,-1.2102190952015608,1.0243368752698336,-0.8179233287011738,-0.4862475097179413,-0.8543697595596313,-0.1833454668521881,2.13425350189209,-1.9997433423995972,-3.867835760116577,0.08567383885383606,0.8029019236564636,-0.18336902558803558
114,-1.1344013569731506,0.8244847387297366,-0.9069931454158351,-0.615306556224823,-0.7341980338096619,-0.2869690954685211,-4.764798164367676,3.1231086254119873,7.0417985916137695,1.0096851587295532,0.8553223013877869,0.05910959839820862
115,-0.9892429048356337,0.3704896773633674,-0.9295779181545448,-0.7789143323898315,-0.3620719313621521,-0.5120512247085571,6.166705131530762,-2.3958330154418945,-5.455793857574463,-0.971375584602356,-0.0391121506690979,-0.8967317342758179
116,-1.400471727229732,1.005910024174313,-0.5589493412557256,-0.5275734663009644,-0.8446494936943054,-0.09073789417743683,-0.0006363857537508011,1.8117040395736694,0.16099092364311218,1.189805030822754,0.3150322437286377,0.8141570687294006
117,-1.0109947067271003,0.35105701217936036,-0.8130010721909652,-0.7956796884536743,-0.34389054775238037,-0.49863114953041077,-3.9983468055725098,0.39360886812210083,1.4333332777023315,-1.8902027606964111,-0.24657881259918213,-1.0781358480453491
118,-1.2078232196726866,0.9004646165289617,-0.7095133113949158,-0.5807688236236572,-0.7836156487464905,-0.22057658433914185,2.0664443969726562,-0.5469812750816345,-4.454590797424316,-0.023311316967010498,0.21022093296051025,-0.00789324939250946
119,-1.3625117825285495,0.9489054750658483,-0.5556183827989295,-0.5699818730354309,-0.8127783536911011,-0.12046550959348679,-3.506166458129883,2.841029644012451,6.83031702041626,1.4266713857650757,0.8462103605270386,0.3436863422393799
120,-1.1222336239256074,0.3050484389863806,-0.6540859054945359,-0.8594710826873779,-0.30033937096595764,-0.4136493504047394,2.581115484237671,-1.0472824573516846,-3.1015303134918213,-1.7943527698516846,-0.0026238858699798584,-0.9403393268585205
121,-1.5976322805082537,0.9787484887689417,-0.29434596957740944,-0.5578605532646179,-0.8297995924949646,0.014974313788115978,3.3170015811920166,-2.7265195846557617,-3.6739604473114014,0.8396598696708679,0.3220328688621521,0.24451661109924316
122,-1.0672047410812135,0.24648309833873577,-0.7699137162258388,-0.8493835926055908,-0.24399486184120178,-0.4679892659187317,-9.835004806518555,4.443506717681885,9.853235244750977,-0.3690153956413269,1.0657721757888794,-0.4630410075187683
123,-1.3440610604258083,0.6310993459461683,-0.5259611239618825,-0.786715030670166,-0.590032696723938,-0.18149694800376892,4.857174396514893,-1.2760975360870361,-6.738710880279541,-0.49476397037506104,-0.04422944784164429,0.3592008352279663
124,-1.3225018584187211,0.8025421243361827,-0.5981946989431328,-0.6735709309577942,-0.7191249132156372,-0.17076772451400757,-5.569424152374268,2.520334482192993,4.920773983001709,1.2196524143218994,0.7156153917312622,0.46980947256088257
125,-1.0655954697301186,0.27605462941711295,-0.8067729903691729,-0.8419453501701355,-0.27256178855895996,-0.4656587839126587,3.1127333641052246,-1.7346287965774536,-2.7729392051696777,-1.0093119144439697,0.13068556785583496,-1.0905545949935913
126,-1.2277591052280377,0.7109884437736282,-0.6336063448612907,-0.7135706543922424,-0.6525830626487732,-0.2548573613166809,0.048730429261922836,0.7673587203025818,-1.2667819261550903,0.6691218614578247,0.4477795958518982,0.6947529911994934
127,-0.6376489070412119,0.0009375574158554175,-0.9127884178498253,-0.5953077077865601,-0.0009375572553835809,-0.8034972548484802,-15.82511043548584,9.47386646270752,6.292133331298828,0.08952462673187256,0.7158118486404419,0.6908416152000427
128,-0.7064330562600997,0.061122970595940386,-0.9374639885458641,-0.6479124426841736,-0.061084918677806854,-0.7592616081237793,6.999814510345459,-4.823259353637695,-4.248373031616211,-0.16396194696426392,0.20195405185222626,-0.5979619026184082
129,-1.5138297708047153,0.8437657715701073,-0.37971228090573217,-0.6635758876800537,-0.7471513748168945,-0.03784257546067238,3.043358564376831,0.9698766469955444,-0.4738715589046478,0.5604722499847412,0.6758012771606445,0.3328102231025696
130,-0.8733802191834946,0.330722261009775,-0.7565385551612808,-0.7249658703804016,-0.3247262239456177,-0.6074351072311401,2.57857084274292,-5.075803279876709,1.1318202018737793,0.2147577404975891,0.2813912630081177,-1.2255727052688599
131,-1.2917861564647966,0.6246374424200906,-0.24181041103794862,-0.7798058390617371,-0.5848032236099243,-0.22340108454227448,-5.14306640625,7.377211093902588,-0.5446413159370422,0.31895989179611206,0.4048105478286743,1.7179994583129883
132,-1.1746997079600527,0.48786026718694653,-0.410117593090748,-0.8149445652961731,-0.468736857175827,-0.34080952405929565,7.603133678436279,-8.671536445617676,-0.27943602204322815,-0.049221694469451904,0.06424158811569214,-0.26282817125320435
133,-1.108920897914803,0.37061484434160746,-0.5002965868534832,-0.8344373106956482,-0.3621886074542999,-0.4153718054294586,-4.70292854309082,4.2458086013793945,1.2657496929168701,-0.2701464295387268,-0.3999726474285126,-0.5255918502807617
134,-0.7202038845199202,0.145039289837424,-0.8098989945444622,-0.6526129245758057,-0.14453130960464478,-0.7437788844108582,-2.495940685272217,3.5672082901000977,-1.9827319383621216,-0.26732420921325684,0.4136658310890198,-0.15999919176101685
135,-1.0121688156978546,0.3859142835037698,-0.7907928849884469,-0.7856181859970093,-0.37640634179115295,-0.4910421669483185,7.834088325500488,-9.741183280944824,-1.0750901699066162,0.8512462377548218,0.29480233788490295,-0.5836648344993591
136,-1.4120035974495182,0.5475434064890424,-0.4074448612365755,-0.8430641889572144,-0.5205913186073303,-0.13500913977622986,-8.311688423156738,9.540680885314941,1.1694910526275635,0.5794533491134644,0.2837596535682678,0.9801018834114075
137,-0.9185020017806664,0.2986437262412904,-0.6635571727021573,-0.759517252445221,-0.29422423243522644,-0.5801427960395813,9.530271530151367,-9.967498779296875,-0.8546100854873657,0.15294986963272095,0.42233705520629883,-0.7783929109573364
138,-1.7483755402355068,0.5485631706775376,0.055913360573614033,-0.8398562669754028,-0.5214617848396301,0.1507287323474884,-3.023622512817383,5.903249263763428,0.45228809118270874,-0.11096459627151489,-0.5067059993743896,0.9817328453063965
139,-0.9849588391792083,0.30788417379402977,-0.4471913446740781,-0.7940673828125,-0.3030429780483246,-0.5268984436988831,-2.6996724605560303,1.8927804231643677,-0.4050354063510895,-0.3645783066749573,0.029071450233459473,-0.6324490308761597
140,-0.7906047614684456,0.2345557103546681,-0.6621932562588727,-0.6913160085678101,-0.23241087794303894,-0.6841544508934021,-2.1900851726531982,1.4139453172683716,0.5585387945175171,0.5538038611412048,0.18930482864379883,-0.1212959885597229
141,-1.2566824552633542,0.3102468756370647,-0.18991182429211062,-0.9056646823883057,-0.3052937388420105,-0.2942228615283966,12.047986030578613,-8.262991905212402,0.24377702176570892,0.46966010332107544,0.9327962398529053,-0.3072175681591034
142,-1.829214023550985,0.30078970095827007,0.28275244948250844,-0.923389196395874,-0.2962745428085327,0.24407759308815002,-1.0884287357330322,0.9885520339012146,0.9210044145584106,-0.008312463760375977,0.059900641441345215,0.35498249530792236
143,-1.611385825395635,0.30509867668679513,-0.015908591471403707,-0.9530318379402161,-0.30038729310035706,0.038704343140125275,-5.601588726043701,4.414554119110107,0.3350902497768402,-0.491075336933136,-0.24978363513946533,0.34435224533081055
144,-1.1592886081845246,0.2897433071664543,-0.4950501315700949,-0.8783157467842102,-0.2857062518596649,-0.38331887125968933,-4.301384449005127,3.652330160140991,-2.0628676414489746,-0.551859974861145,0.27966374158859253,-0.09924030303955078
145,-1.1724379834069618,0.42294351433326033,-0.5296283061435264,-0.8404832482337952,-0.4104463756084442,-0.3537253141403198,6.955573081970215,-5.76923131942749,0.17302004992961884,0.8418260812759399,0.4941866397857666,-0.6808663606643677
146,-2.066247610433553,0.28855194271329365,0.41586889955137124,-0.8433824181556702,-0.284564346075058,0.4557729959487915,4.110297203063965,-0.9970332980155945,0.9738079905509949,0.7014910578727722,0.34540116786956787,1.0632851123809814
147,-1.9109042375279492,0.2977559807001148,0.30324079617159805,-0.9012365341186523,-0.2933756709098816,0.31891003251075745,-1.8087671995162964,0.7750778198242188,-0.2736678123474121,0.07009017467498779,0.029474884271621704,0.10590985417366028
148,-1.4339374562838234,0.40085648717258293,-0.13362559877806912,-0.9121176600456238,-0.39020708203315735,-0.125616654753685,-5.617712020874023,4.121976375579834,0.3300563395023346,-0.04639357328414917,-0.07430091500282288,0.0006777197122573853
149,-0.8696562079684425,0.17137131485330723,-0.5830451169725933,-0.7529144883155823,-0.17053373157978058,-0.6356399059295654,-6.294571876525879,4.076568603515625,0.2273118942975998,-0.207550048828125,-0.09232941269874573,-0.07551121711730957
150,-1.0530789849335975,0.3133076709895092,-0.5323239896260001,-0.826650083065033,-0.3082069754600525,-0.47080597281455994,8.697196960449219,-7.2097978591918945,-2.0860133171081543,0.4518025517463684,0.7804054021835327,-0.6956064105033875
151,-2.0476006782215155,0.42486815881677936,0.32947771189287384,-0.8094753623008728,-0.4122006595134735,0.41813918948173523,4.126138210296631,-2.124241828918457,0.2884674370288849,0.6319392323493958,0.20056119561195374,0.34518176317214966
152,-1.7972280996294439,0.3931192258503162,0.19387016369922133,-0.9001393914222717,-0.38307157158851624,0.20737649500370026,-2.055534839630127,1.9333691596984863,0.5596367120742798,0.3822104334831238,0.17195096611976624,-0.028543487191200256
153,-1.391991362980262,0.27544846831767417,-0.11186913939614722,-0.9469612836837769,-0.2719785273075104,-0.17114922404289246,-3.391033411026001,3.125093460083008,1.366854190826416,-0.23239052295684814,-0.3410280644893646,0.08869075775146484
154,-1.280978480774909,0.23539483980114642,-0.2333275152748523,-0.931868314743042,-0.2332269549369812,-0.27789658308029175,-0.2277730107307434,-1.166404366493225,-0.5827414989471436,-0.6839305758476257,-0.2668951153755188,-0.000866234302520752
155,-1.1979092634217228,0.3286342957101422,-0.4982912779735986,-0.8814411759376526,-0.3227507174015045,-0.3448094427585602,-2.835155963897705,0.9920058250427246,-1.7961286306381226,-0.06019407510757446,0.6514707803726196,-0.07279309630393982
156,-1.1461515560577407,0.361841686144247,-0.6300940136776241,-0.8521826863288879,-0.35399726033210754,-0.3853188753128052,0.9964920878410339,-0.7780866622924805,-0.015944264829158783,0.5817512273788452,0.12291815876960754,-0.24009311199188232
157,-1.808936623904632,0.44777010468867384,0.02922371950304041,-0.8759753108024597,-0.4329565465450287,0.2126399576663971,8.033429145812988,-4.162011623382568,-0.15702006220817566,0.473952054977417,0.7409552931785583,0.0902470052242279
158,-2.0169702616917355,0.32048888711610235,0.2405697365505479,-0.8561710715293884,-0.31503060460090637,0.40954506397247314,0.6735374331474304,0.5524956583976746,0.15063004195690155,-0.21398895978927612,-0.2983269989490509,0.24412626028060913
159,-1.5053043880295438,0.3831383312372682,-0.08502662824757078,-0.9255075454711914,-0.3738330900669098,-0.06070009246468544,-4.892851829528809,6.340859413146973,0.4527714252471924,0.18930155038833618,-0.041358500719070435,0.29002439975738525
160,-1.0123118570589185,0.22268414750381232,-0.5193256100350769,-0.8271191120147705,-0.22084829211235046,-0.5168173313140869,-2.358684539794922,0.08772124350070953,-1.4188787937164307,-0.2633044719696045,0.4266435503959656,-0.7137277126312256
161,-1.6449396425739162,0.3906488749854491,-0.059442558102321845,-0.9221218228340149,-0.3807884752750397,0.06849472969770432,7.73276424407959,-5.102067947387695,0.4582333564758301,0.6113460659980774,0.39771050214767456,-0.2336711883544922
162,-1.860154977517308,0.21053301221020151,0.280891485575632,-0.9372648000717163,-0.20898117125034332,0.2790372669696808,-0.503339946269989,1.196054458618164,0.2897249162197113,0.24251681566238403,-0.022952422499656677,0.4749758243560791
163,-1.9178302041922308,0.21781018242382233,0.24159347164201958,-0.9181671738624573,-0.2160920649766922,0.33207422494888306,0.12291628867387772,-1.0037790536880493,0.44113558530807495,0.23365795612335205,0.029370278120040894,-0.05540183186531067
164,-1.9698561076297083,0.1343782821094778,0.2833384739137895,-0.9131200313568115,-0.13397422432899475,0.38504934310913086,0.37405115365982056,0.45558154582977295,0.07642777264118195,-0.369564414024353,-0.33192241191864014,0.4378572106361389
165,-2.0420658021758253,0.12983652358271536,0.27894820842880175,-0.8834932446479797,-0.1294720470905304,0.4501963257789612,-0.754652738571167,-1.0416628122329712,-0.7036749124526978,-0.9209348559379578,-0.1324755847454071,0.2736501693725586
166,-2.0511003024644996,0.29072518243619466,0.17433189213694242,-0.849638819694519,-0.2866470515727997,0.44265949726104736,-1.052065134048462,0.4353381097316742,-1.1447356939315796,0.24099618196487427,0.014720171689987183,-0.5131093263626099
167,-2.05520485789824,0.39165103590936684,0.2093544993171367,-0.8179420232772827,-0.38171494007110596,0.4304232895374298,-0.137512668967247,0.15255074203014374,-1.6832844018936157,0.6033883094787598,0.31303519010543823,-0.3262363374233246
168,-1.8231133721523516,0.4624733732434456,0.0880859996274453,-0.8666144609451294,-0.44616302847862244,0.22342318296432495,-4.125469207763672,4.63099479675293,4.041952610015869,1.1695319414138794,0.6249197721481323,0.03532004356384277
169,-1.1924079205166345,-0.038744047159008685,-0.1785644784218217,-0.9285638928413391,0.038734354078769684,-0.3691461384296417,0.4186748266220093,2.090684652328491,0.8360867500305176,-1.8205053806304932,-0.3664015829563141,-0.6914922595024109
170,-1.286886597435025,0.07466214065492903,-0.007160659572970204,-0.9572931528091431,-0.07459279149770737,-0.27933061122894287,-0.3274557292461395,-0.8555959463119507,-2.034571409225464,-0.7599919438362122,-0.34021738171577454,0.6062959432601929
171,-1.466582522296636,0.30597935586813363,-0.17560494092387113,-0.9483790397644043,-0.3012271821498871,-0.09919355064630508,-1.6737068891525269,-2.88187575340271,-2.8607444763183594,0.2606806755065918,0.2711063325405121,-0.21760940551757812
172,-1.572968403780848,0.6195628427182932,-0.3360678363095122,-0.8141306042671204,-0.5806792974472046,0.0017683572368696332,-0.6513803005218506,-0.8616378307342529,-3.8845696449279785,0.24473357200622559,0.4540770649909973,-0.08646988868713379
173,-1.6791334739722066,0.8850343239479886,-0.3542998167002428,-0.6295501589775085,-0.7739367485046387,0.068471759557724,-0.6701571345329285,-0.5650174617767334,0.8363562822341919,1.0644257068634033,0.6143909692764282,0.03850769251585007
174,-1.0862055902739627,0.03181968467568048,-0.8477772952158528,-0.884417712688446,-0.03181431442499161,-0.46561041474342346,-8.19493579864502,3.2725794315338135,8.547648429870605,-0.9269530773162842,0.2934110164642334,-0.8355522751808167
175,-1.1018618545255192,0.016405530229146002,-0.8160673571108126,-0.891930341720581,-0.01640479452908039,-0.451875239610672,3.8950929641723633,-0.7727087140083313,-3.5425424575805664,-0.760688066482544,-0.009489387273788452,-0.5373520255088806
176,-1.1801876440090644,0.5472802019532471,-0.734084726923143,-0.7896217703819275,-0.5203666090965271,-0.3251398801803589,4.178604602813721,-3.479544162750244,-4.918787956237793,0.40653467178344727,0.8786277770996094,0.15363112092018127
177,-1.5934840823000334,0.8745399659978604,-0.5192231320249484,-0.6411850452423096,-0.7672485113143921,0.01454954594373703,-0.8642692565917969,0.1775198131799698,-0.7583176493644714,0.7477676272392273,0.5143645405769348,-0.0030443649739027023
178,-1.2136229587732517,0.549230003180128,-0.7540585913740498,-0.7990975379943848,-0.5220306515693665,-0.29820653796195984,-5.1691789627075195,5.019464492797852,5.861076354980469,0.5750222206115723,0.6323363780975342,0.19557595252990723
179,-0.9789972235605258,0.08246585799677524,-0.801038092466229,-0.8271179795265198,-0.08237241953611374,-0.5559592843055725,3.3305602073669434,-0.6635702252388,0.46312686800956726,-0.77008056640625,-0.27335572242736816,-0.845453679561615
180,-1.037392803982182,0.22294512325595012,-0.5735027008372252,-0.8397701978683472,-0.22110280394554138,-0.49588268995285034,1.4302198886871338,-0.5053809285163879,-0.06574036180973053,-0.7481967806816101,-0.4188965857028961,0.08809155225753784
181,-1.1467516732857157,0.39430795842996447,-0.6553912128146896,-0.8414914011955261,-0.384169340133667,-0.37987667322158813,1.1411921977996826,-1.9985800981521606,-2.537013530731201,-0.08879119157791138,0.4059741497039795,-0.32999271154403687
182,-1.2963599687550995,0.6110547360831594,-0.6093927202858327,-0.7883931398391724,-0.5737316608428955,-0.22196435928344727,0.8702067732810974,0.7292510271072388,-1.9382355213165283,0.18100184202194214,0.21914798021316528,-0.07134006917476654
183,-1.2696638355550378,0.9257753590949086,-0.5619056451847165,-0.574161171913147,-0.7990871667861938,-0.17832157015800476,1.58701753616333,-0.21962285041809082,-3.2628962993621826,0.24603617191314697,0.7420650720596313,0.3783795237541199
184,-1.262201960620676,0.7931501735463748,-0.5982441963350972,-0.6684613227844238,-0.7125669717788696,-0.21309098601341248,-3.908066749572754,0.9714956879615784,7.380317687988281,1.0971417427062988,0.0735594630241394,0.16813863813877106
185,-1.0676628246112647,0.0027403636999394194,-0.739748904446919,-0.8760726451873779,-0.0027403603307902813,-0.48217126727104187,-1.0607815980911255,1.6757023334503174,1.5903652906417847,-1.7672836780548096,-0.45442819595336914,-1.0748050212860107
186,-1.1579515408193914,0.32479157840082823,-0.5938313631852784,-0.8680930137634277,-0.31911125779151917,-0.38023999333381653,2.7982542514801025,0.4128238558769226,-3.456864833831787,-0.3262123465538025,0.35164299607276917,0.09915786981582642
187,-1.2394563085339745,0.629379574962362,-0.5776095546621999,-0.7644221782684326,-0.5886433124542236,-0.2629786431789398,0.5831577181816101,-2.3627915382385254,-1.2465436458587646,0.6993281841278076,0.33768200874328613,-0.09412282705307007
188,-1.3038151899515182,0.6965120878141648,-0.5358560741448997,-0.7399079203605652,-0.6415460705757141,-0.20237277448177338,-0.27948155999183655,0.9803974032402039,-0.2732042670249939,0.47057509422302246,0.4634760618209839,0.12818458676338196
189,-1.0507622901150104,0.44255587774979405,-0.6544717071725503,-0.7841982841491699,-0.4282504916191101,-0.44903746247291565,-4.207090377807617,1.9293372631072998,5.15299654006958,0.5195193290710449,0.3068668246269226,0.19986140727996826
190,-0.9529408520709812,-0.12363722545577804,-0.575126503141467,-0.8089004755020142,0.12332247942686081,-0.574866533279419,2.3128232955932617,0.6348799467086792,0.8101795315742493,-1.6938003301620483,-0.16919037699699402,-1.039910078048706
191,-1.0579972939253097,0.1985902993060842,-0.3173921326109268,-0.8542483448982239,-0.19728752970695496,-0.4809753894805908,1.467862606048584,-0.42124706506729126,-3.02068829536438,-0.36103785037994385,-0.007805854082107544,0.17801213264465332
192,-1.1300957471759427,0.4159885590209721,-0.4853241937403229,-0.8273189067840576,-0.4040943682193756,-0.390193909406662,-0.04490282014012337,-2.8574626445770264,-2.305579900741577,0.40919750928878784,0.4200092852115631,-0.2685432434082031
193,-1.3872818751900882,0.653468181023429,-0.34265184139872606,-0.7806479334831238,-0.6079437136650085,-0.14489036798477173,1.5512744188308716,0.2606680691242218,-2.3142168521881104,0.3539206385612488,0.29750365018844604,0.13546043634414673
194,-1.0910028715831688,0.6563381198025315,-0.4979310338247743,-0.7027814984321594,-0.6102198958396912,-0.3656911849975586,-7.247973918914795,5.48917293548584,3.5693492889404297,1.0904767513275146,0.5089014768600464,0.8958425521850586
195,-0.8481806610735689,-0.23791285186695232,-0.7254998192990745,-0.7289502620697021,0.23567478358745575,-0.6427200436592102,0.8344159126281738,-3.73711895942688,1.0202988386154175,-1.4090044498443604,0.04217249155044556,-1.791133165359497
196,-0.9281412730297302,0.031991601793291524,-0.6055219172999198,-0.8000977635383606,-0.03198614344000816,-0.5990162491798401,-0.49612507224082947,1.1829025745391846,-2.2707338333129883,-0.5982787609100342,-0.013256162405014038,-0.09370219707489014
197,-0.8595095865716819,0.34498562684220513,-0.7610330495067156,-0.7128894925117493,-0.3381831645965576,-0.6143457293510437,1.9863253831863403,-1.1050912141799927,-3.4694809913635254,0.38934218883514404,0.6355311870574951,0.2464105486869812
198,-0.9208189163026446,0.48928319690448907,-0.8293350643181734,-0.702691376209259,-0.46999332308769226,-0.5341640114784241,-1.3053741455078125,0.7203088998794556,0.2775160074234009,0.603570282459259,0.36400577425956726,0.2742457985877991
199,-0.8178287698812533,0.2837788035218131,-0.8802669594576845,-0.7004794478416443,-0.27998530864715576,-0.6564577221870422,-1.4050934314727783,0.12022288143634796,2.779123067855835,0.36197853088378906,0.32716548442840576,0.18502217531204224
200,-0.858290081251078,-0.09151912906550672,-0.7105695322765169,-0.7535589933395386,0.0913914293050766,-0.6509965062141418,-1.3023128509521484,-0.30024254322052,3.4178104400634766,-0.8333398103713989,-0.2934940755367279,-0.49124592542648315
201,-0.8027320305687079,-0.10076160841852194,-0.5802562094792553,-0.7156086564064026,0.10059119015932083,-0.6912204027175903,3.7780840396881104,-0.9598627686500549,-0.5487951040267944,-0.7875499129295349,-0.25453710556030273,-0.40191924571990967
202,-0.8567250464922266,0.26692215193994445,-0.6440025704319714,-0.7289403676986694,-0.2637638449668884,-0.6317235231399536,-0.02697533369064331,0.14186322689056396,-3.4973926544189453,0.056912779808044434,0.6800235509872437,0.1464787721633911
203,-0.9431128567219346,0.46649973659627475,-0.7242559084361578,-0.7229052186012268,-0.4497627913951874,-0.5245202779769897,2.7301995754241943,-1.316483736038208,-0.3459068238735199,0.6207323670387268,0.29549646377563477,-0.19210869073867798
204,-1.1396503145238288,0.6536326854137757,-0.46697696948574624,-0.7212300300598145,-0.6080743074417114,-0.33177217841148376,1.9757158756256104,0.043415818363428116,-0.20865114033222198,0.5101705193519592,0.5256463885307312,0.37046846747398376
205,-1.229183876919734,0.3931917318382374,-0.34445617759775704,-0.8703160881996155,-0.3831385374069214,-0.3094427287578583,-1.1949383020401,-0.4467755854129791,5.626597881317139,-0.05857795476913452,-0.1303960084915161,0.013330638408660889
206,-1.2401369351734144,0.1586402651078297,-0.2786179843912623,-0.9339516758918762,-0.1579756885766983,-0.32058992981910706,3.116205930709839,-1.175480842590332,-1.284104347229004,-1.2160727977752686,-0.5559525489807129,-0.44054901599884033
207,-1.4530088669582704,0.5131992239038857,-0.12544882485221553,-0.8651418685913086,-0.4909668564796448,-0.10237675905227661,-1.0997217893600464,-1.8949122428894043,-3.2876343727111816,0.002791464328765869,0.6667481660842896,0.13480162620544434
208,-1.4827568591168332,0.637572890997156,-0.3673907892758104,-0.8004307150840759,-0.5952469110488892,-0.07065212726593018,-1.2271267175674438,-1.0686595439910889,0.1280749887228012,0.6288304328918457,0.19819802045822144,-0.5501974821090698
209,-1.400326175834254,0.5679274534231795,-0.383433538098448,-0.8307982087135315,-0.5378860235214233,-0.1430143266916275,0.02703801728785038,1.8203083276748657,1.4116123914718628,0.4558897614479065,0.41309964656829834,-0.08049643039703369
210,-1.237364853428565,0.3094707592986521,-0.2865541375936643,-0.900036096572876,-0.3045545816421509,-0.31173962354660034,0.6811310052871704,2.753805160522461,4.203362941741943,0.16282296180725098,0.06406080722808838,-0.05114489793777466
211,-1.3150255420763295,0.14630868776432818,0.035906496684030495,-0.95713210105896,-0.14578725397586823,-0.2502882182598114,5.131122589111328,-2.3877317905426025,1.1718792915344238,-0.65431809425354,-0.10511298477649689,-0.10341045260429382
212,-1.5495522288466266,0.20813269398407788,0.3338011041135415,-0.9781976938247681,-0.20663325488567352,-0.020784053951501846,-3.5454962253570557,-1.7980557680130005,-1.2470823526382446,-0.47945916652679443,-0.2629101872444153,0.38116610050201416
213,-1.5735971801425903,0.33986218925062955,0.07741432536252524,-0.9427967667579651,-0.33335715532302856,0.0026406424585729837,0.9201450347900391,-0.24493013322353363,-0.6671792268753052,0.3356802463531494,0.05424341559410095,-0.5795755386352539
214,-1.5729767336522695,0.4169409565271264,0.15537387502834818,-0.9143298268318176,-0.4049653708934784,0.001993614248931408,0.398681104183197,-0.10427630692720413,-0.5455015301704407,0.7113268971443176,0.3918886184692383,0.35732030868530273
215,-1.521143212886092,0.2794293408038394,-0.021134369147488424,-0.9600284099578857,-0.2758071720600128,-0.04770761355757713,-1.380230188369751,-0.18611004948616028,2.5695724487304688,0.04114407300949097,0.03534388542175293,-0.20952504873275757
216,-1.4732346131837728,0.15505358720754459,-0.04037072926153048,-0.9833049178123474,-0.15443304181098938,-0.09623844921588898,0.48964834213256836,0.6720443964004517,0.15945661067962646,-0.6835803985595703,-0.5966808199882507,0.10398990660905838
217,-1.572431514835361,0.23789905562860447,-0.02581323270958001,-0.9718337655067444,-0.2356613725423813,0.0015891323564574122,-1.2325353622436523,-2.0606796741485596,-1.9867701530456543,-0.4414656162261963,0.016926690936088562,0.15882647037506104
218,-1.6753669989952706,0.3904165396404178,-0.21990407530579373,-0.91969895362854,-0.3805736303329468,0.0965256318449974,-1.0004395246505737,-0.6974601149559021,-0.30687227845191956,0.39659732580184937,0.18249934911727905,-0.6221451759338379
219,-1.6800635790530036,0.38481327859179,-0.2004485936421653,-0.9213408827781677,-0.3753860890865326,0.10107496380805969,-0.06494955718517303,0.8034573793411255,0.10571944713592529,0.62261962890625,0.17746436595916748,-0.0813300684094429
220,-1.5830247391824925,0.30904549201476955,-0.22961021440725846,-0.9525529742240906,-0.30414947867393494,0.011648790910840034,0.26052287220954895,1.0395578145980835,1.3598135709762573,0.14371520280838013,0.20318210124969482,-0.002844453789293766
221,-1.6359598703453129,0.26217466568738457,-0.09261227362749651,-0.9637787938117981,-0.25918152928352356,0.06289228796958923,1.3817507028579712,0.13499793410301208,-0.418815016746521,-0.6610838770866394,-0.36694762110710144,0.4415785074234009
222,-1.7395750592285706,0.3302975078815656,0.013255262330449534,-0.9325047731399536,-0.32432445883750916,0.15889865159988403,-1.2332273721694946,-1.735119104385376,-0.9637803435325623,-0.41557884216308594,-0.20419421792030334,0.35851168632507324
223,-1.8658530581610766,0.4463571054849402,-0.07880790680763841,-0.8630451560020447,-0.43168240785598755,0.26230376958847046,0.41989195346832275,-0.3251432478427887,0.22929787635803223,0.28694963455200195,0.18255221843719482,-0.7167104482650757
224,-1.7823470942994417,0.34718380361641415,0.030530723057231948,-0.9193712472915649,-0.34025099873542786,0.1974480301141739,1.2008000612258911,2.085000991821289,-0.2103298008441925,0.15707266330718994,-0.020619362592697144,0.1468513011932373
225,-1.6619778632361732,0.3923412427012872,-0.04258438024484551,-0.9201779961585999,-0.3823527991771698,0.08413654565811157,-2.0607993602752686,0.20357319712638855,-0.12148644030094147,0.4632229208946228,0.26971235871315,0.2406163215637207
226,-1.6307557877836119,0.3061565307772829,-0.12906775281925273,-0.9517856240272522,-0.30139613151550293,0.05713704228401184,0.24883495271205902,0.12615622580051422,1.038333535194397,-0.2594417929649353,-0.42046666145324707,-0.019920825958251953
227,-1.6668559388138704,0.2659047001998756,-0.028912850872593016,-0.9604070782661438,-0.2627822756767273,0.09254114329814911,1.5068678855895996,-0.25104689598083496,-0.2578258216381073,-0.5719415545463562,-0.2895401120185852,0.327243447303772
228,-1.7104963865634504,0.35891332938456016,-0.10756007724653899,-0.9271577000617981,-0.3512570261955261,0.13037322461605072,-2.5435078144073486,-0.48906853795051575,-0.9296780824661255,-0.0034301280975341797,0.38063013553619385,-0.17038176953792572
229,-1.653154045676169,0.3770110507730668,-0.23999720893850807,-0.9266178011894226,-0.36814308166503906,0.07648713886737823,0.5463873744010925,0.39091765880584717,0.28541243076324463,0.32484161853790283,0.005456894636154175,-0.5095316171646118
230,-1.6357172772995077,0.40454221935502366,-0.1301065710881317,-0.917346179485321,-0.39359796047210693,0.059638798236846924,0.9149553179740906,0.3278718888759613,-0.19512899219989777,0.6265899538993835,0.30717217922210693,0.16533684730529785
231,-1.5600428878589725,0.3098236291733373,-0.1064575195842755,-0.9523323774337769,-0.3048906624317169,-0.010241243056952953,0.4034954607486725,0.8013262748718262,1.100035548210144,-0.25367653369903564,-0.22480294108390808,0.15492510795593262
232,-1.552231381623693,0.2744439092919573,-0.028936731755216424,-0.9624101519584656,-0.27101171016693115,-0.017869144678115845,1.1543344259262085,0.6981948614120483,0.5078287720680237,-0.32622504234313965,-0.29757651686668396,0.26370352506637573
233,-1.5645835751446784,0.2836333165521506,-0.06972392401808802,-0.9600265026092529,-0.27984562516212463,-0.005964482668787241,-0.9764254093170166,-0.6174728274345398,-0.8461240530014038,-0.09005284309387207,0.06417796015739441,-0.3918779492378235
234,-1.6037220642407461,0.29565953864037015,-0.07646281888734836,-0.9560916423797607,-0.29137083888053894,0.03149140253663063,1.2429264783859253,0.5854222774505615,0.36301174759864807,0.323324978351593,0.007282733917236328,-0.42792999744415283
235,-1.5874530433375786,0.3045049088836702,0.057475221131969234,-0.9538632035255432,-0.2998208999633789,0.015889698639512062,-0.25439751148223877,0.6281313300132751,-0.4442363381385803,0.4717922806739807,0.2088327407836914,0.4699805974960327
236,-1.5131014781270833,0.2606163022301022,-0.050333472151032045,-0.9646236896514893,-0.2576760947704315,-0.0557156540453434,-0.5577646493911743,-0.165355384349823,1.053926706314087,0.04201632738113403,-0.16139128804206848,-0.05767244100570679
237,-1.521915563410603,0.22634919783697408,-0.035488804783696634,-0.9733282327651978,-0.22442135214805603,-0.04761495813727379,0.05343560129404068,-0.8206806778907776,-0.09438630193471909,-0.40940791368484497,-0.39601626992225647,0.3642958998680115
238,-1.631125042880349,0.24798150492400906,-0.08443515470369523,-0.9676464200019836,-0.24544771015644073,0.058447789400815964,-2.5666418075561523,-1.0337120294570923,-1.065751314163208,-0.6151021718978882,0.05890898406505585,0.07872868329286575
239,-1.5805036251580298,0.3472766579162728,-0.35396284991511795,-0.940258800983429,-0.3403383195400238,0.009127659723162651,-0.6354615688323975,0.3814126253128052,0.0553438663482666,0.5619171261787415,0.0850130021572113,-0.6712676286697388
240,-1.5307630277740027,0.3335740586694545,-0.30313465954098606,-0.9441209435462952,-0.327422171831131,-0.03781647980213165,1.33224356174469,0.7509615421295166,-0.24855290353298187,0.418410062789917,0.16847142577171326,0.07033295184373856
241,-1.5053749502048561,0.33326438252344354,-0.25414917929478714,-0.9429579377174377,-0.3271295428276062,-0.06177776679396629,-0.064559705555439,0.25192791223526,0.7788050770759583,0.3437148332595825,0.1693079173564911,0.1306712031364441
242,-1.4954734929962474,0.24019776722893574,-0.1836061524139635,-0.9685369729995728,-0.2378947138786316,-0.07309123128652573,1.3842462301254272,-0.4378788471221924,0.24047361314296722,-0.7761529684066772,-0.395589143037796,0.23988503217697144
243,-1.5799175828890273,0.28155815155391406,-0.07835729157705092,-0.9605836868286133,-0.27785277366638184,0.00876197312027216,0.19871123135089874,-1.652280330657959,-0.44460806250572205,-0.49281591176986694,-0.2990820109844208,0.3461116552352905
244,-1.6341696090577684,0.3856295041635184,-0.23276556534006604,-0.9247018098831177,-0.3761424720287323,0.0586799681186676,-2.222627878189087,-0.6721748113632202,-0.7041642069816589,0.12419521808624268,0.3129711151123047,-0.3513892889022827
245,-1.6221879605455072,0.45749172458106796,-0.3269837973228298,-0.8959786295890808,-0.44169917702674866,0.046086385846138,0.264372855424881,-0.5003772974014282,-1.5489749908447266,0.21432286500930786,-0.004864513874053955,-0.04790211096405983
246,-1.8477968146971544,0.7844085285180407,-0.4407504033322138,-0.6808249354362488,-0.7064066529273987,0.19356504082679749,-1.5021002292633057,-1.9357154369354248,-2.5994009971618652,0.4302908182144165,0.5184488296508789,-0.2120128571987152
247,-1.2419757873524302,0.3594984708945932,-0.9797956755263152,-0.8859222531318665,-0.35180482268333435,-0.302283376455307,-8.108046531677246,4.19735050201416,8.06631851196289,0.45974427461624146,0.37396055459976196,-0.2269829511642456
248,-1.2555179729682768,0.2804482722944053,-0.9991745931198557,-0.9135672450065613,-0.2767864465713501,-0.29796671867370605,5.325718879699707,-2.6165478229522705,-3.6376984119415283,-0.521674394607544,-0.2241748571395874,-0.5177071690559387
249,-1.5380292953517671,0.7364094980736077,-0.8516982774250083,-0.7404871582984924,-0.6716321110725403,-0.02427225187420845,0.8460409045219421,-3.4497299194335938,-4.6770453453063965,-0.46053212881088257,0.5496075749397278,-0.18021076917648315
250,-1.7360481692718746,0.9207062170231484,-0.8371010969135134,-0.5970129370689392,-0.796029269695282,0.09956545382738113,-2.8821468353271484,0.9328725337982178,2.5873360633850098,0.9749425649642944,0.42609506845474243,-0.17375360429286957
251,-1.183034689046175,0.3562796869005238,-1.2476502864150685,-0.8676210045814514,-0.3487899601459503,-0.3543717861175537,-3.3875420093536377,2.8510026931762695,5.240509510040283,0.12018448114395142,0.4711807370185852,-0.1683485507965088
252,-1.0943011462049832,0.22396267734341238,-1.2138526556810296,-0.8664149641990662,-0.2220950722694397,-0.4472123682498932,4.989695072174072,-2.98077130317688,-2.6850709915161133,-0.32367897033691406,-0.1948513388633728,-0.3676679730415344
253,-1.3948027383322084,0.5381186195238612,-0.9586478631370083,-0.8454105854034424,-0.5125213861465454,-0.15034228563308716,0.9187582731246948,-1.2902709245681763,-1.4867979288101196,-0.18283343315124512,-0.5476287603378296,0.20063525438308716
254,-1.616308196938678,0.7395887192142113,-0.8858140102107314,-0.7379810214042664,-0.6739841103553772,0.03361010551452637,-1.2759385108947754,-1.5755540132522583,-2.54338002204895,-0.4029034376144409,0.15947294235229492,-0.10940051078796387
255,-1.6804766575933123,0.8951039883408906,-0.9262732846514286,-0.6216797828674316,-0.7802741527557373,0.06846078485250473,0.6928908228874207,1.2103216648101807,1.1487549543380737,0.5921386480331421,0.5248419046401978,-0.5535529851913452
256,-1.2006832905883025,0.2275836208529145,-1.1562144103585015,-0.9082468748092651,-0.22562411427497864,-0.35239362716674805,-4.4364237785339355,5.627693176269531,7.748263835906982,-0.004259169101715088,0.5510788559913635,-0.12244459986686707
257,-1.0995422988738714,0.14672360914877197,-1.0809892114471216,-0.881426215171814,-0.14619773626327515,-0.44912588596343994,6.503283500671387,-4.124605178833008,-4.109239101409912,0.018099188804626465,-0.11059242486953735,-0.04406869411468506
258,-1.5810238050147123,0.5570153876226795,-0.7262772913719987,-0.8487922549247742,-0.5286551117897034,0.008681307546794415,0.34310126304626465,-1.6134378910064697,-0.6257479786872864,0.34703755378723145,-0.27298057079315186,0.4053659439086914
259,-1.4850938049460511,0.34185168333027466,-0.8405611542153281,-0.9386776685714722,-0.3352321982383728,-0.08064458519220352,-2.1301586627960205,2.55611252784729,3.359058141708374,-0.6468935608863831,-0.3070712089538574,-0.049879126250743866
260,-1.3599867496937121,0.34753740478548417,-1.033477455297819,-0.919399619102478,-0.340583473443985,-0.19674135744571686,3.1112072467803955,-2.472935676574707,-3.0351624488830566,0.0336117148399353,0.4341808557510376,-0.5114953517913818
261,-1.5632072797353678,0.5056723079223143,-0.8100122907501012,-0.8748238682746887,-0.48439571261405945,-0.0066392067819833755,-2.1703217029571533,3.0360076427459717,1.3793151378631592,0.7486489415168762,0.06844112277030945,0.3775498867034912
262,-1.0215449824096687,0.1437085046511566,-1.1577235426629313,-0.8441234827041626,-0.1432143598794937,-0.516667366027832,-1.3228704929351807,-0.4207633435726166,-0.04609595239162445,-0.2410968542098999,0.1638747751712799,-0.46850109100341797
263,-1.3666935363361965,0.46267512528219523,-0.8987885090896673,-0.8762871623039246,-0.4463435709476471,-0.1813782900571823,1.2652243375778198,0.11181813478469849,-0.6305961012840271,0.24829649925231934,-0.42511633038520813,0.5644654035568237
264,-1.1592611502262207,0.27528047380439874,-0.9438545930391908,-0.8820003271102905,-0.27181684970855713,-0.3849557638168335,-1.4253290891647339,1.467329978942871,3.4275689125061035,-0.1868472695350647,-0.20445573329925537,-0.3168874979019165
265,-1.2119577343768373,0.3000976721597737,-0.9644499610714798,-0.8944595456123352,-0.29561352729797363,-0.3354916274547577,1.0026118755340576,-1.019153356552124,-1.129026174545288,0.02417457103729248,0.321095734834671,-0.25943323969841003
266,-1.301114718552213,0.3275382766948286,-0.9251511434033014,-0.9126144051551819,-0.3217131495475769,-0.25226065516471863,1.7498246431350708,0.2234063744544983,0.7803203463554382,0.41780245304107666,-0.02757573127746582,-0.2757849395275116
267,-1.0268204737062943,0.18850252196994338,-0.8503606030390872,-0.8405005931854248,-0.18738815188407898,-0.5083742737770081,-3.1584818363189697,5.543755531311035,2.2440364360809326,0.1546943187713623,-0.007069841027259827,0.5229616761207581
268,-0.9986473150317429,0.18768352786132445,-0.8913074833640648,-0.8259751796722412,-0.18658360838890076,-0.5319318771362305,4.235620021820068,-6.053462028503418,-1.3978110551834106,0.2676408290863037,-0.11511316895484924,0.03931713104248047
269,-1.2519149586660772,0.1895746943708825,-0.8692438097972731,-0.9325743913650513,-0.1884412318468094,-0.3078879117965698,-5.730508327484131,4.023982524871826,2.259988307952881,-0.48043525218963623,-0.3987627625465393,0.0010031461715698242
270,-0.7507887508970655,-0.22237907341589994,-1.2659203399405394,-0.665416419506073,0.22055073082447052,-0.7131467461585999,4.104651927947998,-0.7407886385917664,-3.5830276012420654,-0.5337870121002197,0.5942380428314209,-1.0322602987289429
271,-1.1732215967443493,0.47744640160743096,-1.1323403742688254,-0.8188962340354919,-0.4595126509666443,-0.3438851237297058,3.4397308826446533,-5.218203544616699,-3.9397389888763428,0.7980528473854065,0.22078892588615417,0.12556234002113342
272,-1.2346654965763408,0.4920060414589838,-1.152572559364946,-0.8320626616477966,-0.4723949432373047,-0.29071396589279175,-2.3352622985839844,2.4261465072631836,3.2583117485046387,0.8307352066040039,0.4573955833911896,0.07739612460136414
273,-0.9671201638438554,0.03799964349563199,-1.1863918738535546,-0.8226600289344788,-0.037990499287843704,-0.5672629475593567,-1.6589620113372803,0.43834441900253296,3.9122259616851807,0.049390435218811035,0.01890173926949501,-0.2168404459953308
274,-1.1153481915732206,0.034306454243806635,-0.9397953927832103,-0.897535502910614,-0.03429972380399704,-0.4396059811115265,4.196381568908691,-0.8630765080451965,-0.3359355628490448,-0.9343735575675964,-0.6184865236282349,-0.296004980802536
275,-1.2732511333969363,0.20936777131912415,-0.9096669369545936,-0.9351811408996582,-0.20784151554107666,-0.2867719829082489,-0.9333460927009583,-1.3458746671676636,-2.2144525051116943,-0.4283137321472168,-0.16021573543548584,-0.5929582715034485
276,-1.4132961286755645,0.4482400570285852,-0.9814230525209011,-0.8900564312934875,-0.433380126953125,-0.14135482907295227,0.9565510153770447,-0.6787488460540771,-2.1638622283935547,0.5495718121528625,0.3529205322265625,-0.5196406245231628
277,-1.290587741737899,0.5391939942877253,-0.9164751610588444,-0.8246539831161499,-0.5134444832801819,-0.23731906712055206,-0.0683128833770752,2.480367422103882,0.3874500095844269,0.717308521270752,0.6280533075332642,0.21670445799827576
278,-1.2009209865571993,0.2659898227393503,-0.8519386313244723,-0.8995835185050964,-0.2628644108772278,-0.348786324262619,-1.809355616569519,1.2780487537384033,5.03095817565918,0.27311867475509644,0.05168277025222778,0.36387723684310913
279,-1.114487068251902,-0.07394136602421002,-0.941107120611252,-0.895232081413269,0.07387400418519974,-0.4394339919090271,0.5767253637313843,-0.33526504039764404,-0.21589238941669464,-1.2146769762039185,-0.7454133033752441,-0.7802467942237854
280,-1.197325171149764,0.19910772343692618,-0.8994022095842202,-0.9126718640327454,-0.19779476523399353,-0.357641339302063,0.43416744470596313,-1.6218057870864868,-3.3034353256225586,-0.5118886828422546,0.24854549765586853,0.02025425434112549
281,-1.3318942905006963,0.5392632444541542,-1.025419550913939,-0.8337162137031555,-0.513503909111023,-0.20305433869361877,-0.03929917514324188,-2.7470498085021973,-3.9256765842437744,0.03913003206253052,0.859481692314148,-0.23873335123062134
282,-1.4874261388316705,0.8769886032794237,-1.1205740765360859,-0.6372480988502502,-0.7688166499137878,-0.05325092375278473,-1.3126270771026611,-1.1941641569137573,-3.246802568435669,0.4764052629470825,0.3559139370918274,-0.18373334407806396
283,-1.312949698627761,0.9080653029235639,-1.2704266139156881,-0.5949319005012512,-0.7883148789405823,-0.15689371526241302,-2.2702715396881104,2.294755458831787,4.140387535095215,1.0126872062683105,0.6271515488624573,0.11352820694446564
284,-0.9299728112431445,0.036716296516851946,-1.3995690417173763,-0.8010634183883667,-0.0367080494761467,-0.5974528193473816,-4.7180070877075195,1.9058904647827148,7.083262920379639,-0.4838486909866333,0.2392531931400299,-0.5607044696807861
285,-0.9336085899599456,0.02749790487627398,-1.2020785829273604,-0.8034682273864746,-0.027494439855217934,-0.594712495803833,4.498311996459961,-2.085911989212036,-2.2760095596313477,-0.9750351905822754,-0.2846851348876953,-0.315413236618042
286,-1.0985626753384259,0.4019037498693704,-1.1686498329321462,-0.8195932507514954,-0.39117109775543213,-0.41863110661506653,2.6847376823425293,-2.749114990234375,-3.3706717491149902,-0.10205280780792236,0.5176970362663269,-0.09716174006462097
287,-1.5106294145799766,0.7077600741656644,-0.9253165862824465,-0.7584450840950012,-0.650133490562439,-0.045688446611166,1.12152898311615,-0.29582202434539795,-0.8856057524681091,0.5680002570152283,0.18962323665618896,0.020053688436746597
288,-1.4318005309011514,0.8161664304421135,-0.98601013327288,-0.6784124374389648,-0.7285251021385193,-0.09490847587585449,-0.6354041695594788,-0.09310741722583771,-1.2214689254760742,0.3919287323951721,0.5255070328712463,0.11477536708116531
289,-1.225701793711025,0.5271562567457934,-1.1932861319048982,-0.8132884502410889,-0.5030776858329773,-0.2923603653907776,-5.033275127410889,2.495738983154297,5.703098773956299,0.38070183992385864,-0.009007155895233154,0.16418656706809998
290,-0.9761539989120798,-0.11118656853804436,-1.3687676295339537,-0.8232340216636658,0.11095762252807617,-0.5567532777786255,-1.6353667974472046,1.1302461624145508,0.26224708557128906,-1.3513569831848145,-0.20965147018432617,-1.259881854057312
291,-1.0201461389738014,0.23578052421707013,-1.2821269043117225,-0.8286064863204956,-0.23360198736190796,-0.5087645053863525,2.379991054534912,-0.4455766975879669,-4.208771705627441,-0.3109808564186096,0.5078787207603455,0.19902640581130981
292,-1.3087437573068508,0.647100519254949,-1.1514237370487366,-0.7705972194671631,-0.6028756499290466,-0.2066900134086609,2.0172154903411865,-2.7101082801818848,-2.1517293453216553,0.6531046032905579,0.2684183120727539,0.08487911522388458
293,-1.3219196651029586,0.7968944025279711,-1.1867495014323013,-0.6773967742919922,-0.7151889204978943,-0.17215746641159058,-1.5979703664779663,0.9893599152565002,-0.9940711855888367,0.42181211709976196,0.5612583160400391,0.18912525475025177
294,-1.0793238615632161,0.529359802585594,-1.3489876544631831,-0.7609695196151733,-0.5049808621406555,-0.40733253955841064,-4.255181312561035,2.994671106338501,5.196486949920654,0.37032926082611084,-0.16835898160934448,0.057463765144348145
295,-0.8456077568127369,-0.0036159833605202973,-1.399761978363135,-0.7483695149421692,0.0036159753799438477,-0.6632722616195679,0.6680324077606201,1.627063274383545,1.3576629161834717,-0.9546639919281006,-0.27229273319244385,-1.0546232461929321
296,-0.7030427554637978,0.14727773079988019,-1.3451519126706537,-0.6395426392555237,-0.14674587547779083,-0.7546197175979614,1.3825604915618896,1.6421512365341187,-2.1171491146087646,-0.07029622793197632,0.38286036252975464,-0.17174136638641357
297,-0.7091144648594965,0.4599240509628408,-1.299205812675597,-0.5834972858428955,-0.4438800513744354,-0.6800746321678162,1.9705461263656616,-0.021745946258306503,-0.759235143661499,0.613145112991333,0.2833881378173828,0.38275712728500366
298,-0.5278499432769748,0.41919924181576507,-1.2717338270841956,-0.4600662887096405,-0.4070291519165039,-0.7890920639038086,-1.1834640502929688,2.2251007556915283,-0.23622681200504303,0.073393315076828,0.1448526382446289,0.4902181625366211
299,-0.2923664433416223,0.19409983569617847,-1.3301157399231343,-0.28280678391456604,-0.19288335740566254,-0.9395830631256104,-3.6746060848236084,1.5629507303237915,0.3486051857471466,0.012009084224700928,-0.31610408425331116,0.07651543617248535
300,-0.15919114081001257,0.10870387555120004,-1.3850404390614057,-0.15758396685123444,-0.10848991572856903,-0.9815279841423035,3.8619823455810547,0.6432830095291138,-1.7946683168411255,-0.30861783027648926,-0.21125800907611847,-1.0954067707061768
301,-0.048274183599357354,0.37917251753326037,-1.581444003390918,-0.044827912002801895,-0.3701518774032593,-0.9278890490531921,0.5527986288070679,1.6384499073028564,-1.7078464031219482,-0.0427575409412384,0.3570750951766968,-0.19610387086868286
302,0.10804031746609151,0.43313347430853655,-1.7173085978857172,0.09787267446517944,-0.4197169840335846,-0.9023628234863281,-0.014288341626524925,0.3902694880962372,-0.23507365584373474,0.17019374668598175,0.2353602945804596,0.2747230529785156
303,0.20950652651998408,0.3895205062530735,-1.6812965997113614,0.19239792227745056,-0.37974488735198975,-0.9048628807067871,0.23809996247291565,1.1194632053375244,0.11276261508464813,-0.0036772340536117554,0.043868422508239746,0.3150343894958496
304,0.23206686720974062,0.4202954340841958,-1.6926723180357568,0.20997312664985657,-0.4080301821231842,-0.888494610786438,0.5116773843765259,-1.2639473676681519,-0.08969980478286743,0.05278320610523224,-0.04262286424636841,0.3023282289505005
305,0.1863140622990409,0.4172600947191824,-1.7005045022327325,0.16934509575366974,-0.40525713562965393,-0.898381233215332,-0.7135204672813416,0.2806348204612732,0.4078561067581177,0.2553527355194092,-0.11227518320083618,-0.2657727599143982
306,0.15567194622746286,0.43036096428374243,-1.6765586093104794,0.14090630412101746,-0.41719886660575867,-0.8978254199028015,0.488707572221756,-0.42712536454200745,-0.17014768719673157,0.17885686457157135,0.21613383293151855,-0.476060688495636
307,0.09155554600036467,0.5344110071495446,-1.6347535039519792,0.07867981493473053,-0.5093342661857605,-0.8569644689559937,1.0326119661331177,-0.41300252079963684,0.6183289885520935,0.24044248461723328,0.103526771068573,0.14892613887786865
308,0.05078183003082789,0.5797006476428065,-1.514689539451615,0.04246717691421509,-0.547773540019989,-0.8355481624603271,0.250464528799057,0.36636921763420105,0.7803299427032471,-0.1453877091407776,0.11448490619659424,0.37871527671813965
309,-0.558787699660786,0.8345820609783583,-1.2589066337161896,-0.35599493980407715,-0.7410159111022949,-0.5693532228469849,6.804803371429443,-9.549537658691406,3.54638671875,0.8005292415618896,0.7180819511413574,0.30887043476104736
310,-1.8751255897561792,0.5847056157879579,-0.37843618221721703,-0.7955563068389893,-0.551953911781311,0.24987322092056274,4.651891231536865,-1.3027122020721436,4.535558700561523,-0.14229446649551392,-0.3347799777984619,-0.3010208010673523
311,-2.1731135833607134,-0.013549982675741314,0.14104049552906378,-0.8239492774009705,0.013549568131566048,0.5665014386177063,3.962576389312744,-0.5157898664474487,0.7052772641181946,-0.6914315223693848,-0.1153867319226265,0.9239007234573364
312,-2.108934041418406,-0.05305325382593506,0.30280703325660074,-0.857456624507904,0.053028371185064316,0.5118167400360107,-1.6824603080749512,0.4861993193626404,-0.5074223875999451,0.025745689868927002,-0.17251995205879211,0.38160067796707153
313,-2.0687521073747255,0.07002867850819626,0.31354845424564154,-0.8764073848724365,-0.06997145712375641,0.4764598608016968,-1.3979262113571167,0.19871780276298523,-1.2159593105316162,0.3520849347114563,-0.04413376748561859,0.29021796584129333
314,-1.8044701523083742,0.4299474717747003,-0.07515914587410644,-0.8842834234237671,-0.41682305932044983,0.21047887206077576,-8.55593490600586,3.1434106826782227,-1.5305601358413696,0.7282165288925171,0.5166918039321899,0.5841225385665894
315,-1.0077618213733806,0.25001382571364444,-0.8971483534370087,-0.8193475604057312,-0.2474173605442047,-0.5171597599983215,-0.9045888185501099,0.5881286263465881,1.465770959854126,-0.2149694561958313,-0.03140650689601898,-1.0733249187469482
316,-1.8207080035404994,0.34703378727992,-0.07132091919673766,-0.9111720323562622,-0.3401099145412445,0.2325747013092041,9.398406028747559,-6.246173858642578,0.7716255784034729,0.23416996002197266,0.143408864736557,0.6207120418548584
317,-2.1628136154288895,0.22304790426371726,0.1045744494311031,-0.8092601895332336,-0.2212030440568924,0.5442123413085938,-4.881641864776611,1.7106859683990479,-0.342724084854126,-0.7733813524246216,-0.06029108166694641,0.19918060302734375
318,-1.6852833344438554,0.4410894186933545,-0.3278465953038049,-0.8983673453330994,-0.42692485451698303,0.10330312699079514,-4.564639568328857,3.4288148880004883,0.16691505908966064,0.7870391011238098,0.07723915576934814,0.08581425249576569
319,-1.6523706134286489,0.37921342745291,-0.3480149368240077,-0.9258668422698975,-0.370189905166626,0.07569490373134613,6.773775577545166,-4.800692558288574,0.3443148732185364,0.4455356001853943,0.551220178604126,-0.3249472379684448
320,-2.190000395058382,0.0830666456961982,0.18859836882981157,-0.811532735824585,-0.08297114819288254,0.5783859491348267,-1.3120403289794922,1.896988034248352,0.15886488556861877,-0.27950114011764526,-0.30226749181747437,1.2830641269683838
321,-1.9403268199690016,0.21340493621850484,-0.0045704483276289894,-0.9113437533378601,-0.2117888182401657,0.3529844880104065,-1.8794442415237427,1.229885220527649,-0.2221640646457672,-0.5121334195137024,-0.2203706055879593,0.39043891429901123
322,-1.712441322195806,0.37934140235344016,-0.27392237722302953,-0.9196057319641113,-0.3703087866306305,0.1311357319355011,0.18570511043071747,-2.403245210647583,-1.1724492311477661,-0.059535443782806396,0.3762597441673279,-0.7736681699752808
323,-2.2823507427133256,0.12637844804562584,0.1945967526399382,-0.7513076066970825,-0.12604230642318726,0.647803783416748,3.4130988121032715,-0.653501570224762,1.2819442749023438,0.24747782945632935,-0.055766135454177856,0.3153613209724426
324,-2.0482651345895087,0.2072271890775223,0.1313753245891678,-0.8691586852073669,-0.20574720203876495,0.44970083236694336,-3.560262680053711,3.3124146461486816,-1.8036314249038696,0.21148979663848877,0.005933389067649841,0.04219666123390198
325,-1.8888008609040081,0.3054870040721201,0.04476039246962268,-0.9058831334114075,-0.30075767636299133,0.2981952130794525,3.295653820037842,-1.0471041202545166,1.3963954448699951,0.482909619808197,0.2540200352668762,-0.3351520597934723
326,-2.0633673407898216,0.01306369889189514,0.44664580515391356,-0.881044864654541,-0.01306332740932703,0.472852498292923,0.9763538837432861,1.802470088005066,0.24894335865974426,-0.6895270347595215,-0.036985501646995544,0.8589193820953369
327,-2.0486616120905086,-0.03180448841056368,0.487442799080125,-0.8875295519828796,0.03179912641644478,0.45965203642845154,-0.9999512434005737,-1.3881785869598389,-0.2638300657272339,-0.4389016628265381,-0.2950895428657532,0.1588629186153412
328,-1.9658084754080727,0.0883074975527893,0.4022352092071008,-0.9193953275680542,-0.08819276839494705,0.3833199143409729,1.2390735149383545,1.0763393640518188,-1.013589859008789,0.19995874166488647,-0.10637205839157104,-0.4106179475784302
329,-1.9021681354717694,0.09773383270258428,0.5091718434097628,-0.9410842657089233,-0.09757831692695618,0.3237878978252411,-0.44871005415916443,0.23202773928642273,0.11221522837877274,0.5446763038635254,0.2901747524738312,0.11275073885917664
330,-1.8980334505604315,0.06789708820068785,0.4427568220670707,-0.9447522163391113,-0.0678449347615242,0.3206874132156372,0.10855701565742493,-0.09630198031663895,0.8974461555480957,0.15053224563598633,-0.0725664347410202,-0.12360489368438721
331,-1.8985771673388425,-0.01274849737300137,0.49744379954951035,-0.9466822743415833,0.012748152017593384,0.3219166696071625,-0.03790588676929474,0.2595188617706299,0.18362386524677277,-0.2638433575630188,-0.11688938736915588,0.6186197996139526
332,-1.991687288169017,-0.051083106566670027,0.43111428560506726,-0.9115347862243652,0.05106089264154434,0.4080409109592438,-1.454520583152771,-1.8288251161575317,0.2842492461204529,-0.5788370370864868,-0.21211740374565125,0.1692754626274109
333,-2.042594838646794,0.08736203263069182,0.2329206176640534,-0.8873553276062012,-0.08725094795227051,0.45275580883026123,-0.4155438244342804,0.9664472937583923,-0.549084484577179,0.33195066452026367,-0.11660647392272949,-0.7285736799240112
334,-2.001938563637397,0.08477054812591175,0.35098871094761563,-0.9052266478538513,-0.08466905355453491,0.41640809178352356,0.2657795250415802,0.5089118480682373,-0.3728715777397156,0.5324545502662659,0.1379985213279724,0.13316768407821655
335,-2.0177297331158996,0.11342244477559925,0.3375814697201159,-0.8959825038909912,-0.11317940801382065,0.42942512035369873,-0.047573670744895935,-0.04403900355100632,-0.07670049369335175,0.1323106288909912,0.15967294573783875,-0.10694587230682373
336,-1.9937677357535937,0.05671995532306909,0.4368582466719341,-0.9104070067405701,-0.0566895492374897,0.40981176495552063,1.0000289678573608,-0.2345835268497467,0.1835271120071411,-0.21721762418746948,-0.006146155297756195,0.534554660320282
337,-1.983444847738855,0.04169801091797775,0.4598086122303053,-0.9152655005455017,-0.04168592765927315,0.4006882905960083,0.26743412017822266,-0.8421577215194702,0.34763121604919434,-0.24531787633895874,-0.29585373401641846,0.19913464784622192
338,-2.044933225201822,0.05162264576770641,0.3645942895741123,-0.888501763343811,-0.05159972235560417,0.4559624493122101,-1.1530653238296509,0.47018200159072876,0.31391024589538574,-0.27400416135787964,-0.17722107470035553,-0.5088189244270325
339,-1.9255196685826006,0.0375843370775566,0.47549863629988404,-0.9370803236961365,-0.03757549077272415,0.3470856249332428,1.6341357231140137,1.142533540725708,-0.49418047070503235,0.48766326904296875,-0.028968077152967453,0.10187360644340515
340,-1.8956950873766818,0.06830540514215942,0.4288532348051019,-0.9454731941223145,-0.06825230270624161,0.31846848130226135,-1.6419073343276978,-0.16932816803455353,0.221662700176239,0.3769916296005249,0.129287451505661,-0.03140494227409363
341,-1.8599245228119705,0.03909733606487612,0.4097903364015063,-0.957760214805603,-0.03908737748861313,0.2848987877368927,1.1246247291564941,0.45000556111335754,0.4678558111190796,-0.0010867714881896973,-0.19426529109477997,0.20629677176475525
342,-1.863645909556899,-0.019041276218343228,0.4670003666318581,-0.9572515487670898,0.019040126353502274,0.28862932324409485,-0.2846200168132782,-0.5696602463722229,0.7173890471458435,-0.5716790556907654,0.16073893010616302,0.48518964648246765
343,-1.9681129451660895,0.009837395851493997,0.36338569978621976,-0.9220581650733948,-0.009837237186729908,0.38692671060562134,-2.5628087520599365,-1.2405126094818115,-0.31213417649269104,-0.30429089069366455,-0.04234781861305237,-0.08770173788070679
344,-1.9376969663949801,0.13460489859346136,0.21157183147700365,-0.9249999523162842,-0.13419879972934723,0.3554791510105133,0.4783414304256439,0.5296258330345154,-0.3549312651157379,0.449704110622406,-0.07223734259605408,-0.4406690001487732
345,-1.9394583556078757,0.13875265586350832,0.26306115525976226,-0.9238451719284058,-0.1383078694343567,0.35690420866012573,-0.18635858595371246,-0.22180351614952087,-0.1859809309244156,0.42581379413604736,0.08832010626792908,-0.09430059790611267
346,-1.8594680970043869,0.14412328406816172,0.2510454000273193,-0.9486841559410095,-0.14362485706806183,0.28172773122787476,1.213468074798584,1.7103962898254395,-0.11332928389310837,0.007705032825469971,-0.045492589473724365,-0.07846543192863464
347,-1.8413996621848534,0.0967020568582623,0.3940183974627249,-0.9591076970100403,-0.09655141085386276,0.26606395840644836,0.3704352378845215,0.41801702976226807,0.0016439687460660934,-0.5137925744056702,0.13698722422122955,0.546344518661499
348,-1.939532581747724,0.0262949351104003,0.4162215694392904,-0.9324610233306885,-0.026291904971003532,0.360312283039093,-0.9330498576164246,-2.1469192504882812,0.40187355875968933,-0.2994266152381897,-0.3978413939476013,0.17054098844528198
349,-1.9651777845654996,0.12108192067020039,0.2507612356239394,-0.9164749979972839,-0.12078627943992615,0.38142403960227966,-0.25717324018478394,0.7911707162857056,-0.4947707951068878,0.2317674160003662,-0.20025864243507385,-0.6729127168655396
350,-1.900332773172503,0.13976974741372497,0.3136205753007896,-0.9369651675224304,-0.13931511342525482,0.3204486668109894,-0.11059600114822388,-0.3686636686325073,-0.05330129712820053,0.7099297642707825,0.20848320424556732,0.16737481951713562
351,-1.950002471410369,0.11336604882974556,0.03929431256212427,-0.9229957461357117,-0.11312337964773178,0.36780688166618347,-5.726930618286133,0.21267986297607422,1.3073526620864868,-0.26918864250183105,0.05274435132741928,0.4886690080165863
352,-1.614261031689175,0.2486454934655497,-0.5190926612235018,-0.9683312177658081,-0.2460913360118866,0.042114757001399994,-4.776750564575195,2.1295325756073,-0.8374515175819397,-0.4635382294654846,-0.4770073890686035,-0.1296696662902832
353,-1.4875771434965812,0.4067674693858823,-0.7565019095264944,-0.9152262210845947,-0.39564263820648193,-0.0763406902551651,-2.146066427230835,0.08470942825078964,-2.988417387008667,-0.631999671459198,0.020627379417419434,0.031861305236816406
354,-1.4131624685483837,0.6920776007097336,-0.9500024337098163,-0.7603760361671448,-0.6381381750106812,-0.12086376547813416,0.420662522315979,-1.4466869831085205,-2.674938440322876,0.3155212998390198,0.30874669551849365,-0.31285208463668823
355,-1.657246243060299,0.9877957820733463,-0.8385518811951131,-0.5484753847122192,-0.8348144888877869,0.04753412678837776,0.41728654503822327,-1.2044365406036377,-3.365072727203369,0.366132915019989,0.5507721900939941,-0.09605705738067627
356,-1.1205730884606706,0.8395266987470692,-1.2038737551697727,-0.601267397403717,-0.7443271279335022,-0.29061082005500793,-9.421072959899902,5.7431864738464355,6.626766204833984,1.1239876747131348,1.160373330116272,0.4272991120815277
357,-0.9175634619340794,0.0442477275020905,-1.3633887812076297,-0.7933459281921387,-0.044233288615942,-0.6071619987487793,3.6091933250427246,-2.7405989170074463,-0.4287562370300293,-1.2134900093078613,-0.2971363365650177,-1.6748967170715332
358,-0.9883783422084153,0.31168030044273026,-1.0088273666987708,-0.7948980331420898,-0.30665841698646545,-0.5235435366630554,1.3894494771957397,0.12820816040039062,-0.8577457666397095,-0.6622858643531799,-0.35516107082366943,0.11746138334274292
359,-1.0774605400457846,0.5049909418481028,-1.0310315608555658,-0.7708209156990051,-0.4837995171546936,-0.41445547342300415,0.48745813965797424,-1.5973567962646484,-0.9539952874183655,0.22325915098190308,0.5787549018859863,-0.18823617696762085
360,-1.168532843739183,0.5254198847929845,-0.90831400882947,-0.7960575819015503,-0.50157630443573,-0.3386937379837036,1.850111722946167,1.6893397569656372,0.692663311958313,0.31493276357650757,0.21428382396697998,-0.072194904088974
361,-1.06455295471601,0.5699866452452867,-0.7680833075810658,-0.7363094687461853,-0.5396208167076111,-0.4082372486591339,-0.12806962430477142,1.3000205755233765,0.6433963775634766,0.4576992988586426,0.30175161361694336,0.6810948848724365
362,-1.2496521256756505,0.3481259541848861,-0.6512866103478252,-0.8919553756713867,-0.34113678336143494,-0.29671764373779297,1.667907953262329,-2.351778984069824,2.7535557746887207,-0.5759248733520508,-0.40776458382606506,-0.28059861063957214
363,-1.4654236814278432,0.35118452133760486,-0.3722780001715303,-0.933758020401001,-0.34401026368141174,-0.09875833988189697,0.3344089090824127,-1.750353455543518,-0.15282776951789856,-0.4544104337692261,-0.43019017577171326,0.3050724267959595
364,-1.6488973738917014,0.4547667624376409,-0.3383008208881884,-0.8956249952316284,-0.4392527937889099,0.07009182125329971,-0.05373939871788025,-1.7584620714187622,-2.0754871368408203,-0.18399536609649658,0.2544383406639099,-0.08301591873168945
365,-1.6805669396204341,0.5860089320950085,-0.42300299591906215,-0.8281400203704834,-0.5530402660369873,0.09127233177423477,-0.8155719637870789,-0.38912031054496765,-1.0971243381500244,0.3504635691642761,0.0976569652557373,-0.29786109924316406
366,-1.6769924448765838,0.7198744066541299,-0.48077811801388054,-0.7476527690887451,-0.6592902541160583,0.07969764620065689,-1.9574708938598633,0.29362305998802185,0.22582517564296722,0.7574031352996826,0.6589545607566833,0.2318105697631836
367,-1.0979497975286918,0.2639253174064459,-0.9772525250496605,-0.8594483733177185,-0.260871946811676,-0.43965262174606323,-5.167752742767334,3.2567086219787598,5.228994846343994,-0.03888237476348877,0.0030747056007385254,-0.5699756741523743
368,-1.0836467284024398,0.2516178426378278,-0.7624294607520475,-0.8558446764945984,-0.24897117912769318,-0.453368604183197,4.945373058319092,0.004933444317430258,-0.6373518705368042,-0.5196587443351746,-0.22890357673168182,-0.01910451054573059
369,-1.275136206204877,0.3543485632744386,-0.6510743226452966,-0.8971785306930542,-0.3469794690608978,-0.27326932549476624,0.3953183889389038,-3.6327521800994873,-1.4967187643051147,-0.08617424964904785,0.00821906328201294,-0.38472017645835876
370,-1.7068513390685194,0.48318167903923703,-0.44285876706537425,-0.8773379921913147,-0.46459895372390747,0.12010825425386429,1.8963159322738647,-1.0105804204940796,-0.7021375298500061,0.2631564736366272,0.03262263536453247,-0.4530550241470337
371,-1.9306722674222168,0.5224702826224924,-0.15836555762637122,-0.8110759854316711,-0.49902236461639404,0.30517643690109253,2.426992893218994,-1.6495616436004639,-0.9054431319236755,0.5532938838005066,0.33471566438674927,-0.04893562197685242
372,-1.7562130474473594,0.4696494659216435,-0.3320277402246361,-0.876442551612854,-0.4525737464427948,0.16439537703990936,-3.2929537296295166,3.3283767700195312,3.392850399017334,0.41495561599731445,0.042234331369400024,-0.10380266606807709
373,-1.37430790266483,0.25475463613901106,-0.5067268525188195,-0.9491044282913208,-0.25200796127319336,-0.188925638794899,1.6280313730239868,0.4023627042770386,-0.5164732933044434,-0.7936476469039917,-0.8252015113830566,-0.2040187120437622
374,-1.4861149597431318,0.3724083339749852,-0.4001463440187596,-0.9281160235404968,-0.36385974287986755,-0.07878253608942032,-1.411022663116455,-0.7739835381507874,-1.2976601123809814,-0.2639005184173584,-0.009812712669372559,0.1169905737042427
375,-1.647512222604514,0.49373518317918474,-0.4883897298408461,-0.8779789209365845,-0.47391825914382935,0.06748738884925842,0.827783465385437,-2.578335762023926,-0.983819842338562,0.15069925785064697,0.22179728746414185,-0.5273109674453735
376,-1.788584213711917,0.6670185363599411,-0.3845800252664833,-0.7671104669570923,-0.6186463236808777,0.16975988447666168,0.92409747838974,-0.3816225826740265,-2.341585397720337,0.41386955976486206,0.1929565668106079,-0.212988018989563
377,-1.7575657905353075,0.7221454975391074,-0.4166035612722211,-0.7373393177986145,-0.66099613904953,0.13933640718460083,-3.0237624645233154,2.1588876247406006,2.8488173484802246,0.7991069555282593,0.5442817211151123,0.1116858571767807
378,-1.3431094060454885,0.3070616312384212,-0.67139773631094,-0.928624153137207,-0.30225902795791626,-0.21516665816307068,1.8558324575424194,-1.262274146080017,3.7688095569610596,-0.681086540222168,-0.38307419419288635,-0.9367040991783142
379,-1.4881172248554497,0.3497750389066077,-0.16227535207825952,-0.9362407922744751,-0.3426864743232727,-0.0775844156742096,1.8260579109191895,0.16047942638397217,0.3514713943004608,-0.0789111852645874,-0.4028427004814148,0.6885615587234497
380,-1.6206597184206781,0.4044585850428911,-0.23914492379762978,-0.9181728959083557,-0.39352110028266907,0.04582119733095169,-1.645823359489441,-1.8866510391235352,-0.2537951171398163,-0.02062404155731201,0.25527647137641907,-0.3724355697631836
381,-1.6331344150430958,0.4686970560630973,-0.24838566470121448,-0.8904245495796204,-0.45172423124313354,0.055579375475645065,1.194771647453308,0.19688445329666138,-1.5158579349517822,0.3617076873779297,0.04434517025947571,-0.11807943880558014
382,-1.6347499997069666,0.6231270558983618,-0.23422612559972442,-0.8103975057601929,-0.5835773348808289,0.05189867317676544,-2.726074695587158,0.6967152953147888,-0.37420976161956787,0.6749299168586731,0.49037665128707886,0.4639095067977905
383,-1.1481414620609869,0.3032789550993218,-0.7923406701154301,-0.8703815340995789,-0.2986511290073395,-0.39146336913108826,-4.327755928039551,0.7884303331375122,3.6654624938964844,-0.16715508699417114,-0.21990355849266052,-0.8125771284103394
384,-1.4510105672548899,0.30603814463623563,-0.46869218532165957,-0.9467020034790039,-0.30128324031829834,-0.11394692957401276,3.435553550720215,-1.9733549356460571,-0.5251056551933289,-0.5860586762428284,-0.36154329776763916,0.35549354553222656
385,-1.6775491936623181,0.4914640579958584,-0.4090799348298227,-0.8766239285469055,-0.47191718220710754,0.09393923729658127,0.47908714413642883,-3.5951650142669678,-1.7794891595840454,0.11983382701873779,0.38304996490478516,-0.38710641860961914
386,-2.14068766294696,0.47821595210082524,-0.17985248817568,-0.7475061416625977,-0.46019598841667175,0.4790133535861969,3.971388816833496,-2.4277262687683105,-0.2565855383872986,0.307015597820282,0.1300111711025238,-0.6943302154541016
387,-2.324927483442487,0.27230125924249743,0.04775371979046518,-0.7020111083984375,-0.26894861459732056,0.6594290733337402,0.5351778864860535,0.6372309327125549,0.4262206554412842,0.11463940143585205,0.11964142322540283,-0.09387749433517456
388,-2.388784088797815,0.03094589132579563,0.22984953229103577,-0.6833639144897461,-0.03094095177948475,0.7294223308563232,4.152392864227295,-0.438845694065094,-0.03110845759510994,0.19627267122268677,-0.0406990684568882,0.4844450354576111
389,-2.3835273632043044,-0.07484627634503274,0.3843665145200184,-0.6855929493904114,0.07477641850709915,0.7241344451904297,1.306711196899414,-0.2090495079755783,-0.8308932781219482,0.04580724239349365,0.12235187739133835,0.5369433760643005
390,-2.4293386156945305,-0.1320879752398625,0.37939648331437137,-0.6478485465049744,0.1317042112350464,0.7502974271774292,-2.072751045227051,-0.11515907943248749,0.6689876914024353,-0.5732207894325256,-0.1880244016647339,0.31606292724609375
391,-2.2998395062810912,0.06859192915187523,0.17715969868212833,-0.74405837059021,-0.06853815913200378,0.6645898818969727,-3.170948028564453,3.2955617904663086,-0.4697345495223999,0.23307198286056519,-0.18149235844612122,-0.06316471099853516
392,-1.8765277243203926,0.24192891144627923,-0.10605406399632133,-0.9258551001548767,-0.2395758032798767,0.2922251522541046,-1.2066503763198853,1.4478120803833008,0.22144341468811035,0.7044959664344788,0.323575496673584,-0.4284556210041046
393,-2.3443641501508146,-0.0021268665599915968,0.2250153581894818,-0.7154206037521362,0.002126864856109023,0.6986904144287109,3.278947353363037,-2.925208330154419,0.7382435202598572,0.26240265369415283,-0.0017148784827440977,0.6859071850776672
394,-2.1219444018809916,0.05640032788749761,0.0482240246925271,-0.8505692481994629,-0.05637042969465256,0.522832989692688,-1.5808253288269043,1.3360563516616821,-0.42076388001441956,-0.6192640662193298,-0.35924845933914185,0.2143496870994568
395,-1.7781109389302887,0.22355457878125226,-0.24603526409472884,-0.9542357325553894,-0.221697136759758,0.20071075856685638,-3.852998733520508,2.7659542560577393,-1.670447587966919,-0.37597984075546265,-0.1163155734539032,-0.02006182074546814
396,-1.7724089606254771,0.369614494384508,-0.40713915737870116,-0.913579523563385,-0.3612559735774994,0.18672604858875275,2.4356026649475098,-3.447035312652588,0.019524870440363884,0.443791925907135,0.2792705297470093,-0.7960551977157593
397,-2.18489515034571,0.12948608790265614,0.1598465936640746,-0.810451090335846,-0.12912455201148987,0.5713983774185181,3.089416265487671,1.5510419607162476,-0.657916784286499,0.0939592719078064,-0.043757542967796326,0.4015936255455017
398,-1.9064326725840097,0.24595190516907725,0.06942386732354001,-0.9157862663269043,-0.24347969889640808,0.3194580674171448,-0.7537362575531006,0.3287603259086609,-0.14638754725456238,0.6285547018051147,0.2484387755393982,-0.2159881293773651
399,-1.8674181176027989,0.21835632591578635,0.07370380792813111,-0.9336212277412415,-0.21662527322769165,0.2853507101535797,1.03656005859375,0.03468110039830208,-0.0638742670416832,-0.24542540311813354,-0.18330758810043335,0.09112942218780518
400,-1.900062089860374,0.15654594218277526,0.23315244642200644,-0.934708833694458,-0.15590731799602509,0.31939437985420227,1.0991368293762207,0.37274283170700073,0.5124773383140564,-0.3295583724975586,-0.2070230096578598,0.3578670918941498
401,-1.998191154280893,0.11118335178786311,0.2405578722806892,-0.9044296741485596,-0.11095442622900009,0.4119420647621155,-1.1287732124328613,-1.026980996131897,0.4907616376876831,-0.10388648509979248,-0.1584700345993042,-0.03910881280899048
402,-2.0130746461871496,0.14546772693438179,0.21815674807357635,-0.8942334055900574,-0.14495523273944855,0.42347922921180725,-0.09898951649665833,1.0341589450836182,-0.43825864791870117,0.5779644250869751,-0.024524137377738953,-0.038469552993774414
403,-1.775619708956304,0.23233229111967219,0.004125284812412012,-0.9527906775474548,-0.23024778068065643,0.1979294717311859,-5.566885471343994,4.198703765869141,0.029709719121456146,0.3488019108772278,0.07007624208927155,0.2935103476047516
404,-1.575974867539846,0.21603058746956094,-0.33090777480278505,-0.9767428040504456,-0.21435417234897614,0.005058147944509983,6.414680004119873,-7.221255779266357,0.29198747873306274,0.005734622478485107,-0.17845281958580017,-1.0155256986618042
405,-2.0251315574511337,0.1272184482076956,0.16709542881068318,-0.8912914991378784,-0.12687556445598602,0.4353184700012207,-2.5001397132873535,4.261951446533203,-0.808212399482727,-0.5076190233230591,-0.15312321484088898,1.1580653190612793
406,-1.8665221573922626,0.2964648757324148,-0.09706050893761549,-0.9148595929145813,-0.2921411395072937,0.2787204384803772,-1.2233161926269531,-4.074660301208496,-0.5376970767974854,-0.10804367065429688,0.4995996952056885,-0.31485337018966675
407,-2.130515706873809,0.23881657224719788,-0.07662115003296109,-0.82335364818573,-0.23655295372009277,0.5158793926239014,-1.2316735982894897,3.2594075202941895,0.3193630576133728,0.03848731517791748,-0.22166848182678223,-0.15104174613952637
408,-1.8334987340144986,0.3302740265070895,-0.15204135251115378,-0.9134997725486755,-0.3243022561073303,0.2456558644771576,-0.5681602954864502,1.0894591808319092,-0.7939326763153076,0.5860306620597839,0.14665934443473816,0.020350754261016846
409,-1.7914205638992875,0.3329290140090952,-0.17664527969118268,-0.9221811890602112,-0.32681259512901306,0.20682215690612793,0.963029682636261,-1.110392689704895,0.9441980123519897,0.3015452027320862,0.12417587637901306,0.09189915657043457
410,-1.9011307800590127,0.20599901285183822,-0.048212576389554895,-0.9259341359138489,-0.20454515516757965,0.3175015151500702,0.37283703684806824,1.1338460445404053,-0.14754372835159302,-0.7260738611221313,-0.28373610973358154,0.5520358085632324
411,-1.8907362139341508,0.21467710648600305,-0.02395581227764699,-0.9274643063545227,-0.21303196251392365,0.3072899580001831,0.47116518020629883,-1.455482840538025,-0.5960220098495483,-0.30803972482681274,-0.19166162610054016,0.008505910634994507
412,-1.908134640840305,0.2785462461382782,-0.105703012842848,-0.9072675704956055,-0.27495822310447693,0.31821951270103455,-1.1146610975265503,0.8696911931037903,-0.18771840631961823,0.16614818572998047,-0.04268398880958557,-0.45583856105804443
413,-1.7836158830228963,0.3080333590613576,-0.061702759891884,-0.931432843208313,-0.3031851351261139,0.2012750655412674,0.10497207939624786,1.0759433507919312,0.020041489973664284,0.8505155444145203,0.21144932508468628,0.17407594621181488
414,-1.6894183028843026,0.23299413226973584,-0.22514663068352286,-0.9661418199539185,-0.23089177906513214,0.11514623463153839,-1.8203907012939453,0.5300185084342957,2.4583005905151367,0.10302859544754028,0.039317741990089417,-0.24267926812171936
415,-1.6388888898324823,0.10267391288528939,-0.14134236647504284,-0.9924285411834717,-0.10249361395835876,0.06768164038658142,3.04229736328125,0.6456535458564758,-0.5513251423835754,-0.8038514852523804,-0.4906918406486511,0.4490572214126587
416,-1.7149950977879602,0.17214123990496238,0.022745577768476598,-0.9749950170516968,-0.17129233479499817,0.14157572388648987,0.9591426253318787,-2.326256513595581,-0.7653694748878479,-0.3332477807998657,-0.13305947184562683,0.30274498462677
417,-2.004251769782948,0.26975164580104877,-0.13138673695196773,-0.8747013807296753,-0.2664920687675476,0.4048204720020294,-3.508532762527466,-2.0501956939697266,-0.3055269718170166,-0.2696162462234497,0.2972232699394226,-0.5879716873168945
418,-1.9242777415009926,0.38791768511715574,-0.24707416588481704,-0.8684656023979187,-0.37826162576675415,0.3204454183578491,0.7555282115936279,1.4696320295333862,-0.8178260326385498,0.552578330039978,0.09865963459014893,-0.5346483588218689
419,-1.7646303601334499,0.3189371023963543,-0.2630554445703466,-0.9317866563796997,-0.3135574460029602,0.18290844559669495,-1.5367881059646606,2.4844539165496826,2.259955406188965,0.5646143555641174,0.47021937370300293,-0.014024123549461365
420,-1.6937000847043586,0.10839265188689086,-0.16265755705594778,-0.9866324067115784,-0.10818052291870117,0.1218751072883606,2.7242870330810547,1.00546395778656,0.45873337984085083,-0.6474465727806091,-0.46970033645629883,0.7061277627944946
421,-1.6349974407777987,0.2007264063408527,-0.0767529792356544,-0.9779030680656433,-0.19938120245933533,0.0628688633441925,1.3353798389434814,0.7992950081825256,-1.6352845430374146,-0.33336085081100464,-0.012578606605529785,0.14014935493469238
422,-1.739940102443133,0.2314656370854341,-0.08799445585080666,-0.9594410061836243,-0.22940431535243988,0.16384901106357574,-2.6400938034057617,-2.048898696899414,-0.06435704976320267,-0.06051743030548096,0.18434514105319977,-0.17623914778232574
423,-1.6909809002141503,0.271976319537901,-0.3243626635273322,-0.956293523311615,-0.268635630607605,0.11548832058906555,-0.31495246291160583,1.7263606786727905,-0.4434027075767517,0.33234643936157227,-0.03866112232208252,-0.45699524879455566
424,-1.4933713332219543,0.3322008719691114,-0.39185286237017164,-0.9424949288368225,-0.326124370098114,-0.07311882823705673,-2.8931987285614014,2.1748385429382324,-0.7612394690513611,0.46286541223526,0.2858258783817291,0.4191576838493347
425,-1.295397690793786,0.20964065825230413,-0.661036594250985,-0.9412477016448975,-0.20810844004154205,-0.2659768760204315,-0.8538936376571655,-0.29724419116973877,2.0816407203674316,-0.03713059425354004,-0.19508980214595795,-0.37574678659439087
426,-1.4105117261249227,0.13725945512493995,-0.41397237870188536,-0.9778971076011658,-0.13682886958122253,-0.15809807181358337,2.723173141479492,-1.073620319366455,-0.1785990297794342,-0.7136463522911072,-0.4774136543273926,0.341874897480011
427,-1.541700419693861,0.23680338214022728,-0.3211169092574759,-0.9716814160346985,-0.23459641635417938,-0.028279932215809822,-0.7601220011711121,-1.8757739067077637,-1.5943762063980103,-0.303907573223114,0.030052348971366882,0.06380236148834229
428,-1.597390675088751,0.37612347382227335,-0.6091631591926656,-0.9297666549682617,-0.36731770634651184,0.024732369929552078,-3.0681798458099365,0.1051224023103714,-0.532238781452179,0.3149901032447815,0.05332234501838684,-0.5155160427093506
429,-1.4221666958928953,0.47187459365533385,-0.8184473236629844,-0.8808975219726562,-0.45455682277679443,-0.13190017640590668,-1.4526242017745972,1.1042165756225586,-1.5062111616134644,0.447914183139801,0.13136038184165955,-0.037151992321014404
430,-1.0606369959896027,0.4620891818099532,-1.1369625526718843,-0.7811441421508789,-0.4458191394805908,-0.43710318207740784,-4.213955402374268,3.1675779819488525,1.0357557535171509,0.6063394546508789,0.4577210247516632,0.3857726454734802
431,-0.776459189432994,-0.08818546450708158,-1.3858468916922049,-0.6980347633361816,0.08807121217250824,-0.7106271386146545,-5.725708484649658,0.546393871307373,2.8366382122039795,-0.5358366370201111,-0.19152578711509705,-0.32558196783065796
432,-0.8564085195607732,-0.23323345294547457,-1.459365968664757,-0.7350387573242188,0.2311246246099472,-0.6374161243438721,1.2809522151947021,-0.34496843814849854,-2.154679536819458,-0.794822633266449,-0.04389931261539459,-0.8728224635124207
433,-0.7642961968374798,0.09117392268415295,-1.5172378778666005,-0.6891548037528992,-0.09104765951633453,-0.7188712954521179,2.551483392715454,0.8589035868644714,-3.1937015056610107,0.13861769437789917,0.7335647344589233,0.0950157642364502
434,-0.7806764127582962,0.34978396109638865,-1.4522171658967564,-0.6611451506614685,-0.34269484877586365,-0.667418360710144,1.0893802642822266,1.6115381717681885,0.017603831365704536,0.3917665481567383,0.14381182193756104,0.3487996459007263
435,-0.6153606009053069,0.6312617526815837,-1.5171167033789639,-0.4660068452358246,-0.5901638269424438,-0.6591997742652893,1.9555480480194092,0.3171103298664093,-1.4448975324630737,0.3102909326553345,0.3932033181190491,0.5549822449684143
436,-0.5990429170076228,0.35359469265720705,-1.5990384842543235,-0.5289690494537354,-0.346272349357605,-0.7747820615768433,-7.856511116027832,-0.7819675207138062,3.8321757316589355,0.5123064517974854,-0.10834801197052002,0.5057543516159058
437,-0.787869668131975,-0.3191061599871494,-1.769058664984448,-0.6730666756629944,0.31371796131134033,-0.6697479486465454,-2.1372408866882324,-0.43263161182403564,0.004279748536646366,-1.0671676397323608,0.21095550060272217,-1.3521331548690796
438,-0.6448897077216699,-0.16123944133218782,-1.7792709286705435,-0.5933133363723755,0.16054169833660126,-0.7888001203536987,3.148876428604126,3.0168886184692383,-0.9826965928077698,-0.2131747007369995,0.6873434782028198,-0.10946953296661377
439,-0.3987471276648031,0.0994800416844203,-1.6710023740857154,-0.38634446263313293,-0.09931604564189911,-0.9169920086860657,1.2816802263259888,1.2687336206436157,0.9969776272773743,0.5815959572792053,0.1515468806028366,0.6951444745063782
440,-0.33128417015938066,0.16498011628289247,-1.5009104485956708,-0.3208411633968353,-0.16423271596431732,-0.9327853918075562,1.6766899824142456,-0.26597556471824646,0.5857044458389282,0.062311530113220215,0.15832757949829102,0.6560672521591187
441,-0.5725358445142028,0.15964629860206184,-1.3312607044189524,-0.5348759293556213,-0.15896901488304138,-0.8298413157463074,-0.5494984984397888,-4.242846488952637,2.578500986099243,0.17141157388687134,-0.1573762148618698,0.21814697980880737
442,-1.0090588671424665,-0.0251329466834209,-1.0631404175986912,-0.8460636138916016,0.02513030171394348,-0.5324892401695251,3.2837941646575928,-0.6793001294136047,1.1648753881454468,-1.130666732788086,-0.283690482378006,-0.9778103828430176
443,-1.240840011130226,0.2651956809904048,-0.6042697038584934,-0.9129835963249207,-0.262098103761673,-0.31267502903938293,3.447828531265259,-2.357299566268921,-1.3107157945632935,-0.011256575584411621,0.14793184399604797,0.15438029170036316
444,-1.5913044186720051,0.38900323016086025,-0.434799953513621,-0.9250931739807129,-0.37926629185676575,0.018974555656313896,2.168253183364868,-4.201234340667725,-0.4994159936904907,0.26147305965423584,0.10184621810913086,-0.5246202945709229
445,-1.9357121068130598,0.36216120764245013,-0.07104008839354307,-0.8735581636428833,-0.35429608821868896,0.3337215185165405,3.468877077102661,-2.008579730987549,-0.21172332763671875,0.6492388844490051,0.15146109461784363,0.03311493992805481
446,-2.2341317491689976,0.19674815340214716,0.12205860668367242,-0.7727413773536682,-0.19548125565052032,0.6038690209388733,0.9884940981864929,-0.44678372144699097,0.6034117937088013,0.1835232973098755,-0.0002737492322921753,0.10569524765014648
447,-2.117041728403778,0.07174276507221748,0.20114310587257012,-0.8522830009460449,-0.07168123871088028,0.5181463956832886,2.0199923515319824,0.9205967783927917,-0.0281742662191391,-0.18336164951324463,-0.2692306339740753,0.5698511004447937
448,-2.03834879322352,0.020828865418461903,0.30010082157969475,-0.8924804329872131,-0.020827358588576317,0.45060500502586365,0.5340079069137573,-0.6439250111579895,0.3200185000896454,-0.22794193029403687,-0.09642117470502853,0.5836814641952515
449,-2.1968625796355123,0.06319626703321143,0.2257140230122661,-0.8087212443351746,-0.06315421313047409,0.5847919583320618,-2.450139045715332,-1.0694856643676758,0.08306091278791428,-0.3539222478866577,0.04827689379453659,-0.365614652633667
450,-2.198543557717877,0.20683512193264988,0.20037865019778478,-0.7921018600463867,-0.20536351203918457,0.5748046040534973,0.31680914759635925,-0.3544665277004242,-1.9101383686065674,0.3043699860572815,-0.035847410559654236,-0.32836002111434937
451,-2.28470476138152,0.3076143564760265,0.22321168977182415,-0.7203299403190613,-0.30278584361076355,0.6240560412406921,-0.936546266078949,0.1882200837135315,0.212405726313591,0.504830002784729,0.37430375814437866,-0.2478809952735901
452,-1.9144446930502392,0.19300474228768377,-0.007923137199086131,-0.9240497350692749,-0.19180870056152344,0.33066850900650024,1.65829336643219,2.8921916484832764,2.0551726818084717,-0.6307140588760376,-0.27753639221191406,-0.23250865936279297
453,-1.8220432067591357,0.16246215579379975,0.13365784503359432,-0.9558484554290771,-0.16174842417240143,0.24533812701702118,0.24822723865509033,0.7943022847175598,-0.6936831474304199,-0.19837194681167603,-0.142023503780365,0.5904162526130676
454,-1.9862231889041375,0.25476685538852023,0.17167821393730923,-0.8854116797447205,-0.2520197927951813,0.3905538022518158,-1.4983223676681519,-2.27197003364563,-1.3982959985733032,-0.26163727045059204,-0.059366315603256226,-0.16396069526672363
455,-2.0261235353310885,0.4334869021627861,0.08816711124126429,-0.8150472640991211,-0.42003774642944336,0.39908164739608765,0.43278148770332336,1.4094340801239014,-0.6717631220817566,0.3572072982788086,0.23856496810913086,-0.7680544853210449
456,-1.8750462993559953,0.343940721445104,0.20385689942109367,-0.8981950283050537,-0.3371996283531189,0.28203240036964417,0.28956472873687744,1.355462908744812,1.3784689903259277,0.6269242763519287,0.3731798529624939,0.14191782474517822
457,-2.043016829029507,0.13781779534067956,0.31602369283549825,-0.8821161985397339,-0.1373819261789322,0.4505518972873688,0.3990389406681061,0.9881919622421265,1.1561529636383057,-0.16384315490722656,-0.19976100325584412,0.41176801919937134
458,-1.9233208451281625,0.08867283525939293,0.3194110593798749,-0.9348168969154358,-0.0885566771030426,0.34391167759895325,-0.5840644240379333,1.182125449180603,-0.060113415122032166,-0.41096264123916626,-0.2800651490688324,0.7482209205627441
459,-1.9137399387513445,0.1427610093455407,0.26886233203162646,-0.9321881532669067,-0.1422765702009201,0.3328399062156677,-0.4590860903263092,-2.1139161586761475,-0.9400458931922913,-0.2529618740081787,-0.0632898211479187,0.3222045600414276
460,-2.0052028527140586,0.3313469091708947,0.026914749122402545,-0.8577772378921509,-0.3253169655799866,0.397978812456131,-3.1873087882995605,0.17926481366157532,-0.40175747871398926,0.20666944980621338,0.3295894265174866,-0.7212972640991211
461,-1.9229578375169936,0.3270927599906234,-0.005067470678102047,-0.8888634443283081,-0.3212912976741791,0.3266395032405853,1.7083946466445923,0.9988721013069153,-0.059413231909275055,0.43453317880630493,0.05877915024757385,-0.3884987235069275
462,-1.8515577594014556,0.3588960705852112,-0.00975978354604277,-0.8996245861053467,-0.3512408435344696,0.25943273305892944,-0.8863468170166016,-0.47157856822013855,0.3553602695465088,0.35369569063186646,0.2534168064594269,0.043118566274642944
463,-1.8887932537987486,0.2602736629797555,0.06962824373093712,-0.9178718328475952,-0.2573450207710266,0.3021338880062103,0.598963737487793,0.937841534614563,0.5788522958755493,-0.4951072931289673,-0.4897252917289734,0.7046563625335693
464,-1.7509885551029776,0.33415374713952334,-0.05442088038196717,-0.9293928146362305,-0.32796984910964966,0.16930575668811798,-2.5439350605010986,1.4565633535385132,-0.43339216709136963,-0.0662735104560852,-0.25300848484039307,0.4042721688747406
465,-1.6032289482049507,0.477873416932062,-0.3904969183504366,-0.8875079154968262,-0.4598918557167053,0.02879430539906025,-3.3003995418548584,-0.6051618456840515,-1.394879937171936,0.09829288721084595,0.5273205041885376,-0.4623727798461914
466,-1.5167678880639663,0.478329751343611,-0.5403240618500442,-0.8864694833755493,-0.46029701828956604,-0.04794121906161308,3.890507221221924,-0.2845363914966583,1.5045509338378906,0.6735941767692566,0.2511143386363983,-1.0379657745361328
467,-1.9709952848648102,0.2765579496335105,0.19392262460556872,-0.8859871625900269,-0.27304601669311523,0.37479716539382935,1.8664780855178833,-0.33199408650398254,1.129106879234314,0.6368262767791748,0.25520846247673035,1.2432143688201904
468,-1.919314293993635,0.22583224291987067,0.036775882100260955,-0.9160146117210388,-0.22391754388809204,0.33283379673957825,0.18810801208019257,-0.9233251214027405,0.6443395614624023,-0.11728006601333618,-0.39653533697128296,0.01277780532836914
469,-1.9292765355195083,0.20123741955732363,0.05117748898684986,-0.9175338745117188,-0.1998819261789322,0.3437712490558624,0.10195580124855042,0.24448740482330322,0.06737813353538513,-0.19281762838363647,-0.22106225788593292,0.3416076600551605
470,-1.957781875150832,0.20203891804331484,0.06221855057403401,-0.9072145223617554,-0.20066718757152557,0.3697220981121063,-0.5844955444335938,-1.1845247745513916,-0.5079745054244995,-0.34264808893203735,-0.04739491641521454,0.06452783942222595
471,-1.8840220676440063,0.3361348742598499,-0.20204816844224902,-0.898104190826416,-0.329840749502182,0.2908850908279419,-3.232290267944336,1.9367519617080688,-0.07039858400821686,0.20288318395614624,-0.01677793264389038,-0.5597296953201294
472,-1.6673165962863596,0.37130488039834453,-0.300819620531474,-0.9275173544883728,-0.362831711769104,0.08980327099561691,3.4684348106384277,-0.48790860176086426,-0.5210381746292114,0.4243588447570801,0.2376791536808014,-0.5423483848571777
473,-1.817418992461323,0.3080998078756331,-0.02889518022785804,-0.9240788817405701,-0.30324846506118774,0.2326345294713974,-0.025485828518867493,0.6618707180023193,0.8140354156494141,0.18259316682815552,0.055674582719802856,0.26439014077186584
474,-1.8496279252505432,0.2272023797925894,0.022264471035744977,-0.93667072057724,-0.2252526879310608,0.2681592106819153,-0.6209537386894226,0.5654324293136597,0.30205217003822327,-0.5473381876945496,-0.3304114043712616,0.5607591867446899
475,-1.6850295798149557,0.2702992937936891,-0.020295801115485495,-0.9574100375175476,-0.2670198678970337,0.10984627902507782,-0.07837998121976852,0.4995323717594147,0.22980690002441406,-0.03184765577316284,-0.2657712399959564,0.28387629985809326
476,-1.7999013440841454,0.34431657815245603,-0.18324885066952373,-0.9167100191116333,-0.3375534415245056,0.2137763351202011,-3.178638458251953,-0.6573482155799866,-0.32492882013320923,-0.047202885150909424,0.412870854139328,-0.4275519847869873
477,-1.66528798809116,0.34181994998441784,-0.2821628620491671,-0.9379432797431946,-0.33520230650901794,0.08889254182577133,1.8178958892822266,1.4930187463760376,0.5851119160652161,0.3801429867744446,0.08092984557151794,-0.3061014413833618
478,-1.7021738101930641,0.31726173078201103,-0.1163878148237595,-0.9419057369232178,-0.3119661211967468,0.12446210533380508,-2.046959638595581,0.43303459882736206,0.5989646315574646,0.5140950679779053,0.2599336504936218,0.6593666076660156
479,-1.3496886260080623,0.21197751905442422,-0.5269171382908268,-0.9538168907165527,-0.21039356291294098,-0.21440163254737854,-4.569575309753418,3.111750364303589,1.003830909729004,-0.29268884658813477,-0.3445533215999603,-0.0009456872940063477
480,-1.264032851182503,0.1929991387492579,-0.6474707981360868,-0.935616135597229,-0.1918032020330429,-0.29636815190315247,0.2730528712272644,-0.49723342061042786,-0.6739141345024109,-0.502738356590271,-0.3177335262298584,0.09295326471328735
481,-1.2366279701703378,0.29507284969627195,-0.8234340388535946,-0.9038551449775696,-0.2908095419406891,-0.31380853056907654,-2.476048469543457,-0.5434196591377258,-2.7487902641296387,-0.25131160020828247,0.5042036771774292,-0.07902899384498596
482,-1.1314632726071157,0.37473591379176896,-1.1780876519627475,-0.842229962348938,-0.36602678894996643,-0.3958194851875305,-1.832965612411499,0.2923641502857208,-0.49034184217453003,0.608556866645813,0.10230910778045654,-0.3730098605155945
483,-0.905572960602762,0.3563026729217045,-1.3344501407944453,-0.7373636364936829,-0.3488115072250366,-0.5784681439399719,-1.2653770446777344,2.456054210662842,-1.052255630493164,0.25541484355926514,0.17219102382659912,0.1063460111618042
484,-0.6669399258776743,0.3603366038742075,-1.3982870936698761,-0.578857958316803,-0.3525892496109009,-0.7352580428123474,-0.3138199746608734,0.6760503649711609,0.6012676358222961,0.2835546135902405,-0.21154341101646423,0.1988047957420349
485,-0.6777679515978207,0.2608852001006215,-1.3946442062290243,-0.6058375835418701,-0.25793591141700745,-0.7526153922080994,-0.8794372081756592,-0.05881506949663162,0.2596173584461212,-0.1659824252128601,-0.31245288252830505,-0.22568660974502563
486,-0.650627976517807,0.23777493575154585,-1.4487688370228033,-0.5886449217796326,-0.2355407476425171,-0.7733160257339478,-1.6014502048492432,0.6229377388954163,-2.377352476119995,-0.19765573740005493,0.1934112310409546,-0.20817500352859497
487,-0.358180558529625,0.15885090847368835,-1.7334713748272585,-0.346157044172287,-0.15818369388580322,-0.9247449636459351,-0.517545759677887,2.2940704822540283,-1.3869839906692505,0.3285331726074219,0.4296985864639282,-0.09702932834625244
488,-0.21197347110879378,0.14980279167505595,-1.7665637027328052,-0.20803335309028625,-0.14924313127994537,-0.9666688442230225,-0.36832213401794434,2.0412681102752686,-0.1818481981754303,0.09562185406684875,-0.024569734930992126,0.22850966453552246
489,-0.07695835129201259,0.23555311968893283,-1.7812458868140266,-0.0747593343257904,-0.23338086903095245,-0.9695072770118713,0.9085031151771545,0.9474900364875793,-0.288671612739563,0.1422642171382904,-0.030428335070610046,0.35921674966812134
490,-0.040130830180152274,0.19638691572951267,-1.8119055556750638,-0.039348870515823364,-0.1951269805431366,-0.9799883365631104,-0.38615262508392334,-0.09502308815717697,-0.3677065968513489,0.29957225918769836,-0.1627831757068634,-0.34999823570251465
491,-0.0031481908122225183,0.18788647180701007,-1.8295984741443736,-0.0030927814077585936,-0.18678298592567444,-0.9823963046073914,0.24097542464733124,0.24107924103736877,-0.9377077221870422,-0.07371996343135834,0.06980912387371063,-0.43212389945983887
492,0.02590660371822004,0.21808756594867268,-1.8893028863258372,0.025290125980973244,-0.2163628786802292,-0.9759854078292847,0.11468365788459778,0.18251483142375946,-0.25844961404800415,-0.017187707126140594,0.3316277861595154,-0.022961735725402832
493,0.04225023866626864,0.21440532447729402,-1.891506178338744,0.041270557790994644,-0.21276640892028809,-0.9762310981750488,0.14328336715698242,0.4644458591938019,0.10776346176862717,0.16724079847335815,-0.02534697949886322,0.2317090630531311
494,0.08423793868810406,0.24681901104610673,-1.8556528778108217,0.0815884917974472,-0.24432061612606049,-0.9662560224533081,0.03634567931294441,0.3577934205532074,0.4251168668270111,0.0808107927441597,0.14719842374324799,0.4967736601829529
495,0.06831346510394813,0.23038567137445978,-1.7523650151767007,0.06645679473876953,-0.22835302352905273,-0.9713075757026672,0.47042393684387207,-0.02838962711393833,0.894734799861908,0.009089477360248566,-0.18523645401000977,-0.09981364011764526
