,attitude.roll,attitude.pitch,attitude.yaw,gravity.x,gravity.y,gravity.z,rotationRate.x,rotationRate.y,rotationRate.z,userAcceleration.x,userAcceleration.y,userAcceleration.z
0,0.14773466099121488,0.785496410664358,-0.27452544327185113,0.1040743738412857,-0.7071762681007385,-0.6993356347084045,-1.5440298318862915,-0.9788913130760193,0.19175858795642853,0.0771237462759018,0.09616857767105103,0.6261544823646545
1,0.09782689575561072,0.6877580761879806,-0.24845150661614873,0.07546751201152802,-0.6348065137863159,-0.7689768075942993,0.6134169697761536,1.18804931640625,-0.07012227177619934,0.10965211689472198,0.11873900890350342,-1.3776906728744507
2,0.18141246418735946,0.8591807906635339,-0.26837276142114613,0.11782410740852356,-0.7573078274726868,-0.6423412561416626,1.1742416620254517,0.08924698084592819,0.3143559992313385,0.03239867091178894,0.05877578258514404,1.0614545345306396
3,0.02235100070562394,0.766124414094217,-0.20427190223837005,0.016104862093925476,-0.693347692489624,-0.7204232215881348,-2.3462908267974854,-2.234927177429199,0.46720167994499207,-0.10063855350017548,0.19798636436462402,-0.09726476669311523
4,0.032622568670845786,0.7043248820373962,-0.22034016016722496,0.024855582043528557,-0.6475195288658142,-0.7616433501243591,1.3357232809066772,0.9064851403236389,-0.07397498190402985,0.1748514473438263,-0.02304321527481079,-1.0407400131225586
5,0.11390335545909008,0.8486191024288317,-0.20584998070026833,0.0751296877861023,-0.7503682971000671,-0.6567365527153015,1.0812668800354004,1.0823111534118652,0.10857108980417252,-0.1814834475517273,0.07821869850158691,0.5680372714996338
6,0.0854233478094755,0.8108513480281211,-0.17313056467066446,0.058775030076503754,-0.7248739004135132,-0.6863696575164795,-2.761153221130371,-1.262628197669983,0.028654087334871292,-0.0036755427718162537,0.010152220726013184,1.023024320602417
7,0.03273535133625277,0.6962869393844856,-0.1846593922784156,0.02511102519929409,-0.641373336315155,-0.7668179273605347,1.5897668600082397,0.5727193355560303,-0.3791392147541046,-0.04874689131975174,0.14178532361984253,-1.7744113206863403
8,0.13147793311719247,0.8794995461152597,-0.19403170453210491,0.08358072489500046,-0.7704198956489563,-0.6320343017578125,0.9223762154579163,0.575054407119751,0.03187571465969086,-0.13599467277526855,0.11484134197235107,1.324859619140625
9,0.0014438758709536539,0.7267540658419791,-0.12836068292606995,0.0010790587402880192,-0.6644473671913147,-0.7473343014717102,-2.9482080936431885,-1.0423822402954102,0.04436827078461647,-0.21515986323356628,0.09068632125854492,0.07202613353729248
10,0.01875240849923178,0.70214666974573,-0.15494569062809388,0.014315827749669552,-0.6458580493927002,-0.7633233070373535,2.6193408966064453,1.6441504955291748,0.31880924105644226,0.12304379045963287,0.1304161548614502,-1.533139705657959
11,0.13256034748146522,0.9619630282392034,-0.15634653697442638,0.07559084892272949,-0.8203158378601074,-0.5668932199478149,0.6091498136520386,0.1366817057132721,0.125037282705307,-0.1802966594696045,0.22690153121948242,2.1827075481414795
12,-0.04605517982868263,0.746004268700837,-0.1319079966206566,-0.03381127491593361,-0.6787096858024597,-0.73362797498703,-1.2376223802566528,-2.206542491912842,-0.49543899297714233,-0.6450217366218567,0.23911923170089722,-1.9848321676254272
13,0.03284192097920854,0.8455610334845096,-0.1478898434572738,0.021780511364340782,-0.7483433485031128,-0.6629539132118225,2.848954916000366,1.1406424045562744,0.042663220316171646,-0.21364451944828033,0.2325047254562378,-0.09554523229598999
14,0.08101237631381501,0.9577444269990706,-0.13665588300962486,0.046560827642679214,-0.8178958892822266,-0.5734793543815613,-1.4385679960250854,-1.3266792297363281,0.057008981704711914,0.08248275518417358,0.09992396831512451,1.985420823097229
15,-0.09157264871065399,0.7469140306790922,-0.11379247676612952,-0.0671011209487915,-0.679377555847168,-0.7307144403457642,-0.8456861972808838,0.18174712359905243,-0.24668118357658386,-0.399222731590271,0.12449169158935547,-1.7659133672714233
16,0.044503284691403126,0.9112544032685359,-0.14048637895875327,0.027260608971118927,-0.7902730107307434,-0.6121482849121094,2.505323648452759,1.8161019086837769,0.10686983913183212,-0.10636217147111893,0.3692525029182434,0.4321708679199219
17,0.0876031853460976,0.9684927719464383,-0.13186858413578434,0.04956744611263275,-0.824032723903656,-0.5643696784973145,-2.7130353450775146,-0.9482589364051819,-0.41403254866600037,-0.01773761212825775,0.058834969997406006,1.923210620880127
18,-0.06997011690448666,0.7229143675772335,-0.1387052592968796,-0.05242644622921944,-0.6615729331970215,-0.7480459213256836,0.9602208137512207,-0.4111906588077545,-0.18011121451854706,-0.28799712657928467,0.339475154876709,-2.857499122619629
19,0.08884498091565615,0.9202557861568277,-0.1736615615336442,0.053735245019197464,-0.7957565784454346,-0.6032280325889587,2.6961801052093506,1.4813286066055298,-0.4828926622867584,-0.044259537011384964,0.19207310676574707,0.4289727210998535
20,0.04000466558628574,0.9079433727752553,-0.13739899121131896,0.024611033499240875,-0.7882398366928101,-0.614875853061676,-3.8964381217956543,-1.6439549922943115,0.4670409858226776,-0.17780926823616028,0.21594369411468506,1.1840896606445312
21,-0.08537863064817205,0.6814307495459431,-0.09146073611849082,-0.06623068451881409,-0.6299048662185669,-0.7738432288169861,0.9301308393478394,0.8079074025154114,-0.0748940110206604,-0.1697770059108734,0.1373053789138794,-2.6371521949768066
22,0.06405663652877806,0.8732241275994536,-0.09410530091587335,0.04111921787261963,-0.7664039731025696,-0.6410414576530457,2.1067018508911133,0.8860543966293335,0.39491117000579834,-0.0010801590979099274,0.2583778500556946,0.8779342174530029
23,0.028341828545229916,0.7856395917894765,-0.08047280220548597,0.020033178851008415,-0.7072774767875671,-0.7066522240638733,-3.246941566467285,-2.2854373455047607,-0.19095945358276367,0.24920815229415894,0.22389429807662964,0.728151798248291
24,-0.10597118299719299,0.6069451187999791,-0.06645771940738672,-0.08688129484653473,-0.5703608393669128,-0.816786527633667,1.7737329006195068,0.2656790018081665,-0.4516156315803528,-0.23901592195034027,-0.12492114305496216,-2.867509126663208
25,0.04563640513039241,0.8608351961634796,-0.09818416770399292,0.029735678806900978,-0.7583872079849243,-0.6511256098747253,1.722029209136963,0.8118845224380493,-0.2994484603404999,-0.3433037996292114,0.3803965449333191,1.2327144145965576
26,-0.004382164376314103,0.7337744869134761,-0.12030826701438081,-0.003254412906244397,-0.6696775555610657,-0.7426449060440063,-3.5012025833129883,-3.0760090351104736,0.23055022954940796,0.04791688919067383,0.11245709657669067,0.7328945398330688
27,-0.07977868482951088,0.6446230805417936,-0.1433088198311286,-0.0637015774846077,-0.6008971929550171,-0.796783983707428,2.2088088989257812,1.2117071151733398,-0.25415438413619995,0.016887620091438293,-0.04206240177154541,-1.8170008659362793
28,0.048597078477361014,0.8776653629008546,-0.18474192336789025,0.03103882633149624,-0.7692492604255676,-0.6381945013999939,1.0441973209381104,-0.3339509665966034,-0.12740164995193481,0.06809753179550171,0.4068987965583801,1.5803636312484741
29,-0.13345437717184808,0.6959714875344006,-0.1541138148044502,-0.10211332142353058,-0.6411312818527222,-0.7606074213981628,-3.8608455657958984,-2.455399990081787,0.5208654403686523,-0.19851534068584442,0.10318267345428467,-0.15646106004714966
30,-0.14253362183663562,0.7319912178610486,-0.17278272881045179,-0.10566430538892746,-0.6683521270751953,-0.7363019585609436,2.7670814990997314,1.037522315979004,-0.5403178930282593,-0.36555761098861694,0.030595779418945312,-1.0811114311218262
31,-0.08025341299690678,0.9436737344563307,-0.20038428401338074,-0.04704355075955391,-0.8097193837165833,-0.5849285125732422,0.1377083659172058,-1.6811572313308716,0.27267688512802124,0.5618140697479248,0.5487025380134583,2.1002941131591797
32,-0.47472122956480733,0.6914971115593841,-0.05984740507709405,-0.35209324955940247,-0.637691080570221,-0.6851133704185486,-1.6196987628936768,-4.371947288513184,2.408750534057617,-0.6580843329429626,-0.012516379356384277,-1.5589356422424316
33,-0.49160288592123214,0.8516916421586653,-0.13694232834378003,-0.3109378218650818,-0.7523958086967468,-0.5807050466537476,3.0736095905303955,-0.8037719130516052,-3.9836812019348145,-0.6893826127052307,0.31199657917022705,-0.8636461496353149
34,-0.5580099049488257,1.0615816686544104,-0.2532404939310355,-0.25812628865242004,-0.8731276392936707,-0.4135442078113556,-0.193797767162323,-3.0505943298339844,1.9124759435653687,2.289788246154785,1.332554578781128,1.6354222297668457
35,-0.980658797337994,0.668174276005913,0.006652380603328935,-0.6521902084350586,-0.6195539236068726,-0.4368075430393219,-1.5572763681411743,1.27096426486969,1.9203848838806152,-3.344925880432129,-0.7758927941322327,-1.7035884857177734
36,-0.9506234259095028,0.8719784332360195,0.028109460545184053,-0.5235139727592468,-0.7656031847000122,-0.37387803196907043,2.6528689861297607,0.2423337996006012,-3.0861289501190186,-0.3108060359954834,0.4348689913749695,0.10272935032844543
37,-1.0056561967235091,0.9720882879268671,0.04617533074915924,-0.47594738006591797,-0.82606440782547,-0.30181407928466797,-2.289655923843384,-2.112046241760254,3.199619770050049,2.353693962097168,1.1847984790802002,1.7054243087768555
38,-1.0586478449391508,0.5205881000521111,0.01245285366005467,-0.7562175393104553,-0.49739041924476624,-0.42513251304626465,-0.7374362349510193,1.833682894706726,0.06761103868484497,-4.5228047370910645,-0.7845004200935364,-2.6332476139068604
39,-0.994214600558505,0.8536895644544796,0.029839693553137262,-0.5509567856788635,-0.7537103295326233,-0.35828378796577454,2.3669514656066895,1.0877786874771118,-4.109053611755371,0.1231003999710083,0.7525507807731628,0.46543100476264954
40,-0.8387254505073359,0.9897192119064468,-0.09188928740830299,-0.408285528421402,-0.8358718752861023,-0.36690735816955566,-2.157707691192627,0.7808651328086853,2.2013089656829834,2.2554993629455566,1.1430771350860596,1.1749975681304932
41,-0.7083433505466638,0.40897789620310265,-0.07802075257584026,-0.5969220399856567,-0.39767172932624817,-0.6968079209327698,-3.2437562942504883,0.5028037428855896,2.1877126693725586,-2.479982376098633,-0.05232518911361694,-3.2151641845703125
42,-0.5776353923859013,0.6870626627977575,0.0226460102584111,-0.4221538007259369,-0.6342690587043762,-0.6476797461509705,4.017502784729004,2.5199098587036133,-3.080543041229248,-0.7862812280654907,0.4355233311653137,0.03348296880722046
43,-0.2868287790935334,0.9657113438565743,-0.15200737177289345,-0.1609293669462204,-0.8224537372589111,-0.5455927848815918,-0.49601489305496216,0.3257889747619629,0.14742960035800934,1.2813516855239868,1.0851337909698486,1.7239832878112793
44,-0.43583025330627345,0.5925103703746764,-0.09282246300045094,-0.3502018451690674,-0.5584452152252197,-0.7519957423210144,-5.775609970092773,-1.1446086168289185,2.7666189670562744,-0.2593104839324951,0.094471275806427,-0.8304780125617981
45,-0.4179765080770782,0.5705207271009419,-0.0613239724373705,-0.34162360429763794,-0.5400703549385071,-0.7691666483879089,3.0706725120544434,0.1292257010936737,-1.6899824142456055,-1.0166528224945068,-0.11399763822555542,-1.0402052402496338
46,-0.21350338185630693,0.9197479206143253,-0.17167557395354854,-0.12840670347213745,-0.795448899269104,-0.5922607183456421,0.6812005043029785,-0.09827862679958344,-1.0000877380371094,0.9523507952690125,0.8436514139175415,2.0332398414611816
47,-0.2871193946481763,0.6177135680280776,-0.10994820644657484,-0.2308584451675415,-0.5791727900505066,-0.781833291053772,-4.857583045959473,-0.5304768681526184,2.041625499725342,-0.0703805536031723,0.2402293086051941,0.29989975690841675
48,-0.2899180283661282,0.44676361264974634,-0.0986467379351067,-0.2578152120113373,-0.43204906582832336,-0.8642134666442871,2.872901439666748,1.9608234167099,-0.9723867177963257,-0.5470706224441528,0.021129876375198364,-1.416243076324463
49,-0.10768857943732285,0.7944302322840308,-0.13693822291987912,-0.07531069219112396,-0.7134644985198975,-0.6966323256492615,3.5006916522979736,0.055859748274087906,-1.6011794805526733,0.034646034240722656,0.7671907544136047,1.4088363647460938
50,-0.15818098637562253,0.7496204384736781,-0.14588166902469052,-0.11529795825481415,-0.6813610196113586,-0.7228094935417175,-3.1168997287750244,-3.0281457901000977,0.7652999758720398,0.31224313378334045,0.26273614168167114,1.3197028636932373
51,-0.36844364091913323,0.4478090554362977,-0.13637900270421116,-0.3246510624885559,-0.4329916536808014,-0.8409042358398438,0.35475853085517883,-0.3467518091201782,-0.7478352785110474,-1.2699534893035889,0.1505819857120514,-2.5472030639648438
52,-0.21337723089801341,0.6749305047990263,-0.20538099844596744,-0.16533306241035461,-0.6248430609703064,-0.763043999671936,4.088743209838867,0.18035973608493805,-1.9364560842514038,-0.2617451846599579,0.3012804388999939,-0.16244733333587646
53,-0.11282283175404881,0.8570455963075616,-0.28483442474279724,-0.0737055316567421,-0.7559117078781128,-0.6505113244056702,-1.4310407638549805,-1.1459665298461914,0.51349937915802,0.5696772336959839,0.4332645535469055,2.095350742340088
54,-0.36000148387256325,0.4441585307228182,-0.2220129861436558,-0.31809523701667786,-0.4296981990337372,-0.8450887203216553,-4.8555498123168945,-2.2278220653533936,1.7324925661087036,-0.872990608215332,0.14554902911186218,-1.0891916751861572
55,-0.2312583970276205,0.5928691202441079,-0.2561023825950027,-0.19008710980415344,-0.5587428212165833,-0.8072628378868103,2.9022414684295654,2.7578446865081787,-1.4751707315444946,-0.23000261187553406,0.13552504777908325,-0.4694247245788574
56,-0.06607156561840498,0.883226201447053,-0.3441680807175184,-0.041902560740709305,-0.7727904319763184,-0.6332765221595764,-0.6509386301040649,-0.6224658489227295,0.3304067850112915,0.9738941192626953,0.49453121423721313,2.3833069801330566
57,-0.4029362539007705,0.5528905396625354,-0.17086463440548189,-0.3336990475654602,-0.5251492857933044,-0.7828558087348938,-3.1879560947418213,-2.188758134841919,2.388469934463501,-0.8077041506767273,0.12855809926986694,-1.115703821182251
58,-0.3342458851283069,0.6595943875383944,-0.16606643257698653,-0.2592439353466034,-0.6127963662147522,-0.7465072870254517,2.4109766483306885,1.226834774017334,-1.4022836685180664,-0.18281841278076172,0.1001773476600647,-0.40237271785736084
59,-0.17282273768852477,0.8912380226631467,-0.260530197780945,-0.108070507645607,-0.7778503894805908,-0.6190876364707947,0.6829972267150879,-0.09748364984989166,-0.20732730627059937,0.7643052935600281,0.5465119481086731,1.6054768562316895
60,-0.4536136465899249,0.6017956262493788,-0.1585923687546375,-0.36123088002204895,-0.5661235451698303,-0.7409564256668091,-4.954897403717041,-0.06565738469362259,3.091015100479126,-0.38100239634513855,0.14652210474014282,-0.001734614372253418
61,-0.4326522483364299,0.5624024860163367,-0.17559326194558114,-0.35470113158226013,-0.5332201719284058,-0.7680255770683289,2.1305761337280273,1.8948707580566406,-0.9547477960586548,-0.3293503522872925,-0.09594541788101196,-0.7445476055145264
62,-0.36691637020230855,0.8666897096281047,-0.2103703881915075,-0.23223067820072174,-0.7621901631355286,-0.6042640805244446,2.2403769493103027,-0.25816938281059265,-0.7455211281776428,0.7794413566589355,0.5371230244636536,1.3109900951385498
63,-0.6268133792529711,0.6811845698393307,-0.100729871659441,-0.45566117763519287,-0.6297136545181274,-0.6291530132293701,-2.4897074699401855,-0.9252477288246155,3.3974051475524902,0.02275410294532776,0.16010922193527222,-0.1677829623222351
64,-0.6066575112828948,0.6152314527960437,-0.11202513551314475,-0.46558651328086853,-0.5771475434303284,-0.670917272567749,1.8662121295928955,2.308445930480957,-1.9648385047912598,-0.5771533250808716,-0.02005094289779663,-1.294048547744751
65,-0.4116053213863761,0.9048089333173568,-0.18180720730543765,-0.24718444049358368,-0.7863070964813232,-0.5662340521812439,1.4150060415267944,1.1915221214294434,-0.7084038853645325,0.7906109690666199,0.7109439373016357,1.3313555717468262
66,-0.5963209844968832,0.7268782825264275,-0.11862495596376268,-0.41965869069099426,-0.66454017162323,-0.6182822585105896,-4.090562343597412,-0.2423103302717209,3.3632938861846924,-0.026935577392578125,0.08499610424041748,0.4335135817527771
67,-0.5459781254037682,0.6399704197497645,-0.15969970616313742,-0.4165008068084717,-0.5971717238426208,-0.6855019927024841,2.3700015544891357,3.0351250171661377,-1.2141958475112915,-0.40608522295951843,0.02293771505355835,-0.7269125580787659
68,-0.3758454590997644,0.9372834675091868,-0.22148563530405407,-0.21729150414466858,-0.8059529662132263,-0.5506579875946045,0.8039790987968445,1.2026921510696411,-0.5640862584114075,0.839331328868866,0.7097310423851013,1.7184741497039795
69,-0.49926414809627834,0.7292762267388211,-0.17161606248737582,-0.3570053279399872,-0.666330099105835,-0.6546383500099182,-3.955085277557373,-0.44705730676651,2.383863687515259,-0.2699630558490753,-0.0005399584770202637,-0.03376191854476929
70,-0.4248037127545508,0.6667855407995096,-0.18514035599853276,-0.3238668143749237,-0.6184632182121277,-0.7159703969955444,1.6032153367996216,2.8657968044281006,-0.5674511790275574,-0.4587869644165039,-0.018179237842559814,-0.7957636117935181
71,-0.2513106848938706,0.9346175619926769,-0.22549749552444795,-0.14774355292320251,-0.8043718934059143,-0.5754631161689758,0.8789429664611816,1.4880751371383667,-0.6017500162124634,0.4847949147224426,0.49240589141845703,1.573845624923706
72,-0.34173259632991354,0.7666054482862891,-0.19883458323414427,-0.24137675762176514,-0.6936942338943481,-0.6786203384399414,-3.3743104934692383,-0.8733285069465637,1.4888901710510254,-0.029832959175109863,0.040953755378723145,0.1899423599243164
73,-0.31188641820179186,0.6639528729348212,-0.2190349329545896,-0.24166715145111084,-0.6162347793579102,-0.7495676279067993,1.0213663578033447,2.6576428413391113,-0.7944655418395996,-0.27569735050201416,-0.04151052236557007,-1.0105489492416382
74,-0.15149394622175372,0.8964542428188136,-0.29360798701034024,-0.09422891587018967,-0.7811179161071777,-0.6172322630882263,1.561915397644043,0.9054632782936096,-0.7785346508026123,0.33139628171920776,0.4659629464149475,1.240126609802246
75,-0.27919650065782003,0.7778368451523511,-0.2647276217323214,-0.19633473455905914,-0.7017399668693542,-0.6848457455635071,-3.3369243144989014,-1.489668369293213,1.1027867794036865,0.28138720989227295,0.12060898542404175,0.46211326122283936
76,-0.34253599776597066,0.6247090397787952,-0.25373084448484556,-0.27244091033935547,-0.5848612785339355,-0.7640112638473511,1.6699793338775635,1.6118996143341064,-0.9247133731842041,-0.5094194412231445,0.06792402267456055,-1.6138116121292114
77,-0.2115633815530761,0.8770568604808716,-0.3320095228188324,-0.13427028059959412,-0.7688603401184082,-0.6251601576805115,2.3523566722869873,-0.10674848407506943,-0.8214863538742065,0.43061119318008423,0.5008244514465332,1.2381362915039062
78,-0.49145612218105234,0.7567726360124245,-0.2679956445780253,-0.34310492873191833,-0.6865785717964172,-0.6410061120986938,-3.6595752239227295,-2.517306089401245,2.389220714569092,0.20894968509674072,0.1874483823776245,0.4865109324455261
79,-0.5325392943966483,0.5841213089678648,-0.28511849663670225,-0.4235406816005707,-0.5514665842056274,-0.7186778783798218,1.3153949975967407,2.934458017349243,-1.386111855506897,-1.0378087759017944,-0.27296578884124756,-1.6646076440811157
80,-0.34824916166307546,0.8948521120191516,-0.3623462282390403,-0.2134993076324463,-0.7801165580749512,-0.5880784392356873,1.9660173654556274,1.1784908771514893,-1.2449004650115967,0.3639967441558838,0.5641894340515137,1.3334550857543945
81,-0.4395766297971534,0.8097662742124865,-0.355151237273769,-0.29349249601364136,-0.7241259813308716,-0.6241022944450378,-3.2419650554656982,-2.5238051414489746,2.6668014526367188,0.8475543856620789,0.3887988328933716,1.1834285259246826
82,-0.5304169480706276,0.5337411333290231,-0.34082853181706624,-0.4355282783508301,-0.5087576508522034,-0.7426175475120544,2.7293217182159424,2.353281259536743,-0.9550750851631165,-1.4513888359069824,-0.0004891753196716309,-3.0591859817504883
83,-0.3227784185812277,0.847502523780203,-0.3893336592877323,-0.2099429816007614,-0.7496297955513,-0.6276776790618896,3.235365867614746,0.6063659191131592,-1.6360557079315186,0.1964542120695114,0.5693929195404053,1.0313336849212646
84,-0.38092195525579353,0.7771969339899498,-0.42011548475406824,-0.2650327980518341,-0.7012839317321777,-0.6617843508720398,-3.585092067718506,-2.0194759368896484,1.524596095085144,0.6855802536010742,0.30713415145874023,1.300517201423645
85,-0.44868851525586,0.4209144304759051,-0.4594110378695564,-0.3959216773509979,-0.4085952341556549,-0.8223721385002136,0.7517409324645996,1.76667320728302,-0.8810770511627197,-1.3861675262451172,0.020899921655654907,-3.054321527481079
86,-0.260151890142082,0.7137566992798325,-0.47011507807125913,-0.19444014132022858,-0.6546781063079834,-0.730472207069397,3.6389620304107666,1.596374273300171,-0.9366036057472229,-0.07542680203914642,0.4296567440032959,0.17448770999908447
87,-0.2360447244919868,0.8327251570708752,-0.47753048684739136,-0.15735481679439545,-0.7397677898406982,-0.6542041897773743,-1.6754357814788818,-1.6610828638076782,0.8320196270942688,0.8184876441955566,0.28830599784851074,1.751112699508667
88,-0.4251715918065993,0.5106318475719339,-0.4212525742210156,-0.359859824180603,-0.4887285828590393,-0.7947611212730408,0.09608141332864761,-0.228398859500885,0.9268549680709839,-1.2759586572647095,0.0791216492652893,-3.1158223152160645
89,-0.2614051035415967,0.8083204586753491,-0.4621388453889445,-0.17850683629512787,-0.7231281399726868,-0.6672487854957581,3.2146289348602295,0.1407998651266098,-1.9142439365386963,-0.06072044372558594,0.5258472561836243,0.6275302171707153
90,-0.32181256196562263,0.9204254992815466,-0.512248151186529,-0.19150573015213013,-0.7958593368530273,-0.5743984580039978,-2.0083000659942627,-3.362414598464966,1.6048669815063477,1.2184984683990479,0.7236089706420898,2.000256061553955
91,-0.5555217788210057,0.5041478441348889,-0.38009891035638427,-0.461772620677948,-0.4830614924430847,-0.7439204454421997,0.7993090748786926,0.48083749413490295,-0.4304440915584564,-2.4670755863189697,-0.12156802415847778,-3.0615148544311523
92,-0.476800278069734,0.8027804029769288,-0.3748895845631235,-0.3188290596008301,-0.7192904353141785,-0.6172270774841309,3.7429137229919434,-0.9472734928131104,-1.9521428346633911,-0.10438871383666992,0.42862576246261597,0.22062063217163086
93,-0.5329355848247233,0.9802640530577668,-0.43622031720422333,-0.2828916907310486,-0.830644428730011,-0.4795853793621063,-0.6333648562431335,-2.875912666320801,1.639204502105713,1.4848570823669434,0.9367998242378235,1.3284471035003662
94,-0.7828200528983073,0.49142968727695796,-0.28276576471399717,-0.6218177676200867,-0.47188687324523926,-0.6250323057174683,-3.174313545227051,-1.4181002378463745,3.986809492111206,-1.374260663986206,0.10825470089912415,-1.3810405731201172
95,-0.7326162728874198,0.4389897070744234,-0.27720999017488995,-0.6054007411003113,-0.42502519488334656,-0.6729364991188049,3.146773099899292,-0.15878145396709442,-2.274080276489258,-0.9960244297981262,-0.18239668011665344,-1.3940495252609253
96,-0.7097157569937802,0.8347980122939701,-0.2898092699745947,-0.4374490976333618,-0.7411609292030334,-0.5092334151268005,0.3492545485496521,-0.6777378916740417,-1.1392947435379028,1.2512003183364868,0.9266620874404907,1.5203571319580078
97,-0.8872430311288036,0.574188693414827,-0.26587076279049987,-0.6509957313537598,-0.5431537628173828,-0.5302720069885254,-4.115991592407227,0.2562035322189331,4.922842979431152,0.09199005365371704,0.2747517228126526,0.028090059757232666
98,-0.8737219500949605,0.42467400337824013,-0.2599350403798109,-0.6986179351806641,-0.41202375292778015,-0.5849524140357971,2.3235831260681152,0.6007210612297058,-1.5787211656570435,-1.203145980834961,-0.26865553855895996,-1.4734123945236206
99,-0.8423549093279356,0.897209916804069,-0.23219637326057743,-0.46548235416412354,-0.7815895080566406,-0.4152636229991913,3.5740320682525635,-1.0029412508010864,-3.038928508758545,1.031018853187561,1.2616920471191406,1.0903735160827637
100,-0.8666994789533581,0.852322958518595,-0.28238929620579767,-0.5017052888870239,-0.7528114914894104,-0.42610636353492737,-1.2178246974945068,-3.30330491065979,3.8274905681610107,1.6221888065338135,0.8656045198440552,0.7239426374435425
101,-0.9047641171706475,0.33822154466952864,-0.2870524553240807,-0.7417337894439697,-0.3318099081516266,-0.582866370677948,1.8007889986038208,-0.8552233576774597,-0.5125377178192139,-2.9785573482513428,-0.3103714883327484,-3.2462198734283447
102,-0.8364370486007754,0.6776013300118241,-0.15953344063623612,-0.5782792568206787,-0.626926064491272,-0.5220698714256287,4.552431106567383,-0.4714333415031433,-3.3821451663970947,-0.35786277055740356,0.6702762246131897,0.4993189573287964
103,-0.7780627908042953,0.8880730656651644,-0.17430926836643676,-0.4428350031375885,-0.7758574485778809,-0.4493798613548279,-0.43225523829460144,-1.7372496128082275,1.5886037349700928,1.6482336521148682,0.7343078255653381,1.6231622695922852
104,-0.6383128998165127,0.3678352005328514,-0.2589476540766032,-0.5559843182563782,-0.35959628224372864,-0.7493810057640076,-5.678596496582031,1.0968977212905884,2.3146800994873047,-1.2914429903030396,0.03791049122810364,-1.9635858535766602
105,-0.39482354422550564,0.4947059753266423,-0.23462072745586254,-0.3385295271873474,-0.4747729003429413,-0.8123967051506042,4.019118785858154,3.058938980102539,-1.2744070291519165,-0.7825794219970703,0.4122118651866913,-0.47266799211502075
106,-0.23958220401225444,0.8871403123610752,-0.24574368282913736,-0.14988413453102112,-0.7752686738967896,-0.61359041929245,-0.4089079797267914,0.9217938780784607,0.17102941870689392,0.601895272731781,0.8120118975639343,2.3988535404205322
107,-0.33635885426681567,0.4812503419496691,-0.24839286826415788,-0.2925638258457184,-0.46288785338401794,-0.8367444276809692,-7.848618030548096,-0.8841012120246887,2.8325929641723633,-0.049370378255844116,0.22849762439727783,0.14156925678253174
108,-0.20864438764413704,0.2880558252556569,-0.29286540133405103,-0.19859954714775085,-0.28408870100975037,-0.938004195690155,2.1691009998321533,2.6083984375,0.2259676158428192,0.07367584109306335,0.10890254378318787,-1.7828667163848877
109,-0.0627974780281792,0.6914740394384606,-0.23585871931785143,-0.0483415424823761,-0.6376733183860779,-0.7687885165214539,2.417658567428589,0.4867292642593384,-0.518300473690033,-0.1022627055644989,0.7008752226829529,1.6535999774932861
110,-0.05224361706596459,0.6166198041211677,-0.2239599947241283,-0.04260293394327164,-0.5782808065414429,-0.8147247433662415,-4.258581638336182,-0.6558278799057007,-0.0381164476275444,0.10270730406045914,0.1349671483039856,1.5029113292694092
111,-0.0766501199136661,0.10997838251557888,-0.28559913860253744,-0.07611245661973953,-0.10975681245326996,-0.991040050983429,-0.18461361527442932,1.0712103843688965,-1.4486985206604004,-0.6614363789558411,0.6448673009872437,-2.934161424636841
112,0.029434113253019676,0.5240504722778558,-0.25192400025695855,0.02548035979270935,-0.5003911256790161,-0.8654244542121887,4.970832824707031,0.7175347208976746,0.37445175647735596,-0.30731019377708435,0.4075719118118286,0.3689339756965637
113,-0.033992799257020666,0.7972978995777562,-0.2998606581258127,-0.023744244128465652,-0.7154709100723267,-0.6982389688491821,-3.246177911758423,-1.0303502082824707,-0.011105751618742943,0.18185582756996155,0.35344088077545166,1.9974027872085571
114,-0.07039762900826091,0.08173997448280378,-0.30649212747217985,-0.07010464370250702,-0.08164898306131363,-0.9941925406455994,-2.4717328548431396,-0.07670395821332932,-0.7541391253471375,-0.6378573775291443,0.9222709536552429,-3.023355007171631
115,-0.020074048128787422,0.4671025162537866,-0.29469804166138086,-0.017922447994351387,-0.45030108094215393,-0.8926969170570374,5.13446569442749,0.17579422891139984,0.04669790714979172,-0.24431510269641876,0.31138506531715393,0.11448341608047485
116,-0.07099253696447166,0.7939986136265552,-0.3264633228973865,-0.049723923206329346,-0.7131620049476624,-0.6992334723472595,-1.6515382528305054,-1.8371553421020508,0.0979207307100296,0.35419780015945435,0.35239845514297485,1.8370509147644043
117,-0.09762494172132125,0.18022541580467452,-0.31289635198338106,-0.09589125216007233,-0.17925134301185608,-0.9791188836097717,-3.8183135986328125,-1.1818486452102661,1.2932807207107544,-0.21090194582939148,0.33190029859542847,-2.1178812980651855
118,-0.07122807289879796,0.3966332804209876,-0.351059160899395,-0.06564287096261978,-0.3863151967525482,-0.920028030872345,4.50809383392334,1.3434157371520996,-0.5040186047554016,-0.15533490478992462,0.3022087514400482,-0.34501713514328003
119,-0.10634993366183569,0.8872741105011434,-0.5188560750454498,-0.06703642010688782,-0.7753531336784363,-0.6279599070549011,-0.5813227891921997,0.31522995233535767,-0.09729177504777908,0.9070479869842529,0.3444907069206238,2.112151861190796
120,-0.15864153325348043,0.3302619110533438,-0.5001541394474178,-0.1494394689798355,-0.32429078221321106,-0.9340788722038269,-1.8736228942871094,-0.4104688763618469,-0.7432210445404053,-1.1800283193588257,0.49087101221084595,-1.9458649158477783
121,-0.342096893907857,0.9095213214777426,-0.6596597994064967,-0.20601588487625122,-0.7892098426818848,-0.5785371661186218,3.753208637237549,-2.227365732192993,-2.9678027629852295,0.21379786729812622,0.15661096572875977,0.7841798663139343
122,-0.1987241912991444,0.8103850453471894,-0.7293440019402126,-0.13606488704681396,-0.7245526313781738,-0.6756551861763,-5.870699882507324,3.1783649921417236,1.896162509918213,0.20768964290618896,0.27460145950317383,0.2901875972747803
123,-0.36034579464191524,0.8660574219298537,-0.6946038437151184,-0.22842521965503693,-0.7617807388305664,-0.6062277555465698,6.512054920196533,-6.374804496765137,-0.6682246327400208,0.08912771940231323,0.1216440200805664,-0.5564919710159302
124,-0.4506933371392685,1.2338683941152317,-1.1149279496526263,-0.144001305103302,-0.9437747001647949,-0.2975783944129944,-3.9485924243927,-2.93888258934021,-4.936210632324219,0.5429423451423645,0.2721743583679199,0.47210848331451416
125,-0.22076074430416423,0.7538962096438274,-1.2160742686365713,-0.15963660180568695,-0.6844843626022339,-0.7113348841667175,-3.841925859451294,2.3558640480041504,1.6661529541015625,-0.15535059571266174,0.3853968381881714,-0.22096186876296997
126,-0.173666967212114,0.4006769904094013,-1.104205134515449,-0.159109428524971,-0.3900417983531952,-0.9069463014602661,-2.0039403438568115,-3.040672779083252,-0.9677325487136841,0.021047890186309814,0.2002377212047577,-0.2846277952194214
127,-0.07731723898436736,1.0824022014324473,-1.8006007560348258,-0.036241766065359116,-0.8830875158309937,-0.4678066670894623,8.437758445739746,-2.392517328262329,-7.515854358673096,0.3226644992828369,0.12745696306228638,0.16374480724334717
128,-0.07497104701772449,0.6351881796744386,-1.4237959332075842,-0.06029218062758446,-0.5933290123939514,-0.8026989102363586,-19.4859619140625,1.4602829217910767,8.410652160644531,0.43037885427474976,1.3962311744689941,-0.03844177722930908
129,0.1188698098315904,0.6199264160478867,-1.498361794068596,0.0965229794383049,-0.5809752941131592,-0.808177649974823,17.85521697998047,-0.5927448272705078,-4.548587322235107,0.309192955493927,0.4436309337615967,0.4382588267326355
130,0.17548441886234206,0.8626029536911001,-1.4680801968387382,0.11356112360954285,-0.7595382332801819,-0.640472948551178,-15.300832748413086,2.9093170166015625,2.3136465549468994,0.5082192420959473,0.5009780526161194,-0.706817090511322
131,0.19614572259148533,0.7316287205729806,-1.616792189214994,0.14501547813415527,-0.6680824160575867,-0.7298194169998169,14.794292449951172,0.5798002481460571,-1.3440889120101929,0.08685708045959473,-0.47315287590026855,-0.039803385734558105
132,0.2804902131135119,0.5762999572775237,-1.3639113730000425,0.2321149706840515,-0.5449252724647522,-0.8057165145874023,-13.891904830932617,1.493652105331421,1.8055564165115356,0.5634630918502808,1.3303561210632324,-0.45772647857666016
133,0.297257654908014,0.785628493059974,-1.687410794821543,0.20706333220005035,-0.7072696089744568,-0.675939679145813,17.37969970703125,-0.6432632803916931,-2.4450082778930664,0.055342063307762146,-0.08023649454116821,0.015386700630187988
134,0.38336374754180363,0.8034337559326429,-1.4741837636141943,0.2596748173236847,-0.7197442054748535,-0.6438457369804382,-13.695390701293945,2.6272199153900146,1.5383830070495605,0.4764702320098877,1.159060001373291,-0.3017261028289795
135,0.2862314182556551,0.71193155844722,-1.6403238506785842,0.21375924348831177,-0.6532973647117615,-0.7262985110282898,14.171586990356445,-0.8337689638137817,-1.570778250694275,0.08818167448043823,-0.16768652200698853,-0.22652125358581543
136,0.4412703303118382,0.9635588981970906,-1.5892954284679435,0.24369706213474274,-0.821227490901947,-0.5159429907798767,-19.3008975982666,8.601067543029785,1.2977486848831177,-0.021422311663627625,0.13162177801132202,2.138303279876709
137,0.24633878419793726,0.17618815704147345,-1.2467902016404708,0.24007979035377502,-0.17527802288532257,-0.9547980427742004,16.686725616455078,-1.6540350914001465,-2.865159034729004,-0.07787887752056122,0.35676607489585876,-0.3651329278945923
138,0.6795361273570993,1.1894096982897306,-1.8796669825536718,0.23390741646289825,-0.928149402141571,-0.28952717781066895,-8.64979362487793,6.812304496765137,0.41600948572158813,-0.31041496992111206,-0.4425475597381592,1.8932106494903564
139,0.2820722372228601,0.06826354998940039,-1.113643423029276,0.2776983082294464,-0.06821054220199585,-0.9582436680793762,3.9229984283447266,-2.2951676845550537,-3.3478071689605713,0.07130071520805359,0.41656869649887085,-0.9987875819206238
140,1.127741635207315,1.3179714267414662,-2.4363315856571264,0.2259882390499115,-0.9682096838951111,-0.10723540186882019,1.310630202293396,2.1667540073394775,0.3654661476612091,-0.3044794499874115,-0.2960267663002014,1.16221284866333
141,0.3888064158735482,0.1797503047366566,-1.168087194567495,0.37297651171684265,-0.17878390848636627,-0.9104530811309814,-8.917276382446289,-2.7135989665985107,-1.7757600545883179,0.28028273582458496,1.5892300605773926,-0.785546064376831
142,0.6660528454793967,1.0980452873355206,-2.0843234126235046,0.2813471257686615,-0.8903189897537231,-0.3580165207386017,16.663713455200195,-2.165510654449463,-1.8518544435501099,0.1744633913040161,0.16847151517868042,0.3224330246448517
143,0.43789107745407563,0.6273201550872368,-1.555616486430148,0.34329652786254883,-0.5869772434234619,-0.7332156896591187,-14.640532493591309,0.35973402857780457,0.11540207266807556,0.44765806198120117,1.5055410861968994,-0.35670435428619385
144,0.318447803231933,0.6788476046042384,-1.7655029166675074,0.24367912113666534,-0.6278965473175049,-0.7391660809516907,17.790761947631836,-2.9638805389404297,-5.526150703430176,0.012149721384048462,0.2779057025909424,-0.18505877256393433
145,0.9064935894572693,1.2713201749695595,-2.5123917769000914,0.2322830706834793,-0.9554911851882935,-0.18188287317752838,-18.986454010009766,6.617428779602051,2.3111038208007812,-0.3504776060581207,0.3627786636352539,2.804746627807617
146,0.20261520826327548,-0.10029181635936814,-1.3757971951078332,0.20022054016590118,0.10012377053499222,-0.9746214747428894,6.365590572357178,-0.5045921802520752,-3.0833873748779297,-0.07032246887683868,0.3320966958999634,-1.1566345691680908
147,1.286260219243589,1.3194772609014038,-3.0740267738196376,0.2386830747127533,-0.9685852527618408,-0.06980811059474945,12.607307434082031,1.22947359085083,2.078500747680664,0.5895792841911316,-1.2034270763397217,0.9893790483474731
148,0.2615705598307097,0.34987220629431315,-1.4760568149883366,0.24293124675750732,-0.3427777588367462,-0.9074622988700867,-15.25576400756836,0.32894447445869446,0.863368034362793,0.3842202425003052,1.4816021919250488,-0.5065391659736633
149,0.19285964905822142,0.6523838187315516,-1.7699154375744255,0.1523054987192154,-0.6070824265480042,-0.7799063920974731,19.586763381958008,-0.97950279712677,-4.05463981628418,0.1101762056350708,0.49474722146987915,-0.12255942821502686
150,0.35717608342272944,0.9676268877452225,-1.7138905043921444,0.19832947850227356,-0.8235418796539307,-0.5314547419548035,-17.656387329101562,7.53013801574707,0.7539613246917725,0.30666011571884155,-0.11647576093673706,1.4654757976531982
151,0.2371320420634976,-0.12441762805095229,-1.2643763546446016,0.233100026845932,0.12409688532352448,-0.9645021557807922,8.733692169189453,-1.6069952249526978,-2.3680880069732666,0.027520105242729187,0.09352396428585052,-0.8067075610160828
152,1.8883598862873077,1.3728100423535579,2.8787175048796896,0.18686048686504364,-0.9804646372795105,0.061418723315000534,-0.3493196368217468,1.3766814470291138,0.6784869432449341,-0.20625439286231995,-0.2784770131111145,1.446714162826538
153,0.34253800772415727,0.12888155672368293,-1.2334313771327203,0.3330930471420288,-0.12852506339550018,-0.9340932965278625,-11.677340507507324,-1.818812608718872,-0.33441996574401855,0.3944765031337738,1.7129976749420166,-0.8086587190628052
154,0.4635324793834787,1.0598059039512642,-1.8982627011953859,0.21865561604499817,-0.872260570526123,-0.43743711709976196,17.676576614379883,-1.5846552848815918,-0.9972646236419678,-0.03631305694580078,-0.20848894119262695,0.37661558389663696
155,0.3810923444992154,0.49455782270328674,-1.3943187420457244,0.32736897468566895,-0.4746425151824951,-0.8170337080955505,-16.48831558227539,1.383630394935608,-0.0862085223197937,0.6654441356658936,1.8040034770965576,-0.552061140537262
156,0.23665870918148396,0.5720052650900475,-1.5287964551904887,0.19713445007801056,-0.5413191914558411,-0.8173809051513672,18.63209342956543,-1.5021977424621582,-2.6783289909362793,0.13170772790908813,0.41454917192459106,-0.025804519653320312
157,0.5078922272390812,1.0567001726137015,-1.7968831746832459,0.2391550987958908,-0.8707375526428223,-0.42967545986175537,-17.17469596862793,6.898993492126465,0.07957681268453598,0.03983664512634277,-0.27367162704467773,1.4907106161117554
158,0.2643783835131498,-0.04580332030905658,-1.2690770705061842,0.2610352337360382,0.04578730836510658,-0.9642427563667297,8.285257339477539,-1.6166189908981323,-2.36173152923584,-0.049350082874298096,-0.021998845040798187,-0.6538907885551453
159,1.1545154197495897,1.3580096428273132,-2.660444663694453,0.19314922392368317,-0.9774461984634399,-0.0853949710726738,8.55618953704834,2.354135751724243,1.6503047943115234,-0.269839882850647,-0.9513257741928101,1.180197834968567
160,0.3835152620759262,0.17189613623809444,-1.2461374294340701,0.3686680495738983,-0.17105084657669067,-0.9136878848075867,-12.60035228729248,-1.7848082780838013,-0.09640367329120636,0.5739130973815918,1.5740201473236084,-0.5752037167549133
161,0.34980390484441126,0.8788858969856665,-1.7007340074007127,0.21865451335906982,-0.7700285315513611,-0.5993715524673462,18.37427520751953,-1.4638220071792603,-1.3996262550354004,-0.0023611485958099365,0.36554861068725586,0.1816011667251587
162,0.44363038248281955,0.7141371969529977,-1.4944388917142897,0.3243447244167328,-0.6549656987190247,-0.6825103759765625,-17.22547149658203,4.72280740737915,-0.9143397808074951,0.5149344205856323,1.4820225238800049,0.1291961669921875
163,0.22343306932761528,0.3912346572956306,-1.4384994768184818,0.2048359364271164,-0.38133007287979126,-0.9014597535133362,17.92715072631836,-1.8579916954040527,-2.676058053970337,0.015561997890472412,-0.03669971227645874,-0.3535756468772888
164,0.6114463746339425,1.1989642313410933,-1.9199246106755712,0.2085663378238678,-0.9316632747650146,-0.2974954843521118,-14.604358673095703,5.029635429382324,-0.2754303216934204,-0.3993012309074402,-0.032798945903778076,2.661127805709839
165,0.3222749226360955,-0.05074605291188778,-1.1455857020445446,0.31631746888160706,0.050724275410175323,-0.9472963213920593,-2.6626951694488525,-3.4689059257507324,-1.0047324895858765,0.21418485045433044,1.2277181148529053,-0.6230009198188782
166,0.42492347430551397,1.1892709497880618,-1.856025498934105,0.15349623560905457,-0.9280977845191956,-0.33922499418258667,15.26317024230957,-0.9636703729629517,0.10038851946592331,0.02895312011241913,-0.4915037751197815,0.3552619516849518
167,0.36180578158245413,0.4942936385205161,-1.3297448979416797,0.3115956485271454,-0.47440996766090393,-0.8233124017715454,-14.535717964172363,2.7528128623962402,0.29246315360069275,0.4713938534259796,1.2840718030929565,-0.2677978277206421
168,0.16774963205385407,0.47941393289487644,-1.3846636285478147,0.14814138412475586,-0.46125924587249756,-0.8748108744621277,15.87769889831543,-2.173992872238159,-2.605754852294922,-0.044854626059532166,0.14650094509124756,-0.2574675679206848
169,0.38590455954909864,0.9977593161929526,-1.5309962793502414,0.20407754182815552,-0.8402582406997681,-0.5023131966590881,-15.587474822998047,7.059507846832275,-0.5832992196083069,0.011193454265594482,-0.5897344350814819,1.2493681907653809
170,0.2702455249184041,0.013723332877976072,-1.1055928223352676,0.26694291830062866,-0.013722902163863182,-0.9636146426200867,6.002810478210449,-3.3375906944274902,-2.6326873302459717,0.04725080728530884,0.25879430770874023,-0.28955918550491333
171,0.6044102183201601,1.2535660749378505,-1.7935876678968619,0.1772661805152893,-0.9501030445098877,-0.25667282938957214,-2.6234982013702393,1.748746395111084,-1.601324439048767,-0.6297045350074768,-0.5558784008026123,1.247380256652832
172,0.31773575716403624,0.06452814882126492,-1.0895466876218338,0.31176623702049255,-0.06448337435722351,-0.9479681849479675,-5.966469764709473,-4.877225399017334,-1.2545068264007568,0.41587963700294495,1.6220242977142334,-0.6985772252082825
173,0.4076910848147496,1.1644645116077341,-1.5830351360971375,0.15670990943908691,-0.9185768365859985,-0.36284777522087097,10.040014266967773,2.845477819442749,-0.021342890337109566,-0.4610465168952942,-0.3479178547859192,0.49102166295051575
174,0.32132465159578716,0.14837934942224854,-1.107735350124349,0.3123534023761749,-0.14783547818660736,-0.9383922219276428,-6.537778377532959,-3.4810373783111572,-1.1583783626556396,0.4518525302410126,1.3783957958221436,-0.6241992712020874
175,0.3912379911634937,0.8911708978820915,-1.3794005285439004,0.23966853320598602,-0.7778081893920898,-0.581010639667511,6.648911952972412,4.220515727996826,-1.266715168952942,-0.6537005305290222,0.14339357614517212,0.28250300884246826
176,0.281691012801864,0.21040492110927544,-1.222645979037091,0.27184996008872986,-0.20885591208934784,-0.9394024014472961,-2.874549150466919,-4.449978828430176,-3.2491838932037354,0.41984623670578003,0.713280975818634,0.004923641681671143
177,0.32058370217896004,1.0865763429152504,-1.6579751799728473,0.1466943770647049,-0.8850383162498474,-0.4418008625507355,9.864230155944824,0.8058485388755798,-0.24744561314582825,-0.3913995921611786,-0.4327259659767151,-0.09233307838439941
178,0.5878422443508085,0.30183278148128134,-1.2118775858765791,0.5294966101646423,-0.29727062582969666,-0.794520914554596,-16.666486740112305,1.7046289443969727,-0.770867109298706,1.0748581886291504,1.620573878288269,0.13207584619522095
179,0.2516107237864892,0.46251177422797324,-1.35120615818777,0.22280675172805786,-0.44619739055633545,-0.866755485534668,22.455398559570312,-3.428443431854248,-4.07328462600708,0.03999537229537964,0.32862842082977295,0.08256053924560547
180,0.482184407002195,0.8039392210699788,-1.4399857162504623,0.321760892868042,-0.7200949788093567,-0.6147626638412476,-17.303600311279297,6.0337066650390625,-0.5070629119873047,0.308884859085083,1.2235891819000244,0.6234754323959351
181,0.13108152688199848,0.38285888206832497,-1.3503045544904622,0.12124337255954742,-0.373573899269104,-0.9196426272392273,17.218461990356445,-1.5313503742218018,-2.688188076019287,-0.12264718115329742,-0.334311842918396,-0.7460525631904602
182,0.3822845267409171,0.8023416414915508,-1.41291724435272,0.25927284359931946,-0.7189855575561523,-0.6448544859886169,-16.408475875854492,5.036345958709717,-1.020751714706421,0.31612080335617065,0.6218938827514648,0.8996457457542419
183,0.08251820136894836,0.13837417395501356,-1.308190185421754,0.08163673430681229,-0.13793301582336426,-0.9870713949203491,13.917455673217773,-3.6537070274353027,-4.710175037384033,0.021939918398857117,-0.06220126152038574,-0.5902906656265259
184,0.3474119547133082,1.3306264402481185,-1.7250391813573376,0.08098563551902771,-0.971297562122345,-0.22365644574165344,-15.105781555175781,4.6904520988464355,-1.0568108558654785,-0.4636455178260803,0.5382837653160095,3.7589499950408936
185,0.19671262192430183,-0.20528320837347577,-1.1098698296481293,0.19134268164634705,0.20384442806243896,-0.9601225852966309,-0.9097154140472412,-3.84529185295105,-3.438678503036499,0.13113655149936676,0.7127662897109985,-0.6870636343955994
186,0.23019542807709867,1.3777416435196506,-1.7372834998080042,0.04377571493387222,-0.9814227223396301,-0.18679669499397278,12.74147891998291,2.9008984565734863,1.1826881170272827,0.034684982150793076,-1.1105570793151855,1.2763047218322754
187,0.24640595838249782,0.22518341633550254,-1.2127714654101942,0.23776185512542725,-0.22328515350818634,-0.9453110694885254,-14.167850494384766,0.07169598340988159,0.35731685161590576,0.46772825717926025,1.5591464042663574,-0.7521224021911621
188,0.03443702247860524,0.5266339877445161,-1.4181054287598014,0.02976505272090435,-0.5026262402534485,-0.8639912605285645,16.77727699279785,-1.8190454244613647,-4.238111972808838,-0.152064248919487,0.3796098828315735,0.007561206817626953
189,0.30497790090128635,0.8534791728481226,-1.5171035265555666,0.1973884552717209,-0.7535720467567444,-0.6270302534103394,-17.496517181396484,7.4267449378967285,0.579596757888794,0.3821098208427429,0.2861953377723694,0.7553414106369019
190,0.15897851518394696,0.07087651798490702,-1.255189253235582,0.1579122245311737,-0.07081719487905502,-0.9849104881286621,13.828780174255371,-3.317009925842285,-4.633770942687988,-0.1929158866405487,-0.07380560785531998,-0.5064072608947754
191,0.8978946931753854,1.3106164191016363,-2.2996638090012027,0.2011772245168686,-0.9663437008857727,-0.16033582389354706,-14.434229850769043,4.196793556213379,-0.6368494033813477,-0.3765007257461548,0.909932017326355,3.920116662979126
192,0.3140931021660018,-0.02017175269783219,-1.1380295573884986,0.3088912069797516,0.020170385017991066,-0.9508834481239319,-5.465648174285889,-4.3338799476623535,-3.1848111152648926,0.2870712876319885,1.6981981992721558,-0.8874953985214233
193,0.7064178361784492,1.2875717888660263,-2.1317114143200597,0.181396484375,-0.9601593017578125,-0.21257753670215607,13.2788667678833,3.5251736640930176,1.1895021200180054,-0.1026153415441513,-0.7886046171188354,0.7728650569915771
194,0.368878534058944,0.25321841091596736,-1.3157524303320747,0.3490714728832245,-0.2505210340023041,-0.9029885530471802,-11.976766586303711,-2.458087205886841,-0.6936464905738831,0.7066535949707031,1.4471763372421265,-0.5954397916793823
195,0.1490417666982644,0.7769902034893563,-1.6955859155080875,0.10587780922651291,-0.7011365294456482,-0.7051222920417786,17.6239070892334,-1.8237284421920776,-3.386430025100708,0.019641011953353882,0.2853345274925232,-0.06663674116134644
196,0.33547316225910156,0.5375825946195346,-1.5231005434109504,0.2827797532081604,-0.5120610594749451,-0.8110666275024414,-19.225086212158203,5.175339221954346,-0.14695411920547485,0.4527854323387146,1.3970861434936523,0.4879465103149414
197,0.10542605749296906,0.3570466765270058,-1.6124558420161152,0.0985942855477333,-0.34950870275497437,-0.931731104850769,20.657983779907227,-2.258732795715332,-4.815620422363281,-0.0931011289358139,0.6704773306846619,-0.08998215198516846
198,0.31352713908592655,0.741621600657375,-1.6334794641065116,0.22741779685020447,-0.6754845380783081,-0.7014283537864685,-18.42289924621582,5.691805839538574,-0.36124947667121887,0.23890607059001923,0.2017906904220581,1.2533540725708008
199,0.04116643105450208,0.3761115426308117,-1.6881192336854103,0.03827808052301407,-0.36730659008026123,-0.9293119311332703,19.751663208007812,-1.3781051635742188,-4.258929252624512,-0.5098967552185059,0.10299384593963623,-0.32274800539016724
200,0.30922546077869845,0.9732929061694306,-1.7823549086771773,0.17120493948459625,-0.8267427086830139,-0.5358968377113342,-16.67645263671875,7.385321617126465,-0.4439888894557953,-0.05737435817718506,-0.7848448157310486,1.8613057136535645
201,0.13637049740519291,-0.019802746998162576,-1.5707540412016354,0.13592155277729034,0.01980145275592804,-0.9905216693878174,11.231317520141602,-3.4235167503356934,-4.4670257568359375,0.25484076142311096,0.44353169202804565,-0.5884425044059753
202,0.5715153780387516,1.2509703258671614,-2.2342757401033966,0.1700619012117386,-0.9492901563644409,-0.2644372880458832,-11.579483985900879,4.439010143280029,-0.1902485340833664,-0.3684108853340149,-0.3950091004371643,2.0466487407684326
203,0.20535763252436803,-0.07324629246108647,-1.5631960514164105,0.20337052643299103,0.07318081706762314,-0.9763631224632263,9.029111862182617,-1.9419678449630737,-3.7251555919647217,0.12747053802013397,0.5691989660263062,-0.7278299331665039
204,0.7041390261638939,1.2353209402989715,-2.3174151236434546,0.21312861144542694,-0.9442539215087891,-0.25092002749443054,-12.306041717529297,3.119946241378784,-0.8879902958869934,-0.23047783970832825,0.7615299224853516,2.990788221359253
205,0.2848767848230538,0.03751027591817651,-1.5347176443376798,0.28084149956703186,-0.03750148043036461,-0.9590212106704712,-2.3692057132720947,-3.6003262996673584,-2.6653506755828857,0.31283217668533325,1.3224745988845825,-0.6317838430404663
206,0.4094459165636685,1.134022737170171,-2.1531150115261894,0.16840408742427826,-0.9061211943626404,-0.3880523443222046,14.521273612976074,0.4328708350658417,-0.20270738005638123,-0.06502577662467957,-0.6998968720436096,0.5606292486190796
207,0.3772068002756602,0.34559019337834435,-1.5536817643083407,0.3465481102466583,-0.33875203132629395,-0.8747293949127197,-14.212302207946777,-0.24286292493343353,0.039981525391340256,0.6473789215087891,1.8409340381622314,-1.0726888179779053
208,0.24799084632020177,0.6469693023554166,-1.7966595151173865,0.19585347175598145,-0.6027709245681763,-0.7735041379928589,16.75650405883789,-0.738686740398407,-1.149256944656372,-0.055533647537231445,-0.13084113597869873,0.1486872434616089
209,0.40449916373373485,0.6043916427670335,-1.6178366399015924,0.3238387405872345,-0.5682616233825684,-0.7564438581466675,-15.191872596740723,4.362680435180664,0.24929088354110718,0.4911942481994629,1.1209807395935059,-0.14055931568145752
210,0.2018946463829814,0.29244903992469923,-1.6094390779947767,0.19201166927814484,-0.2882981300354004,-0.938091516494751,14.06747055053711,-0.9328666925430298,-2.7376296520233154,-0.25149044394493103,-0.20036455988883972,-0.37332504987716675
211,0.5028049468891563,0.9332082889557523,-1.8946085232324539,0.2868465781211853,-0.8035338521003723,-0.5215864777565002,-17.229671478271484,6.775176525115967,-0.22848756611347198,0.0549808144569397,-0.17737740278244019,1.7119550704956055
212,0.2918486648106628,-0.06606639505396704,-1.4689941289167852,0.2870955169200897,0.06601834297180176,-0.9556242823600769,11.708467483520508,-3.193967342376709,-4.996875286102295,0.001112520694732666,-0.32111477851867676,-0.3762543797492981
213,0.6556735021105864,1.1397484816423396,-2.1861656376575866,0.2547438144683838,-0.9085284471511841,-0.3311821222305298,-12.996344566345215,3.076331853866577,-1.1182674169540405,-0.3399031460285187,0.3290606737136841,3.2932028770446777
214,0.287184209689657,0.016605497169108092,-1.531079682235405,0.2832138240337372,-0.01660473458468914,-0.9589130282402039,3.6386735439300537,-4.1214599609375,-4.902061462402344,0.18448328971862793,0.2504914402961731,-0.20128899812698364
215,0.8142638455116021,1.2885193939941046,-2.4684835041704414,0.20256218314170837,-0.9604237079620361,-0.19119301438331604,-9.104558944702148,2.830282211303711,-1.1717647314071655,-0.36964595317840576,0.3623250126838684,2.2599339485168457
216,0.3955845568371951,-0.023208578693287303,-1.42547446339004,0.38524389266967773,0.023206494748592377,-0.9225229620933533,-7.679924488067627,-3.1913692951202393,-1.6737622022628784,0.35059595108032227,1.8557302951812744,-0.9766469597816467
217,0.33463430797299537,0.9977028108991522,-2.102375314868397,0.17808255553245544,-0.8402276039123535,-0.5121565461158752,18.280521392822266,-1.5831716060638428,-2.6793365478515625,0.012835443019866943,0.038866519927978516,0.33507829904556274
218,0.4529043980669781,0.4171111814134285,-1.5562428573230653,0.40006229281425476,-0.40512099862098694,-0.8220870494842529,-17.933692932128906,3.2350854873657227,0.6601649522781372,0.8769915699958801,1.793716549873352,-0.6643326282501221
219,0.20839626549053106,0.3565836059252115,-1.6686493041983839,0.19387660920619965,-0.3490747809410095,-0.9168198704719543,18.78758430480957,-1.9246323108673096,-4.295438289642334,-0.14430081844329834,0.3123621344566345,-0.10211628675460815
220,0.4346236504983174,0.874960530546452,-1.84152979405212,0.26991671323776245,-0.7675182223320007,-0.5814299583435059,-17.866941452026367,7.948115348815918,0.4825121760368347,0.011379063129425049,0.22174185514450073,0.9582610726356506
221,0.22073614270328756,-0.023668350488747485,-1.45407745706617,0.21888664364814758,0.02366614155471325,-0.9754632711410522,8.164735794067383,-4.112934112548828,-4.901088237762451,-0.029525071382522583,0.0482180118560791,-0.26539671421051025
222,0.632241850040553,1.2214961870440537,-2.2067096325197992,0.20224855840206146,-0.9396124482154846,-0.2760868966579437,-10.944860458374023,3.636589765548706,-1.2586028575897217,-0.20710083842277527,0.3131170868873596,1.2164098024368286
223,0.3515967789091206,-0.041434703303448096,-1.298236403885699,0.34410175681114197,0.04142284765839577,-0.9380182027816772,-5.2432780265808105,-3.8237903118133545,-2.535240650177002,0.19013899564743042,1.0872697830200195,-0.6301580667495728
224,0.3335680573185458,1.0340446855332137,-1.9505661292144558,0.16742348670959473,-0.8593742251396179,-0.4831617474555969,15.723217010498047,2.408160448074341,1.1296637058258057,-0.18361306190490723,-0.5481727719306946,0.3153303265571594
225,0.40239349141643144,0.17896092957452994,-1.295953124956349,0.3853672444820404,-0.17800720036029816,-0.9054310917854309,-12.684337615966797,-2.057800769805908,0.28712618350982666,0.8408290147781372,1.3897687196731567,-0.8238626718521118
226,0.05497982358726473,0.660696454267622,-1.6612815461747816,0.043388281017541885,-0.6136668920516968,-0.7883719801902771,17.992372512817383,-0.4435884356498718,-1.9417656660079956,-0.2373885214328766,-0.11518442630767822,-0.0993385910987854
227,0.27597680980559297,0.5172293767990483,-1.4913577944596739,0.23684358596801758,-0.4944738447666168,-0.8363018035888672,-14.541714668273926,5.004801273345947,0.6553201079368591,0.5030856132507324,0.8167699575424194,0.22720152139663696
228,-0.0843749420111314,0.029566243420635657,-1.5522803115137724,-0.08423803001642227,-0.029561936855316162,-0.9960070252418518,10.471861839294434,-4.358781337738037,-5.768804550170898,-0.004751220345497131,0.05133622884750366,-0.12769591808319092
229,0.08125829260084891,1.160224733777316,-1.737467422095194,0.03239721432328224,-0.9168928265571594,-0.39781635999679565,-9.935135841369629,7.105221271514893,-1.9609160423278809,-0.32521337270736694,1.0214155912399292,1.3859755992889404
230,0.10781963885605583,0.2449250794022336,-1.5251752481324246,0.10439926385879517,-0.24248364567756653,-0.9645218849182129,-3.217643976211548,-6.366104602813721,-3.616482734680176,0.5077223181724548,0.08605055510997772,0.30273300409317017
231,-0.21255010882834802,0.885353568772617,-1.6860584023855398,-0.13353677093982697,-0.774138867855072,-0.6187704801559448,10.946016311645508,2.1451737880706787,-1.0566173791885376,-1.0053791999816895,-0.422272264957428,-0.3596382737159729
232,0.5156000464494738,0.488227444164324,-1.5834611283454836,0.4354510009288788,-0.4690611660480499,-0.7683515548706055,-13.176700592041016,5.85272216796875,-0.5962927341461182,0.6771130561828613,0.7426207065582275,0.555018424987793
233,0.017902910853536125,0.2403146810743874,-1.7017102492106053,0.01738750748336315,-0.2380082756280899,-0.9711074829101562,15.004215240478516,-5.059895992279053,-5.4593729972839355,0.0942000150680542,-0.4044477939605713,-0.07564544677734375
234,-0.15868903523516933,1.3199731295093482,-1.6801390422276734,-0.03922175243496895,-0.9687084555625916,-0.24508288502693176,-13.579092025756836,7.7682414054870605,1.0396863222122192,-0.19167423248291016,0.757786214351654,1.6959953308105469
235,0.3123518292444869,-0.045458990817409554,-1.2131623022153173,0.30698004364967346,0.0454433336853981,-0.9506303668022156,-9.034527778625488,-2.4800384044647217,0.9479689002037048,0.6890221238136292,0.8884097933769226,-0.23210883140563965
236,-0.33511864096745003,0.6505362202562991,-1.5854432292417593,-0.2617102563381195,-0.6056131720542908,-0.7514921426773071,16.0843448638916,-6.1515021324157715,-8.39565658569336,-0.05567258596420288,-0.09508568048477173,0.29928267002105713
237,-0.1805258915061513,0.9372507392668273,-1.3893141544920784,-0.10629286617040634,-0.8059335947036743,-0.5823855400085449,-19.898836135864258,10.633614540100098,3.2353405952453613,0.43530285358428955,-0.12752282619476318,0.6927371025085449
238,-0.1730356070089614,-0.2076888030943916,-1.4154277446152452,-0.16847342252731323,0.20619891583919525,-0.9638976454734802,8.8948974609375,-3.441897392272949,-7.635357856750488,0.10701103508472443,-0.16605305671691895,-0.596588134765625
239,-0.4982536480604117,1.493520965869407,-1.5091799406713788,-0.03689291700720787,-0.9970157742500305,-0.06781323254108429,9.291568756103516,6.2228169441223145,0.7332344055175781,0.002545386552810669,-1.2241451740264893,1.1247133016586304
240,0.07564613208465394,-0.11845570526409142,-1.246006524876448,0.0750444084405899,0.11817887425422668,-0.9901525378227234,-14.61657428741455,1.7797168493270874,3.328768014907837,0.1471388041973114,1.1070713996887207,-0.42261290550231934
241,-0.14661642188347518,0.3821128739785263,-1.618195052433024,-0.13555540144443512,-0.37288179993629456,-0.9179236888885498,15.42626953125,-0.23899699747562408,-5.026356220245361,0.08565914630889893,-0.061719030141830444,0.3444526195526123
242,-0.13987642444920156,0.44255268850081136,-1.2802601053084206,-0.1259891539812088,-0.4282476305961609,-0.8948355913162231,-11.733548164367676,-0.09463820606470108,4.006744861602783,0.2376071959733963,0.6018468737602234,0.46389687061309814
243,-0.17927260539173584,-0.18891787539942934,-1.179977246839565,-0.1751413345336914,0.18779613077640533,-0.9664668440818787,2.0815186500549316,-2.404994010925293,0.025228675454854965,-0.1490011364221573,0.49630117416381836,-0.48353010416030884
244,-0.07383312329787198,-0.13212524682358498,-1.0195819229707268,-0.07312312722206116,0.13174116611480713,-0.9885834455490112,1.3350611925125122,0.7163906097412109,1.5314886569976807,-0.7526978254318237,-0.18493330478668213,-1.1048766374588013
245,0.15463089206845815,0.0835161044605974,-1.0035909345439677,0.15347859263420105,-0.08341905474662781,-0.9846245646476746,2.2319772243499756,3.051567792892456,0.4186716079711914,-0.35204124450683594,0.2362816035747528,-0.10131287574768066
246,0.24715198384556367,0.5271881524908378,-1.0173535888780565,0.21142704784870148,-0.5031052827835083,-0.8379639983177185,7.374007225036621,-2.9832348823547363,-0.4100305438041687,-0.4588788151741028,0.1223679780960083,0.979550302028656
247,-0.8680951003175807,1.3304877723262478,-0.7609197996898434,-0.18161937594413757,-0.9712646007537842,-0.15381644666194916,6.252588272094727,-9.272397994995117,0.13600578904151917,-0.035497963428497314,0.18468928337097168,0.5696642398834229
248,0.22717267240895408,0.46863165909049176,-1.2796938362852692,0.20094172656536102,-0.45166587829589844,-0.8692642450332642,-19.63771629333496,17.82457733154297,-2.1680262088775635,0.2988598942756653,1.622884750366211,0.16859596967697144
249,-0.5463250458016735,1.3222124354442768,-0.8630843257759369,-0.1278257519006729,-0.9692618250846863,-0.2102189064025879,24.147571563720703,-14.313126564025879,2.594602346420288,1.1054563522338867,2.764794111251831,0.5896439552307129
250,0.4396429076610482,0.43610482279947127,-1.2708529814894978,0.38578033447265625,-0.42241206765174866,-0.8202082514762878,-1.7250356674194336,0.39310574531555176,-0.4867887794971466,2.0972976684570312,1.8716307878494263,-1.0834019184112549
251,-1.548710678384634,1.3320113692487043,0.23714484122323864,-0.2364644706249237,-0.9716261029243469,-0.005223320331424475,-11.16418170928955,6.733611583709717,-1.6161493062973022,-1.563584327697754,-1.4629290103912354,4.169835090637207
252,0.5838052733904234,0.5354048297111381,-1.1398614166620944,0.474068820476532,-0.5101892352104187,-0.7176111340522766,7.1682610511779785,-7.882317066192627,3.657416582107544,1.5635440349578857,0.911907434463501,-1.2325537204742432
253,-2.7365124836150514,0.9992236306148994,1.1687469901000533,-0.21318641304969788,-0.8410512804985046,0.49717625975608826,-7.35344123840332,0.5577059388160706,0.49905937910079956,-0.8517244458198547,-0.6503122448921204,3.590805768966675
254,0.8747535768659984,0.2940000792825129,-1.1853353997492098,0.7344588041305542,-0.28978297114372253,-0.6136741638183594,-1.0886536836624146,-0.7125163674354553,-0.49373966455459595,2.3422470092773438,1.7994723320007324,-1.5844306945800781
255,-3.0005992870913096,0.8814285924050383,1.3257120160646927,-0.08938195556402206,-0.7716483473777771,0.6297380328178406,4.5905280113220215,-6.743691921234131,3.0370991230010986,0.33773401379585266,0.3740041255950928,4.014106750488281
256,0.3780361418922555,0.7582680158581931,-1.5596060653671364,0.2679740786552429,-0.6876649856567383,-0.6747642755508423,-17.91608428955078,8.906379699707031,-1.1570504903793335,0.8085792660713196,2.027188301086426,-0.09665906429290771
257,2.863823500171549,1.424138724492402,1.9269752564060745,0.0400712676346302,-0.9892650246620178,0.14053162932395935,25.388566970825195,-8.342474937438965,0.3103194832801819,0.011335615068674088,2.748908519744873,0.2248401790857315
258,0.17063484582170463,1.2101727248718892,-1.680444288558279,0.059918101876974106,-0.9356769919395447,-0.34773343801498413,-22.372655868530273,9.971978187561035,-2.097241163253784,-0.24230638146400452,2.0383381843566895,0.43626493215560913
259,-0.24052122081734328,1.4742395755350652,-1.2070172059090867,-0.02296474762260914,-0.9953420162200928,-0.09363077580928802,25.019676208496094,-3.8631155490875244,-0.7090454697608948,-1.107818365097046,2.3832664489746094,-0.3958711624145508
260,-0.4268302956592844,1.4293942546542844,-1.0617811624155071,-0.058343615382909775,-0.9900193810462952,-0.12828688323497772,-17.644304275512695,5.954164981842041,-1.467755675315857,-0.6012327671051025,0.8545976877212524,0.5898652672767639
261,0.5851934156766954,0.21019417024547127,-0.9708783968236192,0.5402033925056458,-0.20864979922771454,-0.8152579665184021,5.5677361488342285,-4.195188045501709,4.653294086456299,0.34233444929122925,1.092774510383606,-2.5888099670410156
262,0.18825880330078332,1.5565119442999367,-1.4077981795829873,0.002673785202205181,-0.9998979568481445,-0.014034523628652096,5.523931503295898,-5.339267253875732,-0.2804536521434784,0.16781264543533325,0.8014116287231445,2.3453028202056885
263,0.16148955514447513,0.9368076136014377,-1.383205352565022,0.09524520486593246,-0.8056711554527283,-0.58465576171875,-8.115762710571289,0.4703178107738495,0.0754833072423935,0.03863540291786194,0.7925638556480408,-1.1561431884765625
264,3.0441509951238968,1.5100325131262364,2.0213280545626193,0.005907983984798193,-0.9981544613838196,0.06043897196650505,0.3340055048465729,-3.787656545639038,-1.7876853942871094,-0.07701393961906433,0.11381608247756958,4.033646583557129
265,0.2561443916512101,0.5618951681446058,-1.341796792701889,0.21439889073371887,-0.5327909588813782,-0.8186372518539429,-14.259130477905273,6.32995080947876,1.4005002975463867,0.005953282117843628,1.490264654159546,-0.7279325723648071
266,0.31547798995747284,0.6868552152819539,-1.0554481491255918,0.23991510272026062,-0.6341086626052856,-0.7350829839706421,11.238699913024902,-2.5718765258789062,2.6064369678497314,-0.444871187210083,0.36103737354278564,-0.13395076990127563
267,0.5443693231550436,1.4021091864279371,-2.009346444386896,0.08694569766521454,-0.9858060479164124,-0.14362061023712158,-3.1381280422210693,-2.8290603160858154,-1.4437365531921387,-0.006348796188831329,0.29700905084609985,1.375111699104309
268,0.22411266157837087,0.3596890824044478,-1.0734973907906125,0.20801925659179688,-0.3519832193851471,-0.9125983715057373,9.202199935913086,-1.0729902982711792,-0.2701771557331085,-0.6441154479980469,1.2078791856765747,-3.2474663257598877
269,0.25706906367144317,0.8100780076327859,-1.2477116060536555,0.17528855800628662,-0.7243409752845764,-0.6667863726615906,-5.3793463706970215,0.4027334749698639,0.6252503991127014,0.7118116617202759,0.3632264733314514,1.7124102115631104
270,0.1754522061727236,0.14536572691892735,-0.8504958048886365,0.17271240055561066,-0.14485430717468262,-0.9742625951766968,1.8024648427963257,0.5490356087684631,0.03649640455842018,-0.6708050966262817,0.9574458599090576,-3.148738384246826
271,0.11359364455626736,0.6738040369299312,-0.9858977927635495,0.08857739716768265,-0.6239631772041321,-0.7764173746109009,3.6669561862945557,-1.5055352449417114,-0.48866623640060425,0.45291125774383545,-0.23409950733184814,1.5807998180389404
272,-0.0797955674981922,0.44839493179183076,-0.8507889387981541,-0.07183101773262024,-0.4335196912288666,-0.8982766270637512,0.9168612360954285,-0.20520037412643433,4.8058600425720215,-0.21202823519706726,0.3600791394710541,-2.1532368659973145
273,0.20461933349079434,0.4423600423814838,-1.0568930163632442,0.18363574147224426,-0.428073525428772,-0.8848903775215149,-3.5581181049346924,-0.10220758616924286,-5.7361979484558105,1.1219825744628906,1.5159183740615845,0.7619808316230774
274,-0.00706629279715299,0.5224446605764003,-0.5943324322785024,-0.006123611703515053,-0.4990001618862152,-0.8665802478790283,-0.6996700167655945,0.49576830863952637,0.3071593642234802,-2.480525016784668,-0.9973224401473999,-0.5462309718132019
275,0.10823755444751255,0.49376826234211146,-0.7276839551358474,0.09512293338775635,-0.4739474058151245,-0.875400185585022,2.6572234630584717,-2.776184320449829,3.917241334915161,1.5923465490341187,0.9631136655807495,-0.06005513668060303
276,-0.02864713667281064,0.5403607193566229,-0.5377938364194872,-0.024562222883105278,-0.5144453644752502,-0.8571712970733643,-0.07805897295475006,0.41202208399772644,-2.0272839069366455,-0.5870710611343384,-0.31052106618881226,-0.39470553398132324
277,0.05089998862046608,0.5770949967096408,-0.6918908180200201,0.042638376355171204,-0.5455917119979858,-0.8369657397270203,2.2486069202423096,-1.806172490119934,1.3599051237106323,1.0291084051132202,0.6692184209823608,-0.014779865741729736
278,-0.14930735465739817,0.6470189587219738,-0.514387212096498,-0.11868787556886673,-0.6028105616569519,-0.7890073657035828,1.9855831861495972,-2.235308885574341,-1.523741602897644,-0.6794536113739014,-0.1126740574836731,-0.82694411277771
279,-0.04663122034745673,0.7377491303761956,-0.5943617161750436,-0.03449387475848198,-0.6726239919662476,-0.7391800284385681,1.6683999300003052,-0.9187442660331726,0.6894891858100891,0.5095610022544861,0.16620010137557983,0.7728562355041504
280,-0.21105441395489002,0.5680167891348423,-0.49269095824628856,-0.1765945553779602,-0.5379613041877747,-0.8242645263671875,-0.48990124464035034,-0.40314170718193054,-0.5923433303833008,-1.1366530656814575,0.08709460496902466,-1.7928466796875
281,-0.017185437046590285,0.6613648258389805,-0.6530058811112243,-0.013561300002038479,-0.6141944527626038,-0.7890381217002869,2.082491636276245,0.32446879148483276,-0.40245190262794495,0.49154287576675415,0.30422747135162354,0.37261056900024414
282,-0.17729116096481937,0.5986447597829717,-0.5113450629474493,-0.14569418132305145,-0.5635234117507935,-0.8131510019302368,-2.6077053546905518,-1.1560440063476562,0.04675218462944031,-0.8278470635414124,0.14250290393829346,-0.3210500478744507
283,-0.07520737164684614,0.610720496695512,-0.5567135460865522,-0.061554450541734695,-0.5734578371047974,-0.8169192671775818,1.289750337600708,0.554034948348999,-0.21333752572536469,0.1362004429101944,0.023943066596984863,-0.008520126342773438
284,-0.0420826280917999,0.6760596276848316,-0.5376293842555722,-0.032816629856824875,-0.625724196434021,-0.7793537378311157,0.3881358206272125,-0.1985297054052353,-0.020841345191001892,-0.10115553438663483,0.154258131980896,0.2638050317764282
285,-0.04817658309894353,0.6574034501122961,-0.5328416815546455,-0.03812094405293465,-0.611063539981842,-0.7906631231307983,0.19958306849002838,-0.20432761311531067,-0.011842405423521996,-0.14699867367744446,0.03003937005996704,-0.21266329288482666
286,-0.037203915200115255,0.6631176756096178,-0.5446528182901031,-0.029312781989574432,-0.6155768036842346,-0.7875315546989441,0.5009348392486572,-0.36554229259490967,-0.3743836283683777,-0.05245906114578247,0.07341676950454712,-0.1432393193244934
287,-0.03261829552198458,0.6871469184028085,-0.5601211884685963,-0.0252113938331604,-0.634334146976471,-0.7726477384567261,0.34004807472229004,-0.5000675916671753,-0.6108928918838501,-0.1265830397605896,0.010402321815490723,-0.09281545877456665
288,0.05218394089351353,0.8375506069411555,-0.9023183626566825,0.03491007164120674,-0.7430059909820557,-0.6683737635612488,5.130704879760742,-6.126811981201172,-6.998337745666504,-0.6599253416061401,0.26470398902893066,-0.534385085105896
289,0.5089747958317588,1.2690389459424163,-2.061500979698014,0.14481955766677856,-0.954815685749054,-0.25952696800231934,-4.372596263885498,0.7417040467262268,6.0053277015686035,1.9965379238128662,0.583569347858429,1.2625176906585693
290,-0.23964559895234108,0.8313193726461072,-1.0427087670871922,-0.1599561721086502,-0.7388211488723755,-0.6546429395675659,9.905787467956543,-6.657637596130371,-8.294114112854004,-1.1339433193206787,0.6862088441848755,-2.743016242980957
291,1.245031154065558,1.2926654537775388,-2.9897814320032032,0.26011860370635986,-0.9615703225135803,-0.08786807209253311,4.432796955108643,-5.430490016937256,-3.0727851390838623,1.4558085203170776,1.750953197479248,1.039284110069275
292,-0.38167057207833344,0.7164056235925624,-0.9787105079719711,-0.2809070944786072,-0.6566781401634216,-0.6999036073684692,-6.994828224182129,3.7732908725738525,-0.6558184027671814,-4.155616283416748,0.23080533742904663,-2.8708667755126953
293,0.20857854446863325,1.4145527401848388,-1.9567465355247606,0.0322219580411911,-0.9878187775611877,-0.15223678946495056,2.2050325870513916,-0.9240310192108154,-4.286231517791748,0.3804062306880951,0.7245283126831055,0.7923887372016907
294,-0.5657784505045946,1.217108717314477,-1.2006141508312027,-0.18567408621311188,-0.9381018280982971,-0.2923869490623474,-9.009869575500488,6.36661434173584,14.09214973449707,0.9498342275619507,1.145163655281067,0.4237193465232849
295,-0.42861028029591636,0.9603647384322954,-1.1433293239256306,-0.23823481798171997,-0.8194007277488708,-0.5213699340820312,5.2210869789123535,0.542941153049469,-3.7474207878112793,-0.20501773059368134,-0.08419424295425415,-0.255760133266449
296,0.8410714282597587,1.4149771679248626,-2.5678277166095267,0.11567147076129913,-0.9878847599029541,-0.10345913469791412,4.606918811798096,-4.601450443267822,-3.2991175651550293,1.2756706476211548,1.6468050479888916,1.2289321422576904
297,-0.3650828516562441,0.5654868292594603,-1.0074390882818074,-0.3014475703239441,-0.5358269214630127,-0.7886817455291748,-13.735366821289062,7.060320854187012,5.5045318603515625,-2.792332887649536,1.2635948657989502,-2.1537163257598877
298,-0.06942954370583974,0.92124441307777,-1.2649154483025644,-0.04195931926369667,-0.7963548898696899,-0.6033725142478943,8.928512573242188,0.23853294551372528,-3.896944046020508,-0.27560657262802124,0.41107046604156494,-0.06465733051300049
299,1.6994835195701223,1.1965227630898694,2.6762046192672035,0.36257362365722656,-0.9307734370231628,0.046917859464883804,-3.1637933254241943,0.6167492270469666,2.4003281593322754,2.757589340209961,1.1567407846450806,1.4001493453979492
300,0.2528064892910498,0.16719573184409514,-1.0784000970022014,0.2466343492269516,-0.16641783714294434,-0.9547128677368164,-5.579283714294434,6.787806034088135,0.0432148352265358,-0.3343418836593628,1.9983117580413818,-4.619292259216309
301,1.0937717738678836,1.4924093086538692,-2.602245228596769,0.06956563889980316,-0.9969292879104614,-0.03595393896102905,9.096826553344727,-8.659968376159668,-2.585354804992676,0.7982627153396606,0.6704827547073364,2.6471447944641113
302,0.4866559389178072,0.5791772468506946,-1.7819358362251416,0.391401469707489,-0.5473355650901794,-0.7397490739822388,-3.301187038421631,-3.949315071105957,-4.995565414428711,0.12408620119094849,1.8275022506713867,-2.3033876419067383
303,0.4608698693276966,0.37391050501334383,-1.1548085400665025,0.41399946808815,-0.36525851488113403,-0.8337809443473816,-7.914727687835693,6.775977611541748,6.370838642120361,-0.6187723875045776,0.814965546131134,-1.1717121601104736
304,0.8859538369906242,1.2877262240032004,-2.3307642755924074,0.21632705628871918,-0.9602024555206299,-0.1766747534275055,19.361249923706055,-15.891508102416992,-6.12196159362793,0.8417021036148071,1.9138309955596924,0.6854180097579956
305,0.48964186515248487,0.984652500739764,-1.9892083344317322,0.2601531147956848,-0.8330799341201782,-0.4881579279899597,-25.148359298706055,11.932076454162598,6.7813591957092285,0.5527436137199402,2.328853130340576,0.8937670588493347
306,0.3729661193610447,0.9314493161161908,-1.5834657353730175,0.2174147218465805,-0.8024855256080627,-0.5556507706642151,19.119876861572266,-8.278239250183105,-2.4899837970733643,0.045005932450294495,1.094828724861145,-0.6322916746139526
307,1.7504742645935918,1.1639764747959724,2.522716485246259,0.3893209397792816,-0.9183838367462158,0.07071501761674881,-14.499898910522461,3.084348440170288,6.01252555847168,1.7694621086120605,0.6105529069900513,2.8742618560791016
308,0.1960207945454595,0.4377634927180789,-1.317118845718435,0.17640165984630585,-0.42391490936279297,-0.8883572816848755,11.228570938110352,-4.226221084594727,0.4879983365535736,-1.0390267372131348,1.1382246017456055,-4.926034927368164
309,2.2451060198671544,1.116890877389451,2.007698817262717,0.3425126373767853,-0.8987414836883545,0.27376794815063477,6.505290508270264,-7.2509965896606445,-4.216360569000244,0.9488386511802673,1.141493558883667,1.5137076377868652
310,-0.07568850092065557,0.5263269721928494,-1.2588971732352987,-0.0653822049498558,-0.5023608207702637,-0.8621825575828552,-20.126230239868164,14.013408660888672,9.062744140625,-1.1367661952972412,2.5493578910827637,-0.9968262314796448
311,0.2583620207930692,1.2110587164554756,-1.7282615482906913,0.08994235098361969,-0.9359892010688782,-0.34034469723701477,11.51142406463623,-2.251706123352051,-5.658721446990967,-0.3029550313949585,1.0279844999313354,0.7704441547393799
312,1.6421757702297741,1.1828185231262174,2.7124351318738036,0.37735414505004883,-0.9256759881973267,0.02698116935789585,-7.34551477432251,2.3896920680999756,9.060072898864746,2.8225512504577637,1.1242691278457642,1.1001856327056885
313,0.004683138889346058,0.5520258799373481,-1.1389705911776957,0.003987508825957775,-0.5244132876396179,-0.8514545559883118,7.9177961349487305,-2.71032977104187,-3.8821229934692383,-1.9484302997589111,1.0935509204864502,-5.435654640197754
314,1.7866053488121239,1.2989397805680931,2.7313405035224374,0.2622915804386139,-0.9632740616798401,0.057500336319208145,5.761993408203125,-4.972772598266602,-5.541959285736084,0.7385934591293335,0.9823628067970276,1.0001015663146973
315,-0.14765435156446766,1.1388553167616682,-1.456869644039334,-0.0615888275206089,-0.9081549048423767,-0.4140791594982147,-19.112686157226562,12.169014930725098,14.1222505569458,0.4436689019203186,1.351178526878357,0.9855818748474121
316,0.08205613484400735,0.9753128406572976,-1.5304083765202425,0.045974407345056534,-0.827877402305603,-0.5590218901634216,15.174249649047852,-3.3339457511901855,-5.549349784851074,0.22218355536460876,0.900417685508728,-0.49851900339126587
317,1.6682089076835063,1.135790771621201,2.6183229426556807,0.4194174110889435,-0.9068676829338074,0.040986258536577225,-7.133044719696045,-0.18368983268737793,3.5556044578552246,2.2183237075805664,0.9776380062103271,2.0983569622039795
318,0.12624881119041584,0.4557406756240692,-1.2222506216171176,0.11306235939264297,-0.44012752175331116,-0.8907887935638428,10.859108924865723,-3.2810776233673096,-4.144120693206787,-2.6121773719787598,1.5991393327713013,-6.493320465087891
319,1.861437778876147,1.1641600524106976,2.5236382791141354,0.37893402576446533,-0.9184564352035522,0.11334352195262909,5.306215763092041,-4.7363481521606445,-4.886625289916992,0.8841732740402222,1.2597955465316772,1.1670520305633545
320,-0.15535590396170262,0.9734544971825865,-1.4659719793730253,-0.08702833205461502,-0.8268336057662964,-0.5556727647781372,-18.574331283569336,12.323033332824707,12.681196212768555,-1.2514421939849854,2.1974849700927734,-0.026755213737487793
321,0.3178958376586889,1.2364581643557433,-1.9830826870420766,0.10256744176149368,-0.9446277022361755,-0.31170228123664856,11.02214241027832,-2.6647307872772217,-7.4739179611206055,-0.3111550509929657,0.9089374542236328,1.0279803276062012
322,1.3353259488927338,1.105720689963389,2.8729232351055067,0.43611449003219604,-0.8937876224517822,-0.10463307052850723,-5.267730236053467,-0.014359425753355026,8.220893859863281,3.0422182083129883,1.2331277132034302,0.6470677852630615
323,0.07922767704209259,0.4434503080741006,-1.274370804976742,0.07148966938257217,-0.42905858159065247,-0.9004431962966919,16.141572952270508,-9.702520370483398,-6.3952741622924805,-1.606279730796814,2.3116726875305176,-5.673165321350098
324,1.5545883860461651,1.2186541499196526,2.8491642647261113,0.3448643088340759,-0.9386360049247742,-0.005590029526501894,4.938116073608398,-3.3917548656463623,-5.3700761795043945,1.0201259851455688,0.9369269609451294,0.8626914024353027
325,-0.06589600025716832,1.040249527857628,-1.5849968165880863,-0.033319585025310516,-0.862530529499054,-0.5049068927764893,-17.700992584228516,12.108087539672852,13.873400688171387,-0.4248103201389313,1.9071319103240967,0.5194790363311768
326,0.14871187364778474,0.6555789389363267,-1.334859244290885,0.11744915693998337,-0.6096182465553284,-0.7839459180831909,13.567253112792969,-4.911312580108643,-2.8736588954925537,0.41744768619537354,0.37742531299591064,-0.4504138231277466
327,1.8775592730391903,1.0957793942002032,2.4176490720255766,0.4360025227069855,-0.8892849683761597,0.138109028339386,4.631429195404053,-4.614529609680176,-3.4357306957244873,1.150575876235962,1.1732662916183472,1.5754530429840088
328,-0.08721631231377178,0.8634678285741031,-1.3199051959327341,-0.05660181865096092,-0.7601005434989929,-0.6473356485366821,-16.74551010131836,13.534032821655273,8.429305076599121,-1.238610029220581,1.3953850269317627,-0.6772493124008179
329,0.2910317307926054,1.1211740029539656,-1.5999805313784903,0.12471175938844681,-0.9006113409996033,-0.41634878516197205,1.9830632209777832,0.39960119128227234,-3.7617948055267334,-0.1365220546722412,-0.1384512186050415,2.833768367767334
330,0.3917667911189846,0.6854148796402603,-1.5358165756010738,0.29558995366096497,-0.6329942345619202,-0.7155032753944397,7.206057071685791,-1.5949269533157349,7.134746074676514,2.077991008758545,1.609755039215088,-1.215832233428955
331,-0.08307887023771827,0.7690664149122715,-0.6561300666159914,-0.059628527611494064,-0.6954647302627563,-0.7160819172859192,5.3138556480407715,-2.5716423988342285,-3.4162747859954834,-1.8782682418823242,-0.9106448888778687,-1.5863778591156006
332,0.7895914080916876,0.7639607981393162,-1.5232081824260821,0.5127395391464233,-0.6917869448661804,-0.5084574222564697,4.065102577209473,-4.4542999267578125,-8.185938835144043,0.6662307381629944,1.7009880542755127,0.5005075931549072
333,-0.265610560691527,1.0098262309103785,-0.8275241954687346,-0.13965123891830444,-0.8467394113540649,-0.5133516192436218,-4.855135917663574,3.1852667331695557,13.994089126586914,-0.6863070130348206,1.31594717502594,0.6668702960014343
334,-0.1814900565855468,1.096938905502804,-1.0482679831742643,-0.08236400783061981,-0.8898146748542786,-0.44882732629776,-0.3507053852081299,-0.09906375408172607,-5.866403102874756,-0.699160635471344,-0.048127830028533936,-0.12320935726165771
335,1.3077817512869252,0.9719469921531961,-3.02675294874658,0.5443074107170105,-0.82598477602005,-0.14655588567256927,9.96853256225586,-5.631152629852295,-5.356872081756592,1.5326578617095947,2.3193776607513428,0.49244213104248047
336,-0.27145395710769005,0.7803265599775263,-0.8745228727514059,-0.19055740535259247,-0.7035115361213684,-0.6846600770950317,-5.320219039916992,5.5478715896606445,5.285218715667725,-3.5140933990478516,1.6255695819854736,-2.274171829223633
337,0.07413721260868432,1.1265725788088754,-1.505444679217501,0.03183181956410408,-0.9029445648193359,-0.42857667803764343,0.39894813299179077,1.006813406944275,-5.408676624298096,-0.5717335939407349,0.18004417419433594,0.03044438362121582
338,1.357264405280452,1.0896335316506622,3.0842944135169486,0.4522993862628937,-0.8864573836326599,-0.09807552397251129,1.9535000324249268,-1.3069249391555786,2.292973756790161,2.086778402328491,1.6526774168014526,0.6939464807510376
339,-0.4597109072632138,0.8736961552723106,-0.852630990520741,-0.28484708070755005,-0.7667070627212524,-0.5753454566001892,3.197807550430298,-3.9404919147491455,-5.5434699058532715,-5.504795074462891,-0.025544464588165283,-4.0322136878967285
340,0.9496729951782843,1.2258249206874594,-2.5392797139819523,0.2750084400177002,-0.9410851001739502,-0.19679774343967438,1.2496368885040283,0.78476881980896,-7.808225631713867,-0.16250541806221008,1.0481102466583252,0.2725118398666382
341,0.5995750738840492,1.3443699240554352,-2.286719329145803,0.12668168544769287,-0.9744748473167419,-0.1853390634059906,-8.060818672180176,6.371005535125732,17.776090621948242,2.226635456085205,1.2205991744995117,0.7348080277442932
342,-0.18846906371384528,1.1781615437021202,-1.3723361971870986,-0.07168660312891006,-0.9239041209220886,-0.3758484423160553,6.790811538696289,-2.450608015060425,-6.376532554626465,-0.24491801857948303,-0.0782930850982666,-0.5660766363143921
343,1.0960853917863715,1.0702244166766954,-2.8572544665263666,0.4268594980239868,-0.8773082494735718,-0.2193659394979477,4.32137393951416,-4.63519811630249,-2.4730889797210693,1.6539815664291382,1.8201944828033447,0.3550165593624115
344,-0.23662617410335618,0.6670574955644025,-0.9011042392427584,-0.1841742843389511,-0.6186769008636475,-0.7637530565261841,-3.6342031955718994,2.3857507705688477,-0.9087386727333069,-4.203765392303467,0.45435500144958496,-2.6831769943237305
345,0.4514902163743712,1.1359786053816883,-1.932468965946753,0.1837921291589737,-0.9069468379020691,-0.37903541326522827,0.6361459493637085,2.111743927001953,-6.272355079650879,-0.00970458984375,0.6765086054801941,0.6465067267417908
346,0.4299198779865241,1.2024028627110626,-2.0304523763669957,0.15009601414203644,-0.9329071044921875,-0.32734599709510803,-7.558928966522217,4.344094276428223,14.28375244140625,2.2538042068481445,0.7719879746437073,0.9229422807693481
347,-0.10730963983426214,0.9351777541595524,-1.2799364653583911,-0.06358490139245987,-0.8047046065330505,-0.5902605056762695,7.8714985847473145,-3.005072832107544,-5.4058427810668945,-0.11135712265968323,0.17892640829086304,-1.040949821472168
348,0.540238759771028,1.0929892589394217,-2.093408038664064,0.23651081323623657,-0.8880054354667664,-0.3943462371826172,3.677696943283081,-2.932961940765381,-2.0546886920928955,1.1232761144638062,0.9849750995635986,0.4927044212818146
349,-0.11545979517291918,0.5112030539702048,-0.9797883431735587,-0.10047543048858643,-0.4892268478870392,-0.8663496971130371,-2.9260663986206055,2.992786169052124,-0.45422935485839844,-3.6458778381347656,0.7788081169128418,-3.3713364601135254
350,0.3283688605838443,1.1743479037167388,-1.971762435730251,0.12453144788742065,-0.9224382042884827,-0.36551281809806824,2.178685188293457,-0.5602288246154785,-6.314554214477539,0.05446943640708923,0.6642595529556274,0.6486396789550781
351,-0.04025201872778534,1.1406251977370632,-1.647262584313049,-0.01678161695599556,-0.908894419670105,-0.416688472032547,-10.311627388000488,5.727715015411377,14.67788314819336,1.2902190685272217,1.14476478099823,0.5969099998474121
352,-0.20306468162550384,1.0250153758334806,-1.3366170946716784,-0.10468505322933197,-0.8547221422195435,-0.5084201693534851,7.7801513671875,-3.5946247577667236,-7.101617813110352,-0.2789361774921417,0.06216537952423096,-0.2964199185371399
353,0.9863013036984335,1.1229038941599594,-2.762775667088999,0.3611738979816437,-0.9013618230819702,-0.23895695805549622,4.518344402313232,-3.8775851726531982,-2.398231029510498,1.3842484951019287,1.3559974431991577,0.33740663528442383
354,-0.2815302307007204,0.6825327856100322,-0.940420371278265,-0.21558672189712524,-0.6307604312896729,-0.7454285025596619,-7.493304252624512,7.688446044921875,4.2452168464660645,-3.410649299621582,0.7368395328521729,-2.295876979827881
355,0.19736766578610082,1.2411438827880554,-1.7665055588052416,0.06347677111625671,-0.9461548924446106,-0.31742990016937256,1.277838110923767,1.2063757181167603,-4.802150249481201,0.10157755017280579,0.6181061863899231,0.8629163503646851
356,0.6714764309422234,1.2738991446721901,-2.3706028387677454,0.18201091885566711,-0.9562488198280334,-0.22904247045516968,-5.450153350830078,2.1462349891662598,9.065474510192871,2.1003224849700928,0.41430234909057617,1.090370535850525
357,-0.16299459015321083,0.7015668701762936,-1.0722752856892719,-0.12394992262125015,-0.6454153060913086,-0.7537078857421875,6.83993673324585,-3.9081859588623047,-4.852953910827637,-0.9441500902175903,0.3462057113647461,-2.0288848876953125
358,0.5621103141967255,1.1715264591981835,-2.1020255849534286,0.20719103515148163,-0.921345055103302,-0.32893040776252747,5.6597676277160645,-2.945937156677246,-5.315049171447754,0.4884571433067322,0.9681742787361145,0.3403744697570801
359,-0.4134910273539615,1.0222990784115507,-1.0968158514083162,-0.20950521528720856,-0.8533090353012085,-0.47746339440345764,-13.181285858154297,8.1644868850708,14.127360343933105,-0.6262186765670776,1.8350900411605835,0.34600895643234253
360,-0.18905158641699307,1.1189491571379055,-1.3514164506700188,-0.08205442875623703,-0.8996421098709106,-0.4288487732410431,7.644857883453369,-2.372331380844116,-6.073287487030029,-0.12566345930099487,0.31233131885528564,0.2716526985168457
361,0.7531035393893493,1.2625037347191532,-2.5474624800176326,0.2075193226337433,-0.9528530240058899,-0.22137512266635895,-2.0283966064453125,-1.3398926258087158,4.841457843780518,2.393676996231079,0.9979274272918701,0.7753149271011353
362,-0.2577973103117543,0.6410025971641681,-1.0119591485672208,-0.20434258878231049,-0.5979993343353271,-0.7750102877616882,6.3701395988464355,-6.158788681030273,-6.6501665115356445,-1.9661591053009033,0.14498114585876465,-3.026228666305542
363,0.2945186002055083,1.10673297410896,-1.8991524788758678,0.12992478907108307,-0.894241213798523,-0.4283134341239929,2.643704652786255,-3.2032623291015625,-2.3793163299560547,1.3275489807128906,1.053893804550171,0.37974464893341064
364,-0.3505677710312146,0.5502276676325238,-0.862874796976,-0.2927425503730774,-0.5228813290596008,-0.8005604147911072,-0.16658125817775726,2.979132652282715,-0.337516725063324,-4.662487983703613,1.195870280265808,-2.9020609855651855
365,0.06726502471130377,1.0422856051814797,-1.4781406256176315,0.0338926799595356,-0.8635590076446533,-0.5031076073646545,1.887556552886963,1.185526967048645,-4.761314392089844,0.044064465910196304,0.5136748552322388,0.6786447167396545
366,-0.17001537257156876,1.015655829017902,-1.2440946718277912,-0.089177705347538,-0.8498263955116272,-0.5194636583328247,-11.016092300415039,6.301164150238037,13.407172203063965,1.5169578790664673,0.7947574257850647,0.9156275987625122
367,-0.11520056784416141,0.9530232017362584,-1.16786031671144,-0.06657914072275162,-0.8151703476905823,-0.5753821134567261,3.96634578704834,1.7036817073822021,-4.0447211265563965,0.13048294186592102,0.0456695556640625,0.20416629314422607
368,-0.17045749740668795,0.8782907713972894,-1.037822479623947,-0.10830532759428024,-0.7696487307548523,-0.6292144656181335,-7.080964088439941,2.534290313720703,8.246891021728516,1.2037338018417358,0.4197646975517273,1.1295197010040283
369,-0.07715046105473027,0.6703132608400437,-0.9372213365213732,-0.06039723753929138,-0.6212314963340759,-0.7812961339950562,5.6108293533325195,0.04653102159500122,-3.4684524536132812,-0.06367196142673492,0.22441142797470093,-0.6764522790908813
370,0.336386661135948,0.993481223354295,-1.4449256264096642,0.18014895915985107,-0.8379310369491577,-0.5151873826980591,5.416265487670898,-2.9724233150482178,-2.3293981552124023,0.5549432039260864,0.6500343084335327,0.7634326219558716
371,-0.01716884047646994,0.5486550921517926,-0.8831843941682654,-0.014648194424808025,-0.5215401649475098,-0.8531010150909424,-7.997113227844238,6.000564098358154,5.097268581390381,-0.9756472110748291,0.45789575576782227,-1.0327937602996826
372,0.27406139157167364,0.730399648098049,-1.3303392700849914,0.2016044557094574,-0.6671673655509949,-0.7171076536178589,1.7562237977981567,-0.11306285113096237,-4.799375057220459,-0.0905509889125824,0.36414313316345215,0.7637079954147339
373,0.18852384362102337,0.682726105513484,-1.2583436269840558,0.14540240168571472,-0.6309104561805725,-0.7621089816093445,0.6040587425231934,3.3880350589752197,11.885237693786621,1.2495713233947754,0.88358074426651,-0.306784451007843
374,0.2736919799150181,0.6579882698025022,-1.2379930406015243,0.2138582468032837,-0.611526370048523,-0.7617743611335754,-0.6649081707000732,-1.0451035499572754,-6.41953706741333,-0.9430147409439087,-0.45587170124053955,0.3901313543319702
375,0.30562859092432115,0.5284211077333181,-1.3716680928487157,0.25985220074653625,-0.5041704177856445,-0.8235830664634705,1.4140229225158691,1.6972132921218872,8.250296592712402,1.0882008075714111,1.4236345291137695,-0.13582861423492432
376,0.2153022137041624,0.7250582201837581,-0.9167764349562431,0.15990318357944489,-0.6631790399551392,-0.7311803102493286,7.229341983795166,-3.209904432296753,-2.1864829063415527,-1.6750704050064087,-0.7213424444198608,-0.4519861936569214
377,0.458874084017571,0.6373691948847711,-1.6588065516298622,0.35597413778305054,-0.5950832366943359,-0.7205264568328857,-4.391777038574219,-2.6358160972595215,-4.035414695739746,0.915861189365387,1.8077754974365234,-0.21952176094055176
378,0.12902409966632275,0.5844079811969642,-0.7953703306248163,0.10731279104948044,-0.5517057180404663,-0.8271062970161438,-2.5481491088867188,2.86326265335083,3.419415235519409,-2.718503475189209,-0.2712007761001587,-1.352031946182251
379,0.3005667740990721,0.7023693795886821,-1.3341394355287035,0.22598786652088165,-0.6460281014442444,-0.7290934324264526,-1.741337776184082,-1.1250516176223755,-6.8705058097839355,-0.08150240778923035,0.9729934334754944,0.9168375730514526
380,0.02712196796478073,0.6060665137701762,-0.8381815992967689,0.022288678213953972,-0.5696389675140381,-0.8215928077697754,-3.6330647468566895,6.0828399658203125,12.557677268981934,-1.0292009115219116,1.1159493923187256,0.3233780860900879
381,0.08618272797765103,0.6080183072017353,-0.9660932483503062,0.07064966857433319,-0.5712420344352722,-0.8177353739738464,1.7179359197616577,-2.359640121459961,-6.088500022888184,-0.3909927010536194,0.6131426692008972,0.4759690761566162
382,-0.01136626722816465,0.5446044844476554,-0.7713717685007897,-0.00972172524780035,-0.5180798172950745,-0.8552770018577576,0.6646634936332703,1.9062377214431763,8.394577980041504,-0.19126704335212708,0.5017529129981995,-0.13909250497817993
383,0.05910839348956699,0.5569248139940672,-0.8282648396358436,0.05014699324965477,-0.5285782217979431,-0.8474020957946777,-1.5036237239837646,0.48076823353767395,-5.916735649108887,-0.5535649657249451,0.3881363868713379,0.423223078250885
384,-0.030570338859220867,0.5630006600460492,-0.722316733206512,-0.02584800496697426,-0.533726155757904,-0.8452622294425964,0.2386970818042755,3.768902540206909,10.60240650177002,0.22134360671043396,0.7201427817344666,0.07177895307540894
385,0.07384605621666711,0.5755561993609096,-0.7165704285725558,0.06189240887761116,-0.544301450252533,-0.8366034030914307,-1.418429970741272,1.9387083053588867,-4.755844593048096,-0.7382839918136597,-0.07406097650527954,0.32833313941955566
386,0.13667751990625343,0.5227315390074734,-1.0226144156013264,0.11805705726146698,-0.49924877285957336,-0.8583782315254211,-1.0698833465576172,1.7157477140426636,6.771607398986816,1.5497591495513916,0.842602014541626,0.8775127530097961
387,0.05510212616222804,0.26077459912415696,-0.49875238377417,0.05321221798658371,-0.25782904028892517,-0.9647241234779358,2.955876588821411,-1.4970823526382446,-1.5789599418640137,-1.135533332824707,-0.26487603783607483,-1.573697566986084
388,0.31308243257928786,0.4207364160064074,-0.9729733926011604,0.28113216161727905,-0.4084327518939972,-0.8684166073799133,1.8064334392547607,-5.112239837646484,-6.5728068351745605,0.847529947757721,1.1904456615447998,1.1353538036346436
389,0.03891986972795872,0.4563847036315184,-0.5236612448298708,0.03492766618728638,-0.44070571660995483,-0.8969718813896179,-2.262000560760498,2.6323962211608887,4.412697792053223,-2.5111238956451416,0.6611799597740173,-0.12501603364944458
390,0.22082933550323272,0.4277461288632551,-0.9152943249196481,0.19930414855480194,-0.414821058511734,-0.8878070712089539,-3.000650405883789,1.027783751487732,-6.303746223449707,0.38640445470809937,1.1872819662094116,0.7816974520683289
391,0.04941423652377566,0.45106034579677506,-0.7396794272850499,0.04445399343967438,-0.4359200894832611,-0.8988868594169617,-1.6853277683258057,3.2876386642456055,8.147577285766602,0.0047098249197006226,0.6113656759262085,0.21900099515914917
392,0.09252684767831143,0.5113778283821702,-0.7454680068312799,0.0805748999118805,-0.48937928676605225,-0.8683407306671143,-1.6421116590499878,0.9947608709335327,-5.229735374450684,-0.9853753447532654,-0.12678587436676025,0.5771267414093018
393,0.09903206342536268,0.44434250880700277,-0.9485269045216579,0.08926932513713837,-0.4298643171787262,-0.8984696269035339,0.9716854691505432,1.4560288190841675,7.850268363952637,1.6752265691757202,1.1668181419372559,0.07104653120040894
394,0.0011982707177709408,0.4914734507259108,-0.5405736459364695,0.0010564413387328386,-0.47192543745040894,-0.8816378116607666,1.0533483028411865,-0.8313609957695007,-3.194852828979492,-1.5940282344818115,-0.9904005527496338,-0.3508755564689636
395,0.23971258197729567,0.32296971308759137,-1.138471296535774,0.22514794766902924,-0.31738412380218506,-0.9211816787719727,2.091661214828491,-4.899072647094727,-4.340456485748291,1.5131638050079346,1.81338632106781,-0.14720821380615234
396,0.09564184555272671,0.33110011172100856,-0.5418684219824337,0.0903092548251152,-0.32508358359336853,-0.9413633346557617,0.42438820004463196,-0.27022305130958557,1.2662822008132935,-2.4434585571289062,-0.29704776406288147,-1.0989809036254883
397,0.2626651066349496,0.33477731736754823,-0.8558296880432439,0.2452400177717209,-0.32855886220932007,-0.9120890498161316,0.3538234531879425,-0.2955976128578186,-6.523138046264648,-0.4372108578681946,0.47222036123275757,0.2483317255973816
398,0.1456755941708344,0.36035377274245806,-0.9332264021453169,0.13583752512931824,-0.35260531306266785,-0.9258605241775513,-1.725874900817871,3.50711989402771,12.416582107543945,1.2842369079589844,1.1779990196228027,0.40109550952911377
399,0.09805738252029532,0.43058788939583215,-0.7385494210940687,0.08896403014659882,-0.4174050986766815,-0.9043552279472351,1.4702595472335815,0.11840557307004929,-4.548515319824219,-1.2428793907165527,-0.8252706527709961,-0.024615108966827393
400,0.14667048357493973,0.30763047161444124,-1.2335416213229626,0.13928420841693878,-0.3028011918067932,-0.9428209662437439,4.807233810424805,0.21392250061035156,4.332528591156006,2.7201061248779297,1.633260726928711,-1.1418042182922363
401,0.10450903832288902,0.4550711599107212,-0.5432584390905725,0.09370233863592148,-0.439526230096817,-0.8933289051055908,4.131319046020508,-3.1739931106567383,-4.303092956542969,-2.0169506072998047,-1.4656403064727783,-1.1240508556365967
402,0.2446883664773172,0.33124008660531024,-1.1414280169210311,0.22908499836921692,-0.3252159655094147,-0.9174718856811523,2.175396680831909,-2.84289288520813,0.8752419948577881,2.490992546081543,1.2367912530899048,-1.0676050186157227
403,0.06289326179723811,0.4625288135512845,-0.5529000305018015,0.056247778236866,-0.44621264934539795,-0.8931576013565063,2.37800931930542,-1.9314087629318237,-3.565973997116089,-2.9339942932128906,-1.326248288154602,-1.5500644445419312
404,0.21569395904004157,0.43672230953384417,-1.3267092954089694,0.19393755495548248,-0.4229716956615448,-0.8851458430290222,0.9837455749511719,-5.559808731079102,-7.542932987213135,0.2163255214691162,1.1254253387451172,-0.6873028874397278
405,0.21633089406480766,1.2223373939520026,-1.7374822499572655,0.0732913613319397,-0.9399000406265259,-0.3334912359714508,7.388590335845947,0.0170991662889719,-1.5132191181182861,-1.31471586227417,0.6843458414077759,-0.026951909065246582
406,1.6122519520979863,1.33689375374261,2.807875922719378,0.23157712817192078,-0.9727692604064941,0.009605677798390388,-2.3527092933654785,2.14475417137146,10.63172435760498,3.0060784816741943,0.7657836675643921,0.23111701011657715
407,-0.3249618576355989,1.399014590893851,-1.4261903425340443,-0.054575853049755096,-0.985281765460968,-0.161991685628891,1.0822219848632812,0.3943704068660736,-4.375571250915527,-0.4546404480934143,-0.2935725450515747,-0.7197221517562866
408,1.584937455129177,1.2026404861074698,2.829847937975853,0.3598596453666687,-0.9329926371574402,0.0050891609862446785,3.3515310287475586,-1.9957834482192993,1.671347737312317,3.3056066036224365,1.8705384731292725,0.5311046838760376
409,-1.1820123934461766,1.196518183894361,-0.45709485800287913,-0.3383161723613739,-0.9307717680931091,-0.13858583569526672,-2.677114248275757,0.5609541535377502,-1.9273618459701538,-4.314455032348633,-0.9338979721069336,-1.8332617282867432
410,0.5908748532119422,1.380940092900955,-2.217967118335298,0.10513228178024292,-0.9820314049720764,-0.15672123432159424,2.8588075637817383,-0.9272134304046631,-6.013018608093262,0.6879280209541321,1.0329804420471191,0.46690189838409424
411,-0.7129946559288283,1.431239384818918,-0.8716371312345165,-0.09098849445581436,-0.9902777075767517,-0.1052195131778717,-7.6279191970825195,8.044734954833984,13.517082214355469,0.36666905879974365,0.7359899878501892,0.5633341670036316
412,-0.16235893882858984,1.2468345990673746,-1.2080890489064533,-0.051456090062856674,-0.9479817748069763,-0.3141382932662964,5.12168550491333,-0.4673473536968231,-4.272570610046387,0.2688632905483246,0.17523092031478882,0.5299586057662964
413,0.4123320057692235,1.2155131380705435,-1.8437521678821316,0.13940222561359406,-0.937548041343689,-0.31870171427726746,3.4463627338409424,-4.216625213623047,2.738443374633789,1.5535603761672974,0.9266685247421265,0.43378353118896484
414,-0.28104968895751026,0.9327698415119106,-0.9622545667966623,-0.165201336145401,-0.8032727837562561,-0.5722424387931824,4.859344005584717,-1.9083651304244995,-5.132932186126709,-1.6406611204147339,0.1105695366859436,-2.337791681289673
415,0.29975645582733074,1.0740994884364214,-1.5156062350826036,0.14071166515350342,-0.8791614174842834,-0.455275297164917,0.9343334436416626,-0.5371766090393066,-2.129396438598633,1.1674243211746216,0.8940539956092834,0.7792346477508545
416,-0.15793499126301483,0.6246049506300786,-0.8094138744284772,-0.12758399546146393,-0.5847768783569336,-0.8010981678962708,-6.607672214508057,3.7406005859375,2.0383846759796143,-3.3282113075256348,0.9938802719116211,-3.1396822929382324
417,0.14387745875558947,0.8944034694785385,-1.0565169052806693,0.08975459635257721,-0.7798358201980591,-0.619516134262085,-0.05786972865462303,2.462585687637329,-0.47230711579322815,0.5758795738220215,0.3017932176589966,1.5192811489105225
418,-0.09995570400694045,1.017512622720384,-1.0147866636710339,-0.05243770033121109,-0.850803554058075,-0.5228610634803772,-5.585226058959961,0.02736457996070385,4.098758220672607,0.6579522490501404,0.4336739778518677,1.3473849296569824
419,-0.0637663921184592,0.5821030599985312,-0.8212242057909662,-0.053228504955768585,-0.549781858921051,-0.8336105942726135,4.436201095581055,2.0571188926696777,-1.7323980331420898,-0.284540057182312,0.18886572122573853,-1.7667617797851562
420,0.183168012895856,0.9192135413123949,-1.0057469573637448,0.11046133190393448,-0.7951249480247498,-0.5963007211685181,-0.5096689462661743,-1.162585973739624,0.4612147808074951,1.0148590803146362,0.3852739930152893,2.5326104164123535
421,0.00041369730035502994,0.3681261881916901,-0.7821203327237584,0.00038598093669861555,-0.35986778140068054,-0.9330032467842102,0.5648500919342041,0.49798017740249634,-1.3346738815307617,-1.684513807296753,1.3784377574920654,-4.317957878112793
422,0.26424291182096915,0.7947633059385355,-0.823147302969368,0.18294349312782288,-0.7136978507041931,-0.6761413812637329,3.194969415664673,1.2464110851287842,0.5000991821289062,0.06966575980186462,0.08807224035263062,1.612420678138733
423,0.07672283833989679,0.5120385942628028,-0.7037968605171776,0.06681734323501587,-0.4899553954601288,-0.8691830635070801,-8.631782531738281,-0.6107279062271118,-0.20026402175426483,-0.6433249115943909,0.3875994384288788,-0.6172671318054199
424,0.2322795841963735,0.6293234982999195,-0.7484892206639695,0.18609678745269775,-0.5885980129241943,-0.7867149114608765,3.0172066688537598,2.614893674850464,1.06432044506073,-0.04295410215854645,0.15208983421325684,0.03627246618270874
425,0.2112829362153116,0.8388654008355768,-0.769143164613811,0.140153706073761,-0.743885338306427,-0.6534458994865417,-5.924690246582031,-1.7681176662445068,-0.9429234266281128,-0.3417070508003235,0.170215904712677,2.250110387802124
426,0.1461606711437123,0.41999952628410053,-0.8346029018418422,0.13298305869102478,-0.40776002407073975,-0.9033533334732056,4.067327499389648,2.3013064861297607,1.0457346439361572,0.09286229312419891,1.0433648824691772,-2.2727484703063965
427,0.3043239984650989,0.8772092958891602,-0.7702140594138612,0.19156500697135925,-0.768957793712616,-0.6099234819412231,3.6770129203796387,0.07409368455410004,1.1097906827926636,-0.13286447525024414,-0.03679776191711426,1.4980919361114502
428,0.1836760753193813,0.42147591078778623,-0.7616265230190239,0.1666610687971115,-0.40910765528678894,-0.8971371054649353,-7.847381114959717,-2.7761898040771484,-2.9394688606262207,-0.5937851071357727,0.6584057807922363,-0.3326907157897949
429,0.2829344201418208,0.5938528134599537,-0.7484133384193686,0.23137737810611725,-0.5595583319664001,-0.7958385348320007,2.2724571228027344,3.295567750930786,0.9261882305145264,-0.28263163566589355,0.10336637496948242,0.06704825162887573
430,0.2789845278332746,0.8195926265162019,-0.749926805161658,0.18795180320739746,-0.730867862701416,-0.6561298370361328,-5.951905727386475,-1.3648781776428223,-0.7074776887893677,-0.18789076805114746,0.10606622695922852,2.122835159301758
431,0.14133641624457036,0.34924809206509344,-0.7801854964557002,0.1323622614145279,-0.3421913981437683,-0.9302608370780945,4.148507595062256,1.122976541519165,0.44740772247314453,0.1819230169057846,1.085263967514038,-2.5637423992156982
432,0.3635690596488496,0.8575302244464527,-0.8085318637777338,0.23267963528633118,-0.7562288641929626,-0.6115373969078064,6.400710105895996,-0.7242007851600647,0.48622646927833557,-0.04159383475780487,0.24554777145385742,0.7526050209999084
433,0.20246966784872564,0.5348023737522667,-0.7566160420756394,0.1730109602212906,-0.5096710324287415,-0.8427945375442505,-9.368782043457031,-2.399571657180786,-2.1923985481262207,-0.5417701005935669,0.45005494356155396,0.217016339302063
434,0.19346944302402372,0.5996418902423447,-0.7239138683368663,0.15872181951999664,-0.5643468499183655,-0.8101357817649841,1.554723858833313,4.185204029083252,1.0940711498260498,-0.29301440715789795,0.021957993507385254,-0.11033540964126587
435,0.2876510037612723,0.9184154647639738,-0.7884349588062932,0.17222891747951508,-0.7946406602859497,-0.582136869430542,-1.1622028350830078,-0.9632440805435181,0.23944774270057678,0.03521430492401123,0.12662619352340698,1.9502551555633545
436,0.13146873991398772,0.3687511799037668,-0.8280843790234712,0.12227822095155716,-0.3604508340358734,-0.9247287511825562,0.16166087985038757,-0.3248816132545471,-1.6309350728988647,-0.21816444396972656,0.8896561861038208,-2.359893321990967
437,0.33503779842644243,0.665291030018847,-0.7568145366826697,0.2586830258369446,-0.6172881126403809,-0.7429929375648499,5.043424129486084,0.7108101844787598,1.249538779258728,-0.19851762056350708,0.19904470443725586,0.12511879205703735
438,0.18609323575893782,0.7533134040009513,-0.6942583968844086,0.13495919108390808,-0.6840593814849854,-0.7168324589729309,-7.092912197113037,-1.3252249956130981,-0.8737770318984985,-0.2810468375682831,0.20296502113342285,0.6644490361213684
439,0.16796446353131736,0.6311460281902649,-0.7271687690104139,0.13496968150138855,-0.590070366859436,-0.7959900498390198,3.7350270748138428,3.2408790588378906,1.8019317388534546,-0.12605856359004974,0.3856484293937683,-0.6725006103515625
440,0.31403881392386335,1.1113064066310476,-0.8028305712817682,0.13699544966220856,-0.8962788581848145,-0.42180150747299194,-1.4252504110336304,-0.7046914100646973,1.175036072731018,0.18780313432216644,0.29785966873168945,2.779879570007324
441,-0.0004862352121965171,0.5668850471245535,-0.7551083126266015,-0.0004101772210560739,-0.5370069742202759,-0.8435776829719543,0.2310507595539093,-2.697619676589966,-1.3423869609832764,-0.7415484189987183,0.8412214517593384,-2.824375867843628
442,0.22248139482584475,0.9006542023723891,-0.8535407962628715,0.1370454579591751,-0.7837334275245667,-0.605789065361023,6.386112689971924,-0.7695255279541016,-0.7242161631584167,-0.2708955407142639,0.16762930154800415,0.36007678508758545
443,0.25472833398099487,0.8179779039542514,-0.8653289965411377,0.17228001356124878,-0.7297648191452026,-0.6616365313529968,-9.008206367492676,1.9996583461761475,-1.6722865104675293,-0.3687674403190613,0.22978007793426514,0.4440767765045166
444,0.29454350860701195,0.3551208055130641,-0.8670174945986273,0.2721894383430481,-0.34770363569259644,-0.8972263336181641,5.313913822174072,-0.7454003691673279,3.0889580249786377,0.3603941798210144,0.6243607401847839,-1.5640926361083984
445,-0.2557486307516984,1.3942060185799268,-0.8235205886507548,-0.04444029927253723,-0.9844484329223633,-0.1699603945016861,-3.3207709789276123,-1.9737281799316406,-0.5536282658576965,0.6058721542358398,-0.13873589038848877,3.6423418521881104
446,0.16962229084004846,0.2904126277149986,-1.035667392727127,0.16174128651618958,-0.2863475978374481,-0.9443753361701965,7.030303001403809,-2.451789379119873,-3.02488374710083,-0.11135677993297577,0.976731538772583,-3.390127658843994
447,0.3781529101558079,0.9160805234687909,-1.3249154483969996,0.22482115030288696,-0.7932209968566895,-0.5659116506576538,4.8136210441589355,-2.7210779190063477,-1.4332523345947266,0.031206071376800537,0.31354570388793945,1.5741208791732788
448,0.37629288641771846,0.01451207588839455,-1.0045081636264395,0.36743655800819397,-0.01451156660914421,-0.9299353361129761,-14.553726196289062,3.9552361965179443,-0.867741584777832,-0.06267282366752625,2.2324376106262207,-1.2156639099121094
449,0.42920259767484215,0.46330785199100366,-1.0957481671031934,0.37227538228034973,-0.44690969586372375,-0.813438892364502,9.376261711120605,0.06237272173166275,2.2215261459350586,-0.08373168110847473,0.31566882133483887,0.017799854278564453
450,0.2959484934699796,1.081740322127221,-1.4091296003731024,0.1370137333869934,-0.8827767372131348,-0.4493688642978668,-9.298386573791504,2.3334946632385254,0.1438795030117035,0.0973765105009079,-0.00012725591659545898,2.162534236907959
451,0.40825631812736624,0.11720299657882989,-0.8835954939066223,0.3942859172821045,-0.11693485081195831,-0.9115179181098938,5.159590244293213,-1.0930794477462769,1.765459656715393,0.3027966022491455,0.8809271454811096,-2.559978723526001
452,0.23254961296965906,1.0999170835671042,-1.166793121359689,0.10455247759819031,-0.8911697268486023,-0.44145822525024414,6.907118320465088,-5.673418998718262,-0.29205048084259033,0.2209937870502472,0.40983128547668457,1.2066864967346191
453,0.3868334944802999,0.2569628655506798,-0.9351300107126362,0.3648710250854492,-0.2541443109512329,-0.8957007527351379,-10.112404823303223,3.393488883972168,-0.6525251269340515,0.3430910110473633,1.3711029291152954,-1.1093041896820068
454,0.30940817373011964,0.84577920663999,-1.0208997443795291,0.20192530751228333,-0.7484880685806274,-0.6316579580307007,11.419934272766113,-5.180199146270752,0.22025825083255768,-0.3484249413013458,0.6435076594352722,0.44069427251815796
455,0.20816333196987802,0.7252319228893971,-1.1257386859067282,0.15465553104877472,-0.6633090376853943,-0.7321904301643372,-14.427006721496582,4.893327236175537,1.867156744003296,0.19843286275863647,0.6538943648338318,0.8516515493392944
456,0.28220487738805217,0.4144631505386293,-0.917070006934196,0.254896342754364,-0.4026986062526703,-0.8791255354881287,7.786168098449707,-1.544624924659729,0.07047814130783081,0.048585712909698486,0.3794594407081604,-1.2405948638916016
457,0.38323178411376224,1.2408783802076204,-1.3871686106927799,0.1211371123790741,-0.9460689425468445,-0.3004654049873352,-1.8398597240447998,-1.079277515411377,0.3483821749687195,0.614473819732666,0.2634517550468445,2.5368239879608154
458,0.3695724595723373,0.24931238393340244,-0.8437873210015462,0.35004881024360657,-0.24673765897750854,-0.9036517143249512,3.5530765056610107,-1.7215871810913086,0.4115699231624603,-0.09238886833190918,1.0908234119415283,-3.367466449737549
459,0.23366210747310878,1.1001825589103509,-1.076079985453994,0.10498876124620438,-0.8912901282310486,-0.4411115050315857,9.227508544921875,-6.076622486114502,0.5766457319259644,0.17375881969928741,0.5485471487045288,0.8165692090988159
460,0.1564889928249204,0.6649691009071352,-0.9624423250058128,0.12264478951692581,-0.6170347929000854,-0.7773199081420898,-18.58176612854004,8.654461860656738,0.7475792765617371,-0.2577003240585327,0.8857268691062927,0.6479864120483398
461,0.23902198354347287,0.4152744648938965,-1.0078577210877784,0.21662989258766174,-0.40344107151031494,-0.8889920115470886,6.875048637390137,0.7978693842887878,1.0454405546188354,0.32505711913108826,0.17384207248687744,-0.22026091814041138
462,0.2849615104329953,1.0033799238384091,-1.116636063073747,0.1510896533727646,-0.8432923555374146,-0.5157808661460876,2.475356340408325,-3.471374988555908,0.3350462019443512,0.2733945846557617,0.12829607725143433,1.3264803886413574
463,0.23670235251190933,0.14389087043833604,-0.9416274380649089,0.2320747971534729,-0.1433948576450348,-0.9620702862739563,-12.749662399291992,1.8023899793624878,-1.7798296213150024,-0.4519997239112854,1.504433035850525,-1.0050928592681885
464,0.3754416856117742,0.3656046174451937,-0.9440726116422765,0.34244856238365173,-0.35751402378082275,-0.8688571453094482,8.595268249511719,0.49719732999801636,2.269874334335327,-0.17505964636802673,0.32328855991363525,0.25165438652038574
465,0.11420056799839934,0.8947874365332305,-1.0121907731186701,0.07129833847284317,-0.7800760865211487,-0.621609091758728,-4.971085071563721,-0.6615158915519714,0.0025445418432354927,-0.34948134422302246,0.06706339120864868,1.181240439414978
466,0.2816243500303554,0.011659682276009463,-0.9042671375021188,0.2778974771499634,-0.011659418232738972,-0.9605399966239929,2.2073192596435547,2.5014259815216064,0.6700609922409058,0.5534166097640991,0.3426225483417511,-2.2536628246307373
467,0.29255523801788036,0.8039481015794301,-0.963202331057673,0.2001117467880249,-0.7201011776924133,-0.6643866896629333,10.28522777557373,-4.104383945465088,1.8458131551742554,-0.048134177923202515,0.694573163986206,0.6890296339988708
468,0.011452664329816833,0.8221053197775458,-0.9323797740989425,0.007795433513820171,-0.7325804829597473,-0.6806357502937317,-14.532525062561035,6.828167915344238,-0.9558414220809937,-0.48159608244895935,0.7729399800300598,0.7777579426765442
469,0.2572569472642604,0.35487732985001375,-0.8534328081946582,0.2385750561952591,-0.3474753499031067,-0.9068312048912048,7.946193695068359,-1.2849186658859253,1.497053623199463,-0.0995064526796341,0.3150351643562317,-0.4659409523010254
470,-0.011275757848082872,1.0515126471201075,-0.8800405625565921,-0.005595569498836994,-0.8681749105453491,-0.4962266981601715,-0.16330356895923615,-2.828399181365967,0.646240234375,0.20759141445159912,-0.1104779839515686,1.4521441459655762
471,0.18131625188370934,0.0998635404143825,-0.9130044350848988,0.17942598462104797,-0.09969763457775116,-0.9787066578865051,-4.780238151550293,1.3934799432754517,-3.1360952854156494,-0.356580525636673,1.293957233428955,-2.461524724960327
472,0.2816453494418694,0.7060538302291437,-0.9812121209667638,0.2114897519350052,-0.648836076259613,-0.7309471964836121,7.7908501625061035,1.2239007949829102,1.7759919166564941,-0.3155089318752289,0.509614884853363,0.7371422648429871
473,0.07445242872819076,1.051950602129054,-0.9962661881123277,0.036885228008031845,-0.8683921098709106,-0.4945043623447418,-6.351233959197998,-1.5568405389785767,-0.18158946931362152,-0.5114030838012695,0.19099348783493042,1.096814513206482
474,0.29044127557108124,-0.04339796531941094,-0.9680722156847922,0.2861054241657257,0.04338434338569641,-0.9572154879570007,-3.257040023803711,3.856055736541748,3.335923671722412,1.0798766613006592,0.762157678604126,-2.4693286418914795
475,0.376516913799022,0.6122128565788287,-0.9166079479069743,0.3009043037891388,-0.5746797919273376,-0.7610517144203186,12.703836441040039,-4.882389545440674,2.297051429748535,0.007445305585861206,0.5709261298179626,0.2303205132484436
476,-0.5118026665060995,1.2983492834730408,-0.7010864409450791,-0.13178633153438568,-0.9631153345108032,-0.23460888862609863,-7.173121452331543,1.190738320350647,0.5313875675201416,-0.5681953430175781,-0.07159841060638428,1.2646534442901611
477,0.2016700946104945,0.3598560152159599,-0.8965100702189596,0.1874757707118988,-0.3521394729614258,-0.9169790744781494,7.267452239990234,-2.018824815750122,1.3094173669815063,0.2163633406162262,0.5881166458129883,-2.6473214626312256
478,-0.22045833696671,1.2371665676151,-0.7771099401096099,-0.0716111958026886,-0.9448599219322205,-0.3195491433143616,3.742583990097046,-6.301142692565918,0.9743948578834534,0.6465623378753662,0.23108428716659546,1.7174677848815918
479,-0.09500987599737588,0.3805960464370538,-0.9349128508036678,-0.08807864040136337,-0.37147393822669983,-0.9242560863494873,-14.37674331665039,3.0329971313476562,0.3285311460494995,-0.8477123975753784,1.5328813791275024,-1.3692009449005127
480,0.22703022283851176,0.6640307299224134,-0.9655629028623496,0.17725765705108643,-0.616296112537384,-0.7673062086105347,10.947746276855469,1.5663058757781982,1.75947105884552,-0.13377010822296143,0.5421536564826965,0.08854949474334717
481,-0.4933377961976321,1.4753737286698088,-0.7962844796069098,-0.045120205730199814,-0.9954507350921631,-0.08391596376895905,-3.1488704681396484,-2.3794407844543457,0.3606548011302948,-0.1884307861328125,0.29441624879837036,1.3457567691802979
482,-0.0019188947603409176,0.37580303379188984,-0.9144113497943515,-0.0017849801806733012,-0.3670196533203125,-0.9302114844322205,-12.373929977416992,5.3015570640563965,1.553307056427002,-0.7677462697029114,1.008270263671875,-1.2383217811584473
483,0.18963249965318513,0.8156835101804195,-0.9468004951746017,0.12919104099273682,-0.7281942367553711,-0.6730846166610718,13.368073463439941,-1.9198518991470337,1.0610933303833008,-0.11197909712791443,0.7741077542304993,0.27769899368286133
484,-0.315213688653116,1.2341053895156329,-0.8953372837099607,-0.10241981595754623,-0.9438530206680298,-0.31408852338790894,-10.255956649780273,3.307813882827759,1.220754861831665,-0.24636557698249817,0.21143120527267456,1.2219102382659912
485,0.08816430981109645,0.370064103908202,-0.9584325020086804,0.08208951354026794,-0.3616752028465271,-0.9286831617355347,9.066152572631836,-2.2037055492401123,-0.6545517444610596,0.21199312806129456,0.6071280837059021,-2.0275392532348633
486,-0.014728595940069266,1.1170180845054567,-1.078979313493616,-0.006456260569393635,-0.8987972736358643,-0.4383170008659363,3.827003240585327,-4.984607219696045,-0.6398142576217651,0.6189593076705933,0.15625882148742676,1.1065757274627686
487,-0.04171842952912346,0.2915336936391263,-0.9539646222812092,-0.03994649648666382,-0.2874215543270111,-0.9569708108901978,-12.478053092956543,2.3273096084594727,0.8632001876831055,-0.9681254029273987,1.623847246170044,-1.8667291402816772
488,0.18916781470516922,0.7692688765887513,-1.0375346096294331,0.13509275019168854,-0.6956101655960083,-0.7056035995483398,1.358250617980957,4.551216125488281,1.6376479864120483,0.25815674662590027,0.0721818208694458,1.6432714462280273
489,0.13594655761969307,0.6677303572998008,-0.9863193600713673,0.10642067342996597,-0.6192054152488708,-0.7779841423034668,-2.997680187225342,-1.480547547340393,-0.17334769666194916,0.04148276895284653,0.10692209005355835,0.7856593728065491
490,0.09247683489870012,0.4110798525507965,-0.9084029658487534,0.08465179800987244,-0.39959946274757385,-0.9127728939056396,5.847601890563965,-0.5313776731491089,-0.2884766757488251,-0.20579132437705994,0.626757025718689,-1.2604143619537354
491,0.22144293464863365,0.7062137877119502,-0.9849869435960132,0.16710561513900757,-0.6489577889442444,-0.7422462701797485,3.978102684020996,-0.4535389840602875,-0.26205188035964966,0.28429514169692993,0.09381252527236938,0.7440468072891235
492,-0.22314338032898448,0.805173376492862,-0.7686938445361298,-0.153355211019516,-0.7209507822990417,-0.675804853439331,0.9442552924156189,-2.620107650756836,3.8857409954071045,-0.439662367105484,0.12758225202560425,-0.6360695362091064
493,-0.1678624444208789,0.8709329244885621,-0.7765867847221467,-0.10761534422636032,-0.7649301886558533,-0.6350595355033875,-0.7316522002220154,1.8935467004776,-3.739955425262451,-0.5315295457839966,0.06783246994018555,0.1568034291267395
494,0.1406355481850106,0.7556362684133693,-1.070282428470096,0.1020224392414093,-0.6857519149780273,-0.7206495404243469,5.05517053604126,-8.57835578918457,6.844456195831299,1.974332571029663,1.0463476181030273,0.05277228355407715
495,-0.39160163795979686,0.7634622325181711,-0.6093984864389679,-0.27573564648628235,-0.6914268732070923,-0.6677565574645996,2.3458333015441895,-1.776220440864563,-3.1684305667877197,-1.2651731967926025,-0.24659192562103271,-1.7540879249572754
496,-0.018596933554415447,0.89234956723507,-0.9543835148805014,-0.011670473963022232,-0.7785484194755554,-0.627475917339325,1.088972568511963,-1.0732096433639526,0.7576138377189636,1.533337950706482,0.6764976978302002,0.654621422290802
497,-0.7012957403913712,0.7315200304566335,-0.31472983755294337,-0.48013806343078613,-0.6680015325546265,-0.5685431957244873,-3.5128114223480225,0.03659411147236824,1.1688628196716309,-2.584376096725464,-0.5133338570594788,-1.3753349781036377
498,-0.3963509681101468,0.9090473225430139,-0.6223869570390218,-0.23722971975803375,-0.788918673992157,-0.5668591856956482,0.30050212144851685,1.9378193616867065,-4.270133972167969,0.02040235698223114,0.44220852851867676,0.09569835662841797
499,-0.7877293134646374,1.0572073146104881,-0.36385086236282804,-0.3482150435447693,-0.870986819267273,-0.34659531712532043,-2.037078380584717,2.095703601837158,7.33977746963501,1.069620132446289,0.717880129814148,1.1017374992370605
