,attitude.roll,attitude.pitch,attitude.yaw,gravity.x,gravity.y,gravity.z,rotationRate.x,rotationRate.y,rotationRate.z,userAcceleration.x,userAcceleration.y,userAcceleration.z
0,0.14209002944093532,0.966576776975646,-0.42973395775430606,0.08045284450054169,-0.8229457139968872,-0.5623946785926819,0.6633832454681396,-1.7553383111953735,2.2371129989624023,0.5167151093482971,0.2939540147781372,1.483079433441162
1,-0.049956456396359074,0.5271526874422185,-0.10712346796685569,-0.04315656051039696,-0.503074586391449,-0.8631647825241089,-0.37119659781455994,0.16644661128520966,-0.07789561152458191,0.0011796355247497559,0.00241851806640625,0.07999217510223389
2,-0.05634619230175748,0.5219060874396009,-0.10794289463962807,-0.048819009214639664,-0.49853336811065674,-0.8654947280883789,-0.1179983988404274,0.027594374492764473,0.10422581434249878,-0.00039058178663253784,0.000745922327041626,0.021210670471191406
3,-0.05094317664097976,0.5226578557598707,-0.11192329179533389,-0.04412294179201126,-0.49918490648269653,-0.8653713464736938,0.23969855904579163,0.024923326447606087,0.11855796724557877,0.007623918354511261,0.028283417224884033,-0.008819937705993652
4,-0.04571659624496703,0.5180082475187293,-0.115500996225993,-0.0397050715982914,-0.49515068531036377,-0.8678993582725525,0.12164891511201859,-0.06278233975172043,-0.05193144828081131,0.001252923160791397,0.04117119312286377,-0.00501018762588501
5,-0.04522235870085763,0.5244789147456903,-0.12194303648535255,-0.03913045674562454,-0.5007620453834534,-0.8647000789642334,0.39770522713661194,-0.5364364981651306,-0.07140378654003143,-0.17969584465026855,-0.007462441921234131,0.1118161678314209
6,-1.1883871155896308,1.0081314725554473,0.4032718383095156,-0.4949106276035309,-0.8458365797996521,-0.19905748963356018,7.315131664276123,-9.503745079040527,-0.9207716584205627,-0.800758957862854,-0.15478897094726562,0.7779912352561951
7,0.3168740582278339,0.7856276434720091,-0.5822548928037374,0.22028233110904694,-0.707269012928009,-0.6717486381530762,-3.1274476051330566,16.229516983032227,-10.453978538513184,0.5109035968780518,1.9816526174545288,0.20218992233276367
8,-0.17715908730893007,0.9510500311973933,-0.2414881801129741,-0.10236167907714844,-0.8140258193016052,-0.5717378258705139,3.3400986194610596,-11.396395683288574,10.513799667358398,0.20590782165527344,2.029632568359375,1.1594452857971191
9,-0.398615267822587,0.7795858215320792,0.09683976517460725,-0.27604883909225464,-0.7029849290847778,-0.65544593334198,-0.5557677745819092,7.632254123687744,-8.320451736450195,-1.848203420639038,-0.39914214611053467,0.09792029857635498
10,0.31487110223296844,0.5977594806169498,-0.33736088550689125,0.2559925615787506,-0.5627918839454651,-0.7859600186347961,-2.022156238555908,-14.859350204467773,9.823890686035156,2.1713602542877197,1.7434406280517578,2.099268674850464
11,-1.0554386520574637,0.05763904198427626,0.6411518003193886,-0.8686714768409729,-0.05760713294148445,-0.4920276403427124,0.06302227824926376,6.534014701843262,1.827469825744629,-3.850353240966797,0.02686067298054695,-0.5243145227432251
12,-1.1886527784470287,-0.45339734345259614,0.7153311120342374,-0.8341196775436401,0.4380221366882324,-0.33523300290107727,-0.7802035808563232,-4.730942726135254,8.889307975769043,-0.07849335670471191,1.424633502960205,-0.7354304790496826
13,-0.6492301752108213,-1.0041125567585993,1.7482721939985644,-0.32455751299858093,0.8436858654022217,-0.4276174306869507,4.616384506225586,0.917931318283081,3.3751392364501953,-3.846966505050659,-0.0038115978240966797,0.21198022365570068
14,-0.5903074725691535,-0.7561165451135585,1.5994065555350783,-0.4049418270587921,0.6861013770103455,-0.6043898463249207,0.9597448706626892,-0.8358746767044067,-3.0125155448913574,-0.17123004794120789,-0.07819122076034546,0.8432356715202332
15,-0.8785549892371476,-0.5843860685955511,1.3686269108844145,-0.6420668959617615,0.5516874194145203,-0.5323448181152344,-0.6969847083091736,-1.880349040031433,-2.4464104175567627,0.6384506225585938,-0.010015726089477539,0.31026846170425415
16,-1.0624678532450642,-0.499452486654554,1.0626647073799222,-0.7668496370315552,0.4789449870586395,-0.4272627532482147,-3.1202406883239746,-1.5337049961090088,-5.016095161437988,-0.5804556608200073,-0.5582296848297119,0.1724715232849121
17,-1.3788003305198544,-0.3212446141738722,0.5144195718010993,-0.9314084649085999,0.3157477378845215,-0.1810569167137146,-1.6732815504074097,-5.226840972900391,-3.6202657222747803,-0.08885514736175537,0.31724783778190613,-0.7633553147315979
18,-1.849562984351031,-0.15506188074009242,0.8001465189856013,-0.9498607516288757,0.154441237449646,0.27186864614486694,8.590182304382324,-2.2627696990966797,3.23246431350708,0.988709568977356,0.288368821144104,-0.6404751539230347
19,-1.7857751388396625,-0.7446164079435206,1.2031699791395727,-0.7184209227561951,0.677689790725708,0.15686936676502228,3.147312641143799,-2.84464430809021,4.847245693206787,-1.6748132705688477,1.5169360637664795,0.4051271677017212
20,-1.8668500500955745,-0.788181256517834,1.0960937126503276,-0.6744591593742371,0.7090719938278198,0.205721914768219,-3.5624895095825195,0.12714417278766632,1.9970086812973022,0.19626402854919434,-0.5682486891746521,-0.1293821632862091
21,-2.4113242856824937,-0.9011409529603372,0.482191119680819,-0.4140605628490448,0.7840356230735779,0.46243032813072205,-0.4011794328689575,-0.03784182667732239,1.9837590456008911,0.3649883270263672,-0.6159143447875977,-0.4173254072666168
22,-2.020308504211044,-0.9669763939016869,0.5977564891018033,-0.5113863348960876,0.8231726884841919,0.24672016501426697,-0.2456977218389511,4.139097690582275,-1.9422125816345215,0.49069541692733765,0.2906273603439331,0.5047751665115356
23,-2.116906928443648,-0.8695819469735477,0.7375330128299582,-0.5513101816177368,0.76405930519104,0.33506786823272705,1.4105019569396973,1.3669832944869995,-0.8004254698753357,0.11384069919586182,0.05967116355895996,-0.3199465274810791
24,-1.6493041981815366,-0.9814411663452903,1.227569460285965,-0.5541132688522339,0.8312992453575134,0.04359184950590134,4.411675453186035,-1.2977656126022339,0.5924814939498901,0.6535089612007141,-0.8285372853279114,-0.25101983547210693
25,-1.546813164764085,-0.8018497810358265,1.3120587253079947,-0.6951785683631897,0.7186436057090759,-0.016675777733325958,-2.0959689617156982,4.162932395935059,0.06886540353298187,-2.097179889678955,1.5016169548034668,0.18000584840774536
26,-1.736146214311051,-0.821107439399197,1.0743403212429299,-0.672117292881012,0.7319008708000183,0.11215855181217194,-2.0637295246124268,-0.4401094615459442,0.4538405239582062,0.5742779970169067,-0.4310280680656433,0.04564785957336426
27,-2.1055771869486644,-0.8419613567974742,0.699248585980407,-0.5730144381523132,0.7459508180618286,0.33942922949790955,-2.3954012393951416,-3.4581518173217773,1.5429394245147705,0.7160197496414185,-0.7714176774024963,-0.30659231543540955
28,-2.293875737846907,-0.7523495439294556,0.5631772737194641,-0.5473973155021667,0.683355987071991,0.48309507966041565,1.0208226442337036,6.207160949707031,-3.8800601959228516,-1.2951014041900635,2.8746883869171143,1.5106334686279297
29,-1.925253349456179,-0.7026087563330761,0.860058487647806,-0.7157171964645386,0.646210789680481,0.2648780941963196,1.3435453176498413,1.3465971946716309,-0.3740019202232361,0.39471811056137085,-0.7182781100273132,-0.29303064942359924
30,-1.7829823427282279,-0.7136870228695597,0.9330825376666985,-0.7389995455741882,0.654625415802002,0.15920181572437286,0.3674311637878418,0.18446509540081024,0.1593923270702362,0.8364421725273132,-0.7031179070472717,-0.13461996614933014
31,-1.6984172645377285,-0.6494542516686108,0.848542931267782,-0.7899370789527893,0.6047518253326416,0.1013634204864502,-1.0450067520141602,-0.5433098077774048,0.6199064254760742,-1.467936396598816,1.7923429012298584,-0.4640190601348877
32,-1.7452313473260357,-0.6702923686560278,0.8158144615340476,-0.7717480659484863,0.6212151050567627,0.13600210845470428,-2.5501153469085693,-1.5154178142547607,0.424762099981308,0.5507245659828186,-0.5053704977035522,0.0788111537694931
33,-2.3099339004809,-0.6414767712673027,0.3700490454297509,-0.5921361446380615,0.5983793139457703,0.5397376418113708,-3.7961339950561523,-4.595444202423096,2.3136415481567383,0.8424871563911438,-0.67757248878479,-0.2910805344581604
34,-2.341048870303008,-0.58174029545604,0.03843164849864627,-0.5996729135513306,0.5494787693023682,0.5817777514457703,-2.0598714351654053,5.084115505218506,-0.6027096509933472,-1.1936314105987549,1.8597161769866943,-0.08450913429260254
35,-2.1268855038028476,-0.6003440268657063,0.22458978753771675,-0.7008141279220581,0.5649263858795166,0.43556633591651917,3.638514518737793,2.1182236671447754,-1.1639657020568848,0.5420921444892883,-0.42240917682647705,-0.054828941822052
36,-1.669284748735521,-0.6823379857540086,0.5115402765914682,-0.7723395824432373,0.6306092739105225,0.07631341367959976,1.2985258102416992,2.0718677043914795,0.9319474101066589,0.9272162318229675,-0.68589186668396,-0.006962180137634277
37,-1.588467978848621,-0.6902422262508435,0.39863891161422677,-0.7709712982177734,0.6367239952087402,0.013625754974782467,-2.7680749893188477,-0.8405119180679321,0.698559582233429,-3.511178970336914,2.8239846229553223,-0.41784632205963135
38,-1.7090610717688897,-0.7134176262601286,0.22153162278865993,-0.7489138841629028,0.6544217467308044,0.10421331971883774,-0.6566511392593384,-3.8921399116516113,0.38916435837745667,0.41698938608169556,-0.26277434825897217,-0.22252999246120453
39,-2.3320767191001597,-0.6511905036295023,-0.08635223124818504,-0.5758054256439209,0.6061336994171143,0.5486800670623779,-2.8578977584838867,-6.721614837646484,1.4034042358398438,0.8515928387641907,-0.6425259709358215,-0.3723343014717102
40,-2.4939857513973838,-0.6470985968055718,-0.32979359169831857,-0.48131853342056274,0.6028741002082825,0.6362984776496887,-1.217307686805725,5.8712568283081055,-0.7530222535133362,-1.2706193923950195,1.6334846019744873,0.5152824521064758
41,-2.105334613373459,-0.6334596848743876,-0.11033942278431914,-0.6935527324676514,0.5919367671012878,0.41060373187065125,3.447316884994507,1.068906307220459,-1.2723939418792725,0.5812023282051086,-0.5728328227996826,-0.22511795163154602
42,-1.6159687042762438,-0.6009375173562872,0.3495857173615685,-0.8239642977714539,0.5654159784317017,0.03724576160311699,1.8592106103897095,-0.8330000638961792,-0.9440502524375916,1.1461689472198486,-0.7740037441253662,0.3141489028930664
43,-1.486992104474396,-0.604227207277815,0.2609760943305017,-0.8200531601905823,0.5681262612342834,-0.06888525187969208,-2.181468963623047,4.130208969116211,-2.909714937210083,-5.6069488525390625,4.385181903839111,0.8792642951011658
44,-1.6927496709142846,-0.6088484650438123,0.16110296234768867,-0.8142146468162537,0.5719232559204102,0.09979141503572464,-1.224169373512268,-2.3450465202331543,0.2730966806411743,0.42670243978500366,-0.19344425201416016,0.12803757190704346
45,-2.065560619480162,-0.622142972782052,-0.14687314458920728,-0.7151811718940735,0.5827779173851013,0.3858570456504822,-1.940687894821167,-5.932242393493652,1.7720392942428589,0.9120500683784485,-0.6186666488647461,-0.46877339482307434
46,-2.328984372923064,-0.6302835749649776,-0.3182108344106582,-0.5865739583969116,0.5893738865852356,0.5554905533790588,-1.7810369729995728,6.157395362854004,-2.0902950763702393,-1.261540174484253,1.7032897472381592,1.0714168548583984
47,-2.045619547041885,-0.6022527985141546,-0.104981364241571,-0.7328984141349792,0.5665003657341003,0.37674540281295776,2.3226306438446045,0.94681316614151,-1.1449623107910156,0.481555700302124,-0.3761012554168701,0.10808727145195007
48,-1.6586506656639475,-0.5575394556808411,0.22516583732492385,-0.8452869057655334,0.5290998816490173,0.07445377111434937,2.2885656356811523,1.3359471559524536,-1.3486957550048828,1.0461688041687012,-0.6438612341880798,0.07628774642944336
49,-1.6319798580878353,-0.4192828035417166,0.1653802157741787,-0.9116721749305725,0.4071054756641388,0.05584903061389923,-1.3510549068450928,-1.2971749305725098,-2.6983091831207275,-3.2128701210021973,2.1640615463256836,-0.3332386016845703
50,-1.7374703879357918,-0.4111492862975181,0.14468057098865408,-0.9039592146873474,0.3996630907058716,0.15207742154598236,-2.03715443611145,-2.5389506816864014,0.6908261179924011,0.6143472790718079,-0.1543474793434143,0.2670358419418335
51,-2.0769439592235597,-0.42782279303321247,-0.11335367355057134,-0.7957903742790222,0.4148907959461212,0.441116064786911,-0.8758052587509155,-4.835455417633057,0.8599691987037659,0.9899126887321472,-0.3663221001625061,-0.5267789363861084
52,-2.2765260578198228,-0.4660729130582669,-0.30167614519327546,-0.6799555420875549,0.4493815302848816,0.579410970211029,-1.8412187099456787,3.763038396835327,0.40335798263549805,-1.2721014022827148,1.0953572988510132,0.7120166420936584
53,-2.0087981101192116,-0.43485576518504365,-0.26856212781414696,-0.8213174939155579,0.4212796092033386,0.38465726375579834,1.5280606746673584,1.8789799213409424,-0.6973740458488464,0.2178170084953308,-0.13236963748931885,-0.052091896533966064
54,-1.694700370486248,-0.40943137007680663,-0.07242832777238563,-0.9103146195411682,0.3980877697467804,0.11337243020534515,2.5926780700683594,1.2582374811172485,-1.0017201900482178,1.053655743598938,-0.529618501663208,-0.08998072892427444
55,-1.5929357751975957,-0.2766898932334057,0.05588289014636068,-0.9617292881011963,0.27317294478416443,0.021295635029673576,-2.9088664054870605,0.3100847899913788,-4.245406150817871,-3.052034378051758,1.1179556846618652,0.8769435882568359
56,-1.6413731402054592,-0.21921680321016324,-0.17431217268256294,-0.9736382365226746,0.21746523678302765,0.06883060187101364,0.1119714230298996,-0.8219950199127197,-0.4941476881504059,0.5079552531242371,0.47424620389938354,-0.02702152729034424
57,-1.76365506362589,-0.17126221938047587,-0.34391083325775673,-0.96710205078125,0.17042623460292816,0.1888614445924759,-1.5443215370178223,-1.2454272508621216,-0.07163756340742111,1.09051513671875,-0.18838582932949066,-0.17401456832885742
58,-1.945979815006445,-0.15234934096473646,-0.6182107592573728,-0.9196633100509644,0.15176068246364594,0.3621988296508789,-4.33327054977417,-0.9055175185203552,0.691268801689148,-2.2334890365600586,1.0374177694320679,0.4748525321483612
59,-1.8912096258294406,-0.13740449029106097,-0.6772667742520283,-0.9401597380638123,0.13697253167629242,0.31199026107788086,1.5727424621582031,2.6561334133148193,-0.6740208268165588,0.16129028797149658,-0.10175527632236481,-0.056176722049713135
60,-1.6633158662040914,-0.08473651500218878,-0.5657338025530566,-0.9921504855155945,0.08463514596223831,0.09205611795186996,0.5000078678131104,1.3906738758087158,-0.743682324886322,1.0171444416046143,-0.06000746786594391,0.08598339557647705
61,-1.5896368148737057,-0.05762196700886103,-0.5194613276892396,-0.998163104057312,0.05759008601307869,0.01880810596048832,0.11453140527009964,-3.6255006790161133,2.387976884841919,-0.895696759223938,-0.2055698186159134,0.26552414894104004
62,-1.7769925818268641,-0.07948548608019156,-0.7018872686781462,-0.9757261872291565,0.07940181344747543,0.20409177243709564,-1.681922435760498,0.6455454230308533,0.08222535252571106,0.12771916389465332,0.23146547377109528,-0.3849695026874542
63,-1.7078182779959508,-0.05212067330049169,-0.9052116026901934,-0.989281952381134,0.052097078412771225,0.13640810549259186,-2.469982147216797,0.60791015625,0.6217912435531616,1.1017850637435913,0.20083260536193848,0.17627501487731934
64,-1.8368178872752154,-0.07973262063535251,-0.9594453383652232,-0.9617591500282288,0.07964816689491272,0.2620598077774048,-2.887288808822632,-2.2224931716918945,1.0633015632629395,-1.030336618423462,0.5936153531074524,0.3544715344905853
65,-2.115312359949312,-0.09071129438993797,-1.1345242548926655,-0.8518614172935486,0.09058694541454315,0.5158745050430298,4.058462142944336,0.1521303504705429,-1.2269580364227295,-0.07829928398132324,-0.34196022152900696,-0.9838920831680298
66,-1.9248431560297101,-0.12021204062335972,-0.7182067831372718,-0.9312081336975098,0.11992271989583969,0.3441944122314453,2.114593505859375,2.9612419605255127,-1.8581278324127197,1.0496317148208618,-0.21551905572414398,-0.1026783287525177
67,-1.6659278451487485,-0.032633931467921866,-0.7327221678826724,-0.9949483871459961,0.0326281376183033,0.0949375182390213,-1.2764743566513062,-4.06458044052124,5.2527384757995605,-0.8076639175415039,-0.8403063416481018,0.4464442729949951
68,-1.7780349366281296,-0.09881051646178837,-0.9015176681389733,-0.9738293886184692,0.09864980727434158,0.20475473999977112,-2.045290470123291,1.381507158279419,0.7018038034439087,-0.2166154980659485,0.675001323223114,-0.34000861644744873
69,-1.8272402700550616,-0.1304635605353977,-0.9992560681653175,-0.9590775370597839,0.1300937831401825,0.2514868378639221,0.9086990356445312,-2.2586355209350586,-0.2235841155052185,1.0936907529830933,-0.15575909614562988,-0.3256140351295471
70,-2.0817304255889924,-0.16829429560231693,-0.9624440589527254,-0.8599643111228943,0.16750098764896393,0.4820837080478668,-2.217082977294922,2.732055425643921,3.3641111850738525,-0.17900657653808594,-0.09688332676887512,1.2511316537857056
71,-2.038289443674896,-0.09739706983421927,-1.4007674242889094,-0.8884700536727905,0.09724315255880356,0.44851404428482056,1.5584802627563477,0.5430319905281067,-0.3937346339225769,0.20022237300872803,-0.27209359407424927,-1.0310792922973633
72,-1.863007164879248,-0.09874730639675258,-1.1661207763936108,-0.9529442191123962,0.09858690202236176,0.2866666615009308,1.2162193059921265,2.221921682357788,-1.1416311264038086,1.045992374420166,-0.11636342108249664,-0.20384198427200317
73,-1.7978464328349195,-0.055035201266586696,-1.094214182343946,-0.9728594422340393,0.05500742420554161,0.22476349771022797,0.9221155047416687,-2.458185911178589,-0.5981056690216064,-2.0104780197143555,0.342651903629303,0.9433883428573608
74,-1.830450830871454,-0.0603634849335812,-1.2765698680879407,-0.9647185206413269,0.06032683327794075,0.2562790513038635,-3.7542924880981445,1.186242938041687,1.0378122329711914,0.19799482822418213,0.6159121990203857,-0.17678067088127136
75,-1.7510350644038641,-0.11926231427135783,-1.476653764857926,-0.9768125414848328,0.1189797967672348,0.17799104750156403,1.5172901153564453,-3.9152231216430664,0.12191777676343918,1.0072996616363525,-0.2890084981918335,-0.43447601795196533
76,-2.0493503938641684,-0.1819949438581894,-1.5112957527935618,-0.8730016946792603,0.18099193274974823,0.45289090275764465,-1.1163923740386963,-1.6340985298156738,2.613452434539795,0.18823301792144775,0.06896230578422546,0.6062827110290527
77,-2.1327802494349135,-0.07427350355675372,-1.8605717145401006,-0.8438668251037598,0.07420523464679718,0.5313970446586609,0.06186980754137039,1.8930848836898804,-0.11727749556303024,-0.27296990156173706,-0.2198656052350998,-0.9847050905227661
78,-1.9128531893262317,-0.13953638833907092,-1.6246873332959897,-0.9329105019569397,0.13908402621746063,0.3321654200553894,1.9421935081481934,2.2150344848632812,-1.055092453956604,1.0806612968444824,-0.26062023639678955,-0.4118621051311493
79,-1.835733202206188,-0.09107583108762214,-1.4916992736655244,-0.961108922958374,0.09094997495412827,0.2607630789279938,0.3904445469379425,-3.9878766536712646,0.26541560888290405,-2.0099449157714844,-0.5475844740867615,0.8865756392478943
80,-1.8841337846999515,-0.10950524015873841,-1.8068894291817976,-0.9456123113632202,0.10928651690483093,0.30638912320137024,-4.2916107177734375,2.2652854919433594,1.7351597547531128,-0.3025873899459839,0.896069347858429,0.002006351947784424
81,-1.8423175140050614,-0.14591301403746884,-1.9058510403975968,-0.9531270861625671,0.14539580047130585,0.26534727215766907,0.36229991912841797,-1.7857022285461426,0.4813404679298401,1.3315296173095703,-0.13851404190063477,-0.021328628063201904
82,-2.2652363716634425,-0.20959397244147537,-2.0913043306195,-0.7515957951545715,0.2080627679824829,0.6259501576423645,-3.174968957901001,0.5718236565589905,3.3832061290740967,-0.3699709177017212,0.2348846197128296,1.5423237085342407
83,-2.1961282243369875,-0.067644459548185,-2.5641219651345892,-0.8089147806167603,0.06759288161993027,0.5840277671813965,0.288095623254776,1.8075283765792847,-0.3953709602355957,-0.0436244010925293,-0.17129161953926086,-1.1217625141143799
84,-1.9620463442087281,-0.13245265609148538,-2.2939143593027946,-0.9163361191749573,0.13206571340560913,0.37800413370132446,2.4177005290985107,1.9659322500228882,-1.2813212871551514,1.046142339706421,-0.23951807618141174,-0.4625835716724396
85,-1.8751200442031128,-0.1226202993628702,-2.142839502127658,-0.946886420249939,0.1223132461309433,0.297398179769516,0.2922644317150116,-2.2334983348846436,0.21733100712299347,-3.3382086753845215,-0.2620227336883545,2.1232714653015137
86,-1.9274871479100664,-0.10664701952882308,-2.299042677997321,-0.9317336082458496,0.10644497722387314,0.3471914529800415,-4.109280109405518,0.782741129398346,1.3058240413665771,-0.05181741714477539,0.35829198360443115,-0.027153611183166504
87,-1.874448564601025,-0.13201025418288717,-2.5249092757989753,-0.9459483027458191,0.1316271722316742,0.2964058220386505,1.064444661140442,-2.133439064025879,0.4621388912200928,1.1218515634536743,-0.014821141958236694,-0.4026985168457031
88,-2.085310976432604,-0.2170445051232551,-2.637423099088834,-0.8501074314117432,0.2153444141149521,0.48056653141975403,-1.9767861366271973,-2.244230270385742,0.5227140784263611,-0.13420653343200684,0.2557401657104492,0.6738219261169434
89,-2.183636491879907,-0.1035342502424936,-2.9737975661499947,-0.8136371970176697,0.10334938019514084,0.5721129179000854,-2.5073294639587402,0.3914337754249573,0.7085274457931519,-0.42980140447616577,-0.20788735151290894,-0.5765685439109802
90,-2.04298538113708,-0.13384993769867204,-2.8967887272114177,-0.8826090097427368,0.13345062732696533,0.4507686197757721,1.9089828729629517,0.8817698955535889,-0.7251779437065125,0.9495340585708618,-0.29015839099884033,-0.6400843858718872
91,-1.9495700576549186,-0.15895451957036605,-2.73205088540779,-0.9174057245254517,0.158285990357399,0.36511969566345215,0.9880291223526001,-1.1861504316329956,-0.20403432846069336,-2.077864170074463,-0.3857945203781128,1.0456774234771729
92,-1.9194051329432518,-0.15662497888872995,-2.697447489473916,-0.9283444285392761,0.15598540008068085,0.3374093174934387,-1.3749735355377197,0.3676527142524719,0.26676225662231445,-0.4885103702545166,0.19682830572128296,0.3127065598964691
93,-1.8150172212707474,-0.14723304602377946,-2.7622470339286664,-0.959827721118927,0.14670167863368988,0.23918429017066956,1.9485862255096436,-1.3965754508972168,-0.214766263961792,1.0073437690734863,0.05140314996242523,-0.24394503235816956
94,-1.994909687491814,-0.19996384053857022,-2.7370313937117703,-0.8932429552078247,0.19863389432430267,0.40331289172172546,-0.6444829106330872,-2.584747552871704,0.7874720692634583,0.39219027757644653,0.07933542132377625,0.4488140940666199
95,-2.132238778706037,-0.19203583248695755,-2.9995410337852193,-0.8309276103973389,0.1908576935529709,0.5226209163665771,-2.5420992374420166,-0.2540847361087799,0.8165872097015381,-0.7751666903495789,-0.01927262544631958,-0.16347479820251465
96,-2.080603386573457,-0.17036889939511304,-3.0070635180928207,-0.8602023124694824,0.16954591870307922,0.4809437692165375,1.2788991928100586,0.7125651240348816,-0.8510029315948486,0.5403472781181335,-0.25180599093437195,-0.448930561542511
97,-1.9841482149424379,-0.13160880197194552,-2.8408731413142654,-0.9078599810600281,0.1312292069196701,0.3982074558734894,1.236179232597351,1.0668702125549316,-0.7477936148643494,0.5871965289115906,-0.3872564136981964,0.023530244827270508
98,-2.0550901017655683,-0.147573900360531,-2.7110880618695266,-0.8753847479820251,0.14703883230686188,0.46052297949790955,-0.7968887686729431,-0.9522526264190674,0.3104637563228607,-0.8813292384147644,0.3948923349380493,0.38922375440597534
99,-2.0515321374459816,-0.11725140626010667,-2.9032906289750064,-0.8805671334266663,0.11698292940855026,0.459256649017334,-1.0967291593551636,1.2363981008529663,0.3343212902545929,0.40418773889541626,0.10950326919555664,-0.321713924407959
100,-1.9457307158272934,-0.09743154754685267,-2.9790753634344673,-0.9261183738708496,0.09727746993303299,0.3644746243953705,-1.2834405899047852,1.221243143081665,0.5183173418045044,1.125962734222412,-0.028750263154506683,-0.08653584122657776
101,-2.0820669363200044,-0.14902815731005964,-3.0048757594892197,-0.8624568581581116,0.14847713708877563,0.4838624894618988,-2.1274828910827637,-1.0156550407409668,1.498192548751831,-1.6712651252746582,0.6732239127159119,0.8064969778060913
102,-2.139827906612973,-0.14149923972023412,3.113603595588787,-0.8340036869049072,0.1410275250673294,0.533431351184845,0.49887752532958984,0.8542442917823792,-0.17979642748832703,0.24004018306732178,-0.2639981210231781,-0.48020869493484497
103,-2.0157150696471375,-0.1475799593779844,-3.0248278856266753,-0.8928335905075073,0.147044837474823,0.4257061183452606,1.4891422986984253,0.6530336737632751,-0.7125698924064636,0.8134270310401917,-0.388866126537323,-0.38702520728111267
104,-2.01695992849664,-0.15242744755970844,-2.87227287596455,-0.8916497230529785,0.15183788537979126,0.42650479078292847,-0.3706909120082855,-1.333986759185791,0.49235332012176514,-0.867169976234436,-0.07507090270519257,0.650262176990509
105,-2.0313815428870163,-0.1293457231052741,-3.0846417857002404,-0.8883096575737,0.12898536026477814,0.4407595694065094,-2.5770299434661865,1.2770886421203613,0.8363271951675415,-0.1148032546043396,0.40636926889419556,-0.06228059530258179
106,-1.9006372878678308,-0.13298569128640386,3.1057582237242856,-0.9377402067184448,0.1325940638780594,0.32103270292282104,2.5486719608306885,-2.6643619537353516,-0.1570802479982376,1.0730247497558594,0.007588416337966919,-0.2910340130329132
107,-2.086959533884563,-0.16815805410519072,3.0794626680254424,-0.8574515581130981,0.16736666858196259,0.48658522963523865,-2.5022389888763428,-1.5929924249649048,2.0907187461853027,-1.1252753734588623,0.5079110264778137,0.7995017766952515
108,-2.1625424873845414,-0.16078424912072212,2.6995241159275003,-0.8192629218101501,0.16009238362312317,0.550616443157196,-1.9580094814300537,0.3456006646156311,0.9640036225318909,-0.5152401924133301,-0.04728417098522186,-0.3696625828742981
109,-2.075386640675911,-0.17801778009974378,2.718923454407499,-0.8615390062332153,0.17707902193069458,0.47580885887145996,1.3356635570526123,0.7816949486732483,-0.5763912200927734,0.6491518616676331,-0.2396553009748459,-0.4675687253475189
110,-1.9768465972993507,-0.17275996126230625,2.8614633866272157,-0.9050127267837524,0.1719018816947937,0.3891042172908783,0.8914429545402527,0.13674089312553406,-0.4997981786727905,-0.7298904657363892,-0.20063413679599762,0.5753123760223389
111,-2.038415682409242,-0.17392729911199278,2.773032837180413,-0.8791762590408325,0.17305171489715576,0.4439616799354553,-1.8500460386276245,0.41715383529663086,0.8712178468704224,-0.8266341686248779,0.21429263055324554,0.3140644431114197
112,-1.9226314991019626,-0.16685883693459597,2.6129112071175014,-0.9257039427757263,0.1660856306552887,0.3398348093032837,0.034810539335012436,1.3172366619110107,0.12307479977607727,0.6388692855834961,-0.02199690043926239,-0.15308251976966858
113,-2.0304747677936743,-0.2142415792008822,2.5990353032552447,-0.8757063150405884,0.21260641515254974,0.4335169494152069,-1.4305135011672974,-1.9168941974639893,1.0948562622070312,0.8228040933609009,-0.057821258902549744,0.11233565211296082
114,-2.182235907627153,-0.18228239507207425,2.2105193887512598,-0.8052566647529602,0.1812746226787567,0.5645363330841064,-3.0439605712890625,-0.6397967338562012,1.4725439548492432,-1.0033828020095825,0.23188762366771698,-0.07144856452941895
115,-2.1774856456823573,-0.17212863701335665,2.167185712735742,-0.8093997836112976,0.1712799221277237,0.5617253184318542,1.4143825769424438,0.6855594515800476,-0.6935571432113647,0.20252710580825806,-0.2325286865234375,-0.49740952253341675
116,-2.043711794052999,-0.1572185940601812,2.3789554095685213,-0.8792644739151001,0.15657171607017517,0.44986608624458313,1.1282258033752441,1.7951862812042236,-1.087260365486145,0.7595438957214355,-0.35736212134361267,-0.15256375074386597
117,-2.0465478928685723,-0.14498140689259648,2.4650982952769396,-0.8796225786209106,0.14447402954101562,0.45320162177085876,-1.3353947401046753,-0.8481175899505615,0.7573553323745728,-1.1818857192993164,0.19128035008907318,0.7627713680267334
118,-1.9808212496634483,-0.15192470001073155,2.370294593427947,-0.9065471887588501,0.15134094655513763,0.3940405547618866,-0.2013397216796875,1.6968311071395874,0.41428786516189575,0.3805920481681824,0.27260923385620117,-0.26066353917121887
119,-2.0019814572828194,-0.22012600639940672,2.5001604693072887,-0.886549711227417,0.21835258603096008,0.40786269307136536,-0.4355461597442627,-2.1587917804718018,1.549654245376587,1.3665759563446045,-0.2099602371454239,0.26431751251220703
120,-2.232927163922872,-0.24158471420838148,2.1305056639237114,-0.7657806873321533,0.2392416149377823,0.5969451069831848,-5.104109287261963,1.988498568534851,3.0779712200164795,-1.7847411632537842,1.147995948791504,0.51023268699646
121,-2.124508432939553,-0.20232707059204005,1.957806938897297,-0.8332281112670898,0.20094947516918182,0.5151219367980957,1.6902744770050049,1.549752116203308,-0.38500338792800903,0.2084416151046753,-0.30968356132507324,-0.5749973654747009
122,-1.7933097288268924,-0.16519102492969404,2.2494304345563334,-0.9620682597160339,0.16444075107574463,0.21767756342887878,1.588728427886963,2.2762606143951416,-1.940460205078125,1.0404833555221558,-0.5690122842788696,0.08757443726062775
123,-1.9208323707157045,-0.13135003878392718,2.1886972986380115,-0.9312688112258911,0.13097266852855682,0.3399776816368103,-3.583394765853882,-0.9027223587036133,1.4839752912521362,-2.498067855834961,0.5360347628593445,1.320468544960022
124,-1.841211737822974,-0.14474224402611846,2.066041141610782,-0.953583300113678,0.14423736929893494,0.2643384635448456,0.8620012402534485,1.7286573648452759,-0.05295323580503464,0.4529117941856384,0.10918058454990387,-0.17315194010734558
125,-1.9055435499423659,-0.14645288554620361,2.109144509655481,-0.9343824982643127,0.14592991769313812,0.32501348853111267,-0.7079421877861023,-2.5321671962738037,0.3256712555885315,1.0600539445877075,-0.27247104048728943,-0.02984750270843506
126,-2.1568472120064093,-0.22207105812437525,1.8695586700843503,-0.8126725554466248,0.22025029361248016,0.5394936203956604,-4.672654151916504,0.12577137351036072,2.875006914138794,-1.737101674079895,0.9933422803878784,1.2778282165527344
127,-2.079034117682195,-0.18939825793824253,1.5943265275135599,-0.8579815030097961,0.18826794624328613,0.47793638706207275,0.11900324374437332,1.015012502670288,-0.016011465340852737,-0.2347005009651184,-0.06235241889953613,-0.4963536858558655
128,-1.8151534005141314,-0.14725534430164308,1.7910013464600225,-0.9597920179367065,0.14672373235225677,0.2393142133951187,0.8889294266700745,2.579918622970581,-1.667598009109497,0.9927816390991211,-0.44033336639404297,-0.1626082956790924
129,-1.78204857281555,-0.10905519719322258,1.731188280202191,-0.9719604253768921,0.10883916169404984,0.20843879878520966,-4.697825908660889,-6.308228015899658,1.4200456142425537,-2.3461241722106934,-0.13276495039463043,0.6227226257324219
130,-1.8688371995316295,-0.12629366226126057,1.5090634007282886,-0.9483002424240112,0.12595820426940918,0.29130926728248596,-0.26640644669532776,1.4802428483963013,0.22305627167224884,0.1914491057395935,0.3996002674102783,-0.18243780732154846
131,-1.9847476687322583,-0.12381287199110041,1.5438236112668458,-0.9085304141044617,0.12349677830934525,0.399151086807251,0.08512412011623383,-5.4629387855529785,0.25691694021224976,1.0797185897827148,-0.2851483225822449,-0.10386291146278381
132,-2.260831606120608,-0.23507665550274962,1.292474728991259,-0.750012218952179,0.23291753232479095,0.6190566420555115,-2.644524097442627,0.7767361402511597,2.8223071098327637,-1.8039276599884033,1.1651079654693604,1.8335648775100708
133,-2.106784424294963,-0.12513563925214125,0.9590276181779869,-0.8530418276786804,0.12480930984020233,0.5066976547241211,0.5369470119476318,1.4546489715576172,-0.2960700988769531,-0.20031827688217163,-0.253852903842926,-0.8134145140647888
134,-1.9011781332040807,-0.12384387907310818,1.195874473684264,-0.9386739730834961,0.12352754920721054,0.32191967964172363,1.7540050745010376,3.167083740234375,-1.6198406219482422,0.962614893913269,-0.47425079345703125,-0.18262216448783875
135,-1.7953692364546185,-0.09361926806595075,1.2220510363127806,-0.9706201553344727,0.09348257631063461,0.2217148393392563,-1.2817249298095703,-4.223511219024658,1.2123916149139404,-1.2473058700561523,-0.12142139673233032,0.51233971118927
136,-1.9020601146008953,-0.12664525559017678,1.0957426096334524,-0.9380588531494141,0.12630698084831238,0.32263365387916565,0.023270167410373688,0.556647539138794,0.18706999719142914,0.012323260307312012,0.387273371219635,-0.3602159917354584
137,-1.9751449770362932,-0.15240761368602618,1.2193789919891869,-0.9087019562721252,0.15181827545166016,0.3888596296310425,0.6612345576286316,-2.241051197052002,0.07337529212236404,1.065165638923645,-0.14757637679576874,-0.12094584107398987
138,-2.275016479671501,-0.2668866679850662,1.1241602970218387,-0.7351351976394653,0.26372960209846497,0.6245181560516357,-2.1410703659057617,1.0163570642471313,2.3690340518951416,-0.5700558423995972,0.47886985540390015,1.3239834308624268
139,-2.173950468838119,-0.1361569580906168,0.7026977958987746,-0.8159286379814148,0.13573665916919708,0.5619931221008301,-1.012869119644165,1.601436734199524,-0.25324803590774536,-0.2698715925216675,-0.026895686984062195,-0.9149288535118103
140,-1.9356255615638864,-0.14326013152459777,0.9908658434043143,-0.9246148467063904,0.14277060329914093,0.35313481092453003,3.20536208152771,4.186769962310791,-1.7143644094467163,0.8712242245674133,-0.5025117993354797,-0.10069331526756287
141,-1.7975759378190204,-0.10926479166171815,1.1745667755899822,-0.9685846567153931,0.10904750972986221,0.22349990904331207,-2.8579766750335693,-3.9044086933135986,1.9897842407226562,-0.22190594673156738,-0.292793869972229,0.33550581336021423
142,-1.9174634058597508,-0.14167547044986342,1.0433462596281087,-0.93108731508255,0.14120200276374817,0.3363609313964844,1.314184546470642,1.1961016654968262,-0.11463155597448349,-0.2908518314361572,0.44130226969718933,-0.22581100463867188
143,-1.91850182415631,-0.1618785422614202,1.2293377562173364,-0.9278655648231506,0.16117247939109802,0.336286723613739,1.6261310577392578,-3.7369658946990967,-0.5285777449607849,0.7184693217277527,-0.10462343692779541,-0.09626609086990356
144,-2.2152057986594405,-0.2475089601330738,1.2774304382849735,-0.7750917077064514,0.24498958885669708,0.5824196338653564,0.042161568999290466,-0.1905297040939331,2.9310779571533203,0.32831448316574097,0.00314880907535553,0.6419912576675415
145,-2.1827665035550887,-0.17281506966211618,0.9824087667787086,-0.8063256144523621,0.1719561666250229,0.5659241080284119,-1.323158860206604,1.660085678100586,-0.7040850520133972,-0.7098181247711182,-0.024113774299621582,-0.6055053472518921
146,-1.977363551013142,-0.16280973393479212,1.302626291657077,-0.906337559223175,0.1620914191007614,0.39022907614707947,3.6733527183532715,2.13258957862854,-2.0118823051452637,0.9013479351997375,-0.4270908236503601,-0.41981589794158936
147,-1.8398435451218607,-0.12248825386618988,1.5074687163412894,-0.95680171251297,0.12218219041824341,0.26382148265838623,-0.25742918252944946,-3.4607558250427246,-0.08327284455299377,-1.2724003791809082,-0.1939137876033783,0.3981505334377289
148,-1.9502374197203538,-0.1386002861327332,1.5616729722105775,-0.9199644923210144,0.1381569653749466,0.36684945225715637,0.542949378490448,0.2845180332660675,-0.17724934220314026,-0.7163730263710022,0.6031455993652344,-0.08802548050880432
149,-1.918637659698939,-0.14560745395429006,1.7203295376856522,-0.9301623106002808,0.14509348571300507,0.3372620940208435,2.766896963119507,-2.1679725646972656,-0.827425479888916,0.9669361114501953,-0.14593271911144257,-0.38793662190437317
150,-2.1564410850913855,-0.2353874623876043,1.9291613691626763,-0.8103753328323364,0.23321978747844696,0.5374945998191833,1.7679287195205688,-3.5517611503601074,1.6247138977050781,0.42002493143081665,-0.04742875695228577,0.5888175964355469
151,-2.3052124699162992,-0.17218005659556732,1.6132748302823727,-0.7312473058700562,0.17133057117462158,0.6602447032928467,-3.3130300045013428,1.2954767942428589,0.3105815351009369,-0.7829433083534241,0.012690410017967224,-0.46299439668655396
152,-2.087420848200995,-0.17420872758279946,1.8306050605690594,-0.8563308119773865,0.17332889139652252,0.48647159337997437,4.098870277404785,1.1882165670394897,-1.8137304782867432,0.895927369594574,-0.5498852729797363,-0.6717286109924316
153,-1.9400933039380002,-0.1736808565217806,2.2038278840621195,-0.9185510873794556,0.17280898988246918,0.35552942752838135,2.450256109237671,-3.2307655811309814,-1.9004682302474976,-0.950528621673584,-0.5241273045539856,0.12150612473487854
154,-2.0394855735464383,-0.19286843263707737,2.349717681349209,-0.8756190538406372,0.19167493283748627,0.4433417022228241,0.3369101583957672,0.6723089218139648,-0.22775432467460632,-0.7132938504219055,0.83577561378479,-0.21037057042121887
155,-1.8457249321000122,-0.19096097985584645,2.4698278826255056,-0.9449496865272522,0.18980249762535095,0.2665434181690216,1.598044514656067,1.476858377456665,-0.533119797706604,0.9606966376304626,-0.046232521533966064,-0.13203713297843933
156,-1.9329251898685447,-0.2281921445587113,2.7831748893342563,-0.9109030365943909,0.2262168973684311,0.34508219361305237,1.5240377187728882,-3.217545747756958,0.32297685742378235,0.5382680892944336,-0.10156786441802979,0.07967674732208252
157,-2.182475115405619,-0.24482892478143567,2.6321978287291903,-0.7942711710929871,0.24239034950733185,0.5571182370185852,-2.4542059898376465,0.4156791567802429,0.813737154006958,-0.9531044960021973,0.05024276673793793,-0.04690992832183838
158,-2.0619292161712,-0.21333255697752632,2.7224556834906615,-0.8618094325065613,0.21171808242797852,0.4609338045120239,3.674356698989868,1.3669660091400146,-1.5204492807388306,0.5459982752799988,-0.5289788246154785,-0.7701379060745239
159,-1.8965792391711715,-0.20968598369848948,3.121323305418664,-0.9266489744186401,0.20815277099609375,0.3130403459072113,3.2873404026031494,0.19374576210975647,-1.218429446220398,0.7046334743499756,-0.5117721557617188,-0.1470247209072113
160,-1.9815991226652117,-0.19974188676289228,-2.893623117925926,-0.898572564125061,0.1984163522720337,0.3914056122303009,0.08961481600999832,-1.0092191696166992,-0.27414461970329285,-1.614794135093689,0.2775357961654663,0.34910333156585693
161,-1.9687368618326404,-0.17253101255290007,-2.876610515478648,-0.9081745147705078,0.17167633771896362,0.38176727294921875,0.2458614706993103,0.6296294927597046,-0.4470703601837158,0.7155171036720276,0.15805085003376007,-0.41333770751953125
162,-1.893933908791766,-0.21183822019291149,-2.7826123387120836,-0.9270468950271606,0.2102573812007904,0.31044501066207886,0.9402951002120972,0.49883872270584106,-0.19174934923648834,0.9949789047241211,0.22612875699996948,0.0941571295261383
163,-2.1293324929921016,-0.20300871444397398,-2.609354721072711,-0.8306167721748352,0.20161716639995575,0.5190625786781311,-1.3404380083084106,0.3412141501903534,0.7372593283653259,-1.496821403503418,0.36442285776138306,0.5215561985969543
164,-2.101800943754523,-0.16114152096365464,-2.6005055708723366,-0.8511273860931396,0.16044504940509796,0.49983927607536316,2.9776034355163574,2.305485248565674,-1.5641841888427734,0.485984742641449,-0.43945202231407166,-0.7527079582214355
165,-1.843129207181838,-0.1362087473847628,-2.1803420757035,-0.9542254209518433,0.1357879638671875,0.26648780703544617,3.84503173828125,2.5640525817871094,-1.7343355417251587,0.9798295497894287,-0.4509735107421875,-0.08759376406669617
166,-1.941484695526918,-0.14836989456929014,-1.93998201497869,-0.9218378067016602,0.14782613515853882,0.35827717185020447,0.9550268650054932,-0.8347479104995728,-0.2033998668193817,-1.8907995223999023,0.45471295714378357,0.8784781694412231
167,-1.9386622642356663,-0.13222558473337218,-1.9470065922978805,-0.9249516725540161,0.13184063136577606,0.3564857244491577,0.3671548068523407,0.6421738266944885,-0.4262898564338684,0.5945380926132202,0.19433122873306274,-0.3682655990123749
168,-1.882255760361607,-0.160751436964904,-1.8813072311994155,-0.93961501121521,0.16006000339984894,0.3024972677230835,0.4561218023300171,-0.7469826936721802,0.8585675954818726,1.1981292963027954,-0.01818375289440155,-0.1777718961238861
169,-2.107159810047882,-0.132223289077802,-1.7640067104679056,-0.852069616317749,0.1318383514881134,0.5065529942512512,-0.689829409122467,0.576430082321167,0.7127791047096252,-1.5729639530181885,0.3547796607017517,1.3436667919158936
170,-2.105235133116684,-0.10785897551247657,-1.7850794772512761,-0.855553925037384,0.10764996707439423,0.5063983201980591,2.597975254058838,1.911614179611206,-1.3768227100372314,0.11003988981246948,-0.37444987893104553,-0.7771196365356445
171,-1.9111828468879444,-0.08147065069243685,-1.3796423266966438,-0.9394990801811218,0.08138055354356766,0.33274412155151367,2.753796339035034,1.120504379272461,-2.445948600769043,1.064972162246704,-0.33820122480392456,-0.30321836471557617
172,-1.9493040336668233,-0.1005704221160268,-1.08664253230018,-0.9245219230651855,0.10040096938610077,0.367667019367218,2.1789586544036865,-1.2946428060531616,-0.6461625695228577,-1.4673542976379395,0.10443300008773804,1.0117123126983643
173,-1.926011819794564,-0.08912149331192443,-1.1063181705927516,-0.9338506460189819,0.0890035629272461,0.34641212224960327,-0.44757938385009766,0.940290093421936,-0.14613212645053864,0.36182916164398193,0.3367013931274414,-0.28018906712532043
174,-1.8230198171773273,-0.10101214468228466,-1.0364276297514372,-0.9634238481521606,0.10084045678377151,0.24828562140464783,0.9389744400978088,0.3893054127693176,0.4426078200340271,1.1336508989334106,0.09990417957305908,-0.11051404476165771
175,-2.061499997391305,-0.10447165152150556,-0.8485478608662769,-0.8771926760673523,0.1042817160487175,0.4686773419380188,0.48056891560554504,0.18605661392211914,0.4009860157966614,-0.5376785397529602,0.8951232433319092,1.368786096572876
176,-2.109165386986602,-0.07872144366346147,-1.0564480177616813,-0.8558869957923889,0.0786401629447937,0.5111483931541443,-0.951433539390564,0.6119551062583923,-0.027244314551353455,-0.31383633613586426,-0.2867548167705536,-0.4829503297805786
177,-1.9265591221626936,-0.08454144882105769,-0.8278357521108183,-0.9340333342552185,0.08444077521562576,0.3470615744590759,3.363905668258667,1.0222996473312378,-1.5017297267913818,1.0095336437225342,-0.29896411299705505,-0.4740605056285858
178,-1.9106018294290625,-0.0894187898901294,-0.48853975810842637,-0.9390526413917542,0.08929967880249023,0.33197206258773804,2.0101568698883057,-1.1541842222213745,-0.40846312046051025,-0.733691930770874,-0.17250588536262512,0.7820720672607422
179,-1.9800334102244281,-0.08999956353122977,-0.4963559134705102,-0.913711667060852,0.08987811207771301,0.3962991237640381,-0.954883337020874,-0.1335202008485794,-0.08090469986200333,-0.24375903606414795,0.238674134016037,-0.09733366966247559
180,-1.9639295663912766,-0.0454491944624519,-0.5295352719870463,-0.9227593541145325,0.04543355107307434,0.38268887996673584,-0.05867861211299896,0.05710235610604286,-0.11538451910018921,0.9409021735191345,0.14031170308589935,-0.3418106138706207
181,-1.920882801787413,-0.02475665706639854,-0.5677712779600441,-0.9390551447868347,0.024754127487540245,0.3428739011287689,0.8883888125419617,-2.893026113510132,-0.2598519027233124,-0.9919140338897705,0.7138933539390564,0.0992036759853363
182,-2.1085759209607713,-0.057141188150968365,-0.544391975423674,-0.8574464321136475,0.057110097259283066,0.5113942623138428,-0.6205575466156006,-0.9687364101409912,0.2680017352104187,-0.46625351905822754,0.01471303403377533,-0.07511496543884277
183,-2.0806197556620414,-0.04900476055914842,-0.4675468610118572,-0.8717828392982483,0.04898514971137047,0.48743727803230286,2.0059974193573,0.6961501836776733,-1.418756365776062,0.39601385593414307,-0.37515702843666077,-0.54468834400177
184,-1.97363348901102,-0.04837167859401296,-0.16320455380896245,-0.9188764691352844,0.04835281893610954,0.39157143235206604,3.4909448623657227,0.383270263671875,-0.5347301959991455,0.10051709413528442,-0.48652419447898865,0.07949793338775635
185,-2.068861576322992,-0.09069018918147162,-0.013412351255729402,-0.8748983144760132,0.09056591987609863,0.4757635295391083,-1.0751742124557495,0.24527522921562195,0.10673259198665619,-1.1543834209442139,0.40841174125671387,0.18959593772888184
186,-2.0221070129445144,-0.04437202644491659,-0.08532289322907854,-0.8989903926849365,0.04435746744275093,0.43571603298187256,-0.6987545490264893,0.7171136736869812,-0.027770154178142548,0.4672430753707886,0.2790678143501282,-0.18797442317008972
187,-1.8782507754613391,-0.049582414995108466,-0.15257466488070565,-0.9519357085227966,0.04956210032105446,0.3022615313529968,0.4325932264328003,0.5314415693283081,0.04640097916126251,0.8383645415306091,0.30998075008392334,-0.15843212604522705
188,-2.092654377689734,-0.09070768503042857,-0.016903833281989546,-0.863330602645874,0.09058334678411484,0.49644240736961365,-0.2726690471172333,-1.0611642599105835,0.5196529030799866,-0.958385705947876,0.24056288599967957,0.317812442779541
189,-2.1339115554383734,-0.10302235340551343,-0.05937711914282903,-0.8411129117012024,0.10284020751714706,0.5309926867485046,0.8437367677688599,0.8412946462631226,-0.3250333368778229,-0.08663684129714966,-0.19979454576969147,-0.46521204710006714
190,-2.000621413404118,-0.08819698697223737,0.14464985549204495,-0.9055051803588867,0.0880826860666275,0.41509202122688293,1.874515175819397,0.9092064499855042,-1.3455497026443481,0.936877429485321,-0.3223508894443512,-0.3293377757072449
191,-2.013604691826544,-0.12265660867850246,0.3551795839736224,-0.8967636823654175,0.12234928458929062,0.4252595901489258,1.2658888101577759,-2.455597162246704,-0.1137138232588768,-0.81623375415802,-0.16721013188362122,0.5769834518432617
192,-2.0889439655089497,-0.10637415088570741,0.36934714815939934,-0.8638274669647217,0.10617364943027496,0.49247220158576965,-0.3102160096168518,0.41443338990211487,-0.2558537423610687,-0.1142759919166565,0.16457828879356384,-0.1849772334098816
193,-2.004074209783054,-0.08409127191342647,0.36471593984881556,-0.9043872952461243,0.08399219810962677,0.41836443543434143,-0.3067050278186798,0.997200071811676,0.28106164932250977,1.0194233655929565,0.18082407116889954,-0.24996855854988098
194,-2.0852239434204503,-0.08654508466059516,0.39701347871313775,-0.8673162460327148,0.08643708378076553,0.490195095539093,3.317962884902954,-6.201813697814941,-1.3941515684127808,-1.3519830703735352,0.19762052595615387,0.015374422073364258
195,-2.1663382655650905,-0.10712634567452617,0.4063080052654178,-0.8230987787246704,0.10692156851291656,0.557741641998291,-0.5303378105163574,0.14247390627861023,0.10415762662887573,-0.46982401609420776,-0.047091878950595856,-0.0008417367935180664
196,-2.107923569911288,-0.09417927688762877,0.48391123169754,-0.855374813079834,0.09404011070728302,0.5094025135040283,1.7026779651641846,1.5827432870864868,-1.5293262004852295,0.5822727680206299,-0.30561843514442444,-0.48593437671661377
197,-1.9652371246839835,-0.07510468159546504,0.7090103961592729,-0.9206092357635498,0.07503409683704376,0.3832087516784668,2.9380221366882324,-1.3079696893692017,-0.555010199546814,0.1914982795715332,-0.5257329344749451,-0.056472212076187134
198,-2.095518557715996,-0.10640257140472302,0.8081147841997057,-0.8605684638023376,0.1062019094824791,0.498139351606369,-1.3045744895935059,-0.4642440378665924,0.11008267104625702,-0.9720272421836853,0.4509879946708679,0.12916463613510132
199,-2.0683665444024237,-0.07203492339101085,0.7704432033699077,-0.8764657974243164,0.07197263836860657,0.4760538935661316,0.7658829092979431,0.7819744348526001,-0.5388973355293274,0.561906099319458,0.18428345024585724,-0.34966540336608887
200,-2.0116706712264154,-0.11431212384043014,0.9209272500926692,-0.8984764218330383,0.1140633299946785,0.42394527792930603,4.364369869232178,-4.622719764709473,-0.713135302066803,0.5331047773361206,-0.0971871092915535,-0.1706799566745758
201,-2.2117156712909205,-0.13616547128429135,1.0173301269897999,-0.7941272854804993,0.1357450932264328,0.5923981666564941,-2.6913883686065674,-0.7292233109474182,1.2325726747512817,-0.9933942556381226,0.2801790237426758,0.2466064691543579
202,-2.1846266186862873,-0.09875131926437244,0.921732295989448,-0.8134651780128479,0.0985908955335617,0.5731964707374573,1.2987794876098633,1.313950777053833,-0.8453603386878967,-0.017391085624694824,-0.293918639421463,-0.6494293808937073
203,-1.9524660389049486,-0.06486597667368048,1.1582294278770793,-0.9260924458503723,0.06482049822807312,0.37168729305267334,2.1050198078155518,1.7575418949127197,-1.2049710750579834,0.9809170961380005,-0.44484061002731323,-0.4507124722003937
204,-1.9942822074365123,-0.10187305795166048,1.3902421987579443,-0.9069355130195618,0.1016969382762909,0.4088103771209717,0.48944997787475586,1.0534240007400513,-0.18291859328746796,-1.5295727252960205,0.3881712257862091,0.7574493885040283
205,-1.8915740532811387,-0.13948396008525282,1.5299780839619557,-0.9397737979888916,0.13903211057186127,0.31224244832992554,3.4346439838409424,1.3974891901016235,-0.303493469953537,0.2935335636138916,0.13406974077224731,0.04453861713409424
206,-1.8981443751917897,-0.20308495188353765,1.8607926763912204,-0.9274386763572693,0.20169183611869812,0.3149252235889435,2.2526254653930664,-3.4444034099578857,0.35821041464805603,1.2405643463134766,-0.2522289454936981,-0.1976156234741211
207,-2.3562866022441575,-0.38625974623793996,1.8256604641445444,-0.6549500823020935,0.376726359128952,0.6550707817077637,-2.06530499458313,0.36203449964523315,1.8586043119430542,-2.254031181335449,1.074796438217163,2.115818500518799
208,-2.181762521393479,-0.2352057937660619,1.578959176573237,-0.7965414524078369,0.2330431193113327,0.5578641891479492,0.675886869430542,2.6336352825164795,-0.8323219418525696,-0.003705620765686035,-0.2567247748374939,-0.684207022190094
209,-1.7422608404178668,-0.1847257190013124,1.9289850952737437,-0.9685720801353455,0.18367692828178406,0.1677226573228836,3.760483503341675,4.461664199829102,-2.5258736610412598,1.3151907920837402,-0.692237138748169,0.1628742218017578
210,-1.7998427699552884,-0.12151832614478407,2.133690898705544,-0.9667016863822937,0.12121947854757309,0.22537465393543243,-2.3575313091278076,-3.962966203689575,4.360320568084717,-0.9417455792427063,-0.8010901212692261,0.17791509628295898
211,-1.9022006299607583,-0.1822675943125266,2.0793089260878252,-0.929922878742218,0.18126006424427032,0.31998151540756226,-0.30360549688339233,-0.1607288122177124,0.03834689408540726,-0.3295832872390747,0.6771536469459534,-0.29233264923095703
212,-1.9026772822398512,-0.19140121829770465,2.1856655575881465,-0.9281662702560425,0.1902347058057785,0.3198719620704651,2.2957918643951416,-1.653104305267334,-0.5226348638534546,1.177311897277832,-0.1584048718214035,-0.2736683189868927
213,-2.1030248184666926,-0.36582503255752497,2.2548841858472444,-0.8046601414680481,0.35771986842155457,0.4738759994506836,1.0080257654190063,-4.90069580078125,3.787360191345215,-0.5276304483413696,0.32981064915657043,1.2016000747680664
214,-2.189722389596614,-0.20374128763208868,1.9801891374843406,-0.7976552248001099,0.20233464241027832,0.5681610107421875,-0.7840198278427124,0.845978856086731,0.5291922092437744,-0.9064769148826599,-0.13354800641536713,-1.1379547119140625
215,-1.9434014710937966,-0.19805308933150403,2.244629414829128,-0.913175106048584,0.1967608481645584,0.3569265902042389,2.6837317943573,2.490758180618286,-1.7642414569854736,0.9977239966392517,-0.5452258586883545,-0.370674729347229
216,-1.8150309652790144,-0.14114289677294453,2.482866514378554,-0.9606738090515137,0.14067474007606506,0.23940914869308472,-1.1126753091812134,-7.207761764526367,1.0590559244155884,-1.8797346353530884,-0.4958840608596802,0.32739391922950745
217,-1.9137388788227976,-0.1494681543146663,2.4604726323978134,-0.9312689900398254,0.1489122360944748,0.3325105905532837,0.3376524746417999,0.8175230622291565,0.05054100602865219,-0.29610222578048706,0.4111310839653015,-0.2042757272720337
218,-1.8626907880758239,-0.16771456946125973,2.6228887107799306,-0.944262683391571,0.1669294238090515,0.28372931480407715,1.6352264881134033,0.803806722164154,0.004271836951375008,1.2087128162384033,-0.058683574199676514,0.20803090929985046
219,-2.095908649012634,-0.30839152453892976,2.731014270511819,-0.8244469165802002,0.3035264313220978,0.4776599109172821,-0.6766314506530762,-5.421919822692871,0.09172359108924866,-0.6515815258026123,0.6292890906333923,1.118027925491333
220,-2.2187749618428865,-0.2360715481795594,2.454139799201975,-0.7751918435096741,0.23388494551181793,0.5868355631828308,-1.9922081232070923,1.6320213079452515,0.28031378984451294,-0.7078710794448853,-0.019620969891548157,-0.467435359954834
221,-1.9951535692804563,-0.19044464534240974,2.5456203297198283,-0.8948274850845337,0.18929551541805267,0.4042910635471344,1.9643772840499878,2.110808849334717,-1.2833212614059448,0.7739930152893066,-0.5685679316520691,-0.4824008345603943
222,-1.7340922930301792,-0.143440876273324,2.8459848770494838,-0.9765633940696716,0.14294949173927307,0.16090159118175507,1.0465434789657593,-2.8130574226379395,0.6008658409118652,-0.00024318695068359375,-0.581471860408783,0.09721611440181732
223,-1.9479746901644555,-0.16398794531677297,2.779996360884598,-0.9172345399856567,0.16325393319129944,0.3633575439453125,0.5815942287445068,0.4482868015766144,0.0724678635597229,-1.3554093837738037,0.5783079266548157,-0.2237091362476349
224,-1.7926458023422867,-0.19226800335234526,3.023741329213089,-0.9575172662734985,0.1910855919122696,0.2159796953201294,3.861862897872925,-1.0002983808517456,-0.5788874626159668,0.6740546226501465,0.0983736515045166,-0.105170339345932
225,-1.9929584228117783,-0.27528467792656747,-3.1240779627660302,-0.8778588175773621,0.27182090282440186,0.39430636167526245,-0.32208243012428284,-2.502695322036743,1.2982808351516724,0.9691673517227173,-0.10978782176971436,0.16205954551696777
226,-2.216299330776221,-0.24364569492068847,2.820446668176485,-0.7752047777175903,0.24124224483966827,0.5838320255279541,-3.4899752140045166,-0.048337433487176895,0.5731123685836792,-1.3862637281417847,0.4676048159599304,-0.4248049259185791
227,-2.0857059111108835,-0.23625370701081447,2.9506546335011947,-0.8461606502532959,0.2340620458126068,0.4787765145301819,2.257855176925659,1.8375509977340698,-1.3550167083740234,0.4566039443016052,-0.3182448148727417,-0.3211074471473694
228,-1.8360941734137308,-0.17099539123936808,-3.1233877651226054,-0.9509404301643372,0.17016330361366272,0.2583727538585663,1.1348354816436768,1.7934544086456299,-0.8014007210731506,0.9767126441001892,-0.4426700472831726,-0.04946473240852356
229,-2.0217813425390316,-0.15910667494397246,-3.0832359181413618,-0.888650119304657,0.15843622386455536,0.4303470253944397,0.40763258934020996,0.30765074491500854,-0.03883496671915054,-1.7627016305923462,0.06934691965579987,1.0343592166900635
230,-1.9122690363558876,-0.18416669945737946,-2.9944477576614297,-0.926328182220459,0.18312738835811615,0.32921215891838074,1.3030281066894531,1.6340190172195435,-0.40884828567504883,0.6485570669174194,0.22931769490242004,-0.26341626048088074
231,-1.8363016822619667,-0.23365193967587947,-2.7561169955707334,-0.938739538192749,0.2315317690372467,0.255266934633255,3.273135185241699,-0.9230303764343262,0.13953685760498047,1.4111974239349365,-0.1207987368106842,0.3441746234893799
232,-2.116544787160193,-0.24982041102839037,-2.786853736677471,-0.828205406665802,0.2472299486398697,0.5029448866844177,-3.452908515930176,0.5607594847679138,2.6974070072174072,-1.5839192867279053,0.474098801612854,1.4169161319732666
233,-2.113859744345257,-0.22014021522138913,-2.9732277409745085,-0.8354688286781311,0.21836645901203156,0.5042901635169983,1.8532309532165527,0.7039410471916199,-0.897808313369751,0.163746178150177,-0.3613870143890381,-0.725328803062439
234,-1.8865368549403019,-0.19741944870582048,-2.6844544924162785,-0.9321026802062988,0.19613955914974213,0.304488867521286,1.8391860723495483,2.277759313583374,-1.5015324354171753,0.9741560816764832,-0.4669983386993408,-0.22645550966262817
235,-1.8583113689368742,-0.14512350285309683,-2.515458018742347,-0.9488708972930908,0.14461463689804077,0.2805892527103424,0.9001143574714661,-6.257583141326904,0.19631963968276978,-1.7979704141616821,-0.7537150382995605,0.5354355573654175
236,-1.8971322937850534,-0.18246619453121776,-2.4970359657245775,-0.9314984083175659,0.18145537376403809,0.3152526617050171,-0.14932681620121002,1.8528399467468262,0.06069442629814148,-0.39561939239501953,0.9143392443656921,-0.0964725911617279
237,-1.8078609723307577,-0.18959776720786775,-2.324836152692442,-0.9546127319335938,0.18846388161182404,0.23064187169075012,3.346632719039917,-3.2138004302978516,-0.7228800058364868,1.1361008882522583,-0.13054156303405762,-0.22038808465003967
238,-2.0239610417967135,-0.24958528290187276,-2.193434842315479,-0.8712085485458374,0.24700210988521576,0.4242473840713501,0.5746591687202454,-3.759387254714966,1.2152334451675415,-0.14337897300720215,0.30460312962532043,1.065422534942627
239,-2.1513957700482034,-0.16806459674340407,-2.6089627299791647,-0.8243531584739685,0.16727453470230103,0.5407967567443848,-1.448075771331787,0.8633116483688354,-0.04986929893493652,-0.4371519684791565,-0.22373205423355103,-1.2286782264709473
240,-1.966240228198638,-0.2043738095379626,-2.264874688105786,-0.9036199450492859,0.20295403897762299,0.37720078229904175,3.486982822418213,1.7140593528747559,-1.949776530265808,1.0102331638336182,-0.43824461102485657,-0.4131963849067688
241,-1.6582956142107175,-0.1307156103790019,-1.970151442131523,-0.9876757860183716,0.13034367561340332,0.08664215356111526,1.6580758094787598,-1.6699484586715698,1.0295487642288208,-0.9094340801239014,-0.7291901111602783,0.48635590076446533
242,-1.939496239497317,-0.1706308957968251,-2.039891175432352,-0.9192505478858948,0.16980411112308502,0.3551692068576813,-2.0156991481781006,0.7215349078178406,0.5426630973815918,-0.77996826171875,0.8489031195640564,-0.1441096067428589
243,-1.7213108513953104,-0.18945521089270223,-2.053055874185383,-0.9710033535957336,0.18832388520240784,0.14726386964321136,1.5431065559387207,1.3649351596832275,0.8162871599197388,1.1728618144989014,-0.15061941742897034,-0.24028146266937256
244,-1.8410472943222043,-0.33007388133267884,-1.8994028030950438,-0.9116817116737366,0.3241129219532013,0.25256168842315674,0.8632408380508423,-4.017603397369385,1.6414122581481934,0.3869166374206543,-0.1269845962524414,0.18223753571510315
245,-2.2033231629228975,-0.21867820552750764,-2.05786549105342,-0.7873284816741943,0.21693949401378632,0.5771054625511169,-2.8798208236694336,0.37292560935020447,0.7508226633071899,-1.5536900758743286,0.034128591418266296,-0.36285698413848877
246,-1.9470834842181668,-0.2347844453506757,-1.8196330906888594,-0.9045194983482361,0.23263335227966309,0.3573882281780243,4.2992167472839355,2.4540181159973145,-1.6036039590835571,0.9859861731529236,-0.477491170167923,-0.3908202648162842
247,-1.6809138369668075,-0.16424614399285162,-1.477599596488346,-0.9805666208267212,0.16350866854190826,0.1084161251783371,0.4513368308544159,-5.5098466873168945,0.10166655480861664,-0.6411985158920288,-0.5566971302032471,0.527310848236084
248,-1.9654043961832792,-0.16905763607122967,-1.5840759103597666,-0.9099866151809692,0.16825349628925323,0.3789656162261963,0.3925989270210266,0.07935425639152527,-0.43693602085113525,-0.8846757411956787,0.6832631826400757,-0.31611472368240356
249,-1.838188663808287,-0.17948744415776618,-1.4425297320115076,-0.9489694833755493,0.17852526903152466,0.25997281074523926,1.4809376001358032,1.148236870765686,0.27633777260780334,1.1371254920959473,-0.10088856518268585,-0.19291040301322937
250,-1.7764550653248106,-0.3063655943897685,-1.4044622550312946,-0.9333440065383911,0.30159544944763184,0.1947031468153,1.568505048751831,-4.187151908874512,1.0229140520095825,0.5283451676368713,-0.02760857343673706,0.2614889442920685
251,-2.104526343840169,-0.22805791461150177,-1.4603661815587146,-0.8386240005493164,0.22608615458011627,0.4955752491950989,-4.294663429260254,-2.567474603652954,-2.5893495082855225,-0.8510426878929138,0.5620455741882324,-0.3948366940021515
252,-1.993227734771819,-0.19639582166072422,-1.3555816773673246,-0.8945608735084534,0.1951357126235962,0.4020979702472687,3.8265039920806885,2.892453193664551,-1.4305599927902222,0.9966574907302856,-0.5459810495376587,-0.6294691562652588
253,-1.6111941209880467,-0.15237948018517683,-0.9842110872279795,-0.9876061677932739,0.15179046988487244,0.03991882875561714,3.437325954437256,0.05813984572887421,-0.30169543623924255,0.6610682010650635,-0.5193747282028198,0.2977275848388672
254,-2.0152780385380558,-0.1586334222410545,-0.9886954521435725,-0.8914978504180908,0.1579689383506775,0.42459115386009216,-1.9801673889160156,0.24956870079040527,0.7542983293533325,-2.216290235519409,0.59274822473526,0.8378448486328125
255,-1.835704038163154,-0.12827823300332813,-1.0508118045350585,-0.9571871161460876,0.12792670726776123,0.2596690356731415,0.8399649262428284,1.728284478187561,0.46013137698173523,1.1570007801055908,0.08743584156036377,-0.3846995234489441
256,-1.656362407658415,-0.2549716031721684,-0.9362487786718857,-0.964130163192749,0.2522179186344147,0.0826987624168396,0.7721431851387024,-0.20844921469688416,0.12323049455881119,0.9904516339302063,0.17991092801094055,0.2659341096878052
257,-2.108902638088868,-0.21792982793259955,-0.8920569829978375,-0.8383705019950867,0.21620887517929077,0.500388503074646,-3.4679853916168213,-0.20685319602489471,0.3759535551071167,-0.8703850507736206,0.7678609490394592,0.33316850662231445
258,-2.091185712539908,-0.1721568755124951,-0.9469884877041297,-0.8548001050949097,0.1713077425956726,0.4898679852485657,4.118903160095215,1.898694396018982,-1.5777751207351685,0.48828399181365967,-0.6006748080253601,-0.9871213436126709
259,-1.6617509158732209,-0.09932379027537748,-0.5408919947505237,-0.9909583926200867,0.0991605594754219,0.09038158506155014,4.571899890899658,-1.0041186809539795,-1.1369367837905884,0.6193152070045471,-0.4396451711654663,0.6817283630371094
260,-1.988013285171649,-0.13176103212463006,-0.677309979547314,-0.9062959551811218,0.1313801109790802,0.4017053544521332,-1.2086474895477295,0.8331183195114136,0.8328991532325745,-2.232086181640625,0.7120952606201172,0.6861090064048767
261,-1.8923932846023208,-0.1700336305035978,-0.5969445189075907,-0.9350501894950867,0.16921550035476685,0.31152382493019104,1.3594834804534912,-0.19795356690883636,0.0064160265028476715,0.7626870274543762,0.12538592517375946,-0.31375160813331604
262,-2.01592347310876,-0.23795287819145583,-0.41917456309573053,-0.8771243095397949,0.2357136756181717,0.4184402525424957,1.3444361686706543,-1.5540827512741089,0.37163805961608887,1.2443879842758179,-0.2275044173002243,0.5106217265129089
263,-2.225854234056855,-0.2284089370496715,-0.5633416305541773,-0.7724162936210632,0.2264280766248703,0.593382716178894,-3.7554450035095215,1.3485832214355469,1.5353851318359375,-1.493239164352417,0.8389862775802612,0.5555124282836914
264,-2.0962754188684785,-0.17245679523518795,-0.5442349351495673,-0.8522511720657349,0.1716032177209854,0.4941864609718323,3.0049049854278564,1.3995821475982666,-1.8531663417816162,0.19993799924850464,-0.4231748580932617,-0.5800018310546875
265,-1.8138794206897944,-0.06158117551139555,-0.24066383553279694,-0.96876060962677,0.06154226139187813,0.2402399480342865,1.9284493923187256,3.7210326194763184,-1.5164813995361328,1.162715196609497,-0.5577428340911865,-0.042089372873306274
266,-2.0199950010956154,-0.10721021913670377,-0.1947924552671389,-0.8956233859062195,0.10700495541095734,0.4317505955696106,-0.4559991657733917,-0.14499738812446594,0.39124464988708496,-2.3249270915985107,0.6840869784355164,1.4041715860366821
267,-1.828734582928208,-0.09295291877556852,-0.18231669020551938,-0.9627436399459839,0.09281911700963974,0.25398632884025574,0.6779880523681641,1.4295125007629395,0.0643714889883995,1.024496078491211,0.27528390288352966,-0.3288765251636505
268,-1.7322502624875225,-0.20802856145987647,-0.10307309271545297,-0.9657150506973267,0.20653136074543,0.1572875678539276,0.09967175871133804,-0.1685214787721634,0.7600693106651306,1.157548427581787,-0.1751440167427063,0.1756439357995987
269,-2.1455905079715136,-0.17648467227359055,-0.11745806043701075,-0.8262673020362854,0.17556993663311005,0.5352173447608948,-2.7025842666625977,-2.7235193252563477,-1.0426149368286133,-1.2236900329589844,1.2322059869766235,0.3815765380859375
270,-2.1652440836514355,-0.0982319159970599,-0.3216191228685744,-0.8244639039039612,0.09807401150465012,0.5573513507843018,2.313951015472412,1.7377958297729492,-0.7369778156280518,0.36358755826950073,-0.4514065384864807,-1.0949032306671143
271,-1.865094032462119,-0.12323832209826188,-0.018437571952738683,-0.9497477412223816,0.12292660772800446,0.28786781430244446,2.434856414794922,3.331284523010254,-0.8576359152793884,0.8960064649581909,-0.520845353603363,-0.047572553157806396
272,-1.9824392461047706,-0.12055784225393566,0.12799456160424624,-0.9098126292228699,0.12026602029800415,0.39721134305000305,-1.0297621488571167,-1.6929478645324707,0.9801391363143921,-1.5357286930084229,0.009006433188915253,0.9604545831680298
273,-1.9339383441495355,-0.13041480590968024,0.08521046801896458,-0.9268471002578735,0.13004544377326965,0.352196604013443,0.8879725933074951,1.3291170597076416,-0.23722578585147858,0.5514656901359558,0.41093963384628296,-0.33004096150398254
274,-1.8533725052794943,-0.20305898431205108,0.17805900270980296,-0.9406094551086426,0.20166639983654022,0.273101806640625,1.848914623260498,-1.7706241607666016,1.082337498664856,1.280773639678955,-0.026220843195915222,-0.113922119140625
275,-2.1909284872279655,-0.2739248220151356,0.1904523587471257,-0.7834604978561401,0.27051201462745667,0.559475839138031,-4.2588300704956055,-1.3481885194778442,-1.9039299488067627,-1.513338327407837,1.2565265893936157,0.971484363079071
276,-2.165063500485897,-0.12321323168827901,-0.001237753012630353,-0.8222776651382446,0.12290170788764954,0.5556570887565613,3.8893611431121826,1.8566526174545288,-1.5587176084518433,0.4707455635070801,-0.5713117122650146,-1.331322431564331
277,-1.8608598944277461,-0.11067272434655917,0.47251233398882203,-0.9523634910583496,0.11044693738222122,0.28426337242126465,2.557718515396118,2.9441134929656982,-2.6706669330596924,1.14499032497406,-0.5045051574707031,-0.12822696566581726
278,-1.993790778623488,-0.11158960363648229,0.5608482942956275,-0.9061923623085022,0.1113581582903862,0.40793970227241516,-1.5550179481506348,-2.4336097240448,0.5924398899078369,-2.158215045928955,0.3024449348449707,1.4248087406158447
279,-1.9198401320087484,-0.11008663572903085,0.4796432894220272,-0.9340117573738098,0.10986441373825073,0.33992916345596313,-0.10644429177045822,1.7202876806259155,0.0035379696637392044,0.7212737202644348,0.48190194368362427,-0.4641205072402954
280,-1.8220125925090482,-0.23259379422635731,0.5146799628214666,-0.9425278902053833,0.23050224781036377,0.2418883740901947,2.0913567543029785,-1.2788538932800293,1.79603910446167,1.2631913423538208,-0.10936270654201508,-0.1556152105331421
281,-2.1047742229771376,-0.4212031659659012,0.5373428282157637,-0.7855541706085205,0.4088587462902069,0.464477002620697,-0.7161267399787903,-2.560331106185913,-0.11424587666988373,-2.1412949562072754,1.7074894905090332,1.3068242073059082
282,-2.21581164375161,-0.13926273102884076,0.34414122115864076,-0.7913543581962585,0.13881301879882812,0.5953902006149292,-0.1383076310157776,0.5540010333061218,0.22130341827869415,-0.4157991409301758,-0.38695141673088074,-0.9240950345993042
283,-1.8990913626658514,-0.16822419112151413,0.6738635245031678,-0.933230996131897,0.16743187606334686,0.31787803769111633,3.2837326526641846,4.404962539672852,-1.6361027956008911,1.248660683631897,-0.7173739075660706,-0.3773568868637085
284,-1.9310994624660847,-0.16427867386160538,0.9513967665067182,-0.9231910705566406,0.1635407656431198,0.3478112816810608,-1.2179423570632935,-7.669381618499756,1.4870413541793823,-1.4067497253417969,-0.398800790309906,0.6580634117126465
285,-1.9155057490474372,-0.1725902508918376,0.7741496433651324,-0.9271907210350037,0.17173469066619873,0.3329026997089386,-0.7749777436256409,0.836394727230072,-0.10423120856285095,0.024801433086395264,0.8289061188697815,-0.3401354253292084
286,-1.8812123634915208,-0.1815135354904107,0.7716980201310546,-0.9365634918212891,0.18051844835281372,0.30043673515319824,1.0199240446090698,0.3095261752605438,0.09748400002717972,1.0793246030807495,-0.16406945884227753,-0.26720306277275085
287,-2.032668368740311,-0.2750668315860323,0.873418524447528,-0.8615657687187195,0.2716112434864044,0.42887237668037415,0.9383406043052673,-2.2735633850097656,1.5933902263641357,-0.4869753122329712,0.1253155767917633,1.2553317546844482
288,-2.1801454817234713,-0.14539019747936996,0.6369754123616298,-0.8113691806793213,0.14487852156162262,0.5662955641746521,-2.561988592147827,0.27051231265068054,0.10414068400859833,-0.6707171201705933,-0.07755672931671143,-0.5513723492622375
289,-2.060191432117864,-0.16017131875227195,0.815858316815357,-0.8713197708129883,0.15948733687400818,0.46407485008239746,2.967587947845459,1.2494680881500244,-1.5494847297668457,0.9549990892410278,-0.41636908054351807,-0.6753938794136047
290,-1.9272119789473876,-0.15958715608758367,1.083560238057902,-0.9252449870109558,0.1589106172323227,0.3444836735725403,2.177504062652588,-2.291842222213745,-0.603131115436554,-1.1802542209625244,-0.2543696463108063,0.3480059504508972
291,-2.004320665317112,-0.1588936348502832,1.0962555343353033,-0.8960592746734619,0.158225879073143,0.4147800803184509,-1.1551018953323364,0.03213964402675629,0.24691112339496613,-0.38982951641082764,0.5235063433647156,-0.13793987035751343
292,-1.9782602195661585,-0.16257630005882934,1.1216351891373597,-0.9060218930244446,0.16186106204986572,0.39105653762817383,0.9417693614959717,-0.08698350191116333,-0.1724940687417984,0.9382638335227966,-0.1000782698392868,-0.3862348198890686
293,-2.1569484561157437,-0.21418531820739994,1.303234410298021,-0.8140394687652588,0.21255142986774445,0.5405198335647583,1.5221645832061768,-2.0904438495635986,0.22866423428058624,0.5215132236480713,-0.13230547308921814,0.3406447172164917
294,-2.203671153287945,-0.20770139569882018,1.194590372514671,-0.7890005707740784,0.20621123909950256,0.5787532925605774,-1.7811027765274048,0.4250943064689636,0.5749351382255554,-0.9927072525024414,0.1687430441379547,0.020749390125274658
295,-2.129211221387942,-0.1901851899582028,1.2400226944219321,-0.8328041434288025,0.18904075026512146,0.5202890038490295,2.4617302417755127,1.1635152101516724,-1.3871837854385376,0.22651153802871704,-0.38340723514556885,-0.5369669198989868
296,-1.8962009904382064,-0.15051702107978762,1.5661001768231975,-0.9368085861206055,0.1499493271112442,0.31607773900032043,3.294677257537842,1.417459487915039,-0.9613948464393616,0.9871929883956909,-0.437058687210083,-0.17998453974723816
297,-2.0048481918824645,-0.20330551181742745,1.676594664819899,-0.8885834813117981,0.20190785825252533,0.4118889272212982,-0.5423910021781921,-0.6636683940887451,0.1614423245191574,-1.12101411819458,0.5379908084869385,0.21678850054740906
298,-2.0189318985036637,-0.18466403216001798,1.6495932725297842,-0.885933518409729,0.1836162954568863,0.4259193241596222,0.3498499393463135,0.2694137394428253,-0.41235238313674927,0.29079484939575195,0.011360570788383484,-0.23870915174484253
299,-1.983756311083164,-0.1703100047325411,1.7070394287672987,-0.9026853442192078,0.1694878786802292,0.39551597833633423,1.244404911994934,-1.1850451231002808,-0.21118171513080597,1.0759336948394775,-0.15294738113880157,-0.26519063115119934
300,-2.1290182290062565,-0.22116700542972906,1.8009202889944618,-0.8275380730628967,0.2193683534860611,0.5167770385742188,-0.9185308814048767,-0.715662956237793,0.8677794337272644,-0.971473217010498,0.4098583161830902,0.6229476928710938
301,-2.156989380403627,-0.20649177100950636,1.6244916068801256,-0.8153555989265442,0.20502746105194092,0.541441798210144,-0.3443426787853241,0.4896758794784546,0.1831817477941513,-0.19773650169372559,-0.1822918951511383,-0.3515918254852295
302,-2.0585246685204495,-0.20041509259251802,1.7454361441027655,-0.8657175302505493,0.19907613098621368,0.4592404067516327,1.70931875705719,1.457726240158081,-1.3158705234527588,0.7680613398551941,-0.35193872451782227,-0.37658360600471497
303,-1.985228929114314,-0.2056049186132832,1.9692039712464113,-0.8960657715797424,0.20415937900543213,0.3941895067691803,2.6536688804626465,-3.4390604496002197,-0.6902918219566345,-1.3300085067749023,-0.19912391901016235,0.42838138341903687
304,-2.0517679780162017,-0.19668300186938728,2.0201590657378383,-0.8694531917572021,0.1954173594713211,0.4537210762500763,-1.1388307809829712,0.24290503561496735,0.20660856366157532,-0.5890427231788635,0.3806781768798828,-0.03373825550079346
305,-1.9638207987779088,-0.1652749459496148,1.94095962690962,-0.9111669659614563,0.16452354192733765,0.37776511907577515,-0.39771267771720886,1.439552903175354,0.023431571200489998,0.9244574904441833,0.04400305449962616,-0.2509647011756897
306,-1.9836278575408364,-0.21204453281931204,1.9818374931917653,-0.8954727649688721,0.21045908331871033,0.3922186493873596,1.6273518800735474,-3.773956537246704,0.41205617785453796,0.5171006321907043,0.011220589280128479,0.42289063334465027
307,-2.1794023740779336,-0.17986947365919662,1.8167627704695466,-0.8072096705436707,0.17890115082263947,0.5625008344650269,-3.4158458709716797,-0.5440433621406555,1.1577469110488892,-1.1499438285827637,0.07424215972423553,-0.12954789400100708
308,-2.055241065026381,-0.170588349153042,1.8445169353975601,-0.8720890283584595,0.16976219415664673,0.4589572548866272,2.6443848609924316,1.2690534591674805,-0.7861672639846802,0.7378115653991699,-0.39489036798477173,-0.6265138983726501
309,-1.9447479608086347,-0.18731579948556018,2.109088598959847,-0.9146074652671814,0.18622231483459473,0.3589068353176117,2.4545364379882812,0.5532058477401733,-0.4359839856624603,0.5788074135780334,-0.4881937801837921,-0.04695624113082886
310,-2.028542622035655,-0.20410866181068185,2.30262941264872,-0.8784299492835999,0.20269440114498138,0.4327540993690491,-0.5173693299293518,-0.3498533368110657,0.06014811247587204,-1.1492648124694824,0.2765536904335022,0.402283251285553
311,-1.9893741296069276,-0.1707651052434825,2.168995553390312,-0.9003785848617554,0.1699363738298416,0.4005494713783264,-0.5263727307319641,1.6771111488342285,0.03870873898267746,0.6224856376647949,0.233017697930336,-0.29508069157600403
312,-1.8439273577975113,-0.19394385231833589,2.1807391630878,-0.9448777437210083,0.19273029267787933,0.2646903991699219,1.899027943611145,-2.408825397491455,-0.031501635909080505,1.0067675113677979,-0.09952960908412933,-0.10496142506599426
313,-2.138231918919166,-0.19480220720380936,2.1900360530138774,-0.827332079410553,0.1935724914073944,0.5273054838180542,-3.293785572052002,-0.24945925176143646,1.670880675315857,-1.0895531177520752,0.3186345100402832,0.27117156982421875
314,-2.147592233657269,-0.158277833176014,2.0475812775088955,-0.8277367353439331,0.15761780738830566,0.538524329662323,1.4277801513671875,1.2571961879730225,-0.5559486746788025,0.2056511640548706,-0.39319825172424316,-0.6700704097747803
315,-2.0012910689858865,-0.18104124154412246,2.2735088693539875,-0.8939073085784912,0.18005388975143433,0.41050007939338684,2.0768418312072754,0.7942588329315186,-1.1206775903701782,0.8177506923675537,-0.3818818926811218,-0.3302236795425415
316,-2.0041471601433,-0.18954548895496529,2.5165295328604436,-0.891309380531311,0.18841254711151123,0.41239362955093384,1.1120039224624634,-0.6646728515625,-0.19077393412590027,-0.9474968910217285,-0.08979496359825134,0.5866603255271912
317,-2.0045437876057637,-0.18795196641573514,2.456509370525717,-0.8914169669151306,0.18684732913970947,0.4128727316856384,0.03737980127334595,0.7350624203681946,-0.09565205872058868,-0.08677822351455688,0.415340781211853,-0.1351780891418457
318,-1.9742325377663634,-0.19634765789242797,2.5670939889569406,-0.902045726776123,0.1950884759426117,0.3850378394126892,2.760462522506714,-1.8701761960983276,-0.5828908085823059,1.020881175994873,-0.2501269578933716,-0.23811089992523193
319,-2.1714323685398558,-0.26722746389761537,2.6631478646744964,-0.7956952452659607,0.26405832171440125,0.5451077222824097,-0.8571875691413879,-3.305032730102539,0.12158878147602081,-0.7135515809059143,0.32763174176216125,0.7576115131378174
320,-2.195085436527083,-0.19234854027466852,2.4573807430823695,-0.7964154481887817,0.19116464257240295,0.5737408995628357,-0.07764609158039093,0.8614313006401062,-0.24479928612709045,-0.3201313018798828,-0.17244207859039307,-0.7531537413597107
321,-1.993495378852906,-0.20769520542980555,2.7294637350355213,-0.8923853635787964,0.20620518922805786,0.40140724182128906,2.834300994873047,1.7002410888671875,-1.9345134496688843,0.8788051009178162,-0.29972630739212036,-0.35552406311035156
322,-1.8729861065404798,-0.14525966401559784,2.906597217204798,-0.9446327090263367,0.14474935829639435,0.2944771349430084,-1.4399988651275635,-3.9440391063690186,0.7643306255340576,-0.7665643095970154,-0.36233967542648315,0.4054739773273468
323,-1.9371788095987046,-0.18732556989384125,2.925853946626163,-0.9172965288162231,0.18623192608356476,0.3519733250141144,1.2088254690170288,0.8826059103012085,-0.0837772935628891,-0.44934189319610596,0.3833176791667938,-0.02204766869544983
324,-1.7891489781083745,-0.20786723971732401,3.101469648552267,-0.9552399516105652,0.20637352764606476,0.21195851266384125,1.135213017463684,-0.6181275844573975,-0.3221262991428375,1.188180685043335,-0.27508386969566345,-0.08642449975013733
325,-2.144702542684388,-0.2818902898217972,3.091150547359268,-0.8066415190696716,0.2781718373298645,0.5214884877204895,-0.8184174299240112,-1.1985373497009277,2.6942622661590576,0.0828864574432373,-0.06813454627990723,0.7297322750091553
326,-2.117731456958117,-0.2607010660422862,2.8965277279464003,-0.825261116027832,0.2577579915523529,0.5024983286857605,0.4172775149345398,1.149634599685669,-0.2650848925113678,-0.8453319668769836,-0.01924791932106018,-0.5569722652435303
327,-1.8752545482889147,-0.2585684485939771,-3.0555393400218733,-0.9222955703735352,0.2556968629360199,0.2898109555244446,4.05771017074585,2.439081907272339,-1.9945898056030273,0.9666526913642883,-0.39523839950561523,-0.21046513319015503
328,-1.6234607100988678,-0.10044012616328145,-2.7730381343289174,-0.9935806393623352,0.10027133673429489,0.052374742925167084,0.12285826355218887,0.8077080845832825,-0.8506636619567871,0.85924232006073,-0.437749981880188,0.4704066514968872
329,-1.8552866595262065,-0.18870819502361436,-2.855131874895468,-0.9427658915519714,0.18759018182754517,0.27568572759628296,-0.5084307193756104,0.30727145075798035,-0.0544327050447464,-1.174971103668213,1.139665126800537,-0.17551180720329285
330,-1.7895143358264305,-0.1842487473166611,-2.782170754866331,-0.9596540331840515,0.18320804834365845,0.21330586075782776,1.171934723854065,0.15308715403079987,-0.37365150451660156,1.0192394256591797,-0.18992190062999725,-0.23556837439537048
331,-1.9602630481623038,-0.127203826617845,-2.5897272421746895,-0.9176374673843384,0.1268610656261444,0.37662747502326965,0.9804559946060181,-2.6519148349761963,-0.8274440765380859,1.2251628637313843,-0.451995313167572,0.2144218385219574
332,-2.1095948960856767,-0.22068315116561027,-2.8388521471682266,-0.8375096321105957,0.21889625489711761,0.500661313533783,-3.64013934135437,1.1762115955352783,0.6173797845840454,-1.8270105123519897,1.1297975778579712,-0.11916124820709229
333,-2.0008389104239908,-0.2047951010639526,-2.748088149116638,-0.8899533152580261,0.20336654782295227,0.40819716453552246,2.52485728263855,2.2955479621887207,-1.183967113494873,0.5500639081001282,-0.30578356981277466,-0.19301778078079224
334,-1.7168467883497498,-0.12521206031760698,-2.4603759787863035,-0.9816080927848816,0.12488513439893723,0.1443924456834793,1.6317070722579956,1.2189379930496216,-1.8207557201385498,1.1260478496551514,-0.4308086037635803,0.0006271451711654663
335,-1.9006983192523945,-0.15426967022029622,-2.428392563417163,-0.9348384737968445,0.15365847945213318,0.3201030492782593,-0.8642897605895996,0.3517662286758423,0.543388307094574,-1.6549441814422607,0.7661260366439819,0.7789417505264282
336,-1.8096853758336886,-0.16233250626609913,-2.391506368664594,-0.9588276147842407,0.16162048280239105,0.23351243138313293,1.3494741916656494,1.2134335041046143,-0.3232754170894623,0.556789219379425,0.021561235189437866,-0.07106749713420868
337,-1.8158072479474934,-0.17348880998167632,-2.224707669610097,-0.955571711063385,0.17261983454227448,0.23892568051815033,0.2170988768339157,-3.094722032546997,0.6233916878700256,1.2595267295837402,-0.2118806689977646,0.030849844217300415
338,-2.1207695170659298,-0.2627870510260634,-2.424438157654279,-0.8232707977294922,0.259772926568985,0.5047212243080139,-2.973280191421509,0.4253515601158142,1.785512089729309,-1.291628122329712,0.9079211950302124,0.4397062659263611
339,-2.0048585809846013,-0.23864350355434197,-2.517482285775414,-0.8815523386001587,0.2363847941160202,0.40864086151123047,2.039508581161499,0.6567622423171997,-0.8293200731277466,0.17355996370315552,-0.4057116210460663,-0.36802202463150024
340,-1.7960155343900175,-0.19606260256155184,-2.2412485751813964,-0.9560703635215759,0.19480888545513153,0.21904152631759644,1.876436710357666,1.9803667068481445,-1.636791467666626,1.0449222326278687,-0.49613943696022034,-0.1868455410003662
341,-1.7861984787688747,-0.1732881308652355,-2.149660025989562,-0.9622596502304077,0.1724221557378769,0.21053911745548248,-0.5777618288993835,-3.9841949939727783,-0.26459836959838867,-2.5029044151306152,0.01614592969417572,0.4940049350261688
342,-1.7811306072795148,-0.18031395445429196,-2.0863164235146834,-0.9621059894561768,0.17933844029903412,0.20540186762809753,1.3973952531814575,1.116185188293457,-0.4452839493751526,-0.06311678886413574,0.5793132781982422,0.03287935256958008
343,-1.8497632677356626,-0.17532246735397383,-1.8794781564801422,-0.9466032385826111,0.17442567646503448,0.2711414098739624,1.1514384746551514,-2.7217657566070557,0.07451828569173813,1.3478790521621704,-0.18654116988182068,0.010612070560455322
344,-2.1459015972949995,-0.261991526338658,-1.9169334552447934,-0.8105005621910095,0.2590046226978302,0.5253624320030212,-1.7575911283493042,-2.640812873840332,1.4496971368789673,-0.09767216444015503,0.2004985511302948,0.8572059273719788
345,-2.1257337893810244,-0.21149031315677405,-2.160264135017446,-0.8309963345527649,0.20991724729537964,0.5151506662368774,1.2588231563568115,0.2572721540927887,-0.7002072334289551,-0.5593083500862122,-0.16330161690711975,-0.8510728478431702
346,-1.8876406877923442,-0.20497033506936654,-1.8333493274327337,-0.930332362651825,0.20353811979293823,0.30504748225212097,2.824760913848877,2.8602242469787598,-1.8456441164016724,0.9299814105033875,-0.36966052651405334,-0.12722158432006836
347,-1.6661899874581603,-0.1205968815392085,-1.593088219875954,-0.9882234334945679,0.12030477821826935,0.0945572480559349,-0.26886624097824097,-3.0972561836242676,1.103869915008545,0.27299827337265015,-0.34730979800224304,0.2797560691833496
348,-1.8639833483959265,-0.16301755705052115,-1.6807227561764808,-0.9446354508399963,0.16229648888111115,0.28517308831214905,1.3018580675125122,0.04234585911035538,-0.19333411753177643,-1.0870723724365234,0.7406118512153625,-0.1690537929534912
349,-1.7486404033083311,-0.16417501602469461,-1.491719540668646,-0.9709931015968323,0.16343849897384644,0.1745292991399765,1.3640172481536865,1.4795600175857544,-0.2666020095348358,1.05224609375,-0.21161049604415894,0.3358619213104248
350,-1.927838543493571,-0.20409702260479423,-1.4508445835053185,-0.9174880981445312,0.2026830017566681,0.34225034713745117,-0.18460485339164734,-3.7123725414276123,0.4375976324081421,0.9382095336914062,-0.16357475519180298,-0.23829221725463867
351,-2.128696465449705,-0.21403670221325047,-1.6732161030589454,-0.8290103077888489,0.2124062031507492,0.517325758934021,-1.0189783573150635,0.36081576347351074,0.6741376519203186,-1.5330504179000854,0.6499137878417969,0.03946751356124878
352,-2.0217462139524414,-0.23244366715134698,-1.5532649691455434,-0.8758282661437988,0.2303561568260193,0.4240998327732086,2.261369466781616,1.5534169673919678,-1.1734567880630493,0.5270734429359436,-0.30446815490722656,-0.25887778401374817
353,-1.665077119686894,-0.14852295247290961,-1.2834579197567029,-0.9845984578132629,0.14797750115394592,0.09310474991798401,3.319030284881592,2.3004894256591797,-1.1127595901489258,1.1574804782867432,-0.6543251872062683,0.06126844882965088
354,-1.894264041745333,-0.1675966584945584,-1.1685192724595328,-0.9348540306091309,0.16681316494941711,0.3134026825428009,-0.430164098739624,-0.8988121747970581,0.25982898473739624,-1.6644043922424316,0.4295002818107605,0.3483099639415741
355,-1.8303836892171914,-0.15788948844502312,-1.2395661390252757,-0.9544740915298462,0.1572342962026596,0.2534889876842499,1.0677796602249146,1.6018732786178589,-0.3932701647281647,0.7936159372329712,0.1672286093235016,-0.32258081436157227
356,-1.9426035266533772,-0.15034868210137342,-0.9788709705811924,-0.9211621880531311,0.14978289604187012,0.3592013716697693,1.8963338136672974,-2.5350537300109863,-0.7971323132514954,1.4525036811828613,-0.14285539090633392,0.6108455657958984
357,-2.1693758282880973,-0.22066436701722542,-1.0855178417423132,-0.8061047792434692,0.21887792646884918,0.549806535243988,-4.150446891784668,0.6387600302696228,2.8188960552215576,-1.9257829189300537,1.064279317855835,1.0007914304733276
358,-2.1011672553229617,-0.18865679061764096,-1.2032705097826264,-0.8473142385482788,0.18753968179225922,0.49687808752059937,3.1571788787841797,0.5490084290504456,-1.2126588821411133,0.20363730192184448,-0.2941528260707855,-0.5657257437705994
359,-1.821768934723697,-0.1709618101138913,-0.8451568532915282,-0.9545497298240662,0.17013022303581238,0.24472573399543762,2.469203472137451,3.7193522453308105,-2.0578362941741943,1.1089075803756714,-0.498712956905365,-0.045140743255615234
360,-1.893981152050146,-0.14865859813077387,-0.6347415011847172,-0.9377702474594116,0.14811165630817413,0.3140852749347687,-0.7529363036155701,-3.6053926944732666,0.33774763345718384,-2.4400219917297363,0.17566454410552979,1.3663499355316162
361,-1.8982959680473488,-0.14814694415269875,-0.6891101150327912,-0.9364781975746155,0.14760562777519226,0.31815305352211,-0.10983598977327347,2.004704713821411,-0.22578510642051697,0.4291386008262634,0.5103839039802551,-0.42012760043144226
362,-1.8633939961877557,-0.16507285171352068,-0.4838048426797926,-0.9444820284843445,0.16432419419288635,0.2845195233821869,2.8818225860595703,-3.0190162658691406,-0.6262153387069702,1.1092005968093872,-0.07620465755462646,-0.2395671308040619
363,-2.1208033135460864,-0.19975875628088288,-0.41502057873501136,-0.8355680704116821,0.19843289256095886,0.5122991800308228,-2.832958936691284,-1.481569528579712,1.3459677696228027,-1.776294231414795,0.899055540561676,1.4734034538269043
364,-2.107882702769062,-0.16267533152720048,-0.6901469550190927,-0.847859263420105,0.16195879876613617,0.5048798322677612,1.4055455923080444,0.20069776475429535,-0.6806691288948059,-0.2002362608909607,-0.25468647480010986,-0.7635622024536133
365,-1.9322091906844725,-0.17398126051652543,-0.3763509106806439,-0.9212767481803894,0.17310486733913422,0.34825804829597473,2.308135986328125,2.3520195484161377,-1.6219712495803833,0.9888580441474915,-0.3808380365371704,-0.3125678598880768
366,-1.7596209729151355,-0.12857392792739827,-0.1484464943333239,-0.9741178154945374,0.12821997702121735,0.18615517020225525,-0.00775135587900877,-4.584753513336182,0.3744334876537323,-2.7206146717071533,-0.22459450364112854,0.6876088380813599
367,-1.787645065580369,-0.139680240875008,-0.2063997639027426,-0.9670690298080444,0.13922648131847382,0.2130577713251114,1.2306748628616333,2.0694758892059326,-0.3331291675567627,0.20635735988616943,0.4901527762413025,-0.2192680835723877
368,-1.872887018071426,-0.15240505369347582,-0.04817251245132438,-0.9436501860618591,0.1518157422542572,0.29406827688217163,0.8464590907096863,-4.169344425201416,-0.28473615646362305,1.1367502212524414,-0.1502135694026947,-0.3503885269165039
369,-2.226671521209122,-0.23473596293574023,-0.12314716422073424,-0.7707802653312683,0.23258620500564575,0.5931282639503479,-2.080510377883911,-0.294381707906723,3.6911492347717285,-0.40677082538604736,0.14522138237953186,1.0968894958496094
370,-2.144552606349373,-0.14570499566108777,-0.48189791136199667,-0.8309686183929443,0.14518998563289642,0.5370391011238098,1.2319974899291992,0.6822433471679688,-0.6574468016624451,-0.5701543688774109,-0.15495562553405762,-1.0644285678863525
371,-1.9539000070509307,-0.1886508804749484,-0.10159767680398223,-0.9110531210899353,0.1875338852405548,0.36716899275779724,3.200467586517334,2.4999444484710693,-1.7744691371917725,0.9694028496742249,-0.3139682412147522,-0.29876378178596497
372,-1.70903927650759,-0.10050302034475501,0.1484346256320602,-0.9854617118835449,0.10033391416072845,0.13710768520832062,-0.5367494821548462,-2.2359025478363037,2.1358537673950195,0.10771501064300537,-0.5051800608634949,0.4191819429397583
373,-1.8707038352590477,-0.1377228574620209,0.012709466325110913,-0.946317732334137,0.13728788495063782,0.2926344871520996,-1.0450074672698975,1.3351473808288574,0.18185582756996155,-0.6203632354736328,0.7788803577423096,-0.17016741633415222
374,-1.85641002787186,-0.15122569010510933,0.15889469936883438,-0.9485383629798889,0.15064994990825653,0.2785308063030243,1.1904420852661133,-2.043736457824707,-0.35371896624565125,1.0155093669891357,-0.023071229457855225,-0.1876494288444519
375,-2.141991488861604,-0.19546565136711533,0.22600852791696419,-0.8252357244491577,0.1942233443260193,0.530342698097229,-0.5877285003662109,-1.9740705490112305,2.038271188735962,0.40883857011795044,-0.03992646932601929,0.6900094747543335
376,-2.1390869890648254,-0.14233229418138166,-0.21110528735695194,-0.8342992663383484,0.1418522149324417,0.5327498316764832,-1.8180546760559082,1.4755016565322876,0.31867775321006775,-0.7756554484367371,0.1550685465335846,-0.7968643307685852
377,-1.9629826134932764,-0.18532580064938106,0.031994635858453455,-0.9082521200180054,0.18426676094532013,0.3756648004055023,2.8343591690063477,2.4990389347076416,-1.3289577960968018,0.9693481922149658,-0.29934853315353394,-0.36849313974380493
378,-1.7108427335484189,-0.11238404236125854,0.2953444542916163,-0.9839627742767334,0.11214762181043625,0.1387084722518921,1.73101007938385,0.18353046476840973,0.5812987089157104,0.6180723309516907,-0.38689738512039185,0.14144288003444672
379,-1.8502214209265742,-0.14933560630787465,0.2909273479203239,-0.9505161643028259,0.1487811654806137,0.2727334797382355,-1.3393588066101074,0.6643245220184326,0.3464231491088867,-0.7473294734954834,0.3290935754776001,-0.0313851535320282
380,-1.881356145116013,-0.1428389842251724,0.4060875858045598,-0.9424657225608826,0.14235375821590424,0.3024795353412628,2.4207804203033447,-4.274864196777344,-0.7950968742370605,1.1076726913452148,-0.023838728666305542,-0.36577296257019043
381,-2.206728049476572,-0.2181091559060512,0.5173124919593137,-0.7854582071304321,0.21638396382331848,0.5798562169075012,0.5219248533248901,-5.959097862243652,1.8974111080169678,0.3218657970428467,0.030899956822395325,0.5598074793815613
382,-2.234208962356613,-0.16512134949612878,0.21963585845343597,-0.7771787643432617,0.1643720269203186,0.6074333190917969,-1.9994264841079712,2.8311803340911865,0.004177046939730644,-1.1688967943191528,0.3848528265953064,-0.5629844069480896
383,-1.9521989582629564,-0.1781512428327978,0.49438266808389064,-0.9134537577629089,0.17721037566661835,0.3663315176963806,4.025026798248291,3.738849401473999,-1.8474645614624023,0.9661118388175964,-0.35235077142715454,-0.2469162940979004
384,-1.7777657072629498,-0.09998687288706863,0.8588780262805268,-0.973770260810852,0.09982035309076309,0.20446856319904327,1.2691023349761963,-3.2108020782470703,0.6878083944320679,0.5092469453811646,-0.5151951313018799,0.42513954639434814
385,-1.9715204942367526,-0.1538504345862255,0.7405847028562651,-0.9099029898643494,0.15324421226978302,0.385477751493454,-0.667765200138092,-0.23458026349544525,0.2429666966199875,-0.8853089809417725,0.5349271893501282,-0.3976694941520691
386,-1.894357519473182,-0.15747793732623283,0.7919161471218878,-0.9363772869110107,0.15682785212993622,0.31401070952415466,2.003775119781494,0.03547383099794388,-0.2913666069507599,1.0433871746063232,-0.04786485433578491,-0.3952484130859375
387,-2.04524638136971,-0.20696962508634822,0.922362526053249,-0.8705596923828125,0.20549514889717102,0.44709935784339905,-0.4482296109199524,-3.8158817291259766,1.5447537899017334,0.704116702079773,-0.04578137397766113,0.15737754106521606
388,-2.23146388964777,-0.14319027452688837,0.535326695481045,-0.7815018892288208,0.14270146191120148,0.6073638200759888,-4.484422206878662,0.7551098465919495,1.0541057586669922,-1.4881360530853271,0.5598132014274597,-0.5077546238899231
389,-2.0895504318295104,-0.16417579741164065,0.6957847224258482,-0.8567600250244141,0.16343927383422852,0.48913171887397766,3.576444149017334,1.865842580795288,-1.392681360244751,0.8917484283447266,-0.3260674476623535,-0.5019795894622803
390,-1.6944185095852167,-0.10972502504467797,1.040654832166109,-0.9864007830619812,0.10950498282909393,0.12256602942943573,3.7212164402008057,3.570324182510376,-0.35351234674453735,0.7787743806838989,-0.5520403981208801,-0.10118840634822845
391,-1.9161758031284606,-0.1673836666013327,1.0327413561540653,-0.9277963638305664,0.16660314798355103,0.3338221311569214,-1.6930636167526245,0.3585857152938843,0.8106108903884888,-1.3364248275756836,0.9196852445602417,0.06250962615013123
392,-1.8809593318301403,-0.16110250126055117,1.0166263088351812,-0.9399528503417969,0.16040652990341187,0.30126169323921204,1.081526279449463,-0.9475921392440796,-0.06896832585334778,1.1000937223434448,-0.0019134730100631714,-0.38422366976737976
393,-2.16588739881335,-0.20392299426095997,1.096993763039572,-0.8109391331672668,0.20251259207725525,0.5489687919616699,0.08827505260705948,-3.105564832687378,1.0647176504135132,0.8606216311454773,-0.14774876832962036,0.7674070000648499
394,-2.184161539899883,-0.1378195903926779,0.7092382960950352,-0.80996173620224,0.13738371431827545,0.5701643228530884,-4.084439754486084,2.068054676055908,0.4601511061191559,-1.5273336172103882,0.5071170330047607,-0.26483601331710815
395,-2.039496000942232,-0.16190963322690663,0.9534553056530745,-0.8804882764816284,0.16120316088199615,0.44581860303878784,4.341643810272217,2.0269854068756104,-1.73385751247406,0.6992747187614441,-0.27221083641052246,-0.38402050733566284
396,-1.8014861011568657,-0.07458182335524279,1.2586904040533162,-0.9708026051521301,0.07451269775629044,0.22801345586776733,1.3895418643951416,1.697586178779602,-1.4426825046539307,1.0096362829208374,-0.3737986087799072,0.03809976577758789
397,-1.902842413203437,-0.13815767791561384,1.249331735854814,-0.9363690614700317,0.1377185881137848,0.3228718638420105,-0.5769081711769104,-0.0908217579126358,0.4366984963417053,-1.1766374111175537,0.9287333488464355,0.108112633228302
398,-1.9332133945173686,-0.1331144453735032,1.230734629516772,-0.9267704486846924,0.1327216774225235,0.3513988256454468,1.7520719766616821,-2.189393997192383,-0.5122399926185608,1.0218939781188965,-0.10961991548538208,-0.48302119970321655
399,-2.1204438713506595,-0.13937044866700643,1.3655769387028307,-0.8444406986236572,0.13891969621181488,0.5173215866088867,-0.4662378132343292,-2.0907557010650635,0.7359001636505127,1.1164283752441406,-0.1729772686958313,-0.17111480236053467
400,-2.2446476749831663,-0.1560653262539242,1.0137762147301768,-0.7719271779060364,0.1554325670003891,0.616416335105896,-5.472485542297363,0.9492200016975403,1.7153127193450928,-1.915588140487671,0.8274165391921997,-0.0035318732261657715
401,-2.1591228179944926,-0.13817640413249296,1.0316732101056683,-0.8239420056343079,0.13773712515830994,0.549680233001709,3.3294172286987305,1.8115062713623047,-1.2689669132232666,0.6473214626312256,-0.2846945524215698,-0.6061682105064392
402,-1.8448486162748794,-0.10653245715757707,1.3505177150498682,-0.9572246074676514,0.10633106529712677,0.26910045742988586,2.179978609085083,2.085937261581421,-1.5008800029754639,1.0779825448989868,-0.3797838091850281,-0.1713220775127411
403,-1.9520380869530465,-0.16176772949127408,1.404599482306695,-0.916084885597229,0.16106310486793518,0.367215633392334,-1.0569100379943848,-0.4615652859210968,0.8045555949211121,-1.5712655782699585,0.5530940294265747,0.4174065589904785
404,-1.8784168632004727,-0.17643299674127694,1.349349221293105,-0.9382616877555847,0.17551906406879425,0.29809126257896423,1.002651333808899,0.28653958439826965,-0.12447204440832138,0.8717942833900452,-0.06928734481334686,-0.47233137488365173
405,-2.0473615100956635,-0.19207647863356847,1.5154858686354278,-0.8722350001335144,0.190897598862648,0.45029377937316895,0.5200465321540833,-2.4642677307128906,0.609082043170929,1.322826862335205,-0.28165680170059204,0.08370286226272583
406,-2.2290891971948046,-0.2148104784704558,1.2349455421477156,-0.772857129573822,0.21316227316856384,0.5977069139480591,-5.43727445602417,2.165961742401123,1.5626932382583618,-2.313660144805908,1.2805968523025513,0.7328594326972961
407,-2.0766947228374395,-0.19450058100925033,1.3104062346283034,-0.8582457900047302,0.1932765543460846,0.47545623779296875,4.315899848937988,2.0470149517059326,-1.7226089239120483,0.49021899700164795,-0.3145991563796997,-0.3659438490867615
408,-1.7504202693926412,-0.11095893326573796,1.6919789355191672,-0.9778602719306946,0.11073138564825058,0.17756089568138123,1.8722647428512573,2.616583824157715,-2.3794217109680176,1.1769417524337769,-0.3615553677082062,0.009847640991210938
409,-1.9370837211943017,-0.14494078438297153,1.7043799241524862,-0.9238734245300293,0.14443384110927582,0.35439613461494446,-0.13917815685272217,-1.4970903396606445,-0.1036781370639801,-2.6065220832824707,0.4840298891067505,1.066044569015503
410,-1.9438866450951093,-0.13634481924300132,1.6433473266854404,-0.9225634336471558,0.13592277467250824,0.36111223697662354,-0.8902485966682434,-0.022631976753473282,-0.08845143765211105,0.6172654628753662,0.33627575635910034,-0.527753472328186
411,-1.9533320493174198,-0.18985559178008618,1.6704664575947787,-0.911051332950592,0.1887170821428299,0.366566926240921,2.6937038898468018,-2.5361697673797607,0.5714696049690247,1.1114450693130493,-0.1411859691143036,-0.491505891084671
412,-2.1855531151824046,-0.21775621784699178,1.7254333683841367,-0.7976222038269043,0.21603937447071075,0.5631395578384399,-2.95517635345459,-0.4457475543022156,-2.772490978240967,-1.4422765970230103,1.0207313299179077,1.180650234222412
413,-2.158007853987495,-0.1068913095413244,1.518584730377166,-0.8277373909950256,0.10668787360191345,0.5508795976638794,0.9903619885444641,2.128633737564087,-0.7087379693984985,0.037744224071502686,-0.40110623836517334,-0.7674171328544617
414,-1.9549648078916992,-0.1377655371837278,1.780642495299196,-0.9183263182640076,0.13733017444610596,0.3712373673915863,2.3115363121032715,1.0465720891952515,-1.3481061458587646,1.0520696640014648,-0.34652814269065857,-0.5038820505142212
415,-1.9610804779910591,-0.17875723399495683,2.0254239898931994,-0.9100647568702698,0.17780674993991852,0.3743889331817627,1.6481629610061646,-0.3402303457260132,-0.4863310158252716,-1.533599853515625,0.13171778619289398,1.2792365550994873
416,-1.9861579061536698,-0.1730850239921996,1.9503793097262405,-0.9012991189956665,0.1722220927476883,0.397491455078125,-2.0212137699127197,0.7982786297798157,0.8196436762809753,0.374458909034729,0.3628578782081604,-0.270599365234375
417,-1.907483714256005,-0.21228483960995576,1.842067537503228,-0.9226664900779724,0.21069400012493134,0.3229462802410126,0.3519945740699768,0.3227102756500244,1.0379072427749634,1.0931377410888672,-0.1642005294561386,-0.37223225831985474
418,-2.1156376823634657,-0.2854083891695076,1.965233128621868,-0.8206136226654053,0.281549334526062,0.49731630086898804,-0.16526935994625092,-0.4136689305305481,-2.1932168006896973,-1.0405009984970093,0.808172345161438,1.1209087371826172
419,-2.1901042060063554,-0.1294426612990997,1.7840944238611203,-0.8074682950973511,0.12908148765563965,0.5756155848503113,-0.35568609833717346,1.3808101415634155,-0.6332712173461914,0.002719581127166748,-0.35993167757987976,-0.8732229471206665
420,-1.9996516670201145,-0.15688160040663976,2.0290743892625973,-0.898273766040802,0.1562388688325882,0.41072338819503784,2.411224126815796,1.1116195917129517,-1.3200880289077759,0.9598124027252197,-0.3861735761165619,-0.4003474712371826
421,-1.9951038727583745,-0.15930754422437304,2.227701990515369,-0.8997842669487,0.15863455832004547,0.406476765871048,2.199101448059082,-2.293095111846924,-0.7327980995178223,-1.7319600582122803,-0.04864919185638428,0.7290976047515869
422,-2.04344065385007,-0.17425582712864593,2.294495631316771,-0.8768836259841919,0.17337527871131897,0.44834795594215393,-0.9700747728347778,0.22306548058986664,0.6936715245246887,-0.12120890617370605,0.28104668855667114,-0.2206716239452362
423,-1.9915397113858007,-0.2229133539140512,2.2913428201750947,-0.8902007937431335,0.22107182443141937,0.39833325147628784,2.743506908416748,-1.9646952152252197,-0.02906716614961624,1.0617402791976929,-0.14132943749427795,-0.5842311978340149
424,-2.229722872906388,-0.33019532570119275,2.4205106171231767,-0.7479382753372192,0.32422780990600586,0.579193115234375,-0.35190603137016296,-3.791234254837036,0.9079757928848267,-0.18112361431121826,0.15340277552604675,0.8709105849266052
425,-2.30239743898978,-0.19400743605796497,2.1898010341888057,-0.7301459312438965,0.19279268383979797,0.655528724193573,-1.723438024520874,1.0429147481918335,0.0276882853358984,-0.34361499547958374,-0.21177464723587036,-0.662456214427948
426,-2.0368673030737976,-0.21490765209537407,2.4122920296907435,-0.8727903366088867,0.21325720846652985,0.43904224038124084,3.130470037460327,2.51859974861145,-1.253007173538208,0.9977904558181763,-0.3692478537559509,-0.4793103337287903
427,-1.8316424614916276,-0.20540892567799746,2.664768007960584,-0.9458608627319336,0.20396751165390015,0.2524765133857727,1.839337944984436,-2.5927233695983887,0.8293091654777527,-0.9511117339134216,-0.7259401679039001,0.39020833373069763
428,-1.9526375164788834,-0.21925122699848013,2.661563561832165,-0.9057648777961731,0.21749883890151978,0.36370915174484253,-1.9388561248779297,-0.20012332499027252,0.8693844079971313,-0.5698820948600769,0.6203002333641052,0.018187761306762695
429,-1.9098189483545769,-0.2256044136147935,2.5990425241472517,-0.9191817045211792,0.22369550168514252,0.32413801550865173,1.0120021104812622,-0.4403110146522522,0.19367632269859314,1.0433576107025146,-0.17353984713554382,-0.41616377234458923
430,-2.1093639927292602,-0.26505636899638246,2.7560790722171102,-0.828465461730957,0.2619636654853821,0.4949950873851776,0.4806141257286072,-2.84700345993042,0.8443222045898438,0.873204231262207,-0.12768632173538208,0.4813385009765625
431,-2.215897577184307,-0.20371675727710442,2.434308561617689,-0.782515823841095,0.20231062173843384,0.5888457298278809,-3.6000688076019287,1.5557104349136353,0.6409992575645447,-1.2741705179214478,0.36704057455062866,-0.22062069177627563
432,-2.044562967408812,-0.21835591903100265,2.656952321130983,-0.8687263131141663,0.21662487089633942,0.44540777802467346,3.4168026447296143,1.571211814880371,-1.685097575187683,0.8007180094718933,-0.3796040415763855,-0.41736215353012085
433,-1.7973738217024613,-0.16693102795395812,2.9245085323492543,-0.9608955979347229,0.1661568284034729,0.22152112424373627,1.778365969657898,1.9825118780136108,-0.4341931641101837,0.7611885666847229,-0.5288429856300354,0.21381211280822754
434,-1.9760710691197443,-0.1861701886413798,2.976232501436617,-0.9031143188476562,0.1850966215133667,0.3874584436416626,-1.1052461862564087,-0.4762172996997833,0.9234663248062134,-1.6536942720413208,0.5067673921585083,0.2530445456504822
435,-1.9092841094417714,-0.20925384966304256,2.955903254460916,-0.922681987285614,0.20773008465766907,0.32481759786605835,2.2969768047332764,-0.324014276266098,-0.20826378464698792,1.0566234588623047,-0.08701777458190918,-0.45114514231681824
436,-2.0433138017209114,-0.2861360571765995,-3.0953318568055734,-0.8542220592498779,0.28224751353263855,0.4366244971752167,-0.1686534583568573,-3.8388266563415527,0.8976200819015503,0.9968917965888977,-0.11408039927482605,-0.01424601674079895
437,-2.2482432144363194,-0.22085526197693914,2.871097982671024,-0.760249674320221,0.21906419098377228,0.6115809082984924,-4.484106540679932,2.0467004776000977,1.2500123977661133,-1.8091928958892822,0.6906495094299316,0.11254018545150757
438,-2.0737311581389606,-0.20067781558240474,3.0266045637462127,-0.8585883975028992,0.19933359324932098,0.4723260700702667,4.015047550201416,1.9061179161071777,-1.934443712234497,0.7777321934700012,-0.4026569724082947,-0.5142114758491516
439,-1.7339384529302446,-0.13205110315074028,-2.8907112004830817,-0.9781314134597778,0.13166765868663788,0.1610053926706314,2.0871851444244385,2.140284299850464,-1.1862494945526123,1.0094423294067383,-0.4576106667518616,0.12553943693637848
440,-1.9301147366596074,-0.1791779875518184,-2.836303698934106,-0.9211495518684387,0.17822077870368958,0.34600672125816345,-0.15026696026325226,-0.12068963050842285,0.3888377547264099,-1.421928882598877,0.41081422567367554,0.3426835238933563
441,-1.9219346084971674,-0.1879799228460835,-2.8298526629026584,-0.9224404096603394,0.18687479197978973,0.33790743350982666,1.038528323173523,0.48206421732902527,-0.125862255692482,0.8462685942649841,0.10966451466083527,-0.44011080265045166
442,-1.9889051094959063,-0.26921993614065676,-2.6326692470810364,-0.8809400796890259,0.2659795582294464,0.3914070427417755,2.7477662563323975,-4.005664348602295,-0.6157039999961853,1.1515700817108154,-0.1467931568622589,0.059780120849609375
443,-2.2135745114797234,-0.23965478060162046,-2.6365910986652485,-0.7775570154190063,0.23736728727817535,0.5822899341583252,-4.468851566314697,-0.25327739119529724,1.4645304679870605,-1.8411715030670166,1.0068343877792358,0.9610297083854675
444,-2.075741146487899,-0.18222145116534624,-2.698440333136046,-0.8607109189033508,0.18121469020843506,0.47574979066848755,3.5974485874176025,1.5880123376846313,-1.5995012521743774,0.4712151885032654,-0.42059457302093506,-0.7561758160591125
445,-1.7953949547027115,-0.12479607755907128,-2.3490252861206575,-0.9673020243644714,0.12447240203619003,0.22098305821418762,2.0903429985046387,2.710174798965454,-2.3537230491638184,1.1768966913223267,-0.48714327812194824,-0.11931371688842773
446,-1.867590099922793,-0.14329996379275847,-2.191633953085851,-0.9464772939682007,0.14281003177165985,0.2894580066204071,1.0714547634124756,-3.295600175857544,-0.4090500771999359,-2.9114480018615723,0.518780529499054,1.4761823415756226
447,-1.9108569914772744,-0.1385881915736906,-2.266173065009139,-0.9336954355239868,0.13814498484134674,0.3303462564945221,-1.582727313041687,0.477997362613678,0.12308169156312943,0.7050120234489441,0.30219316482543945,-0.4903804361820221
448,-1.8773522632178299,-0.22800395473794152,-2.28825812409694,-0.9287046790122986,0.22603358328342438,0.2939668297767639,1.104114294052124,0.005832658149302006,1.9793264865875244,1.1542296409606934,-0.19594323635101318,-0.26047372817993164
449,-2.0446773800290505,-0.42355353768782905,-2.282893734506084,-0.8111758232116699,0.41100257635116577,0.4160180389881134,0.010858970694243908,-1.4860180616378784,0.4315396845340729,-0.7889524698257446,0.690926194190979,0.7147040963172913
450,-2.099604278546244,-0.16163684744422796,-2.281961619045081,-0.8521549105644226,0.16093392670154572,0.4979284703731537,1.9432920217514038,2.1905741691589355,-1.146976351737976,0.012616217136383057,-0.4378504157066345,-0.669864296913147
451,-1.7872059568035907,-0.1292316813253027,-1.9547971004435774,-0.9685303568840027,0.12887227535247803,0.21293383836746216,2.200603485107422,3.56453013420105,-1.591639757156372,1.2856080532073975,-0.744289755821228,-0.07769526541233063
452,-1.8673293325436147,-0.13642382108407858,-1.740537181489097,-0.9474693536758423,0.13600103557109833,0.2894912660121918,0.2567521631717682,-5.840048789978027,0.1631210446357727,-2.8192999362945557,0.2647862732410431,1.2897322177886963
453,-1.950266400230959,-0.12700314880397665,-1.8667754669629348,-0.921379804611206,0.1266620010137558,0.367444783449173,-2.1401076316833496,1.5111825466156006,0.0894959345459938,0.5354089140892029,0.5187084674835205,-0.5280740261077881
454,-1.8557263172408371,-0.17581482548734478,-1.9167181738470636,-0.9448873400688171,0.17491045594215393,0.2767571210861206,0.5128117203712463,0.4656214118003845,1.3487217426300049,1.1405965089797974,-0.11366170644760132,-0.2909477949142456
455,-2.0603761721531058,-0.31238171192596637,-1.9090328204105422,-0.8398196697235107,0.30732595920562744,0.4474967420101166,0.5468794107437134,-3.1925151348114014,1.3380900621414185,-0.41172128915786743,0.38968023657798767,0.887662410736084
456,-2.1373885283826373,-0.13181412925444347,-2.002619875069271,-0.8364156484603882,0.13143275678157806,0.5321035385131836,-0.0012858668342232704,1.2560268640518188,-0.7453187704086304,-0.17449432611465454,-0.29259610176086426,-0.5593710541725159
457,-1.8921030041039637,-0.13712744972309882,-1.7201360615615997,-0.939916729927063,0.13669809699058533,0.31284210085868835,2.5142791271209717,2.30892014503479,-1.5410265922546387,1.1195279359817505,-0.5255225896835327,-0.29831576347351074
458,-1.7277412867012047,-0.11441131798177716,-1.5193551865114336,-0.9812518954277039,0.11416187137365341,0.15527957677841187,0.23280416429042816,-6.450405120849609,1.1044936180114746,-1.4599559307098389,-0.4522051215171814,0.30774831771850586
459,-1.8945957603991368,-0.13598234793716388,-1.5355322524321133,-0.939281702041626,0.1355636566877365,0.31523367762565613,-1.7227510213851929,0.350813090801239,0.32532262802124023,-0.5573155283927917,0.7875625491142273,-0.1028619110584259
460,-1.8139622820523014,-0.12902382892514663,-1.5448972939743777,-0.9625130295753479,0.12866614758968353,0.23877529799938202,0.09255161881446838,0.25930705666542053,0.3468203842639923,1.0671578645706177,-0.08787940442562103,-0.2604275047779083
461,-2.0270181550355724,-0.160547865122866,-1.4141774649489542,-0.8861786127090454,0.1598590463399887,0.4348938763141632,1.2535158395767212,-4.007154941558838,1.2726988792419434,0.5373474359512329,-0.1483081877231598,0.2953612804412842
462,-2.1638309368057955,-0.11976027226140741,-1.6385529989190273,-0.823309063911438,0.11947420239448547,0.5548770427703857,-2.6235692501068115,0.3864675462245941,0.43523046374320984,-0.8651828765869141,0.13025115430355072,-0.31006497144699097
463,-2.0215296138976337,-0.12421358075536373,-1.4132827518688376,-0.8931926488876343,0.12389440834522247,0.4322693347930908,3.18713641166687,1.4093208312988281,-1.4222872257232666,0.9474530816078186,-0.34020301699638367,-0.6075166463851929
464,-1.8356822023947952,-0.08084302323319645,-1.1131178862962774,-0.9619700908660889,0.08075499534606934,0.26094403862953186,2.2050111293792725,1.677342176437378,0.5192762613296509,0.763789176940918,-0.4392297565937042,0.013653099536895752
465,-1.9143159629628235,-0.12834683830933144,-0.9635511630239434,-0.9338304400444031,0.12799476087093353,0.33403289318084717,-1.2678213119506836,-0.09198987483978271,0.6443625092506409,-1.1932294368743896,0.7403676509857178,0.33570584654808044
466,-1.7755366187991657,-0.12901165444726417,-0.9609971559685443,-0.9709768891334534,0.12865407764911652,0.20162324607372284,1.7098863124847412,0.2455957978963852,-0.23195604979991913,0.9464408159255981,-0.024161919951438904,-0.28298306465148926
467,-1.9332531520829332,-0.13575181658471544,-0.7042704628417091,-0.9264262318611145,0.13533525168895721,0.3513104319572449,-0.0049032773822546005,-2.666187047958374,0.2887422740459442,1.0580027103424072,-0.013509079813957214,0.35341671109199524
468,-2.1543686374995543,-0.1789749466641924,-0.9819702301871115,-0.8211700320243835,0.17802098393440247,0.5422072410583496,-3.3111073970794678,0.5026620626449585,0.8725166916847229,-1.4036836624145508,0.5861392021179199,-0.19241464138031006
469,-2.028999705421013,-0.1850072523596591,-0.7918663130635033,-0.8815438747406006,0.183953657746315,0.4347890019416809,3.052797794342041,1.7295920848846436,-1.40283203125,0.7049996852874756,-0.2927335500717163,-0.4035695791244507
470,-1.786632166882546,-0.13905974077198768,-0.5499312496445187,-0.9673684239387512,0.13861198723316193,0.21209657192230225,1.7902928590774536,2.0797555446624756,-0.16579215228557587,0.7236093282699585,-0.49961966276168823,0.008331894874572754
471,-1.8726342457584955,-0.1296671456964227,-0.3325601242755676,-0.9467762112617493,0.12930409610271454,0.294779896736145,-0.1795230358839035,-1.055527925491333,0.4559091329574585,-1.4199076890945435,0.35319405794143677,0.406269907951355
472,-1.8474582011431115,-0.12848197341286346,-0.44815012973215584,-0.954043447971344,0.128128781914711,0.2708945572376251,0.26089659333229065,1.6813724040985107,0.015654250979423523,0.9232818484306335,0.1458427608013153,-0.3119101822376251
473,-1.885320716498274,-0.1851565482268954,-0.3178984914183803,-0.9346894025802612,0.18410040438175201,0.30407634377479553,0.39590537548065186,-1.532002568244934,0.6754763126373291,1.4888429641723633,-0.013034135103225708,0.6736763715744019
474,-2.166880785714219,-0.1588306648162865,-0.4639860200259685,-0.8171237707138062,0.15816369652748108,0.5543400049209595,-5.34614372253418,-1.8156193494796753,0.9638639688491821,-1.4933619499206543,0.9107449650764465,0.18429213762283325
475,-2.1081938537716987,-0.11452178796846066,-0.5505546088053259,-0.8534166216850281,0.1142716184258461,0.5085488557815552,3.5493721961975098,1.6099331378936768,-0.9558205604553223,0.8051072955131531,-0.3780655860900879,-0.7864420413970947
476,-1.951708524521191,-0.11354558250926888,-0.26418916099251455,-0.922347903251648,0.11330175399780273,0.3693734407424927,1.3019435405731201,1.1209334135055542,-0.9406059384346008,0.9350586533546448,-0.5095419883728027,-0.29556670784950256
477,-1.9549225093066553,-0.1223402901276315,0.0512483754818326,-0.9201965928077698,0.12203533947467804,0.37194812297821045,1.6569969654083252,-0.7133070826530457,-0.27440330386161804,-1.841613531112671,0.5495954751968384,0.9783936142921448
478,-1.921165498899209,-0.12028444168736972,-0.0537281681501371,-0.9324595332145691,0.11999459564685822,0.34076446294784546,-0.25057172775268555,2.3947741985321045,0.06281602382659912,0.8056437969207764,0.3179631531238556,-0.3021598160266876
479,-1.9502824397704124,-0.17698464623339694,0.14183315108407,-0.9143456220626831,0.17606212198734283,0.364656537771225,0.961525559425354,-1.4120879173278809,0.6331939101219177,1.5550925731658936,0.03098440170288086,0.3771952688694
480,-2.2036728364324456,-0.1599794166215358,-0.011141458097512448,-0.7960329055786133,0.1592978835105896,0.5839138031005859,-3.868936061859131,2.1393935680389404,3.048252582550049,-1.9903132915496826,0.4391212463378906,1.261285662651062
481,-2.1347943365155295,-0.13111190478330148,-0.03566828379481533,-0.8378710746765137,0.1307365894317627,0.5299811363220215,3.5914547443389893,1.013052225112915,-1.4660272598266602,0.42309141159057617,-0.2127220630645752,-0.589780330657959
482,-1.9006330891988767,-0.12061672104933908,0.2928732037074056,-0.9392216205596924,0.12032447010278702,0.32153546810150146,1.9710485935211182,1.97107994556427,-1.6290850639343262,1.0338108539581299,-0.3197263181209564,-0.24650797247886658
483,-1.8709333034898703,-0.10800848052805025,0.4219252561088946,-0.9497293829917908,0.10779859870672226,0.29392826557159424,-0.5559630990028381,-0.966944694519043,0.37744244933128357,-1.617180585861206,0.25887012481689453,0.6730059385299683
484,-1.8326349622162508,-0.13793266798593615,0.3387237685392077,-0.9567417502403259,0.1374957114458084,0.25639840960502625,1.1752830743789673,0.02111981436610222,-0.12508544325828552,0.6441502571105957,0.3266461193561554,-0.34346500039100647
485,-2.037517748254814,-0.16178362039939367,0.5687298483575622,-0.881386399269104,0.1610787957906723,0.44408494234085083,1.3848392963409424,-1.6951810121536255,-0.33274155855178833,1.340294599533081,-0.1073678731918335,-0.05362778902053833
486,-2.268854853241831,-0.2616438333204564,0.4732683050919335,-0.7400184869766235,0.25866878032684326,0.6208569407463074,-4.554021835327148,3.5958445072174072,1.986035943031311,-1.605074405670166,0.7799664735794067,1.5283892154693604
487,-2.1229569698853363,-0.1544438995782699,0.28975937778966565,-0.8412591814994812,0.1538306474685669,0.5182846188545227,4.008456230163574,0.569686233997345,-1.6651647090911865,0.2655603885650635,-0.3455878496170044,-0.9262742400169373
488,-1.7661643796722764,-0.13465963032206701,0.6885862343067166,-0.9720957279205322,0.13425302505493164,0.19237020611763,3.017151117324829,4.761651992797852,-2.302769422531128,1.2122385501861572,-0.39543771743774414,-0.04925799369812012
489,-1.89089531210634,-0.10328132105238948,0.8168185646998515,-0.9441462159156799,0.10309780389070511,0.31298378109931946,-1.1847786903381348,-2.3876025676727295,0.5705195665359497,-3.160651206970215,0.302526593208313,1.510960340499878
490,-1.9349038334286952,-0.11818290313367327,0.6721956914205496,-0.9279236197471619,0.11790797859430313,0.35363131761550903,-0.013083181343972683,-0.5318997502326965,-0.07292298972606659,0.5481172800064087,0.5838131904602051,-0.6962675452232361
491,-2.0818996185262177,-0.21165544128168723,0.8505051771750635,-0.8527415990829468,0.21007868647575378,0.47822439670562744,2.041936159133911,-1.6699107885360718,0.5365771055221558,1.5191082954406738,0.008305072784423828,0.2943127751350403
492,-2.317377586329407,-0.25792991040854246,0.7833378394607212,-0.7097339034080505,0.2550794780254364,0.6566677689552307,-4.125826835632324,0.8082839250564575,-0.7392184734344482,-1.5357190370559692,1.0701463222503662,1.253061294555664
493,-2.1382617734252016,-0.09773944697796812,0.6428008413101616,-0.8392412066459656,0.09758390486240387,0.5349310636520386,3.0997695922851562,2.8626389503479004,-1.3187297582626343,0.5323566198348999,-0.4511758089065552,-1.0366249084472656
494,-1.8468070557689493,-0.09763711840900487,0.977307866127064,-0.9575676321983337,0.09748206287622452,0.2712215781211853,3.176908254623413,4.299314975738525,-1.6713223457336426,1.0661646127700806,-0.4134153127670288,-0.20669224858283997
495,-1.9022004203771135,-0.08794636820582964,1.1300451857870826,-0.9419319033622742,0.08783303946256638,0.32411354780197144,-0.3095724284648895,-1.227623462677002,0.5801639556884766,-1.714287519454956,0.3657039701938629,1.0706008672714233
496,-1.912069351060339,-0.11887261239339059,1.0352238651012031,-0.9356793761253357,0.11859285086393356,0.3323251008987427,0.47095662355422974,0.3320762515068054,-0.09531749784946442,0.8037213683128357,0.25076138973236084,-0.4516792297363281
497,-1.988047093806378,-0.19087197495056465,1.1687457767464684,-0.8976038694381714,0.18971510231494904,0.39788901805877686,2.3527255058288574,-2.7899813652038574,-0.31579309701919556,1.1295373439788818,-0.14215341210365295,-0.17164689302444458
498,-2.1978355647252386,-0.2075577420155192,1.1399942443960063,-0.7923882007598877,0.206070676445961,0.5741563439369202,-4.880786418914795,-1.445189118385315,-1.1461502313613892,-2.2839207649230957,1.4763634204864502,2.112107515335083
