,attitude.roll,attitude.pitch,attitude.yaw,gravity.x,gravity.y,gravity.z,rotationRate.x,rotationRate.y,rotationRate.z,userAcceleration.x,userAcceleration.y,userAcceleration.z
0,0.033811444042305606,0.6858854435799945,-2.0411964278174675,0.026160290464758873,-0.6333584785461426,-0.77341628074646,3.664928913116455,1.4853068590164185,0.28841179609298706,-0.20590880513191223,-0.15249967575073242,0.48630690574645996
1,0.11863125034232648,0.6695412844941981,-2.0029714214029744,0.09280148893594742,-0.6206263899803162,-0.7785953283309937,0.13534310460090637,-0.8509912490844727,-0.106271892786026,0.008425287902355194,-0.0047092437744140625,0.2593998312950134
2,0.06620952509235283,0.517462140220107,-1.9108119123718823,0.05749917030334473,-0.4946761429309845,-0.8671731948852539,-1.8721864223480225,1.9035873413085938,0.5390577912330627,-0.22809244692325592,0.116731196641922,-0.2068166732788086
3,0.09321792228983983,0.5246342414615617,-1.9249147929331898,0.080563984811306,-0.5008964538574219,-0.8617494702339172,2.2458314895629883,-3.5543649196624756,0.02424905262887478,0.0401482954621315,0.07249075174331665,-0.02618992328643799
4,-0.028064682238164506,0.5701044960237962,-1.9541659099791917,-0.02362300083041191,-0.5397199988365173,-0.8415130972862244,-0.2594029903411865,-1.4741742610931396,-0.13838931918144226,0.040682315826416016,-0.03880167007446289,0.17536014318466187
5,-0.9497386748943406,1.0799109625654182,-1.7851988337865916,-0.38337820768356323,-0.881915807723999,-0.27430975437164307,10.159956932067871,-14.281018257141113,-3.306476593017578,0.34263724088668823,0.5579564571380615,-0.09972894191741943
6,-0.6178624781597054,0.9112556293606671,-2.2090867119789617,-0.3549647927284241,-0.7902737259864807,-0.4994671642780304,-21.021076202392578,16.959474563598633,5.612724781036377,1.6255336999893188,2.0961360931396484,1.2485058307647705
7,-0.963624204922945,0.8537369900086695,-2.0123953271354695,-0.5397112369537354,-0.7537415027618408,-0.37494707107543945,17.183643341064453,-14.179200172424316,-3.379474401473999,1.2153246402740479,1.2434877157211304,-0.8516154289245605
8,-1.9671081469853866,0.9210492421160541,-1.259928477537516,-0.5580934882164001,-0.7962368130683899,0.23353561758995056,-14.764689445495605,9.691624641418457,6.937548637390137,1.5750306844711304,1.2728297710418701,1.796798825263977
9,-1.499266931119941,0.394093075008851,-1.601087322342983,-0.920984148979187,-0.3839709460735321,-0.06599002331495285,20.612993240356445,-19.280410766601562,-2.453230857849121,-0.24600815773010254,1.3657366037368774,-2.0311169624328613
10,-1.5454219229067105,-0.11051783228846321,-1.4214515639627958,-0.9935792088508606,0.11029298603534698,-0.02521689236164093,-18.861711502075195,20.289424896240234,6.471821308135986,0.4333222508430481,1.798169493675232,1.123483419418335
11,-1.7299984975540568,-0.3820354338505205,-1.1112789997934944,-0.9161734580993652,0.3728099465370178,0.14710168540477753,18.874980926513672,-0.35251861810684204,2.457913398742676,-0.3309120535850525,2.0595479011535645,0.23004983365535736
12,-1.4422568889963618,-0.3161041901776714,-2.0856142341426995,-0.9426127076148987,0.3108661472797394,-0.1218346506357193,-1.1486124992370605,-6.793087482452393,-0.5914362072944641,2.1304636001586914,1.675584077835083,-3.9004430770874023
13,-1.4812492626634006,-0.39850831389990243,-0.7900348988143747,-0.917948305606842,0.38804396986961365,-0.0824199914932251,-8.312792778015137,4.992481708526611,0.6168619394302368,0.291681706905365,0.523043155670166,6.511359691619873
14,-1.5735718689470082,-0.3541590496382813,-1.5488644821967843,-0.937934935092926,0.3468017280101776,0.0026032847817987204,21.099010467529297,-5.9735918045043945,2.0082006454467773,0.41956329345703125,2.6835479736328125,-4.031060695648193
15,-1.482454666173506,-0.41677941251933515,-0.8829016084137784,-0.9108318090438843,0.404817670583725,-0.08067437261343002,-18.325634002685547,8.486505508422852,-4.020392417907715,-0.6498982310295105,1.4442882537841797,1.842881441116333
16,-1.4516015436441525,-0.42468326763192354,-0.3876370899213605,-0.9047042727470398,0.41203221678733826,-0.10834963619709015,16.922880172729492,-6.0190935134887695,1.6233696937561035,0.9901534914970398,3.061387062072754,2.926785469055176
17,-1.721078904803018,-0.41089760202340836,-1.269800359341969,-0.9064297080039978,0.39943239092826843,0.1372554451227188,12.328368186950684,-4.519244194030762,1.217052936553955,0.402737021446228,0.6496856212615967,-7.506060600280762
18,-1.4260926909004716,-0.44623463162887844,-0.6467969236520345,-0.8926507234573364,0.43157193064689636,-0.130078986287117,-17.062471389770508,4.2859063148498535,-3.4065425395965576,-0.4098548889160156,1.2534103393554688,1.0432106256484985
19,-1.321475643287755,-0.359011200328741,-0.13617545665458752,-0.907296359539032,0.3513486385345459,-0.23101438581943512,5.9593939781188965,3.1116838455200195,0.34584498405456543,0.12117868661880493,0.8208315372467041,3.4152793884277344
20,-1.5354769236488772,-0.3522272096655887,-0.5851820139306101,-0.9380213022232056,0.3449891209602356,-0.033144135028123856,13.858680725097656,-0.7170349359512329,1.666418194770813,0.05433911085128784,1.2990691661834717,-2.9313488006591797
21,-1.4960896159123773,-0.2451539231303735,-0.12041301136209037,-0.9673941135406494,0.24270564317703247,-0.07240558415651321,-13.607026100158691,4.292159557342529,-4.100534915924072,-0.7033822536468506,1.0357673168182373,1.6132838726043701
22,-1.496514658216192,-0.20664539370746754,-0.35535357307434623,-0.9760257005691528,0.20517782866954803,-0.07263445854187012,22.204357147216797,-4.7323479652404785,0.7023350596427917,0.07604712247848511,2.4854350090026855,-1.1410191059112549
23,-1.3954044013126123,-0.1722516781527649,-0.33828929369847915,-0.9700867533683777,0.17140114307403564,-0.1719118058681488,-17.629552841186523,3.7508890628814697,-6.547488689422607,-0.09606021642684937,1.9619759321212769,0.2698274850845337
24,-1.515497329457729,-0.20934015126891045,0.19293825979304374,-0.9766730070114136,0.20781449973583221,-0.05406415835022926,18.16210174560547,-4.207875728607178,0.26522254943847656,-0.15624624490737915,2.1536357402801514,1.5986045598983765
25,-1.409869172426759,-0.11295292937593704,-0.4436154058995425,-0.9807890057563782,0.11271289736032486,-0.1592123657464981,-11.689836502075195,-7.210158348083496,0.9683642387390137,2.44342041015625,1.5014381408691406,-2.2179086208343506
26,-1.396231781798234,-0.24547815673401868,0.40624795357764876,-0.9552791118621826,0.2430201768875122,-0.16847261786460876,-0.15110346674919128,1.3323057889938354,-1.1037771701812744,-0.6320621967315674,0.4206150770187378,4.171707630157471
27,-1.4153398893565916,-0.15648709765177804,-0.5332684633272773,-0.9758692979812622,0.15584920346736908,-0.15293917059898376,6.1438822746276855,-5.2284836769104,3.7534167766571045,1.4599084854125977,0.2526133358478546,-4.548491954803467
28,-1.3129434307552534,-0.10814953296909159,0.6381180955798992,-0.9612904787063599,0.10793883353471756,-0.25351518392562866,-3.6267309188842773,6.836923122406006,-2.433811664581299,-0.7764261960983276,0.946596086025238,5.332845687866211
29,-1.43198622038636,-0.14518347396277145,-0.2510612254850684,-0.9799619317054749,0.14467397332191467,-0.13690908253192902,11.06718921661377,-2.25103497505188,5.48477840423584,0.48295265436172485,1.7009223699569702,-2.703758478164673
30,-1.4146376028788272,-0.16824064277116219,0.6983256877812847,-0.973884642124176,0.16744808852672577,-0.15332895517349243,-1.245132565498352,-1.2759590148925781,2.776876926422119,0.8180466890335083,0.36889833211898804,1.2326745986938477
31,-1.6017863679858533,-0.4558371369166761,0.7511361292218873,-0.8974615335464478,0.4402141273021698,0.02782127633690834,6.647719383239746,-2.919114351272583,5.361899375915527,0.8348243832588196,1.1255207061767578,-0.9212996959686279
32,-1.178813857357256,-0.8116558718765887,1.5493634008884252,-0.636093258857727,0.7254279255867004,-0.2629445791244507,4.055180072784424,2.2607030868530273,1.6857661008834839,-1.6425780057907104,-0.29282599687576294,0.3083852529525757
33,-0.9252668348111895,-0.5016517839246221,1.6061995015795718,-0.700363039970398,0.4808744490146637,-0.5274953246116638,-2.648423910140991,2.8189074993133545,-5.4525861740112305,-0.27133190631866455,0.06450515985488892,1.3228750228881836
34,-1.0739164906738683,-0.24098164063994776,1.2714587147382834,-0.8536726236343384,0.23865601420402527,-0.46291083097457886,-0.03597673028707504,-2.2389609813690186,-1.248186469078064,1.1630446910858154,0.21758174896240234,-0.48534661531448364
35,-1.0363246799942563,-0.1764351642315218,1.104516787942869,-0.8471786379814148,0.17552119493484497,-0.5014785528182983,-1.6139678955078125,-1.8316235542297363,1.2127331495285034,0.8316603899002075,-0.07482844591140747,0.36965787410736084
36,-1.3982569961398827,-0.4713513571015094,0.838043619761993,-0.8777266144752502,0.4540906846523285,-0.1529632806777954,-2.478619337081909,-0.0988067165017128,0.968544602394104,-1.2935075759887695,-0.12268507480621338,-1.0959380865097046
37,-1.232255523975143,-0.12440644860805818,0.761383907147836,-0.9359504580497742,0.12408579140901566,-0.3295443654060364,4.017413139343262,0.01996367797255516,-2.982635736465454,1.963752031326294,1.04440176486969,0.16546660661697388
38,-1.6874645219635847,-0.14038353025550934,1.1159755373195834,-0.9834311604499817,0.1399228870868683,0.11525855958461761,5.074429988861084,-1.2947769165039062,11.003454208374023,1.474520206451416,-0.10809306800365448,0.3420778512954712
39,-1.6557591895961163,-0.6654671812679582,1.3498733831133254,-0.7837908864021301,0.6174266934394836,0.0667538195848465,-1.4042108058929443,0.4567302465438843,-1.8063186407089233,-1.0295788049697876,-0.6453503370285034,0.3750948905944824
40,-1.5654390984508038,-0.17540446984901611,1.2310594197982938,-0.984641969203949,0.17450641095638275,-0.005275002680718899,-0.23871539533138275,3.7913825511932373,-3.3504903316497803,0.753715455532074,0.989250898361206,-0.01628565788269043
41,-1.8515208673460117,-0.0631115026009528,1.342438320620636,-0.9589421153068542,0.06306961178779602,0.2765003442764282,1.6884496212005615,-2.1633620262145996,6.236184120178223,1.7666813135147095,0.014948613941669464,-0.28200873732566833
42,-1.7790807132527628,-0.4314898371685992,1.3054662670104054,-0.88871169090271,0.4182245433330536,0.18782880902290344,-1.1474394798278809,1.7753987312316895,-1.6851128339767456,0.34711629152297974,-0.612529993057251,0.09410786628723145
43,-1.7782553925111877,-0.20666552710969205,1.2514520068514996,-0.9577343463897705,0.2051975280046463,0.2015911191701889,-0.539692223072052,0.9529873728752136,0.833207368850708,-1.372359037399292,0.9751308560371399,0.0731586217880249
44,-1.623991088378087,-0.3313836982145044,1.380784160350452,-0.944255530834198,0.325351744890213,0.05027687922120094,1.9776124954223633,0.6117115616798401,-2.9463677406311035,-0.2194254994392395,-0.4033089280128479,0.21434104442596436
45,-1.542454758637655,-0.2027193916401866,1.4799751955899796,-0.979129433631897,0.20133377611637115,-0.027757495641708374,1.3940773010253906,-1.0997471809387207,0.4222313165664673,2.1010470390319824,-0.3429810702800751,0.164720356464386
46,-1.4918171660622286,-0.4893054797602149,1.64238909418626,-0.8799081444740295,0.47001296281814575,-0.06963926553726196,1.275904893875122,-0.7320504188537598,0.8455106616020203,-3.7634787559509277,0.21486255526542664,-0.8698900938034058
47,-1.5269133283109406,-0.32000348256858946,1.5222066203559692,-0.9483205080032349,0.3145698606967926,-0.041641879826784134,-1.7601561546325684,1.5696723461151123,0.04001540690660477,1.9131489992141724,-0.1685890257358551,0.24403440952301025
48,-1.6685555779150998,-0.38803311389661016,1.3950961907283312,-0.9212355017662048,0.3783684968948364,0.0903472900390625,-1.7938843965530396,-0.725269615650177,-2.0529866218566895,1.073441743850708,-0.39075857400894165,0.424102783203125
49,-1.9310195525454006,-0.33025695076945794,1.2144316638385646,-0.8852457404136658,0.3242861032485962,0.3334346413612366,0.4095219075679779,0.30538374185562134,-1.1063414812088013,-2.3982014656066895,0.2083372175693512,0.1181187629699707
50,-1.7418078950354574,-0.26553740184973323,1.3763208723076643,-0.9508760571479797,0.2624278664588928,0.16421474516391754,0.19214951992034912,1.9787368774414062,0.6257848143577576,1.3830506801605225,-0.779304027557373,0.29295384883880615
51,-1.6327237832705201,-0.24498926413003394,1.4942632298731466,-0.9682803750038147,0.24254590272903442,0.060039911419153214,1.298856258392334,-1.7455908060073853,1.2843366861343384,1.04451322555542,-0.059974461793899536,-0.15177583694458008
52,-1.5764509958564377,-0.28282095216875314,1.5454066768744095,-0.960256814956665,0.27906563878059387,0.005429991986602545,-0.1451525092124939,0.7176854014396667,-2.1978423595428467,-1.4135836362838745,1.1932854652404785,-0.2655313014984131
53,-1.5004228617716797,-0.08079554051807908,1.4405248730479168,-0.9942706227302551,0.08070766180753708,-0.07008600980043411,-1.4701075553894043,0.32517871260643005,-2.681741952896118,1.4751057624816895,-0.76190584897995,0.633852481842041
54,-1.6548602097942529,0.027249958812489906,1.3119052028778608,-0.9960988163948059,-0.027246586978435516,0.0839337408542633,-1.11194908618927,-1.669930100440979,0.8832110166549683,1.2674152851104736,0.5983983278274536,-0.23549926280975342
55,-1.9665256046467998,-0.19577439882424996,1.2624035787703483,-0.9050893187522888,0.19452619552612305,0.37811747193336487,1.1816120147705078,0.10032591968774796,-2.1672720909118652,-1.904557228088379,-0.01155807077884674,0.87519371509552
56,-1.7403228544779714,-0.1541035631664024,1.3197098974928836,-0.9739840626716614,0.15349434316158295,0.1667163074016571,0.47024083137512207,1.6971020698547363,-1.2143789529800415,1.1141057014465332,-0.6962342262268066,-0.11483646929264069
57,-1.72678565419948,-0.1553748769045546,1.4691443495925824,-0.9759582877159119,0.15475046634674072,0.15348601341247559,0.9530166387557983,-0.7770929336547852,1.9910424947738647,0.3571379780769348,0.10751761496067047,-0.09632657468318939
58,-1.6272622559164323,-0.20362363038012338,1.4862793101114116,-0.9777793884277344,0.2022194117307663,0.05526997521519661,1.5274670124053955,0.9624915719032288,-1.559398889541626,-1.4472541809082031,0.93179851770401,-0.23834490776062012
59,-1.542386343676379,-0.10873725387285216,1.4444945216173266,-0.9936928153038025,0.10852310061454773,-0.028238395228981972,-1.767499327659607,-0.47175395488739014,-1.094702959060669,1.1896004676818848,-0.37460583448410034,0.5666753053665161
60,-1.740840207173701,-0.04894998194520949,1.2324733371941237,-0.9843968749046326,0.04893043637275696,0.16902291774749756,-0.7723576426506042,-3.087639331817627,1.615639567375183,0.4490421414375305,0.29173728823661804,-0.5258649587631226
61,-1.947491594836901,-0.06454347858684582,1.2120938479388788,-0.9279493093490601,0.06449867784976959,0.3670836091041565,-0.49364426732063293,0.26161572337150574,-0.9053084254264832,-1.3699939250946045,0.1157991960644722,0.43363669514656067
62,-1.8037527968090865,0.062385410450592725,1.2093584993453637,-0.9710953235626221,-0.062344953417778015,0.2304060459136963,-0.22741341590881348,1.536068320274353,-1.5248072147369385,1.084437608718872,-0.14430484175682068,0.03805707395076752
63,-1.759110747533218,-0.004885014825770358,1.3123069052967928,-0.9823094010353088,0.004884995520114899,0.1872011423110962,1.4971317052841187,-0.10245125740766525,1.1781278848648071,0.3310948610305786,-0.1300681233406067,-0.3441072702407837
64,-1.737747552959215,-0.0855465446313036,1.3519163996255865,-0.9824898838996887,0.08544224500656128,0.16556903719902039,-0.022236106917262077,0.42989131808280945,-0.2603016793727875,-1.164803147315979,0.07353907078504562,-0.2569386959075928
65,-1.6636325812801789,-0.08813226089248179,1.3454600592638173,-0.9918294548988342,0.08801821619272232,0.09234317392110825,-0.5234313011169434,0.018714766949415207,0.2688954472541809,0.35060930252075195,-0.09662412852048874,0.37445366382598877
66,-1.721990083014225,-0.07008339301687823,1.187881486974491,-0.9861652255058289,0.07002603262662888,0.15024864673614502,-2.317067861557007,-0.7358555197715759,0.058946434408426285,0.8797351121902466,-0.015277504920959473,-0.24128258228302002
67,-1.8304183803488459,-0.06404475479692369,1.0132355037360807,-0.9645054340362549,0.06400097906589508,0.25618892908096313,0.5717839598655701,-1.9490116834640503,0.21015262603759766,-0.8254876732826233,0.22812853753566742,-0.2559449076652527
68,-1.8741124033438956,-0.10222918655176429,1.0701830446707379,-0.9493688344955444,0.10205121338367462,0.2971271574497223,0.3774127662181854,1.1933246850967407,-0.49486684799194336,-0.15840411186218262,-0.2804111838340759,0.16135361790657043
69,-1.7577816996925093,-0.022120573841435377,1.1880841724653326,-0.9823286533355713,0.022118769586086273,0.18585216999053955,2.056914806365967,-0.055793438106775284,-0.6330105066299438,1.4928420782089233,-0.21035116910934448,-0.16165174543857574
70,-1.7367062447206434,-0.06647192243577338,1.3091670766141426,-0.9840903282165527,0.06642298400402069,0.16478508710861206,-0.04728309065103531,0.9741827249526978,0.2726445198059082,-1.3953804969787598,0.20982211828231812,-0.15772034227848053
71,-1.6703279417933727,-0.07438755769414156,1.322332166685375,-0.99229896068573,0.07431897521018982,0.09909255802631378,-1.1603246927261353,1.2160028219223022,0.48237329721450806,-0.42005449533462524,0.14501085877418518,0.13766276836395264
72,-1.620881752819625,-0.09991884695366929,1.271264589438162,-0.9937646389007568,0.09975267201662064,0.04981478676199913,-0.7047238945960999,-1.705067753791809,-0.3552924692630768,1.6842857599258423,-0.33629441261291504,0.4995778799057007
73,-1.9350292412795778,-0.16391920417172504,1.1737248542861105,-0.9218719005584717,0.16318611800670624,0.351457417011261,-0.3595547676086426,-3.2529094219207764,-0.2540518045425415,-1.9601012468338013,-0.04851631820201874,-0.0314805805683136
74,-1.8772587035321175,-0.2070131985921608,1.2885262974025062,-0.933050811290741,0.2055377960205078,0.2952464818954468,3.4560530185699463,-0.15788407623767853,-0.17070162296295166,-0.3653653860092163,-0.25937074422836304,0.2997547686100006
75,-1.6874747398979455,-0.2099695192911857,1.5357438233962075,-0.9713875651359558,0.20843008160591125,0.11385711282491684,1.8097270727157593,0.28279173374176025,-0.8084859848022461,1.4402899742126465,-0.5479685664176941,-0.010661810636520386
76,-1.6240519218821354,-0.2441616040935368,1.6853095146309898,-0.9689645767211914,0.24174287915229797,0.05165162682533264,0.8848545551300049,-1.2090680599212646,0.24103520810604095,-0.9241933226585388,0.19195763766765594,-0.45613157749176025
77,-1.6611375857187924,-0.21462549792132912,1.7443684580836725,-0.9730718731880188,0.21298153698444366,0.08814847469329834,0.44017839431762695,0.3858680725097656,-0.5899454355239868,-0.4880945682525635,0.2557990252971649,-0.09355008602142334
78,-1.5849926894296094,-0.15851630384539608,1.712497946141735,-0.9873631000518799,0.15785329043865204,0.014017906971275806,-1.2050613164901733,0.4570958614349365,-0.44130364060401917,1.3676273822784424,-0.18864551186561584,0.2739001512527466
79,-1.7085286616286042,-0.16862857011971316,1.6383193564580194,-0.9764800071716309,0.16783052682876587,0.1353498250246048,1.5541077852249146,-2.636434555053711,2.56941294670105,-0.9920562505722046,0.12584008276462555,-0.5185589790344238
80,-1.8361703924231378,-0.19667256658369553,1.7307516197967234,-0.9463916420936584,0.19540713727474213,0.2572143077850342,1.1540263891220093,1.4611181020736694,-0.19791953265666962,-0.4772382378578186,-0.13644716143608093,0.1319458782672882
81,-1.721739478798557,-0.1540973752270492,1.8649263332927604,-0.9769149422645569,0.15348823368549347,0.14858882129192352,1.6472315788269043,0.15528929233551025,-1.110491394996643,1.403337001800537,-0.4114533066749573,-0.0264880508184433
82,-1.6562522546917415,-0.177250153333205,2.016939099389434,-0.980740487575531,0.17632347345352173,0.08401469886302948,2.3639957904815674,-0.3184890151023865,2.012294054031372,-0.08751219511032104,0.27164405584335327,-0.5861203670501709
83,-1.5396921886377646,-0.3249593006621735,2.239325981584254,-0.9472052454948425,0.31927022337913513,-0.02947150729596615,1.1269235610961914,1.0733623504638672,-0.26382312178611755,-1.3174736499786377,0.324543833732605,-0.1551598310470581
84,-1.462352326662235,-0.22743875572302608,2.2934599277942564,-0.9685242176055908,0.2254829853773117,-0.10544431209564209,-0.5516249537467957,-0.27501019835472107,-0.9218497276306152,0.9733763933181763,-0.3679084777832031,0.6510986089706421
85,-1.608193682896604,-0.07880829039969699,2.1660013153472546,-0.9961992502212524,0.07872673869132996,0.03727259486913681,-0.9508556723594666,-3.3371739387512207,0.9335329532623291,1.06820547580719,0.8221216201782227,-0.3427077531814575
86,-1.864826930908885,-0.21966961572232122,2.2212079978220918,-0.9340843558311462,0.21790719032287598,0.2828478515148163,-0.20098528265953064,1.141724944114685,0.013798680156469345,-1.3743109703063965,-0.04806162416934967,0.31598326563835144
87,-1.6516886649101465,-0.15221851908356987,2.316796413823921,-0.9852049350738525,0.15163137018680573,0.0798698142170906,1.6343542337417603,0.5395681262016296,-2.1602184772491455,0.6881468296051025,-0.5562334656715393,0.22002649307250977
88,-1.5936268609053057,0.0199428745163795,2.409385290640187,-0.9995405673980713,-0.019941553473472595,0.022824009880423546,0.07806842774152756,-0.7488338947296143,0.29719361662864685,1.2922804355621338,0.2805921733379364,-0.20344233512878418
89,-1.4829707539215295,-0.3247420454018626,2.540468984317986,-0.9440803527832031,0.31906431913375854,-0.08312824368476868,3.1309428215026855,0.4763754606246948,0.4935275912284851,-3.4719505310058594,-0.07107847929000854,-0.44671791791915894
90,-1.4288570801544496,-0.203763646963147,2.5819084172578317,-0.9694634675979614,0.20235653221607208,-0.1385365128517151,-0.8755975365638733,-1.342866063117981,-0.6305953860282898,0.6703149676322937,-0.24579833447933197,0.8669911026954651
91,-1.4389293402599432,-0.08860227536324539,2.3558608190498576,-0.9874295592308044,0.08848639577627182,-0.13096939027309418,-1.51628839969635,-2.7275044918060303,-0.31610292196273804,1.7263822555541992,0.3774864971637726,0.2238190770149231
92,-1.792381530027894,-0.18011115136320552,2.3396500268771203,-0.9597695469856262,0.1791389286518097,0.21622119843959808,-1.2438149452209473,0.23878853023052216,0.5667383670806885,-1.833534836769104,0.1894981563091278,0.7324177026748657
93,-1.5767774645208583,-0.19600145318232945,2.4282878711828304,-0.980835497379303,0.1947489082813263,0.005866582505404949,2.985184907913208,2.3817248344421387,-1.0079355239868164,0.40850895643234253,-0.6870127320289612,0.33611345291137695
94,-1.4719565496006977,-0.07276989262493369,2.5394996387076314,-0.992485761642456,0.07270568609237671,-0.09841776639223099,1.6863987445831299,0.24623802304267883,0.23256659507751465,1.393700361251831,0.08302551507949829,-0.04126119613647461
95,-1.33292787212393,-0.26317294452959156,2.7082787902675842,-0.9383814334869385,0.26014554500579834,-0.2275187373161316,1.7055461406707764,1.4979883432388306,0.2673240303993225,-2.037647247314453,0.5337539911270142,-1.0557912588119507
96,-1.1132376917599625,-0.14812028923114767,2.7356371205291365,-0.8873102068901062,0.14757926762104034,-0.43692201375961304,-0.08775856345891953,0.39926666021347046,-1.408562421798706,0.414592981338501,-0.19741447269916534,0.861360490322113
97,-1.1762113088447597,-0.06496407690443705,2.5387223726328996,-0.9212087988853455,0.0649183914065361,-0.3836142122745514,-1.29088294506073,-3.2105751037597656,-0.5242967009544373,1.1853079795837402,0.3076707124710083,0.5454641580581665
98,-1.58894770084678,-0.1464685946659521,2.5112953662696067,-0.9891295433044434,0.1459454596042633,0.01795603148639202,0.09454787522554398,0.42695966362953186,0.22190667688846588,-1.6689361333847046,-0.028483346104621887,-0.005428556352853775
99,-1.3347663245128676,-0.1138671378583414,2.4827003923291944,-0.965977668762207,0.11362123489379883,-0.23233020305633545,-1.1925075054168701,6.482563018798828,-1.8851591348648071,0.4501085877418518,-0.47913026809692383,0.42629992961883545
100,-1.0414765876098286,-0.041689575953909444,2.5299682928997873,-0.8624008297920227,0.04167750105261803,-0.5045076012611389,2.4101569652557373,-1.6765778064727783,2.473787546157837,1.347935438156128,-0.05556298419833183,0.5002350807189941
101,-1.1731581313986468,-0.25824933140926554,2.8548431191491357,-0.8914040327072144,0.2553883194923401,-0.37440040707588196,2.6898529529571533,-0.5772184133529663,1.7999480962753296,-1.4548789262771606,0.11973375082015991,-1.2709853649139404
102,-0.993988484301573,-0.28838139755264214,3.068113813509572,-0.8035942912101746,0.2844008207321167,-0.5228309631347656,1.2224019765853882,1.6467350721359253,0.5496822595596313,-0.10933899879455566,-0.033058106899261475,0.4349556565284729
103,-0.7176064910898812,-0.2498035339895793,3.0899960798400756,-0.6371725797653198,0.24721360206604004,-0.7299975752830505,-0.41843104362487793,1.3058993816375732,-0.8464227318763733,0.8478354215621948,-0.27603745460510254,1.3486957550048828
104,-0.7198945384663282,-0.3335509138397242,3.0080104104113903,-0.6229682564735413,0.3274002969264984,-0.710436224937439,-1.0115782022476196,1.123913288116455,-0.6731873154640198,-1.800478458404541,-0.09273537993431091,-1.565412163734436
105,-0.6917744234012683,-0.3308095661857549,3.019848990899013,-0.6033173203468323,0.324808806180954,-0.7283594608306885,1.7706422805786133,-2.953744888305664,1.6587390899658203,-0.13867181539535522,-0.5816905498504639,-0.23395133018493652
106,-0.9301976534482523,-0.19766802837970696,-3.0010408300788023,-0.7861260175704956,0.1963833123445511,-0.5860370993614197,3.1956284046173096,-4.879158020019531,-0.0330769345164299,1.2845085859298706,-0.4844387173652649,1.134087085723877
107,-1.3911360736356695,-0.23842448501663974,-2.6646731446476735,-0.956071138381958,0.23617197573184967,-0.17364025115966797,1.9022630453109741,-3.5242862701416016,3.4590542316436768,-1.189985990524292,1.1420323848724365,-0.8873491287231445
108,-1.3616459237870928,-0.3491609774653283,-2.488431700211698,-0.9191827178001404,0.3421095311641693,-0.1951005905866623,0.7106559872627258,1.6253083944320679,0.16317406296730042,-0.24803829193115234,0.2207566797733307,0.4796465039253235
109,-1.3839873535804017,-0.30494676620310757,-2.386848551432739,-0.9372676014900208,0.3002423942089081,-0.17715556919574738,1.8801580667495728,-2.3870866298675537,-1.1243523359298706,1.0013391971588135,-0.515559196472168,0.48515427112579346
110,-1.5311403438420699,-0.2769363859787055,-2.3498661880601452,-0.9611413478851318,0.27341005206108093,-0.038134995847940445,-1.6721683740615845,1.0035207271575928,7.7567219734191895,0.6485650539398193,-0.24180912971496582,0.36243003606796265
111,-1.6309569536045798,-0.6394499103302906,-2.6254747033856614,-0.8009725213050842,0.5967541337013245,0.048245228826999664,1.2819409370422363,0.6141894459724426,0.40779778361320496,-0.34868568181991577,0.37971681356430054,-0.4204986095428467
112,-1.3337843232627098,-0.6279808905117517,-2.2134857223501827,-0.7865929007530212,0.5875120759010315,-0.1900031417608261,2.692538022994995,1.0950429439544678,1.0103517770767212,1.393038272857666,-1.2281675338745117,0.6310126781463623
113,-1.370776816931656,-0.6402413047917258,-2.013131498687157,-0.7859629392623901,0.5973889827728271,-0.15933853387832642,-0.3348294496536255,-3.2897427082061768,2.0401999950408936,-0.16017353534698486,0.35868096351623535,-0.031411588191986084
114,-1.5771851471361191,-0.735442820027465,-2.128222889915897,-0.7415186166763306,0.6709156036376953,0.004737493582069874,1.2165535688400269,-0.04104604944586754,0.16082866489887238,-0.6523107290267944,0.9078960418701172,-0.3328167200088501
115,-1.5131941920457124,-0.6494191474049237,-1.9156016582133133,-0.7951141595840454,0.6047238707542419,-0.04585099592804909,1.463042140007019,-0.27470993995666504,-1.7373055219650269,1.23404860496521,-0.9870328903198242,0.6608717441558838
116,-1.612464043696748,-0.6644459164141027,-2.003647657342206,-0.7865753769874573,0.616623044013977,0.03279378265142441,-2.283241033554077,-3.527263641357422,2.6917672157287598,0.41766357421875,0.17257684469223022,-0.02981829270720482
117,-2.177873566203194,-0.902000122957509,-2.4723976313303715,-0.50925213098526,0.7845686674118042,0.3537149429321289,1.0921770334243774,-1.6680138111114502,-0.004679504781961441,-0.5560859441757202,0.8627854585647583,-0.0874643325805664
118,-1.7401992778605049,-1.0263924439630492,-1.90316621327129,-0.5104944705963135,0.8554362058639526,0.0873161181807518,1.9972634315490723,-1.907492756843567,-0.18007293343544006,0.473568320274353,-1.2136974334716797,0.3796027898788452
119,-1.760059085272348,-0.940675467324752,-1.7389706781472,-0.5787203907966614,0.8079562783241272,0.1108570396900177,0.09414976835250854,-2.718228340148926,-1.5707740783691406,0.2895510196685791,-0.020434975624084473,-0.012987136840820312
120,-1.946588593933787,-0.8488944006418045,-1.7616156060781336,-0.6147000193595886,0.7505502700805664,0.2425248920917511,3.074920654296875,1.0976861715316772,0.6356388330459595,-0.9153445959091187,1.1684865951538086,0.3088209629058838
121,-1.609197854655492,-0.9363465916934788,-1.4433528037309638,-0.5922974944114685,0.8053979873657227,0.022756315767765045,1.013883113861084,1.7643033266067505,1.73659086227417,1.3977937698364258,-1.4240350723266602,0.7013952732086182
122,-1.8641831710113055,-0.9975899441750576,-1.6869145053858916,-0.5191547870635986,0.8401663899421692,0.15683923661708832,-2.9756979942321777,-1.8279190063476562,-0.427080899477005,0.9615529179573059,-0.12881702184677124,-0.25077223777770996
123,-2.084299150862961,-0.9820248600826248,-1.8845016067747116,-0.4837173819541931,0.8316235542297363,0.27280041575431824,1.0137418508529663,-1.2832815647125244,-1.0909109115600586,-1.3680435419082642,1.1366993188858032,0.5141258239746094
124,-1.8128867220286016,-0.99842326184257,-1.6486002508323905,-0.5258339643478394,0.8406180143356323,0.12984599173069,1.020171880722046,-0.6287878155708313,-0.5502578616142273,0.11375510692596436,-1.1011008024215698,-0.07285451889038086
125,-1.8100717497047505,-0.8464697412950937,-1.4938112383667337,-0.6437527537345886,0.7489458322525024,0.1570427566766739,0.13647140562534332,-1.8401917219161987,-1.5703895092010498,0.1707456111907959,-0.3857256770133972,-0.2377617508172989
126,-1.9517018816944363,-0.8012292317898154,-1.4923887735993875,-0.6459536552429199,0.7182119488716125,0.25868064165115356,1.9246182441711426,-0.37738457322120667,0.25441569089889526,-0.8863645195960999,1.4545176029205322,-0.0311262309551239
127,-1.685608383753186,-0.8932263329250489,-1.2541068071201813,-0.6227743029594421,0.779098391532898,0.07181783765554428,1.1483440399169922,0.9683181047439575,0.6529759764671326,0.44851893186569214,-1.320907473564148,-0.22844934463500977
128,-1.7435967754894854,-0.9364385914118513,-1.3060299857425404,-0.5838339328765869,0.8054525256156921,0.10190306603908539,-1.5795010328292847,-0.38025975227355957,-0.8588419556617737,0.6499807834625244,-0.49455469846725464,0.21097838878631592
129,-1.92551525519244,-0.9706481772097058,-1.4016423465430368,-0.5296047329902649,0.8252519369125366,0.19615790247917175,2.0474884510040283,-0.0281560979783535,0.5539003610610962,-0.8232547044754028,0.8651319146156311,0.049569591879844666
130,-1.8134896048066278,-1.004853522541898,-1.2067407476562189,-0.5204976797103882,0.8440834283828735,0.12886124849319458,2.3662638664245605,-0.13321875035762787,-0.20928463339805603,0.37228912115097046,-0.9723793864250183,0.4458611011505127
131,-1.7098647282489892,-1.0024519485959362,-1.0296279238011503,-0.5330410599708557,0.8427932262420654,0.07461078464984894,0.4601545035839081,-1.310845136642456,-1.5372422933578491,0.4095821976661682,-0.3125656247138977,-0.06801891326904297
132,-1.9488525757576352,-0.9882599161152233,-1.0623676681566094,-0.5112945437431335,0.8350699543952942,0.20306606590747833,-1.526816964149475,-2.0873501300811768,-0.04340784251689911,-0.7975890636444092,1.7237677574157715,0.016782492399215698
133,-1.7376335226965074,-0.9542225382560229,-1.0034622627920329,-0.570214569568634,0.8158644437789917,0.09602560102939606,0.4860643744468689,0.06875468045473099,0.4350786805152893,0.5434505939483643,-0.7587201595306396,0.04237164556980133
134,-1.7260723550470358,-0.9542857471327285,-1.0121093840937612,-0.5712351202964783,0.815900981426239,0.089418925344944,-1.0416691303253174,0.4431380331516266,-0.40465304255485535,1.0577311515808105,-0.9560683369636536,0.3708624839782715
135,-1.9879271768391673,-0.9949030800316101,-1.1607958513635517,-0.4978886842727661,0.8387061953544617,0.22063221037387848,0.11556167900562286,-1.9733446836471558,1.6417906284332275,-0.8223627209663391,1.4671103954315186,-0.24025502800941467
136,-1.792191052168072,-1.086722094784319,-0.7254097509103495,-0.45402979850769043,0.8851061463356018,0.10219500213861465,3.0549449920654297,-0.9807036519050598,-0.3936450183391571,-0.022456347942352295,-0.8031055927276611,0.42479777336120605
137,-1.5820724796252938,-1.0484694205108458,-0.41971471810868394,-0.4988662600517273,0.8666606545448303,0.005625530611723661,-0.7994449138641357,-0.4913631081581116,-0.9762796759605408,0.2860367000102997,-0.8402019739151001,-0.05767321586608887
138,-1.7398428124285823,-1.0344733436771332,-0.3386664335329869,-0.503695011138916,0.859593391418457,0.08596833050251007,0.30152541399002075,-3.0997097492218018,0.15836423635482788,-1.019406795501709,1.778864860534668,0.1917264461517334
139,-1.6457950882123504,-1.0020832392049164,-0.3073774221931744,-0.5370340943336487,0.8425947427749634,0.040352579206228256,0.3987171947956085,1.2277679443359375,3.2007694244384766e-05,0.4217997193336487,-0.6714522838592529,-0.07067179679870605
140,-1.6069126766695772,-0.9917349008373014,-0.25298689397645535,-0.5468818545341492,0.8369766473770142,0.019759967923164368,-0.49228543043136597,1.6475794315338135,-0.8943653106689453,1.3732521533966064,-0.9770675897598267,0.42877209186553955
141,-1.7586449490894795,-1.0413170308365072,-0.4237237224114498,-0.4961988925933838,0.8630701899528503,0.09432235360145569,0.7676145434379578,3.1146512031555176,0.38416075706481934,-0.9733598828315735,0.9097113013267517,-0.1536484807729721
142,-1.6793822727279553,-1.0478391446066968,-0.2666497900859951,-0.49650296568870544,0.866346001625061,0.05412614345550537,2.0859432220458984,-0.008039221167564392,-0.25591200590133667,0.03475672006607056,-0.681027889251709,0.053906090557575226
143,-1.582572993828575,-0.8662302289787296,0.027476199148577924,-0.6476584672927856,0.7618926763534546,0.007627610582858324,1.6370011568069458,0.8631141185760498,-0.9553468227386475,1.1103965044021606,-0.6767944097518921,-0.009504437446594238
144,-1.5205272937078163,-0.8517266357087506,0.19498159932335069,-0.6578528881072998,0.7524188160896301,-0.033097513020038605,-0.5975834727287292,-1.0902518033981323,-1.7467596530914307,-1.3393394947052002,0.6348034143447876,-0.647963285446167
145,-1.5430873012948194,-0.7248980187728667,0.28000754247151083,-0.7482797503471375,0.6630591154098511,-0.02073941007256508,1.0582166910171509,-0.428141325712204,-0.5733245611190796,0.31024569272994995,0.12684261798858643,0.12007409334182739
146,-1.6367212561699687,-0.6908620256309321,0.15369645784785513,-0.7690228223800659,0.6372017860412598,0.05077134817838669,-2.1352784633636475,-0.327678382396698,-0.39022308588027954,0.4272564649581909,-0.18200165033340454,-0.09976732730865479
147,-1.8722271961225896,-0.6845877115892337,-0.04147413328587821,-0.7397518157958984,0.632353663444519,0.2299923449754715,0.5448193550109863,0.6169852018356323,-0.15821105241775513,-0.5056858658790588,0.14824026823043823,-0.5561031103134155
148,-1.845167814038894,-0.7282671053144366,0.07404927605020142,-0.7184127569198608,0.6655773520469666,0.20221178233623505,1.4747370481491089,-1.5444958209991455,0.7123373746871948,-0.1953444480895996,-0.29036378860473633,-0.1034264862537384
149,-1.7679325159294423,-0.7837756505446307,0.30343166157786366,-0.6945350766181946,0.7059585452079773,0.13871967792510986,1.231427788734436,-0.8932787179946899,-0.6054584980010986,0.2669992446899414,-0.8193620443344116,-0.02856650948524475
150,-1.8344874468221917,-0.7911192401132855,0.3645245715771328,-0.678748607635498,0.7111405730247498,0.18324702978134155,1.0088258981704712,-1.1227179765701294,0.9311637878417969,-1.1900715827941895,1.1922712326049805,-0.21374928951263428
151,-1.8191627281157525,-0.7947280610361247,0.4355731651924362,-0.6789848208427429,0.7136731147766113,0.1721922755241394,-0.42779868841171265,-0.2627882957458496,0.1406899392604828,-0.2720038890838623,0.2771105170249939,-0.053204312920570374
152,-1.7602850492359754,-0.7602979965684066,0.4630501139103004,-0.7116605043411255,0.6891373991966248,0.1364891529083252,-0.6295298337936401,0.2866060733795166,-0.5847064852714539,1.3179378509521484,-0.95702064037323,0.243302121758461
153,-1.8670889240442425,-0.7704691502592745,0.38530156161739026,-0.6863157153129578,0.6964719891548157,0.20951758325099945,0.4275285303592682,0.2849448025226593,0.4337301254272461,-0.5961244702339172,0.6515657901763916,0.017121195793151855
154,-1.8633451537673773,-0.7914257683161003,0.4247519252305309,-0.6729700565338135,0.7113560438156128,0.20269232988357544,1.0775636434555054,0.4185315668582916,-0.34282711148262024,-0.4665868878364563,0.11184036731719971,0.060048848390579224
155,-1.731974608176585,-0.7786876161197369,0.5938525159874324,-0.7026095390319824,0.7023458480834961,0.11423634737730026,1.3857897520065308,0.273192822933197,-0.6255582571029663,0.4787479639053345,-0.7055349946022034,-0.018487460911273956
156,-1.743206435455582,-0.7926858511248183,0.7010639638856836,-0.6915279030799866,0.7122411131858826,0.12042196094989777,-0.19092340767383575,-0.939212441444397,0.9434555172920227,-0.4105532765388489,0.5236901640892029,-0.03013577312231064
157,-1.75888919653814,-0.7919373576543295,0.7320669352695872,-0.6900782585144043,0.7117155194282532,0.13135148584842682,0.2826173007488251,-0.15589822828769684,0.010928669944405556,-0.19720512628555298,0.3625947833061218,0.006450653076171875
158,-1.7597996017027622,-0.769083805571226,0.7672944605805994,-0.7057523727416992,0.6954771876335144,0.13500085473060608,-0.024380750954151154,0.1986018866300583,-0.9565441608428955,0.5489529967308044,-0.5968596339225769,0.1768430471420288
159,-1.8739784132121815,-0.7205643542781618,0.6088263968715529,-0.7171617746353149,0.659808874130249,0.2243470400571823,-0.44323015213012695,-0.8508732914924622,-0.0682360902428627,0.041838228702545166,0.26035720109939575,-0.5504120588302612
160,-1.8961046251042148,-0.7409725419990947,0.6176234955653224,-0.6991159319877625,0.6750057935714722,0.23580557107925415,1.0351109504699707,-0.28908929228782654,0.01706935092806816,-0.7308310270309448,0.2898990511894226,-0.18804559111595154
161,-1.7657965604684576,-0.7624283181694552,0.8634958592763083,-0.7094553709030151,0.6906795501708984,0.14012457430362701,1.1129580736160278,-0.2977275252342224,-0.5102543830871582,0.7302073240280151,-0.9817867279052734,0.3814208507537842
162,-1.7966224171062313,-0.7472010616279932,0.9613658764277987,-0.7149676084518433,0.6795881390571594,0.1642601639032364,1.1939096450805664,-1.1940943002700806,0.5058311223983765,0.01953303813934326,0.16545885801315308,-0.4634392261505127
163,-1.809919221495211,-0.762938136014192,1.0511404223336092,-0.7022420167922974,0.6910481452941895,0.17119766771793365,0.39516007900238037,-0.05835720896720886,-0.6068270802497864,-0.8647288084030151,0.613654613494873,-0.27361464500427246
164,-1.7675237147522207,-0.730050637758041,1.0741345309633616,-0.7307681441307068,0.6669073700904846,0.1456458866596222,-0.3937324285507202,0.026602160185575485,-0.3605433404445648,0.6302584409713745,-0.5136023163795471,0.14176857471466064
165,-1.835799424079043,-0.6880024528935171,0.9516548666450009,-0.7455487251281738,0.6349953413009644,0.20233139395713806,-0.7734407782554626,-0.7821164131164551,-0.2846032977104187,0.18462038040161133,0.047591328620910645,-0.23045337200164795
166,-1.8920554577230473,-0.71944888269003,0.9213806772377935,-0.7136871218681335,0.6589702367782593,0.23750607669353485,0.9830821752548218,-1.7084527015686035,0.6391497254371643,-0.804821789264679,0.5967212915420532,0.14552009105682373
167,-1.854525741059479,-0.7409991865581766,0.9981720013755597,-0.7082961797714233,0.675025463104248,0.206536665558815,0.9022530317306519,-0.6437320113182068,-0.2657110095024109,0.31902915239334106,-0.5762857794761658,-0.07393774390220642
168,-1.8091910901969117,-0.7258305213462865,1.156642435268976,-0.7267953157424927,0.6637568473815918,0.1766228973865509,0.895341157913208,-1.4507369995117188,-0.18820300698280334,0.6520577073097229,-0.571868360042572,-0.16270695626735687
169,-1.8473265591031687,-0.7854823641066987,1.255840696822692,-0.6801855564117432,0.707166314125061,0.19303761422634125,0.9104368686676025,-0.9388313293457031,-0.6343592405319214,-1.2817132472991943,0.545214056968689,-0.012175202369689941
170,-1.811799792440214,-0.7342830703695472,1.2350243050382292,-0.7208576202392578,0.6700551509857178,0.17717276513576508,0.1855885535478592,0.127775177359581,-0.16804713010787964,0.1253376603126526,-0.0015066266059875488,-0.05189813673496246
171,-1.8201671134102715,-0.7127576568458519,1.1516225443718342,-0.7331593036651611,0.6539226174354553,0.1867149919271469,-1.1397430896759033,0.39514923095703125,-0.04554266855120659,0.4098866581916809,-0.4647288918495178,-0.1517876535654068
172,-1.8857131560459612,-0.7294178372775318,1.018987565480076,-0.7088972926139832,0.666435718536377,0.23092857003211975,0.9489342570304871,-0.6104066967964172,0.3185756206512451,-0.8260605335235596,0.26479285955429077,-0.2048666626214981
173,-1.8717165854687792,-0.737612274623228,1.0212890469362237,-0.706820547580719,0.6725227236747742,0.21935811638832092,-0.14731325209140778,0.2274114042520523,0.12890666723251343,-0.18772602081298828,-0.22986525297164917,-0.23647856712341309
174,-1.8356780633183711,-0.738149996535163,1.1001186315155256,-0.7139158248901367,0.6729205846786499,0.1936536580324173,0.38570746779441833,-1.0292580127716064,0.2904943525791168,0.39209282398223877,-0.5691914558410645,-0.15141740441322327
175,-1.8534447191922394,-0.7569272941041802,1.2053330026988263,-0.6981044411659241,0.6866909861564636,0.2027462124824524,0.888036847114563,-1.5216984748840332,0.4862949252128601,-0.4226689338684082,0.6975253224372864,-0.37056228518486023
176,-1.823800266222349,-0.7828766203463644,1.3275499243776403,-0.686319887638092,0.7053215503692627,0.17744401097297668,-0.20869603753089905,-0.14796900749206543,0.3059428334236145,-0.5338033437728882,0.45935124158859253,-0.05274917185306549
177,-1.7838910892308666,-0.717504444881486,1.3192473624872378,-0.736406683921814,0.6575064659118652,0.1593436449766159,-1.196382999420166,0.4652460813522339,-0.7332752346992493,0.8237327933311462,-0.46573406457901,0.11497889459133148
178,-1.8649248339780167,-0.6481727475082257,1.1401834493422487,-0.7629531025886536,0.6037307381629944,0.23110955953598022,-0.999505877494812,-0.32482635974884033,0.5800656676292419,0.24758762121200562,0.49279630184173584,-0.36669912934303284
179,-1.9396952914531607,-0.732194993199498,1.2332812264360467,-0.6936758160591125,0.6685037016868591,0.2681730091571808,-0.4719439148902893,0.34859058260917664,-0.4261878728866577,-0.7691538333892822,0.25875765085220337,0.5664064884185791
180,-1.8591440230605631,-0.6619091580472455,1.3185887985353162,-0.7562536597251892,0.6146239638328552,0.2243155986070633,1.1494064331054688,-0.28670021891593933,-1.2608953714370728,1.0657477378845215,-0.8884429931640625,-0.08983996510505676
181,-1.7358555726074008,-0.6169346328894796,1.5926123261304252,-0.8045697808265686,0.5785375833511353,0.13402101397514343,2.4907805919647217,-0.18703815340995789,-1.3159735202789307,0.3080335855484009,-0.08055180311203003,0.13288567960262299
182,-1.7372101103880826,-0.6816637313768862,1.77311032029357,-0.7657979130744934,0.630085825920105,0.1286289244890213,-0.1250070333480835,0.7375977039337158,-0.8140261173248291,-1.8557994365692139,0.5100508332252502,0.9353053569793701
183,-1.5948058883001537,-0.6512879644762599,1.7633049712037685,-0.7950746417045593,0.606211245059967,0.019093062728643417,-0.6582086086273193,1.1235076189041138,-0.10111628472805023,0.7165680527687073,-0.8007607460021973,0.18604612350463867
184,-1.6399823179425175,-0.6589914046769707,1.681587397658024,-0.7887187004089355,0.6123197674751282,0.054655518382787704,-0.3902265429496765,-2.2970452308654785,-0.09799519181251526,0.09784656763076782,0.08619701862335205,-0.03930521383881569
185,-1.7932647178557883,-0.6734143098825272,1.5573902874734142,-0.7624325752258301,0.6236585974693298,0.17247192561626434,-2.1408543586730957,1.0851937532424927,-0.13583490252494812,-0.9624514579772949,0.22300583124160767,-0.20422542095184326
186,-1.7114980877300852,-0.644491954349456,1.7010760976919148,-0.7915050983428955,0.600792407989502,0.11210693418979645,1.3476473093032837,-0.21684876084327698,-0.8516258597373962,0.5853437185287476,-0.9558187127113342,0.10085998475551605
187,-1.5550239826283552,-0.5942399268320122,1.9685851241683328,-0.8284712433815002,0.5598791241645813,-0.013068016618490219,0.38027966022491455,-0.2898387908935547,0.6676992774009705,0.6726332306861877,0.1335107684135437,0.1724461317062378
188,-1.464431668120181,-0.6292076220668003,2.153700647899008,-0.8039250373840332,0.5885043144226074,-0.08583314716815948,-2.247706413269043,0.8041468262672424,0.11001399904489517,-0.8930048942565918,0.5105710029602051,-0.16114556789398193
189,-1.4310054898765558,-0.6431224697909628,2.183578122140767,-0.7924211621284485,0.5996970534324646,-0.11150045692920685,0.5004225969314575,-1.1152654886245728,-0.4709976613521576,0.5393387675285339,-0.6903799772262573,0.6910140514373779
190,-1.4672714611046274,-0.5485982110628418,2.03533454924515,-0.8486880660057068,0.5214916467666626,-0.08817555010318756,-1.1755839586257935,-0.6871772408485413,-0.8420954346656799,0.8095645904541016,0.14710265398025513,0.19863390922546387
191,-1.6076482734248319,-0.5665472306335841,1.965121867182845,-0.8431863188743591,0.53672194480896,0.031087132170796394,0.34912487864494324,-0.32256895303726196,-0.46397000551223755,-1.287032127380371,0.589346170425415,0.18310046195983887
192,-1.604766890823064,-0.5281138137311556,2.032313880076923,-0.8632609844207764,0.5039049983024597,0.029336748644709587,1.2806241512298584,-0.9364288449287415,-1.104280948638916,0.800547182559967,-0.7812791466712952,0.09619737416505814
193,-1.5552830147557068,-0.44446278198507316,2.2324908439125513,-0.902733325958252,0.42997291684150696,-0.014005507342517376,1.7990764379501343,-0.16456414759159088,-0.3487430214881897,0.7654651403427124,-0.09826207160949707,0.05248820781707764
194,-1.5898437281800746,-0.4494260386000861,2.387028980029619,-0.9005331993103027,0.43444862961769104,0.017154891043901443,0.25109681487083435,3.17248797416687,-0.14263862371444702,-1.1367135047912598,0.5370326042175293,0.12878012657165527
195,-1.4533762255302436,-0.45663035677644087,2.342781695118025,-0.8913630247116089,0.4409262239933014,-0.10514762252569199,-0.9415186643600464,1.4928674697875977,-0.07775989919900894,0.4307612180709839,-0.24758213758468628,0.0006859898567199707
196,-1.4230441282214839,-0.36306419096752424,2.191197991331597,-0.9246277809143066,0.3551403284072876,-0.13761869072914124,-2.802593946456909,0.9560623168945312,-0.985848069190979,0.9356141090393066,0.3371967077255249,0.16589319705963135
197,-1.490294145338196,-0.3822575044946487,2.1010882783204234,-0.924820065498352,0.37301599979400635,-0.07461127638816833,-0.455529123544693,0.02515293098986149,-0.23394735157489777,-1.145873785018921,0.33953890204429626,0.00423777848482132
198,-1.481672068948106,-0.3730100113796512,2.0728063280158056,-0.9275386929512024,0.3644201159477234,-0.08288577198982239,0.4579755961894989,0.42727434635162354,-0.6690435409545898,0.4905727505683899,-0.5600377917289734,-0.0661468431353569
199,-1.485972972688271,-0.34565591258596884,2.225290796520212,-0.9374706745147705,0.3388138711452484,-0.07971066981554031,1.5219751596450806,-1.3564910888671875,-0.047995250672101974,0.8895276188850403,-0.1868210732936859,0.08505130559206009
200,-1.585482969363203,-0.4928816388820897,2.483514762469783,-0.8808781504631042,0.47316649556159973,0.01293807290494442,2.130770206451416,-1.1382004022598267,-0.6341453790664673,-1.99113130569458,0.02813059091567993,0.09152364730834961
201,-1.5859135419592574,-0.39774238237836035,2.4337112753990517,-0.9218323230743408,0.38733795285224915,0.013936598785221577,-0.12171902507543564,-0.2950761616230011,-0.11235474050045013,0.27376115322113037,-0.3870328664779663,-0.3521019220352173
202,-1.5446384288763328,-0.37171136708667,2.3755302967639564,-0.9313884973526001,0.3632104694843292,-0.02436872385442257,-1.0598479509353638,-1.1745034456253052,1.131761908531189,1.1541972160339355,-0.03822880983352661,0.1699681282043457
203,-1.6432209911772933,-0.5003568578378224,2.3224293508569303,-0.8751113414764404,0.47973868250846863,0.06349069625139236,0.28703179955482483,-0.07972598820924759,0.5412922501564026,-1.1085922718048096,0.37650829553604126,-0.131270170211792
204,-1.5987616138273568,-0.5326660353111908,2.4023372264209963,-0.8611193895339966,0.5078318119049072,0.024087730795145035,1.3261454105377197,0.6247943043708801,-0.835037112236023,-0.026835262775421143,-0.580402672290802,0.23064255714416504
205,-1.5635119484937081,-0.4667183535225212,2.583793036972561,-0.8930261135101318,0.44995802640914917,-0.006505255121737719,1.911055564880371,-1.8622469902038574,0.005704665556550026,1.1207634210586548,-0.4423896074295044,0.08247876167297363
206,-1.5979414043356799,-0.6087573652657039,2.7431874300621013,-0.8200570940971375,0.5718485116958618,0.022265983745455742,3.3405723571777344,-1.8099504709243774,1.3535691499710083,-1.8399924039840698,0.597218930721283,-0.3438602685928345
207,-1.5385209045318946,-0.551104926002407,2.810981196830824,-0.8515028357505798,0.5236288905143738,-0.027492159977555275,0.18220773339271545,0.8007113337516785,-1.0975452661514282,0.0018628835678100586,-0.03414219617843628,0.07101023197174072
208,-1.4756288397869397,-0.46770495537384127,2.8104707123635677,-0.8885663747787476,0.4508388936519623,-0.08481884747743607,0.1304972767829895,-0.4633904695510864,-0.5362343788146973,1.1877301931381226,-0.5151089429855347,0.46013927459716797
209,-1.6568059559094217,-0.5531216068746144,2.6065207752879167,-0.8477434515953064,0.5253459215164185,0.0730944275856018,0.3898294270038605,-0.16384756565093994,2.4425442218780518,-1.8340954780578613,0.782133936882019,-1.1927995681762695
210,-1.5856273618383276,-0.5824020107696027,2.8418258818506126,-0.8350521326065063,0.5500315427780151,0.012385595589876175,1.0605460405349731,-0.17288370430469513,-0.41679447889328003,-0.6602786779403687,-0.25306499004364014,0.5997207164764404
211,-1.505189728562627,-0.49997468920465254,2.959820554650612,-0.8757067322731018,0.4794033169746399,-0.05753471329808235,2.1238622665405273,-0.4001902937889099,-0.43055668473243713,1.418538212776184,-0.7560299038887024,0.09867238998413086
212,-1.586368543369362,-0.5549518521932071,3.058563506700779,-0.8498228788375854,0.5269023776054382,0.013234696350991726,-0.2037118822336197,-2.2187767028808594,3.974674940109253,0.04037463665008545,0.8597095608711243,-0.4168602228164673
213,-1.533828927755377,-0.6467774590134877,-3.0274589175942204,-0.7974847555160522,0.6026178598403931,-0.029494374990463257,0.1728544384241104,0.6819046139717102,-0.1667802482843399,-0.79173344373703,0.1749395728111267,-0.06489646434783936
214,-1.4328353010001784,-0.5188429740209151,-2.9317871324304443,-0.8601422905921936,0.4958757162094116,-0.11942476034164429,-0.5089303255081177,0.918360710144043,-2.7358036041259766,1.196446180343628,-0.7800860404968262,0.8141574263572693
215,-1.6238415262229005,-0.46888010648858774,3.0987169468535734,-0.8908202648162842,0.4518875479698181,0.04729810729622841,-1.026733160018921,-4.438117980957031,3.990628957748413,0.14703047275543213,1.0556350946426392,-0.5802875757217407
216,-1.7070863976220074,-0.5612057224191594,-3.0165956938498164,-0.8387632369995117,0.5322073698043823,0.11502819508314133,-0.9699105024337769,2.6010866165161133,-0.6166331171989441,-0.5251893997192383,-0.09368503093719482,0.4455949068069458
217,-1.4974423785871012,-0.374485287896017,-2.977841178924537,-0.9281931519508362,0.36579352617263794,-0.06820901483297348,1.2248928546905518,1.1033611297607422,-1.620110034942627,1.4656840562820435,-0.13122019171714783,-0.1260811686515808
218,-1.503828562440849,-0.5322127516209268,-2.725123355321061,-0.859754741191864,0.5074412822723389,-0.057662077248096466,2.907728910446167,-3.9837117195129395,3.5898594856262207,-0.12213295698165894,0.37332648038864136,-0.16140836477279663
219,-1.5891639606458423,-0.5019884053050199,-2.4791981883397556,-0.8764795660972595,0.48116958141326904,0.016100667417049408,-1.0755436420440674,-0.5687416195869446,-3.7221617698669434,-0.9566349387168884,0.5399180054664612,0.3422520160675049
220,-1.5651669922381084,-0.1729915858067896,-2.619143002069217,-0.9850586652755737,0.1721300482749939,-0.005545283667743206,0.03097972273826599,0.5726057291030884,-1.7497533559799194,2.080410957336426,0.0503431111574173,-0.1271451711654663
221,-1.7114783688358515,-0.3332158548117036,-2.581752562986588,-0.9356592893600464,0.32708367705345154,0.13250577449798584,3.485818862915039,-3.891465902328491,4.219207286834717,-0.5727176666259766,0.5566748380661011,-0.6712173223495483
222,-1.7478799626916453,-0.31312330410856903,-2.3132986758386656,-0.9364981055259705,0.3080315589904785,0.16759400069713593,-0.6666972637176514,-0.4754689931869507,-1.2773542404174805,-0.18459558486938477,0.2970404028892517,0.7293634414672852
223,-1.591524509630491,-0.22734945992442843,-2.32121186679668,-0.9740580320358276,0.22539597749710083,0.020193345844745636,0.7345098257064819,1.068671703338623,0.8427924513816833,1.5500009059906006,-0.35500410199165344,-0.39932847023010254
224,-1.5870051826188105,-0.34660841218991134,-1.9779063518640585,-0.940406858921051,0.3397098779678345,0.015244253911077976,3.152893543243408,-2.515120506286621,0.4253702759742737,-0.464546263217926,0.3560909330844879,0.1668388843536377
225,-1.7247502019659466,-0.24878022838653957,-1.7944546881251688,-0.9577500224113464,0.24622192978858948,0.1486254185438156,0.9211981892585754,-0.21100972592830658,-0.6580142378807068,-1.1166365146636963,0.9877868294715881,-0.19475272297859192
226,-1.7760830164010206,-0.18244191984593106,-1.7596989924306612,-0.9627546668052673,0.18143150210380554,0.20046469569206238,-0.06542624533176422,1.2114791870117188,-0.1811128407716751,0.7748426198959351,0.04859475791454315,0.14005044102668762
227,-1.5768650940698374,-0.27205293698358174,-1.7253651482768015,-0.9632034301757812,0.2687094211578369,0.005845529027283192,1.792183756828308,3.4580233097076416,3.4144797325134277,1.3154832124710083,0.5330178737640381,-0.1743483543395996
228,-1.1594626326682242,-0.8939728060241031,-1.465293422136163,-0.5740775465965271,0.7795661687850952,-0.25042280554771423,1.4189081192016602,-1.8104934692382812,6.861086845397949,-1.1013526916503906,0.8757072687149048,0.11867839097976685
229,-1.5047341793859361,-0.9803558779808051,-2.0784677887985668,-0.5555127263069153,0.8306955695152283,-0.036751843988895416,-7.182601451873779,7.630156517028809,-7.552336692810059,-1.9258257150650024,-0.457663893699646,0.3636714220046997
230,-0.9904980750308213,-0.06115128796715467,-3.0183309500605873,-0.8347360491752625,0.061113182455301285,-0.5472486019134521,-3.1357784271240234,10.481730461120605,-9.453292846679688,0.999790370464325,0.471082866191864,-0.23908257484436035
231,-0.8518716439783054,0.19929583320216207,-2.9108860186827163,-0.7376192808151245,-0.1979791522026062,-0.645540177822113,9.573322296142578,-3.178302526473999,4.857047080993652,-0.234289288520813,1.861706018447876,-0.7366313934326172
232,-1.511703295584883,0.534175883275999,-2.0355174206307476,-0.8591862320899963,-0.509131908416748,-0.05083109810948372,3.9867031574249268,-0.21514761447906494,-4.392746925354004,-1.570913314819336,0.43802595138549805,1.6484262943267822
233,-0.6955803945091605,0.6824255790558862,-2.8030485645372534,-0.4973139464855194,-0.6306772232055664,-0.595755934715271,1.9253113269805908,-2.417743444442749,-0.16117627918720245,1.2162775993347168,0.9693155884742737,-3.191887378692627
234,-2.6295394571454316,0.8323419920494856,-1.0940548750885002,-0.3298199474811554,-0.7395098805427551,0.5868082642555237,-2.2423388957977295,1.7913521528244019,-1.0364744663238525,0.2849743962287903,0.04558593034744263,3.205763816833496
235,-0.3262304850582773,0.7462678337074208,-2.8429091088198977,-0.23530137538909912,-0.6789032220840454,-0.695502519607544,-9.736973762512207,4.9536051750183105,0.6814902424812317,0.8883928060531616,1.329003930091858,-1.481438398361206
236,-2.101682339000104,1.279875569268954,-1.2201084677977836,-0.247354194521904,-0.9579801559448242,0.14522357285022736,10.012659072875977,-5.138901233673096,-1.5245001316070557,0.9868561625480652,1.0445127487182617,1.4038944244384766
237,-0.24128538707624164,0.7294217069806523,-2.6212772644616606,-0.17815227806568146,-0.6664385795593262,-0.7239623069763184,-15.708744049072266,8.777677536010742,0.8843672871589661,0.6887723803520203,1.5217089653015137,0.03920888900756836
238,-0.3205297024183053,0.6597958542845469,-2.5147151245001877,-0.24894176423549652,-0.6129555702209473,-0.7498756647109985,10.076851844787598,-7.8096184730529785,-0.7480851411819458,-0.05460134148597717,0.42911767959594727,-0.6398948431015015
239,-1.6557180835157044,1.1695262631210621,-1.5929844140580174,-0.38918036222457886,-0.920565664768219,0.033129557967185974,-7.467310905456543,5.168275833129883,2.873652458190918,0.28767889738082886,0.100894033908844,2.492703437805176
240,-0.11577267833370107,0.22299111993310128,-2.6194775857959094,-0.11265413463115692,-0.22114767134189606,-0.9687119126319885,7.323777675628662,-6.007338523864746,-1.4401090145111084,0.5505813956260681,-0.012510165572166443,-5.465095520019531
241,-2.635375604674543,1.204443061067412,-0.7284185948494105,-0.17368753254413605,-0.9336398839950562,0.31328773498535156,3.8762309551239014,-3.692336320877075,1.9167578220367432,2.4572720527648926,0.7344517111778259,2.5112972259521484
242,-0.19095107505590256,0.3620975508842347,-2.6810059097761463,-0.17748582363128662,-0.35423654317855835,-0.9181585907936096,-20.5165958404541,8.264575958251953,3.3477706909179688,0.9688371419906616,2.4231910705566406,-0.047509074211120605
243,-0.5346093658451111,1.0106241096683095,-2.515674982941232,-0.2707163393497467,-0.8471636176109314,-0.45719411969184875,14.58704948425293,-6.147825241088867,-2.8294167518615723,0.5916391611099243,0.7206529974937439,0.46967583894729614
244,-0.18382093971552566,0.8141821107022736,-2.709100767792986,-0.1254768967628479,-0.7271643877029419,-0.674898087978363,-18.115581512451172,11.550271034240723,0.5750049352645874,0.6445503830909729,1.5381386280059814,1.2090015411376953
245,-0.029327781995203233,0.6272992418409656,-2.5569035568313745,-0.023740828037261963,-0.5869603157043457,-0.809267520904541,14.809910774230957,-4.65751838684082,-0.5035222768783569,-0.19850343465805054,1.2754063606262207,-0.5827307105064392
246,-1.2446161062053274,1.3716934390479523,-1.8015804005562521,-0.18736101686954498,-0.9802443981170654,-0.06337720900774002,-9.755034446716309,5.572933673858643,1.3039040565490723,0.20612932741641998,0.028096020221710205,2.6885602474212646
247,0.007602464490839373,0.3103150238094908,-2.4681187418810824,0.007239281199872494,-0.3053586184978485,-0.9522098898887634,10.792943954467773,-6.057385444641113,0.7947895526885986,-0.17290395498275757,0.6755063533782959,-4.783385753631592
248,-1.2173277257106137,1.44177723663527,-1.7047157494831016,-0.12070741504430771,-0.9916885495185852,-0.04453672468662262,-2.8398075103759766,-0.8746039867401123,1.9138104915618896,1.317088007926941,0.13002479076385498,2.9668543338775635
249,0.08970884359747637,0.2121017563041074,-2.5580728558237946,0.08758094161748886,-0.21051502227783203,-0.9736595749855042,-10.684803009033203,2.1222572326660156,1.124529480934143,0.8537642359733582,1.6359148025512695,-1.7768744230270386
250,-0.29173752238790734,1.1848386086268805,-2.5315815935278363,-0.10827238112688065,-0.9264383316040039,-0.3605401813983917,11.676024436950684,-6.295470714569092,-2.2290141582489014,0.43360501527786255,0.9379129409790039,0.8173425197601318
251,-0.16221921829746527,0.8758915786064358,-2.4904027635184223,-0.10341599583625793,-0.7681146860122681,-0.6319057941436768,-16.022924423217773,10.20019817352295,1.1063826084136963,0.2717052102088928,1.1267573833465576,0.9639065861701965
252,-0.131461649756412,0.7356839369959395,-2.4522578512989766,-0.09718149900436401,-0.6710943579673767,-0.7349749207496643,13.234560012817383,-4.387851238250732,-1.3646568059921265,0.150098979473114,0.9950689673423767,-0.2690533995628357
253,-0.23638688931255783,1.033339789932405,-2.378179668529775,-0.11989501118659973,-0.8590136170387268,-0.49771565198898315,-14.346631050109863,8.322936058044434,1.2261923551559448,0.09102536737918854,0.545201301574707,1.8347365856170654
254,0.009090355928570973,0.4657398732503328,-2.2455167800518296,0.008122025988996029,-0.44908398389816284,-0.8934526443481445,13.945767402648926,-7.400760173797607,-0.11750803887844086,0.1261095404624939,1.0515315532684326,-1.427790641784668
255,-0.5781232411824765,1.2452824044660784,-1.9314918191714923,-0.17475354671478271,-0.9474865198135376,-0.2678258717060089,-8.988149642944336,6.348945617675781,0.9661114811897278,0.14858469367027283,0.029212474822998047,2.5377233028411865
256,0.09794422373664588,0.3043114592078992,-2.1070104873714994,0.09329469501972198,-0.2996363341808319,-0.9494810104370117,6.548901081085205,-6.361993312835693,0.1662481129169464,-0.023867204785346985,0.2805781066417694,-3.3780641555786133
257,-0.570303978342742,1.1992078458982725,-1.8398360881100033,-0.1960313320159912,-0.9317517280578613,-0.3056315779685974,-3.0094854831695557,2.077420473098755,0.3098698854446411,0.22383281588554382,-0.022731423377990723,2.3642101287841797
258,-0.03871636391155284,0.34716678241145016,-2.0834806568885247,-0.03639746829867363,-0.34023499488830566,-0.9396357536315918,4.171439170837402,-5.428106307983398,-0.7651178240776062,-0.23699426651000977,0.20369935035705566,-2.969757556915283
259,-0.7580213870384838,1.1815117823637884,-1.7803727533156855,-0.2609192728996277,-0.9251808524131775,-0.27561140060424805,-2.0592737197875977,4.930103302001953,1.0169774293899536,0.4889160990715027,-0.48502117395401,2.0010905265808105
260,0.1589738749337475,0.08915017801104845,-2.0199156020046725,0.15767644345760345,-0.0890321359038353,-0.9834690690040588,7.346202373504639,-8.654735565185547,-0.8960201144218445,0.31150078773498535,0.2715120017528534,-4.886190414428711
261,-1.3072083673485113,1.316827483304454,-1.1431138414640705,-0.24256949126720428,-0.9679228663444519,-0.06546152383089066,-2.8617115020751953,5.981051445007324,1.1487189531326294,0.9654393792152405,-0.3048126697540283,3.4717421531677246
262,0.11754112888884498,0.20469035182394674,-1.910636240656272,0.11482251435518265,-0.20326398313045502,-0.9723680019378662,-2.5347840785980225,-4.342162609100342,0.007738829590380192,0.646835207939148,0.1553056240081787,-3.1454145908355713
263,-0.5979782160179586,1.1995181727013213,-1.6770050551651405,-0.20425041019916534,-0.9318643808364868,-0.29985108971595764,0.3819255828857422,4.657252311706543,0.981606662273407,0.7905387878417969,-0.25085973739624023,2.20295786857605
264,0.26173637125017946,0.07592312684526355,-1.7465053839120204,0.2580127418041229,-0.07585020363330841,-0.9631595015525818,-4.023678779602051,-3.3549129962921143,-1.1872880458831787,0.4554882347583771,0.6250750422477722,-2.299612045288086
265,-0.6229946828501044,0.9837381273515594,-1.544127923216539,-0.323192298412323,-0.8325737714767456,-0.4498530626296997,4.51116418838501,0.29858818650245667,-0.8231303095817566,-0.2804606854915619,0.0754936933517456,1.2882472276687622
266,0.11485304189994149,0.07219139565748205,-1.7496378499919993,0.11430220305919647,-0.07212870568037033,-0.9908241033554077,-8.356709480285645,-4.602295398712158,0.18786324560642242,0.7762007117271423,0.7220615744590759,-1.7781883478164673
267,-0.48626722438283354,0.7429358778225977,-1.6935917387538297,-0.3441811800003052,-0.6764530539512634,-0.651114821434021,3.155937433242798,1.669702410697937,-2.0537631511688232,0.10643401741981506,0.2841801047325134,0.9484018087387085
268,-0.02979251536796092,0.18743882249077473,-1.7510428950328227,-0.0292663611471653,-0.18634319305419922,-0.982048749923706,-2.912741184234619,-6.408607482910156,0.9333270788192749,0.3213043212890625,0.3148221969604492,-1.213507890701294
269,-0.438268786829554,0.6167713603866087,-1.6861647608535937,-0.3461819589138031,-0.578404426574707,-0.7386517524719238,-1.8719438314437866,6.8525590896606445,-0.22550982236862183,0.07431608438491821,-0.05112743377685547,0.7640881538391113
270,-0.2789379725036182,0.39202061918906334,-1.790843500942469,-0.2544476389884949,-0.3820565342903137,-0.888419508934021,0.1498010903596878,-8.521349906921387,-1.259946584701538,-0.028648674488067627,0.15827110409736633,-0.070107102394104
271,-0.3199012575971852,0.4796585510346889,-1.8040103847702675,-0.2789853811264038,-0.46147629618644714,-0.8421441912651062,4.946252822875977,0.08601188659667969,-1.5428152084350586,-0.5725160837173462,0.20758527517318726,-1.1932713985443115
272,-0.23849148733375114,1.074666232057748,-1.8132384138461695,-0.11245492845773697,-0.8794313073158264,-0.4625520408153534,-3.119816780090332,-0.11381983011960983,0.15834645926952362,0.9731574058532715,0.4693361520767212,2.494565010070801
273,-0.11069990317704897,0.13098194079553932,-1.945550152577633,-0.10952764004468918,-0.1306077390909195,-0.9853655695915222,4.364808559417725,1.6017529964447021,2.0825207233428955,-0.03948969393968582,0.9081193208694458,-5.5777907371521
274,-0.4325043900377492,1.3527139250070106,-1.8132480264460782,-0.09068546444177628,-0.976314127445221,-0.19643528759479523,5.944416522979736,-5.194403171539307,-2.2305045127868652,0.8836389780044556,0.9137378931045532,2.2822508811950684
275,0.019007687622443103,0.6424664281173326,-2.053745735560474,0.015217026695609093,-0.5991719365119934,-0.8004757761955261,-14.726967811584473,3.2295689582824707,3.2157790660858154,0.6534841060638428,0.8991139531135559,0.5373989939689636
276,0.07539312649494859,0.5931653629907961,-1.8739366700417892,0.06245492398738861,-0.5589884519577026,-0.8268200159072876,10.091672897338867,-3.8421621322631836,-1.3862435817718506,-0.3077399730682373,0.17568767070770264,-0.0321429967880249
277,0.30308681433104995,0.5588948987192407,-1.961139402265194,0.25305336713790894,-0.5302495956420898,-0.8091967105865479,-12.364043235778809,3.0015907287597656,-0.14389143884181976,0.5596449971199036,0.6908941268920898,1.0251696109771729
278,0.1667581117747415,0.4608053657968899,-1.8777518618457427,0.14867305755615234,-0.44466960430145264,-0.8832696676254272,5.311497211456299,-0.1325310617685318,-0.6234056949615479,-0.43561458587646484,0.18725383281707764,-0.14497435092926025
279,0.2000476953453571,0.666747918646378,-2.06808340361907,0.156158447265625,-0.6184336543083191,-0.7701651453971863,-7.651239395141602,3.3709230422973633,1.9212974309921265,0.9011077880859375,0.019587278366088867,1.5677573680877686
280,0.2022472018449296,0.5426069885810265,-1.8875070465519377,0.17201918363571167,-0.5163702964782715,-0.838910698890686,7.943408966064453,-2.1247339248657227,-1.140204906463623,-0.07747572660446167,0.4567999839782715,-1.246569037437439
281,0.4397791591870007,0.9145241860223245,-1.9540769447092605,0.25977253913879395,-0.7922723293304443,-0.552107572555542,-7.068730354309082,3.9035725593566895,-0.7360605001449585,-0.004660815000534058,0.27971434593200684,1.975020170211792
282,0.3291523745100925,0.5383970486211723,-1.662160772048356,0.27751266956329346,-0.5127604603767395,-0.8124428987503052,5.852840900421143,-2.442018985748291,0.27429667115211487,-0.22932541370391846,0.681965172290802,-1.1405905485153198
283,0.26960934661576824,0.7309429675419675,-1.8034139139748335,0.19831328094005585,-0.667572021484375,-0.7176485657691956,0.17102889716625214,-0.30080071091651917,-0.3230692744255066,-0.17916348576545715,-0.1465606689453125,0.27210718393325806
284,0.2859118289403305,0.6074487344078471,-1.772863484277345,0.23157872259616852,-0.5707744359970093,-0.7877739071846008,2.5345098972320557,-1.2734812498092651,0.2486920952796936,0.2671242952346802,0.4480479955673218,-1.246939778327942
285,0.2774766144529992,0.7745090483734555,-1.6739332953830468,0.1957951933145523,-0.6993652582168579,-0.6874245405197144,1.329967737197876,-1.3658992052078247,-0.02332931198179722,-0.3602086305618286,-0.10597836971282959,0.008652567863464355
286,0.2581727775186394,0.727109093651203,-1.705263297618062,0.19074510037899017,-0.6647126078605652,-0.722338855266571,-0.2772772014141083,-3.2906830310821533,-0.03259868919849396,0.24406933784484863,0.12764906883239746,-0.20991206169128418
287,-0.2678249499173733,0.9929262291055729,-1.4965730334845768,-0.1445542722940445,-0.8376280069351196,-0.5267669558525085,12.29708480834961,-11.798919677734375,-2.8200979232788086,-1.5785139799118042,0.43934309482574463,-1.2426574230194092
288,0.0076680904920653934,1.1351479891096803,-1.9610227570187653,0.0032358882017433643,-0.9065966606140137,-0.4219857454299927,-11.435961723327637,4.986147880554199,0.7245364189147949,0.8194569945335388,0.6486773490905762,0.4151955842971802
289,-0.8813091930035217,1.2315431097453495,-1.16404395088093,-0.25676587224006653,-0.9430034160614014,-0.21169686317443848,12.148429870605469,-1.5392950773239136,3.0427041053771973,-0.11547225713729858,0.1285962462425232,0.38048961758613586
290,-0.1280511939087698,0.8805100349134911,-1.6554023371678706,-0.08131495863199234,-0.7710637450218201,-0.6315445303916931,-7.368254661560059,-5.8631110191345215,-1.8281731605529785,1.1882942914962769,0.9419012665748596,-1.148728847503662
291,-0.79434253221606,1.202101625505771,-0.9383048367431562,-0.257109135389328,-0.9327985644340515,-0.2525504231452942,-3.3537230491638184,2.7328875064849854,-4.9223222732543945,-1.518144130706787,-0.229783833026886,2.996553897857666
292,-0.07838563664304032,0.6099615141922994,-1.4461961189163692,-0.06418458372354507,-0.5728359222412109,-0.8171532154083252,4.366846084594727,4.814023017883301,2.4614174365997314,-1.7350250482559204,0.16458702087402344,-0.4976966381072998
293,-0.13894298065006275,0.5824835182913292,-1.6047188493119053,-0.11565817892551422,-0.5500996112823486,-0.8270511627197266,0.2652972340583801,1.1258176565170288,-0.3531111180782318,-0.20347940921783447,-0.05771899223327637,-0.24423789978027344
294,-0.052664540129108685,0.5420643292791301,-1.5725605762096488,-0.04509399086236954,-0.515905499458313,-0.8554578423500061,-1.3354188203811646,-0.35080137848854065,-1.6836917400360107,-0.26052427291870117,0.11720860004425049,0.08055543899536133
295,0.06924194407486435,0.47490858570483124,-1.6270076714560728,0.06153005734086037,-0.45725715160369873,-0.8872034549713135,0.9520663022994995,-1.4951236248016357,-1.2606290578842163,-0.11630910634994507,0.11217963695526123,-0.0040624141693115234
296,0.06089759908101706,0.48706736629123804,-1.623374055452821,0.05378251522779465,-0.46803632378578186,-0.8820711374282837,0.436605840921402,-0.18383409082889557,0.6089689135551453,-0.08047014474868774,-0.013393759727478027,-0.1532224416732788
297,0.03872334900657677,0.5626376235978712,-1.577751220023222,0.032746002078056335,-0.5334190726280212,-0.8452169895172119,0.31631767749786377,0.31998613476753235,0.4260326623916626,-0.03064030408859253,-0.04180675745010376,0.07518219947814941
298,0.0873008155468519,0.6262865573309839,-1.5064109286070688,0.07064215838909149,-0.5861401557922363,-0.8071241974830627,0.9732681512832642,0.2961169183254242,0.4390501379966736,-0.022027671337127686,-0.09945249557495117,0.10123729705810547
299,0.11339459138214983,0.6113687253022172,-1.451238791491646,0.09265579283237457,-0.5739887952804565,-0.8136041760444641,1.0966410636901855,0.42905378341674805,0.6852408647537231,0.04899154603481293,0.10978591442108154,-0.4095250368118286
300,0.13516048041596634,0.6422842996514492,-1.4124988572173862,0.10789776593446732,-0.599026083946228,-0.7934266328811646,-0.16127964854240417,0.21808654069900513,0.25127267837524414,-0.006533622741699219,0.09968221187591553,-0.10401904582977295
301,0.05617800623149017,0.7911298328050859,-1.3830901618374924,0.039474744349718094,-0.7111480236053467,-0.7019332051277161,2.1095995903015137,-1.4555027484893799,-0.49459007382392883,-0.3015291690826416,-0.14091801643371582,0.37960654497146606
302,-0.6840067141165043,1.2578965166077432,-1.4269897326939371,-0.1945117861032486,-0.9514449834823608,-0.2385740876197815,0.5982070565223694,-5.225728511810303,-0.5795941948890686,0.2920154929161072,0.29650723934173584,0.426089346408844
303,-2.393719315863134,1.1346821482026832,0.1666070672111001,-0.2872803509235382,-0.9063999652862549,0.3096921443939209,18.475887298583984,-7.095898628234863,-0.6371734142303467,-0.21506953239440918,1.3209049701690674,-0.6635892391204834
304,-1.6031881585902834,1.173848010584291,-0.46955369454026724,-0.3864028751850128,-0.9222450852394104,0.012520675547420979,-13.970807075500488,6.279386043548584,-3.366630792617798,-0.2109176516532898,0.9377328157424927,-0.039086222648620605
305,-2.248903878328166,1.0083948445972581,0.058835201118793035,-0.4152507781982422,-0.8459770083427429,0.3344995379447937,18.326969146728516,-3.91078519821167,3.102792739868164,0.6985759139060974,1.646864891052246,-0.1950189769268036
306,-2.1879295788398534,0.8025067092692852,0.003296106474811412,-0.5667245984077454,-0.719100296497345,0.40214210748672485,-6.9335713386535645,4.42601203918457,-0.6818061470985413,-0.2527945041656494,0.2185814380645752,0.6636385917663574
307,-1.1035863943689965,0.7808014001330273,-0.9313711361550926,-0.6342204213142395,-0.7038488984107971,-0.31993940472602844,12.10653305053711,-6.818658351898193,4.693933486938477,1.2160074710845947,0.5679846405982971,-5.287299156188965
308,-1.9972890717246259,0.4419143408019125,0.14341602326992195,-0.8229620456695557,-0.4276706874370575,0.3739398419857025,-8.49159049987793,4.864531993865967,-2.3484785556793213,-1.7535148859024048,0.24291732907295227,2.758948802947998
309,-0.7007364864511263,0.5293852482459905,-1.091598461665628,-0.5565217137336731,-0.5050028562545776,-0.6597391366958618,-5.260861396789551,-4.4353413581848145,0.6814707517623901,2.0567963123321533,1.6537607908248901,-1.5940145254135132
310,-1.9393633377062063,0.4966579543770567,0.1637056589780038,-0.8201380372047424,-0.47648993134498596,0.31675001978874207,2.75858473777771,0.055204663425683975,1.2002143859863281,-0.272238552570343,0.4915046989917755,2.913886547088623
311,-0.7782363146148442,0.6724393686283366,-0.8611882949569244,-0.5491968989372253,-0.6228961944580078,-0.5571203231811523,-12.74183177947998,7.202908992767334,-4.243319511413574,0.9929072260856628,1.3599109649658203,0.35959529876708984
312,-1.9137276545351085,0.6720729566226371,0.2686401798922587,-0.7369683384895325,-0.6226094961166382,0.26312604546546936,16.75706672668457,-4.209009647369385,2.022939920425415,0.6089317798614502,2.095921754837036,1.0083431005477905
313,-1.4318302725695244,0.7778695979011296,-0.007365327533871962,-0.7055422067642212,-0.7017632722854614,-0.0986824780702591,-12.290670394897461,9.078795433044434,-4.680673599243164,0.23108553886413574,0.6619073748588562,0.9167824983596802
314,-0.6472136507626614,0.5157486318041599,-0.5188703829467951,-0.5245343446731567,-0.49318623542785645,-0.6939964294433594,14.355929374694824,-7.543417930603027,4.695305347442627,0.7028027772903442,1.7001869678497314,-2.6408729553222656
315,-1.9846348782144945,0.5403960470248997,0.8752138073357723,-0.7851177453994751,-0.5144756436347961,0.3448256850242615,-3.9349546432495117,2.282078266143799,0.8146879076957703,-0.38599419593811035,-0.3886615037918091,3.4346847534179688
316,-0.24961421903021397,0.27895291879609907,-0.4543666244588637,-0.237481027841568,-0.2753491997718811,-0.9315500855445862,-3.958977222442627,-5.545968055725098,0.38144296407699585,2.91585636138916,1.4370617866516113,-3.6507863998413086
317,-1.4540635022693946,0.694103847531911,0.6042735402013423,-0.7633962631225586,-0.6396968960762024,-0.08952038735151291,-5.380796909332275,-1.4891722202301025,-2.137503147125244,-2.200333595275879,-0.9978152513504028,2.0008058547973633
318,-1.1795950225277134,1.0002095221345841,0.2161968969439563,-0.49932029843330383,-0.8415841460227966,-0.2059495896100998,6.975881576538086,1.8291027545928955,1.5297802686691284,2.546668291091919,1.2856149673461914,1.0783556699752808
319,-0.6684073982987876,0.12230368883311131,-0.014987942831314459,-0.6151075959205627,-0.12199901044368744,-0.7789473533630371,9.713985443115234,-3.3785464763641357,-6.4345574378967285,-1.7541704177856445,1.2048237323760986,-4.950056552886963
320,-1.1830656647875197,1.1202496011294083,0.41501116273609834,-0.4031336307525635,-0.9002091884613037,-0.1646416336297989,8.187647819519043,-6.875948905944824,-5.506365776062012,1.2251856327056885,1.5212419033050537,1.0097496509552002
321,-0.866660687947059,0.6302604510563703,0.3177280852486721,-0.6157384514808655,-0.5893551707267761,-0.5229976773262024,-15.259900093078613,10.226678848266602,11.190499305725098,-0.09199464321136475,2.266479253768921,0.5607631802558899
322,-1.074988280459912,0.7362363079025032,0.45026764613114406,-0.6517731547355652,-0.6715037822723389,-0.3525257706642151,7.952591419219971,0.10868901759386063,-2.813613176345825,0.5539186000823975,0.10167956352233887,0.2709522843360901
323,-1.526467671247517,0.9264622901118078,0.8085053999932109,-0.6000761389732361,-0.7994999885559082,-0.026618005707859993,-6.91425085067749,4.6808857917785645,4.754081726074219,2.363656520843506,0.7721409797668457,1.0468511581420898
324,-0.8348179965095683,0.20960111041621268,0.28138326296013,-0.7249530553817749,-0.20806975662708282,-0.6566202640533447,7.538798809051514,-4.088268280029297,-6.025259017944336,-1.3192517757415771,0.6967782378196716,-3.3519399166107178
325,-1.558373990248242,0.8951731144597216,0.8965017525630902,-0.6253353953361511,-0.7803173661231995,-0.007768526673316956,0.5303272008895874,-2.343360662460327,-0.7463250160217285,1.4396817684173584,0.38842594623565674,1.6113146543502808
326,-0.6571690645110845,0.04438989392962989,0.2410824677225654,-0.6102762222290039,-0.04437531903386116,-0.7909448742866516,7.9159016609191895,-5.457809925079346,-4.444713592529297,-2.5945425033569336,0.7652767896652222,-7.196069717407227
327,-1.3366529640124423,0.8131671929537192,0.8953277478717585,-0.6684495806694031,-0.7264673113822937,-0.15943734347820282,-6.212423801422119,5.683498382568359,2.1129486560821533,1.2991411685943604,-0.029758214950561523,3.0210554599761963
328,-0.7708776057927714,0.49200064792444603,0.39644082285043103,-0.6141213774681091,-0.47239017486572266,-0.6322202682495117,11.156731605529785,0.494662344455719,-4.225208759307861,-0.6155996918678284,1.5114374160766602,-1.7055635452270508
329,-1.3947175984871765,1.0621576535550858,1.0048224282703608,-0.47945889830589294,-0.8734082579612732,-0.08530594408512115,-10.28551959991455,5.140504837036133,3.9078216552734375,2.4345216751098633,0.8182324767112732,2.76413893699646
330,-0.7883926582045296,0.33305939725851214,0.45700337811189984,-0.6702468991279602,-0.3269358277320862,-0.6662447452545166,5.011053085327148,-2.997194766998291,-1.9335789680480957,-2.108180284500122,0.44328412413597107,-3.093108892440796
331,-1.5170112332557293,1.0595572045305688,1.0700404592990462,-0.48855090141296387,-0.8721389174461365,-0.026302123442292213,4.984170436859131,-2.855262279510498,-3.1873865127563477,1.3643443584442139,0.6970138549804688,1.2366139888763428
332,-0.2808609074500111,-0.011381653134709128,0.32906184140025435,-0.2771649658679962,0.011381407268345356,-0.960754930973053,0.43343549966812134,-1.121697187423706,-0.14829036593437195,-0.13161799311637878,2.2233903408050537,-5.177428722381592
333,-0.9018297968995412,0.883388191353624,0.8122090966647557,-0.49777019023895264,-0.7728932499885559,-0.3935238718986511,-4.089804172515869,4.053442001342773,-1.3732017278671265,0.028425097465515137,-0.35328173637390137,3.5915982723236084
334,-0.47725814694655827,0.5073321038172596,0.3021090844106809,-0.4014880359172821,-0.4858471155166626,-0.7763761281967163,9.04807186126709,-3.9895734786987305,1.3182350397109985,0.771406888961792,1.0236889123916626,-3.0330567359924316
335,-0.4442061447733772,0.7526954880063296,0.4143598450492234,-0.3136461079120636,-0.6836085319519043,-0.6590185165405273,-4.537715911865234,1.7269362211227417,-5.977595329284668,-0.5625593066215515,-0.19682353734970093,1.3968267440795898
336,-0.4660826183236197,0.6221908441997805,0.5426060980137684,-0.36517608165740967,-0.5828168392181396,-0.7259276509284973,5.059413909912109,1.2464385032653809,2.2294113636016846,-1.5621920824050903,0.7872388362884521,-0.23795479536056519
337,0.11160171586162715,0.574705807637312,0.18582604395540622,0.09347882866859436,-0.543587863445282,-0.8341306447982788,-4.167574405670166,4.60812520980835,-5.124945640563965,0.563412070274353,0.985970675945282,0.8815702199935913
338,-0.12252622730620147,0.41966764296898124,0.4110995070304467,-0.1116141825914383,-0.4074569642543793,-0.9063780307769775,-4.003904819488525,-4.592709064483643,3.8083837032318115,-0.020557448267936707,0.5080276727676392,-0.619943380355835
339,-0.06990021708234576,0.870113413953291,0.29138617137577216,-0.04503076151013374,-0.7644020915031433,-0.6431653499603271,-9.08695125579834,9.540225982666016,-6.128199577331543,-0.06692297011613846,0.4509255886077881,3.1800763607025146
340,-0.3377599238742638,0.7760208678759657,0.42261599520205445,-0.23650401830673218,-0.7004450559616089,-0.6733814477920532,6.285982131958008,0.4190264940261841,5.502670764923096,-0.17517811059951782,0.5452479124069214,-0.19632375240325928
341,-0.05292331370299907,0.8848500894602107,0.24964715374416455,-0.03350627049803734,-0.7738200426101685,-0.6325186491012573,-9.325754165649414,7.0305256843566895,-6.609890937805176,-0.28871357440948486,0.6136485934257507,2.3539695739746094
342,-0.5744022479525435,0.920170396033379,0.6229870147539094,-0.329088419675827,-0.7957048416137695,-0.5084825754165649,5.297159194946289,1.506851077079773,3.939695358276367,-0.9148080348968506,0.4097185730934143,0.4709307551383972
343,-0.15458823660847373,0.927483948499375,0.30655810394549543,-0.09236070513725281,-0.8001132011413574,-0.5926957726478577,-10.127002716064453,5.574438095092773,-7.769442558288574,-0.6288001537322998,0.2376437783241272,1.9876543283462524
344,-0.2491769918293052,0.6528106120432815,0.18623395406493265,-0.19589915871620178,-0.6074215173721313,-0.7698458433151245,-3.3248465061187744,0.28490114212036133,6.404496192932129,1.161948323249817,1.0156704187393188,0.3000430464744568
345,-0.3599443926469848,0.8190923622677901,0.32033270899794847,-0.24052710831165314,-0.730526328086853,-0.6391229033470154,5.728397846221924,-0.08841485530138016,-3.0912842750549316,-0.5289125442504883,-0.5638309717178345,0.5582208633422852
346,-0.09673879749646187,0.7087840651700347,-0.1419569924736455,-0.07332514971494675,-0.6509111523628235,-0.7556045055389404,-5.310354232788086,-1.3453749418258667,5.111767292022705,2.9853429794311523,1.6607224941253662,-0.25466465950012207
347,-0.18811749244052586,0.22392099065796847,0.43447142052308674,-0.1823410987854004,-0.22205442190170288,-0.9578327536582947,7.688448429107666,-4.910161018371582,-3.329892635345459,-1.6426711082458496,-0.7544317841529846,-3.465461254119873
348,-1.5543574190245988,1.359019297857109,1.1230432065400433,-0.21016919612884521,-0.9776589274406433,-0.003455263329669833,-3.4279942512512207,-2.530773162841797,-1.8289693593978882,1.5694373846054077,0.8006264567375183,2.6205968856811523
349,-0.4154198627093149,0.32413751878643704,0.37328624547846523,-0.38255831599235535,-0.3184913396835327,-0.8673018217086792,-0.9458099603652954,6.141779899597168,4.719254970550537,-2.9736428260803223,0.4491218328475952,-2.8544845581054688
350,-0.8008999244859828,1.093829103150409,0.4342563913143037,-0.3296164870262146,-0.8883913159370422,-0.3195524215698242,1.6940333843231201,-1.9558454751968384,-5.245404243469238,0.461940735578537,0.792108416557312,2.126925468444824
351,-0.45979708126045543,0.48029838685400145,0.18247796128241378,-0.39355728030204773,-0.462043821811676,-0.7947503924369812,0.4725396931171417,1.9111706018447876,8.687763214111328,-0.6363041400909424,1.6235733032226562,-2.766559362411499
352,-1.1459169925207862,1.102568870038271,0.9192751243328715,-0.4111790657043457,-0.8923696279525757,-0.18603293597698212,4.974643707275391,-2.486562967300415,-2.041231632232666,0.2661442756652832,0.24365746974945068,2.212522268295288
353,-0.4828593311987831,0.7627887195158485,0.2533274986451178,-0.3356578052043915,-0.6909401416778564,-0.6402621269226074,-12.335078239440918,4.814517021179199,6.059321880340576,1.3667247295379639,1.195044755935669,0.3337435722351074
354,-0.3630619650432278,0.3966831311593559,0.3393047128388357,-0.3275609016418457,-0.38636118173599243,-0.862223207950592,11.583754539489746,-5.355627536773682,-2.545393228530884,-0.2132105827331543,0.05906015634536743,-0.8909200429916382
355,-1.0322605342177023,1.2110814176344513,0.5817143542625648,-0.3021845817565918,-0.9359971880912781,-0.18053747713565826,-6.133232593536377,-2.1386172771453857,-0.16810062527656555,1.3746027946472168,1.1406786441802979,1.468531847000122
356,-0.6238170894793753,0.4521793986817921,0.3074611150489027,-0.5254300236701965,-0.436926931142807,-0.7300809621810913,7.444607734680176,-2.714120864868164,-1.6158283948898315,-2.6357486248016357,0.268103688955307,-3.2825379371643066
357,-0.979748416347418,1.1395449863476492,0.5446620312686153,-0.34709587693214417,-0.9084433913230896,-0.23292717337608337,-2.021754264831543,-1.1200507879257202,-3.7386298179626465,0.8327831625938416,0.9709433913230896,2.0715653896331787
358,-0.44039916993541406,0.2761056635576212,0.20377470717879195,-0.41015416383743286,-0.2726109027862549,-0.8703199625015259,-1.7316395044326782,3.148123025894165,6.1262526512146,-1.1240408420562744,1.5534794330596924,-3.6786913871765137
359,-0.8040512154439577,0.9808085387067852,0.6312532079573022,-0.4006686210632324,-0.8309474587440491,-0.38599327206611633,2.9462413787841797,-1.7694275379180908,-3.1639046669006348,-0.3054470419883728,0.2792202830314636,2.5700907707214355
360,-0.30877181819202637,0.5875855254716672,0.01916603650577634,-0.2529210150241852,-0.5543531179428101,-0.7929209470748901,-4.467641353607178,-0.9551558494567871,4.294818878173828,1.7287358045578003,1.846192717552185,-1.3037739992141724
361,-0.6395968259008122,0.6678274824066052,0.42593788704798907,-0.4686453342437744,-0.6192816495895386,-0.6299696564674377,2.0655782222747803,1.8414820432662964,-2.8957889080047607,-2.0125863552093506,-0.9040948152542114,-0.014119088649749756
362,-0.08449207138737562,0.7999103327663545,0.009399132009625185,-0.05880160629749298,-0.7172936201095581,-0.6942854523658752,2.399322986602783,0.05142746865749359,-3.8182287216186523,0.9684848189353943,1.264168620109558,0.8872786164283752
363,-0.622743100275438,0.45292590657341103,0.40690462594965654,-0.524455189704895,-0.4375982880592346,-0.7303797006607056,-1.4127845764160156,-4.029621601104736,1.6832257509231567,-2.8805131912231445,0.3666144013404846,-1.1217321157455444
364,-0.5211896646832963,0.7998878725184586,0.26830932056515033,-0.3469387888908386,-0.7172779440879822,-0.6042728424072266,2.7320969104766846,-0.596584141254425,-4.461714267730713,-0.08305385708808899,0.23990678787231445,0.8045445084571838
365,-0.6435950808059456,0.6990286594965268,0.20589756493889935,-0.45933809876441956,-0.6434744596481323,-0.6123309135437012,0.9130672812461853,1.4685465097427368,8.398763656616211,1.1418942213058472,1.6981009244918823,-1.4057660102844238
366,-0.7559554227938027,0.7218568752693795,0.6977907503307159,-0.5148860216140747,-0.6607795357704163,-0.546134352684021,1.6916155815124512,0.6764174103736877,-1.8556479215621948,-1.4959475994110107,-1.2622398138046265,1.158912181854248
367,-0.32598352590104507,0.7798261627767458,-0.044503061811360226,-0.22770258784294128,-0.7031558156013489,-0.6735900044441223,-1.4766429662704468,-7.0021867752075195,-1.967340350151062,2.4669604301452637,2.267639398574829,-0.6454407572746277
368,-0.7866024270553853,0.48709414871111023,0.6198364932142637,-0.6256200075149536,-0.4680599868297577,-0.624114990234375,-1.1564116477966309,0.19149281084537506,2.1131207942962646,-3.270467758178711,-0.0315738320350647,-0.398651123046875
369,-0.7744752392215876,0.7948193588333724,0.45549426555361855,-0.48982805013656616,-0.7137370705604553,-0.5006473660469055,6.419875144958496,-6.139920234680176,-6.726810932159424,-0.5794010162353516,0.3763195276260376,-0.6195002794265747
370,-1.576612199950545,1.246428621625552,0.7710057308686463,-0.3187040090560913,-0.9478524327278137,0.0018535628914833069,-1.0006895065307617,3.509885787963867,9.425153732299805,2.872750759124756,0.8073800802230835,0.0611804723739624
371,-0.8047254534983408,0.4492491436191462,0.2936620446077891,-0.6491337418556213,-0.4342893064022064,-0.6245144605636597,9.335591316223145,-1.1777217388153076,-4.558453559875488,-2.016927719116211,0.3567441403865814,-4.014187812805176
372,-1.68616866223038,1.1805534598337217,1.001090262012416,-0.3778841197490692,-0.9248166680335999,0.04379184916615486,1.6286065578460693,-5.665964603424072,-3.4414329528808594,1.069946527481079,1.0722928047180176,1.2171945571899414
373,-0.9029494864255535,0.5579935951550656,0.4089955379249724,-0.6660637855529785,-0.5294851660728455,-0.5253614783287048,4.85915994644165,-0.015832899138331413,3.3790700435638428,-2.5291876792907715,1.0151877403259277,-3.7308030128479004
374,-1.4438102497662695,0.9606419170667957,1.1628947601997939,-0.5683801770210266,-0.8195595741271973,-0.07256684452295303,0.5163459777832031,-0.7339351177215576,-2.197659492492676,0.04976451396942139,0.33225494623184204,2.532085418701172
375,-0.7782580353794678,0.6868347841699916,0.283118787730405,-0.54285728931427,-0.6340928673744202,-0.5506652593612671,-4.0214056968688965,-3.038547992706299,3.58273983001709,0.9670974612236023,1.4937729835510254,-3.308694362640381
376,-1.6255572356760062,0.758675145954908,1.3384436760440759,-0.7246602773666382,-0.6879605650901794,0.03972277045249939,4.07346248626709,-1.5306416749954224,-0.7395781874656677,-1.2672525644302368,-0.42333704233169556,2.238582134246826
377,-0.9442961963318257,1.0410692382297402,0.49111289213071363,-0.40933382511138916,-0.862945020198822,-0.2962626814842224,-2.7481987476348877,-5.153347492218018,-3.3368113040924072,1.5018631219863892,1.4124598503112793,-0.7105121612548828
378,-1.3165753519767944,0.6686642239609517,0.8425456597061063,-0.7594313025474548,-0.6199384331703186,-0.19733288884162903,-0.8732725977897644,-0.2560494840145111,1.6311719417572021,-2.874830722808838,-0.6351121068000793,-0.6257414817810059
379,-0.9617116845644217,0.8375962905362202,0.7394978818546843,-0.5489007234573364,-0.7430365681648254,-0.38288968801498413,0.6240625977516174,0.5740146040916443,-3.8609213829040527,0.0666009783744812,0.20546948909759521,0.2789163291454315
380,-2.075326615964058,1.0425311021960812,1.4897778780520228,-0.44123345613479614,-0.863682746887207,0.24364887177944183,4.837052345275879,-4.36850118637085,3.3686952590942383,1.6873730421066284,0.9975330233573914,0.728610634803772
381,-1.8774995794324512,0.7461137296000669,1.316934415612382,-0.7000641226768494,-0.6787900924682617,0.22170771658420563,-5.258217811584473,4.863711833953857,-1.7799060344696045,-1.8993622064590454,-0.6482210159301758,1.7247034311294556
382,-0.6427967428779525,0.7743955349705544,0.011985319558300383,-0.4285033643245697,-0.6992840766906738,-0.572176992893219,-1.9741791486740112,-2.523559093475342,0.02006371319293976,2.288931369781494,1.8768049478530884,-3.197323799133301
383,-1.5005093451458316,0.8176148300271006,1.1920799708682104,-0.6822742819786072,-0.7295165657997131,-0.048034124076366425,2.0750794410705566,-3.7569844722747803,-0.19118575751781464,-0.8066630363464355,-0.5721039175987244,2.3684840202331543
384,-0.7425283693386967,0.8968573457780455,0.3940982216561421,-0.4219657778739929,-0.7813695669174194,-0.4597896337509155,-3.241049289703369,-3.5165839195251465,-3.692704439163208,0.7397911548614502,0.9748204946517944,-0.12326392531394958
385,-1.3102652520676001,0.7532234542101672,0.8798612273912498,-0.7048701643943787,-0.6839937567710876,-0.1879115253686905,7.191451549530029,0.010612240992486477,5.037684917449951,-1.5537511110305786,0.4395327568054199,-0.3505558967590332
386,-1.4397312558259383,0.975133958096021,0.9873076711134008,-0.5562452077865601,-0.8277770280838013,-0.07332465797662735,2.3809897899627686,-4.169456481933594,-4.049953937530518,0.47171157598495483,0.17830199003219604,-0.49509572982788086
387,-1.9340400109173366,1.0861179673951238,1.240513870422017,-0.43552178144454956,-0.8848248720169067,0.1655464619398117,-8.461716651916504,5.319044589996338,8.552231788635254,2.509542226791382,1.2594435214996338,0.7272605895996094
388,-0.9531689989397976,0.5491836657772334,0.4428250217331211,-0.6953723430633545,-0.5219911336898804,-0.49394598603248596,7.748348236083984,-3.2687528133392334,-5.413909435272217,-0.9523479342460632,0.5501741170883179,-2.3657798767089844
389,-1.8974675276068789,1.0562048415510235,1.2606024174264288,-0.4661504030227661,-0.8704938292503357,0.15793630480766296,2.1162867546081543,-4.579199314117432,-2.9842445850372314,1.0420172214508057,1.0220139026641846,1.2941358089447021
390,-0.8982681768366024,0.5926030014198992,0.3765405589990505,-0.648867666721344,-0.5585220456123352,-0.516743540763855,-10.863425254821777,6.806326389312744,6.196659088134766,-0.6547517776489258,1.587773084640503,-1.2025405168533325
391,-1.6264838217464024,0.980013073454873,1.0841768802254177,-0.5561481714248657,-0.8305046558380127,0.031002551317214966,6.8590617179870605,-0.799257218837738,-1.327388048171997,0.9894673228263855,0.7292168736457825,0.8606600761413574
392,-1.7325218623313852,0.8988557068037067,1.0515221607187153,-0.6143829226493835,-0.782615065574646,0.10023684054613113,-3.8574843406677246,1.5714757442474365,7.198159217834473,1.5847656726837158,0.632560133934021,0.3453044891357422
393,-1.2692901094013995,0.732378528673389,0.6630503310392133,-0.7100431323051453,-0.66864013671875,-0.22081443667411804,4.126553535461426,-0.9872214198112488,-5.02409553527832,-0.10331130027770996,0.08680731058120728,-1.4470322132110596
394,-1.9165634219580894,0.9745195564644994,1.3486986197492867,-0.5283297300338745,-0.8274321556091309,0.19032494723796844,-1.74672532081604,-1.3672823905944824,0.9496746063232422,1.7600650787353516,0.6457763314247131,1.6865977048873901
395,-1.0942430786442814,0.5613873521038537,0.5987579486751514,-0.7521994709968567,-0.5323611497879028,-0.38831374049186707,2.2971913814544678,-1.6946601867675781,-5.399454116821289,-2.9154183864593506,0.09296911954879761,-3.0337748527526855
396,-1.7910014623346544,1.1150262925177157,1.2475450892871067,-0.4295254647731781,-0.8979223370552063,0.09614275395870209,4.47572660446167,-3.074528455734253,-2.176410675048828,1.244268536567688,0.9326055645942688,0.6387815475463867
397,-0.7194479007110495,0.3612415871223357,0.44881481688753394,-0.6164387464523315,-0.3534359633922577,-0.7036236524581909,-19.455585479736328,9.803205490112305,5.897503852844238,-0.7668924927711487,2.6222500801086426,-0.2775164246559143
398,-1.4010035663264093,0.9521559959358781,0.8586935457989466,-0.5715885162353516,-0.8146677017211914,-0.09799512475728989,8.236971855163574,-2.87211012840271,-3.555304527282715,0.5439853668212891,0.7560587525367737,0.5601990818977356
399,-1.5106754815365169,0.8982401437414266,0.8837449368135502,-0.6218619346618652,-0.7822317481040955,-0.037431977689266205,-10.038536071777344,6.764036178588867,7.281790733337402,1.2776236534118652,0.5352683067321777,0.6127799153327942
400,-1.1832428555510595,0.7611690821070823,0.7602934373294711,-0.6703334450721741,-0.689768373966217,-0.27362868189811707,8.626147270202637,-1.4587223529815674,-3.9056363105773926,-0.32026708126068115,0.34220367670059204,-0.48035380244255066
401,-1.563245490274356,1.0829169311003044,1.1357177665407343,-0.46874022483825684,-0.883328914642334,-0.0035394481383264065,-1.8076785802841187,-1.250113606452942,-0.11203081905841827,1.3626763820648193,0.7320685982704163,0.9262079000473022
402,-0.5188830240147146,0.18817066532442492,0.41826605948001955,-0.4871567189693451,-0.18706215918064117,-0.8530451655387878,-11.327250480651855,6.153666973114014,2.181858539581299,-1.032755970954895,1.5190781354904175,-1.8117496967315674
403,-0.23038972649053188,0.5746206571095567,0.4036409852195831,-0.19168250262737274,-0.5435163974761963,-0.8172194957733154,5.417996406555176,4.83092737197876,-0.4798482358455658,-0.20611411333084106,0.26627951860427856,0.5939376950263977
404,-0.13575160495743735,0.6978234617931227,0.3689485672384556,-0.1036994606256485,-0.6425514817237854,-0.7591930031776428,-7.975234031677246,3.6780030727386475,1.3011322021484375,0.4667823314666748,0.4877662658691406,1.5173107385635376
405,-0.17450003458055846,0.18232921667504132,0.47108739515804915,-0.17073793709278107,-0.1813206672668457,-0.9684892296791077,2.782076358795166,2.3845789432525635,-0.19443924725055695,-1.7717669010162354,-0.3505091667175293,-1.625108242034912
406,0.223479857803145,0.48385103906343013,-0.05742039957939128,0.19618403911590576,-0.4651916027069092,-0.8631967306137085,3.1742055416107178,-3.3220443725585938,-0.1783958524465561,3.4845104217529297,1.5533263683319092,0.650016188621521
407,-0.04071819618316628,0.31709015086467424,0.4449192954808253,-0.03867757320404053,-0.31180310249328613,-0.9493591785430908,-3.72625470161438,-1.998745083808899,-3.8887550830841064,-1.685580849647522,-0.22226977348327637,-1.9382140636444092
408,0.26651405445816084,0.747835354093285,0.12983673683223665,0.1930931806564331,-0.6800532937049866,-0.7072782516479492,9.43078327178955,-1.9457168579101562,-1.3357112407684326,0.5464545488357544,1.0531916618347168,0.8662290573120117
409,0.14318063992243588,0.2794540051612332,0.4769086387889588,0.13715635240077972,-0.27583086490631104,-0.9513702988624573,-16.275985717773438,7.791689872741699,-1.434279441833496,-1.0093334913253784,1.762708306312561,-0.4404754042625427
410,0.09933230512590083,0.632082236579863,0.42284060933015877,0.08000948280096054,-0.5908259749412537,-0.8028219938278198,10.43601131439209,-1.9929754734039307,1.0800658464431763,-0.46172335743904114,0.8906916975975037,0.2569998502731323
411,-0.2791975093543764,1.1643484232112755,0.47543668005598655,-0.10895202308893204,-0.9185309410095215,-0.3800399899482727,-7.594848155975342,2.1149179935455322,1.18704092502594,-0.043696895241737366,0.3683295249938965,1.845188856124878
412,-0.19560679370041026,0.47788754853618326,0.37568588142985776,-0.17258714139461517,-0.45990440249443054,-0.8710348010063171,4.26474142074585,0.347911536693573,1.1244369745254517,0.17138169705867767,0.33430933952331543,-2.406156301498413
413,-0.1091678744192769,1.0013807548227813,0.5231662384904406,-0.058739934116601944,-0.8422161936759949,-0.5359305739402771,4.900851249694824,-0.2340780347585678,-2.5191192626953125,-0.0055606067180633545,0.19675415754318237,0.7197074294090271
414,-0.24978611160456024,0.9447499919936174,0.6585417328780658,-0.14484380185604095,-0.8103504776954651,-0.5677608847618103,-10.41028881072998,-0.4125267565250397,3.2875149250030518,-0.22330498695373535,0.2155628800392151,0.2019924521446228
415,-0.11962758408393032,0.9147704204040402,0.5466952859246668,-0.07279562205076218,-0.7924225926399231,-0.605613112449646,8.047657012939453,0.048573147505521774,-0.7006007432937622,-0.06619668751955032,0.2196992039680481,0.19010108709335327
416,-0.06792410513859194,1.043546167913155,0.5123486886771931,-0.034150343388319016,-0.8641939163208008,-0.5019986033439636,-5.125250339508057,-2.276555299758911,2.0604472160339355,0.575761079788208,0.31588464975357056,0.5420072078704834
417,-0.11872332025823903,0.7948908319774989,0.5120858563766638,-0.08295419067144394,-0.7137871384620667,-0.6954326033592224,3.1359751224517822,0.8701951503753662,-0.4551178216934204,-0.23902152478694916,0.08620846271514893,-0.5425434708595276
418,-0.016442205529395546,0.8831939634971118,0.43212518790723514,-0.010435170494019985,-0.7727699875831604,-0.6346004009246826,-1.8392558097839355,0.4912906289100647,0.17853288352489471,0.16647154092788696,0.1494637131690979,0.3105647563934326
419,-0.06810970209172704,0.8144525903772398,0.4706664736351504,-0.04670528694987297,-0.7273500561714172,-0.6846754550933838,0.697558581829071,-0.6807077527046204,0.22756356000900269,0.07623104751110077,0.06640034914016724,0.005308389663696289
420,-0.16369312502540564,0.6692016261067781,0.4975094879864638,-0.12781473994255066,-0.6203600168228149,-0.7738326191902161,-1.3303117752075195,-2.2561135292053223,-0.31889501214027405,-0.22881367802619934,-0.0007642507553100586,-0.5110031962394714
421,-0.29833300845713095,1.0109646052992092,0.364496414171736,-0.1560882180929184,-0.8473444581031799,-0.5075863003730774,7.931173801422119,-4.2236151695251465,-4.28640604019165,-0.1148773580789566,0.6404352784156799,-0.12316626310348511
422,-1.1397232533078345,0.8684768150550365,0.8628345435146351,-0.5868933796882629,-0.7633458375930786,-0.26992425322532654,-13.039337158203125,1.622573733329773,10.257004737854004,-1.0609489679336548,0.8808233737945557,0.06773009896278381
423,-1.8833908788724403,1.1302219138168739,1.372440676987483,-0.4057924449443817,-0.9045068621635437,0.1311483383178711,6.1260786056518555,-5.183897972106934,-2.7400221824645996,0.9549410343170166,0.7600976824760437,0.3515481948852539
424,-2.021246690818002,0.9114745718026874,1.356183642039142,-0.5514767169952393,-0.7904078960418701,0.26669999957084656,-1.786081075668335,4.710115432739258,11.805720329284668,1.8810360431671143,1.0901362895965576,-0.22162556648254395
425,-1.5347440050482606,0.5557200731925044,0.9577334428469415,-0.8489688634872437,-0.5275551676750183,-0.03062056563794613,2.9709839820861816,2.9421989917755127,-3.3286542892456055,-2.0300135612487793,-0.6017783880233765,-1.1966133117675781
426,-0.8799873994265479,0.8688911108617076,0.7210263502210322,-0.4976406395435333,-0.7636134028434753,-0.4113979935646057,-1.8286194801330566,2.4602179527282715,-2.777026653289795,1.0957393646240234,0.6698787212371826,0.4834499955177307
427,-1.9004634669436655,0.5770864415668747,1.4624544860447306,-0.7929266095161438,-0.5455845594406128,0.2713022232055664,15.515878677368164,-6.526044845581055,0.29134654998779297,-1.415279507637024,1.0953892469406128,-0.5876016616821289
428,-1.838536065167229,0.5670182351844634,1.3902441583077902,-0.8134531378746033,-0.5371193289756775,0.2231515645980835,-10.68968391418457,6.6634202003479,-3.1675870418548584,-0.4679645895957947,0.430048406124115,0.505715012550354
429,-1.3912119612801728,0.5077132616206037,0.771599295352563,-0.8598052263259888,-0.48618024587631226,-0.156089186668396,11.03591537475586,-4.6703362464904785,5.070520877838135,0.7091399431228638,0.7155808210372925,-2.617760181427002
430,-1.9089284625798744,0.1999292134928778,1.4977853391981673,-0.9245843291282654,-0.1985999494791031,0.3251177668571472,-6.590580463409424,2.350144147872925,-0.060246482491493225,-1.3499975204467773,-0.42549970746040344,1.691575288772583
431,-1.5789598292594893,0.634861939187564,0.8943260553752876,-0.8051268458366394,-0.5930663347244263,0.006572801154106855,1.392136573791504,1.1013554334640503,-2.2304940223693848,0.6588866114616394,0.47043144702911377,-0.8631553649902344
432,-1.8176184250702676,0.15702174450781212,1.1851974207566418,-0.9577639102935791,-0.15637728571891785,0.2413177788257599,-1.432627558708191,3.351581335067749,7.459994316101074,-0.4642178416252136,0.42690038681030273,0.835968017578125
433,-1.0521902073003675,0.1716872132078358,0.38818664381236484,-0.8557419776916504,-0.17084500193595886,-0.48838260769844055,-3.749629497528076,2.861590623855591,-3.268465757369995,-0.08062881231307983,0.7840042114257812,-1.0509392023086548
434,-1.629008480179874,0.49214266360680614,0.559956033646815,-0.8798296451568604,-0.472515344619751,0.05127470940351486,3.2744545936584473,-6.070129871368408,-0.7642122507095337,0.9310686588287354,0.375194787979126,-1.1180623769760132
435,-2.083591523003415,0.3710366073233106,1.1098817178742653,-0.8120812177658081,-0.36258170008659363,0.45722952485084534,-13.364179611206055,2.5113918781280518,-0.5953700542449951,-0.8216164112091064,0.38466113805770874,2.0554659366607666
436,-1.598065615737297,0.5449296886894447,0.6329750112955765,-0.8548458218574524,-0.5183579921722412,0.023316817358136177,17.599515914916992,-1.6646947860717773,1.6945888996124268,-0.3153507113456726,1.5238206386566162,-1.374101161956787
437,-1.5173749224202235,0.5652463060415804,0.8528660872138558,-0.8432520031929016,-0.5356238484382629,-0.045090608298778534,-9.501290321350098,4.4472503662109375,-2.555046558380127,0.1538293957710266,0.8250983357429504,0.33563315868377686
438,-1.3296785239976407,0.5109319164045244,0.6535198225545102,-0.847055196762085,-0.4889903664588928,-0.2082923799753189,11.845025062561035,0.411070853471756,0.5861481428146362,-0.8348294496536255,0.2579723298549652,-1.0521599054336548
439,-1.2752576075147704,0.7475395198116415,0.8011437523112053,-0.7015692591667175,-0.6798363924026489,-0.21359610557556152,-5.031254768371582,1.1815365552902222,-3.7957658767700195,0.5455938577651978,0.47686392068862915,0.9572789669036865
440,-0.9135074581828587,0.47809585080883255,0.251588716929455,-0.7028858065605164,-0.4600893557071686,-0.5424660444259644,-1.1848583221435547,-0.9633184671401978,3.3329262733459473,-1.5147045850753784,0.8441530466079712,-2.305983543395996
441,-0.8529046596769329,0.8938633703124629,0.5270212318504011,-0.4718048870563507,-0.7794976234436035,-0.41204825043678284,6.143342018127441,-2.280360698699951,-3.9080770015716553,0.5784637928009033,0.5234856009483337,1.5279083251953125
442,-1.0976544101979675,1.0039783044820847,0.43773509988807924,-0.4779614806175232,-0.8436138033866882,-0.24468035995960236,-0.6318995356559753,-7.05816125869751,3.2440147399902344,0.5349836349487305,0.6709911823272705,-0.8319035172462463
443,-1.8255220783119792,0.8833560006645255,1.2491457822755854,-0.6140851974487305,-0.772872805595398,0.15989668667316437,-2.56487774848938,3.312063694000244,-3.5182363986968994,-0.5458421111106873,-0.020996153354644775,1.5792391300201416
444,-0.6982540260219893,1.0088980493239084,0.3886680567530752,-0.34252312779426575,-0.8462452292442322,-0.40810176730155945,-5.538285255432129,-3.1565351486206055,2.3559088706970215,1.6691069602966309,0.9466022849082947,0.8488824367523193
445,-0.7289296725611155,0.6513254888298871,0.22401677132882336,-0.5297141075134277,-0.6062410473823547,-0.5931903123855591,6.47038459777832,1.001473069190979,-2.974815845489502,-0.7031350135803223,0.41878682374954224,-1.6540783643722534
446,-1.27234338505299,1.206579736353825,0.9033980004761571,-0.34047022461891174,-0.934403121471405,-0.10474292933940887,-4.471024513244629,5.298414707183838,1.3608146905899048,2.0665597915649414,0.748230516910553,2.6331396102905273
447,-0.34890716982909536,0.17532060701299315,0.059171949366056555,-0.33663037419319153,-0.17442384362220764,-0.9253411889076233,-12.981919288635254,3.538609504699707,-0.42296966910362244,-0.7258696556091309,2.0366218090057373,-1.7163519859313965
448,-0.47017144244649534,0.7586989072046759,0.22902799076000652,-0.32878491282463074,-0.6879777908325195,-0.6469830870628357,13.220772743225098,-4.809948444366455,-4.111029148101807,-0.8292808532714844,1.0377702713012695,0.43770885467529297
449,-0.46236714689002534,0.943844300195766,0.09249645408360417,-0.26169881224632263,-0.8098194599151611,-0.5250774025917053,-20.637615203857422,9.877336502075195,2.47810435295105,0.43857869505882263,1.6349842548370361,1.715583324432373
450,-0.28759266696700203,0.556061666364812,0.05597263163624555,-0.2409108430147171,-0.5278453230857849,-0.8144576549530029,15.930150985717773,-6.3093743324279785,-1.6876962184906006,-0.2714335322380066,1.9460582733154297,-0.7905685305595398
451,-1.572792765311409,1.3796374256081307,1.266438893593997,-0.18999627232551575,-0.9817847013473511,0.00037931636325083673,-1.5454661846160889,-3.351980686187744,1.2067322731018066,1.2238249778747559,0.6000098586082458,1.835726022720337
452,-1.809013040605369,0.9867470478356763,1.051538309762272,-0.5358350872993469,-0.8342366814613342,0.13011546432971954,4.995845317840576,-5.56333589553833,3.091724395751953,-0.4524615406990051,0.28197526931762695,-0.8310737609863281
453,-2.211138989810543,0.8656734111925166,1.5283955628686001,-0.5197277069091797,-0.7615318894386292,0.38723695278167725,-6.777878284454346,6.832835674285889,-1.8904520273208618,-0.1778278350830078,0.08149343729019165,1.3561712503433228
454,-1.3503649416681236,0.9509590681478982,0.893338102687804,-0.5668467283248901,-0.8139730095863342,-0.12701471149921417,3.2313849925994873,-4.595342636108398,4.701565742492676,1.8846720457077026,0.6903768181800842,-0.326690137386322
455,-1.6757119496654787,0.5475743089545931,1.0013019557921994,-0.8490951061248779,-0.5206177234649658,0.0894116461277008,-3.836759567260742,2.4100215435028076,-2.6048598289489746,-2.773066520690918,-0.1322905421257019,-0.16051769256591797
456,-1.9675305809120083,0.9974466764392806,1.4099623307191245,-0.5003160834312439,-0.8400886654853821,0.20960693061351776,5.409683704376221,-1.054836392402649,-4.63786506652832,1.3110154867172241,1.1432654857635498,0.3279602825641632
457,-1.6692915827411212,0.5968850290950187,0.9138856649718174,-0.8230817317962646,-0.5620688199996948,0.08133283257484436,-10.400402069091797,6.682851791381836,14.305315971374512,-0.2770616412162781,0.7433280348777771,0.299587607383728
458,-1.0485535167995863,0.6023188458281464,0.4287982179343497,-0.7141837477684021,-0.5665547847747803,-0.41104400157928467,8.960185050964355,-0.8233087658882141,-3.835127353668213,0.3739585876464844,0.8085744976997375,-0.7168856859207153
459,-1.9405425187294554,0.9764011542713611,1.3866594332615736,-0.5221616625785828,-0.8284873366355896,0.20237481594085693,-3.3429763317108154,3.0068135261535645,4.934709548950195,2.78291916847229,0.24575430154800415,2.210207462310791
460,-0.6773297088643383,-0.12667468952412278,0.19306585968295953,-0.6216928958892822,0.12633618712425232,-0.7730052471160889,-1.693758249282837,8.67037296295166,-1.5241888761520386,-2.0002706050872803,0.9895542860031128,-4.867344856262207
461,-1.12651685539988,0.8169555216028148,0.8073854400279392,-0.6179986596107483,-0.7290654182434082,-0.29417914152145386,14.310856819152832,-5.605616092681885,-5.726150989532471,-0.011991024017333984,1.4457402229309082,0.7533619403839111
462,-0.8465969202007705,0.4987543044160596,0.4864526867295427,-0.6577826142311096,-0.47833195328712463,-0.5818252563476562,-16.672391891479492,2.8305845260620117,6.100746154785156,0.47740840911865234,1.2869867086410522,0.6738204956054688
463,-0.592776565128722,-0.07321938967330859,0.10586863565980956,-0.5571691393852234,0.07315398752689362,-0.8271704912185669,9.081640243530273,-1.6456029415130615,-0.7961772084236145,0.0007726550102233887,0.7638974189758301,-1.582589030265808
464,-1.2359834760789794,0.9612875974889095,0.7779741777961265,-0.5406769514083862,-0.8199293613433838,-0.18810762465000153,10.641761779785156,-8.163222312927246,-5.354675769805908,1.1301544904708862,1.3823682069778442,0.7449465990066528
465,-1.7968672067089206,0.7653694037495962,1.0325410870769416,-0.7027771472930908,-0.6928034424781799,0.16164058446884155,-7.489665508270264,4.1931352615356445,8.707271575927734,-0.09611201286315918,0.5523157715797424,0.42516660690307617
466,-0.7363521390651155,0.23491005940481055,0.3266960501915598,-0.6531445980072021,-0.23275551199913025,-0.7205740809440613,3.4602572917938232,3.326223850250244,-0.2738684415817261,-0.6785967350006104,0.43760475516319275,-1.327887773513794
467,-1.5399533501933818,1.0915370850662613,1.1231331431102252,-0.4609026610851288,-0.8873367309570312,-0.014220119453966618,12.968716621398926,-4.195006370544434,-3.690629482269287,1.4894976615905762,1.7467880249023438,0.754179835319519
468,-1.9732089934902397,0.4494716779787257,1.241158154823877,-0.8287295699119568,-0.43448975682258606,0.3527405261993408,-3.5240728855133057,2.0203404426574707,6.917540550231934,-3.2134151458740234,0.17528870701789856,0.2923552691936493
469,-1.5089146626032688,0.8218288573324787,1.0898271841186498,-0.6795796751976013,-0.7323923110961914,-0.04210728034377098,3.724994421005249,0.2665517330169678,-3.8247475624084473,0.5931996703147888,0.4403543472290039,-0.1381906270980835
470,-1.8233804164052185,0.6502231210976149,1.4021210517862768,-0.7706931829452515,-0.6053640246391296,0.1989130675792694,-5.056301593780518,-0.3666287958621979,7.384880542755127,0.12367475032806396,0.23033350706100464,0.5720219612121582
471,-1.0976365366614032,0.5391096053608363,0.6713096661303708,-0.7638818621635437,-0.5133720636367798,-0.3910673260688782,-4.1128249168396,8.9639310836792,-3.1725902557373047,0.3302270770072937,-0.042078375816345215,-0.4358827471733093
472,-0.3864902814241208,0.8039299369806122,0.4586040599366945,-0.2615518867969513,-0.720088541507721,-0.6426998972892761,2.8247861862182617,3.2704222202301025,-2.576120615005493,0.5273447632789612,0.3540760278701782,1.0014644861221313
473,-0.5238029933683913,0.14827764306031613,0.2537355097440638,-0.4946884214878082,-0.1477348953485489,-0.8564215302467346,-10.493429183959961,-5.042998790740967,-0.2664601802825928,-1.8065353631973267,1.4880211353302002,-1.7979059219360352
474,-0.2762112957751873,0.6886701739315053,0.3383921589744263,-0.21055911481380463,-0.6355109810829163,-0.7428261637687683,12.40735912322998,-0.7281966805458069,-1.6898128986358643,-0.3282592296600342,0.7920509576797485,0.4822518229484558
475,-0.1277012662937229,1.0855728113149377,0.2046178189311602,-0.059398893266916275,-0.8845707178115845,-0.4626082479953766,-13.067302703857422,2.405066728591919,2.137423038482666,0.372875452041626,0.6682469248771667,1.0771101713180542
476,-0.10031854112374887,0.26489982366828974,0.34274254136566545,-0.09665699303150177,-0.26181259751319885,-0.9602664113044739,7.687976837158203,-0.4202548861503601,-1.4913691282272339,-0.5766828656196594,0.44417038559913635,-1.280456304550171
477,0.04339811572915191,0.8915460548652671,0.24642500437792392,0.02725456841289997,-0.7780439257621765,-0.6276183724403381,-0.2549460530281067,0.5280885100364685,0.02809273824095726,0.14101935923099518,0.2710859179496765,1.0682005882263184
478,-0.03679814643591061,0.45108479379189775,0.39524999355941554,-0.03310992941260338,-0.4359420835971832,-0.8993654847145081,-3.71943736076355,-1.5036572217941284,1.3514047861099243,-0.15681621432304382,0.030699163675308228,-1.2861967086791992
479,-0.0844596715872996,0.722054968846782,0.3427743445676579,-0.06330735236406326,-0.6609281897544861,-0.747774064540863,2.9788763523101807,0.40145352482795715,-1.097672700881958,0.15345628559589386,0.10715621709823608,0.42961305379867554
480,-0.34500678326955053,1.0121447795337717,0.5114333388342771,-0.17926223576068878,-0.8479706048965454,-0.49880945682525635,0.016979191452264786,-4.408289432525635,3.8564774990081787,0.6277485489845276,0.2117096185684204,0.8604427576065063
481,-0.5925374760537133,0.6996096245653125,0.663028554815873,-0.427280068397522,-0.643919050693512,-0.6346652507781982,4.16782283782959,8.530757904052734,-1.5403928756713867,-0.952511191368103,0.21322453022003174,-0.7932369709014893
482,-0.26039612095801673,1.2297817462803278,0.5670621026192098,-0.08610691130161285,-0.9424158334732056,-0.32316866517066956,5.0493388175964355,-0.4605971574783325,2.2754976749420166,1.4185196161270142,0.5012384653091431,1.3370389938354492
483,-0.8643878598022298,0.717181011889813,0.7078272487070282,-0.5733088850975037,-0.6572627425193787,-0.4892061650753021,-2.1728925704956055,-3.765997886657715,-2.710455894470215,-2.448404312133789,0.8971156477928162,-1.4597532749176025
484,-1.2899761815429052,1.158031589886292,1.205916636605802,-0.3854297399520874,-0.9160152673721313,-0.1111743152141571,2.5750701427459717,-3.8909292221069336,-0.8215428590774536,0.7987751364707947,0.5554349422454834,0.8159167766571045
485,-1.0545440463696756,0.8291071959087678,0.8492321274662478,-0.5874954462051392,-0.7373285293579102,-0.33346015214920044,-7.591440677642822,-0.797751247882843,1.570693016052246,-1.3222792148590088,-0.05827993154525757,-0.4489037096500397
486,-0.270664119836174,0.8217402929596601,0.45653350225407496,-0.18206599354743958,-0.7323319911956787,-0.6561568975448608,-0.4267503023147583,5.7995123863220215,-1.3420312404632568,0.4153576195240021,0.2251756191253662,0.44456326961517334
487,-0.41046056815583026,0.7251882004579558,0.529796337624372,-0.2986252009868622,-0.6632763147354126,-0.6862124800682068,-6.649539947509766,1.6638567447662354,0.832551896572113,-1.0662734508514404,-0.2100147008895874,0.20939064025878906
488,-0.20275048487129652,0.8889100982094853,0.44139770165830305,-0.12691153585910797,-0.7763853073120117,-0.6173486709594727,6.184578895568848,0.02652524784207344,-0.1814691424369812,0.2913097143173218,0.3349027633666992,0.5848627090454102
489,-0.6968586042258307,0.805258080418077,0.7188508262926374,-0.44472765922546387,-0.7210094928741455,-0.5313782095909119,-7.385106563568115,-3.2521517276763916,3.134211301803589,-0.5269215106964111,-0.09583926200866699,-0.3065887689590454
490,-0.3124940738782242,0.8561937543904129,0.5558789618904096,-0.20146606862545013,-0.7553537487983704,-0.6235800981521606,0.4247013330459595,3.9163548946380615,-2.0401418209075928,0.21631287038326263,0.07649022340774536,0.6131278276443481
491,-0.2867486399410349,0.5184894584490077,0.5875956535023498,-0.24566175043582916,-0.4955686926841736,-0.8331038355827332,-9.301141738891602,-0.7807226777076721,1.5643455982208252,-0.49548813700675964,0.5119109153747559,-0.49807292222976685
492,-0.0776239561122835,0.6032940843129306,0.5613488472172705,-0.06385691463947296,-0.567358136177063,-0.8209915161132812,0.9215863347053528,0.8423606157302856,-0.7346448302268982,-0.09759632498025894,0.12111485004425049,0.25220489501953125
493,-0.024551300516556622,0.7419237047864147,0.4898628588889711,-0.018096664920449257,-0.6757072806358337,-0.7369478940963745,3.1270434856414795,-1.7858617305755615,1.0282750129699707,0.2632138729095459,0.20183032751083374,0.6124972701072693
494,-1.2108312614800087,0.9494569968432278,1.0889141547413197,-0.544815719127655,-0.8130995035171509,-0.20504845678806305,0.27919694781303406,-0.6210343837738037,2.499216079711914,-0.9918663501739502,-0.26444554328918457,0.49295127391815186
495,-0.3474057774954375,0.9765494721901835,0.5540570931283675,-0.19061827659606934,-0.8285704255104065,-0.526436984539032,-2.9993629455566406,4.369779109954834,-6.162531852722168,0.31261229515075684,0.5704679489135742,0.7545100450515747
496,-1.2158795957298199,0.9099785323023789,1.0574858018969504,-0.5755103826522827,-0.7894905805587769,-0.21329014003276825,14.815245628356934,-10.9996976852417,4.722400188446045,-0.4270378351211548,1.5298621654510498,-0.36712372303009033
497,-1.7142375598964932,0.8483268110088523,1.5865222939219998,-0.6544482111930847,-0.7501750588417053,0.09452404081821442,-10.855256080627441,8.410737037658691,-2.8884050846099854,-0.10531735420227051,0.7175213098526001,0.8893626928329468
498,-1.6306426175312143,0.4653401109238606,1.0576972384623073,-0.8920691609382629,-0.4487267732620239,0.05345086008310318,12.230862617492676,-13.604509353637695,4.749589920043945,-0.9628350734710693,1.5084342956542969,-0.8196556568145752
499,-1.5884691000319686,0.20735413999256536,1.294286975969106,-0.9784262180328369,-0.20587143301963806,0.017293304204940796,-8.91001033782959,9.438876152038574,-1.8159774541854858,-0.7044961452484131,0.42634567618370056,0.8498331308364868
