,attitude.roll,attitude.pitch,attitude.yaw,gravity.x,gravity.y,gravity.z,rotationRate.x,rotationRate.y,rotationRate.z,userAcceleration.x,userAcceleration.y,userAcceleration.z
0,0.34514226699018635,0.4505832276625117,2.8544199270643853,0.30456289649009705,-0.4354906380176544,-0.8471064567565918,-0.0036588571965694427,-0.01096829678863287,0.02012287639081478,0.011904418468475342,0.008122473955154419,0.022414684295654297
1,-0.28688053831120786,0.3354117529145509,-2.05802630933984,-0.2671935558319092,-0.3291580080986023,-0.9056835174560547,-0.2115323543548584,-0.7151268124580383,0.13873112201690674,0.04934382438659668,0.033564746379852295,-0.04251289367675781
2,-0.2857318773780038,0.31987282416916957,-2.032833413628016,-0.26756250858306885,-0.314445823431015,-0.9107876420021057,0.252545565366745,-0.051316533237695694,0.1406131237745285,-0.004333853721618652,0.0519183874130249,-0.04425996541976929
3,-0.2798240860224753,0.33967684986885094,-2.029354192635903,-0.26040592789649963,-0.3331824243068695,-0.9061888456344604,0.23867805302143097,-0.06349530071020126,-0.021745949983596802,-0.007187455892562866,0.03195866942405701,-0.01753246784210205
4,-0.2879916682628245,0.33178667766412656,-2.0281545209903804,-0.26853686571121216,-0.3257327973842621,-0.9065241813659668,-0.2510245442390442,0.024867689236998558,0.013824126683175564,-0.0017420649528503418,-0.038158804178237915,0.002486705780029297
5,-0.3075805849815041,0.3565604291949305,-2.0262295331842095,-0.28371134400367737,-0.3490530848503113,-0.8931236267089844,0.31378549337387085,-0.24791675806045532,-0.32060158252716064,-0.007533162832260132,0.02330845594406128,0.032619476318359375
6,-0.33970881697825056,0.3612401598586608,-2.0411203441635637,-0.3117067515850067,-0.35343462228775024,-0.8819993734359741,-0.2130173295736313,-0.6777098774909973,-0.12014096975326538,0.0170900821685791,0.006190359592437744,-0.006413102149963379
7,-0.36378352707062,0.3406517707919657,-2.0464348866964137,-0.3353666663169861,-0.33410146832466125,-0.8808549642562866,-0.04447878897190094,0.2374018430709839,0.003155686892569065,0.033532559871673584,-0.007069766521453857,0.04494798183441162
8,-0.35734588378913756,0.3425785990416646,-2.0402221776518656,-0.32946333289146423,-0.3359169661998749,-0.8823909163475037,-0.10790928453207016,-0.009542720392346382,0.070378378033638,-0.015125900506973267,-0.002446681261062622,-0.006723463535308838
9,-0.34933772475403574,0.3496639014566084,-2.0297918943441604,-0.3215637803077698,-0.3425820767879486,-0.8827424645423889,0.2934758961200714,0.17972557246685028,-0.07306590676307678,-0.017257601022720337,0.013770431280136108,0.012076020240783691
10,-0.34496835615958205,0.354233247776328,-2.0271657547039696,-0.31717103719711304,-0.3468713164329529,-0.8826566934585571,0.04189585894346237,-0.17879264056682587,-0.04634720832109451,0.0153217613697052,-0.0012273192405700684,-0.023578107357025146
11,-0.3478986677219088,0.34911720986536626,-2.01922074522698,-0.32035693526268005,-0.3420684039592743,-0.8833802342414856,-0.24012333154678345,-0.11620202660560608,0.07495810836553574,0.010740876197814941,0.0038726329803466797,-0.015270888805389404
12,-0.36904509991551626,0.3526292815499141,-2.010877596005716,-0.3385288119316101,-0.345366507768631,-0.8752829432487488,0.1680162250995636,-0.17643146216869354,-0.04680832102894783,-0.018175899982452393,0.013045310974121094,0.00814121961593628
13,-0.37543372803968317,0.35777543164299946,-2.021833864608185,-0.34345749020576477,-0.3501913845539093,-0.8714373111724854,0.15004462003707886,-0.06539104878902435,-0.13736200332641602,-0.005648374557495117,0.012010842561721802,-0.0012433528900146484
14,-0.3744331669418292,0.3619961247530071,-2.01559656862232,-0.3420417308807373,-0.3541416823863983,-0.8703970909118652,-0.18009939789772034,0.11740866303443909,0.023920293897390366,0.028748303651809692,-0.0005946159362792969,0.03944927453994751
15,-0.3567773646305392,0.35156261994721344,-2.009024822123678,-0.32789433002471924,-0.34436526894569397,-0.8797146081924438,-0.1258266717195511,0.022485574707388878,0.13450442254543304,0.013212352991104126,-0.006312191486358643,-0.011429131031036377
16,-0.28095868178356825,0.2876284744523299,-1.9994956690529198,-0.2658861577510834,-0.28367891907691956,-0.9213201403617859,-0.920054018497467,1.3126386404037476,0.33541905879974365,-0.024336040019989014,-0.027081578969955444,-0.015081226825714111
17,-0.27015605592159914,0.24806099412623195,-1.9767125407540365,-0.25871267914772034,-0.24552476406097412,-0.9342297911643982,0.25848129391670227,-0.3623441159725189,0.3953368365764618,0.05891406536102295,-0.002812027931213379,0.05451482534408569
18,-0.2880719236946935,0.26660373854054314,-1.9117096200698025,-0.27406707406044006,-0.26345667243003845,-0.9249204397201538,0.05308319628238678,-0.4657069742679596,0.6658622026443481,-0.046489566564559937,-0.002977043390274048,-0.0037599802017211914
19,-0.30453615065769757,0.29385711524760144,-1.8212148716408862,-0.2869972288608551,-0.2896461486816406,-0.9130923748016357,1.5514085292816162,0.87212735414505,0.4437445402145386,-0.026509851217269897,0.015598297119140625,0.07836031913757324
20,-0.3101516219757659,0.41405589560504247,-1.796354634088963,-0.27941232919692993,-0.4023257791996002,-0.8718157410621643,-0.30443274974823,-0.49833667278289795,-0.1477009803056717,-0.06149953603744507,-0.10299953818321228,0.006627202033996582
21,-0.2584122404605059,0.39679897564341565,-1.81998808532925,-0.235690638422966,-0.3864680230617523,-0.8916795253753662,-0.00495564192533493,0.7292494177818298,-0.29807260632514954,-0.02294585108757019,0.04149731993675232,0.06692671775817871
22,-0.16117185489867816,0.3984372884685873,-1.8559266772149368,-0.14790472388267517,-0.38797852396965027,-0.9097235202789307,0.1933514028787613,0.5688025951385498,-0.44414374232292175,-0.009382873773574829,0.02343079447746277,-0.08032774925231934
23,-0.11837928661969228,0.4008943962791562,-1.8710835266942,-0.10873888432979584,-0.39024198055267334,-0.9142686128616333,0.0719624012708664,1.729140043258667,-0.29678118228912354,0.10492417961359024,0.09582364559173584,0.0658189058303833
24,0.004563333421883907,0.3769743386245714,-1.8613673158327406,0.004242893774062395,-0.36810895800590515,-0.9297729730606079,-0.5952210426330566,-0.3729912042617798,0.32409828901290894,-0.060364723205566406,-0.013681203126907349,-0.030203163623809814
25,0.04684407062650632,0.4029115861749084,-1.8755293260451316,0.043077193200588226,-0.39209842681884766,-0.9189141392707825,0.7083838582038879,0.5707093477249146,-0.07149709016084671,-0.024202078580856323,-0.0022802352905273438,-0.07951420545578003
26,0.015838741864100614,0.46606832368772727,-1.8410664852489549,0.014148821122944355,-0.4493774473667145,-0.8932299613952637,0.6248091459274292,-0.5052231550216675,0.9874562621116638,0.061290621757507324,0.09819638729095459,0.03602170944213867
27,-0.12185789071337025,0.5095657129222629,-1.652301021276004,-0.10611355304718018,-0.48779818415641785,-0.8664830327033997,0.6264017224311829,-0.43152371048927307,1.6601240634918213,-0.01128755509853363,-0.04078152775764465,0.09260302782058716
28,-0.09254281615036065,0.5461421831335399,-1.691325639883727,-0.07896821200847626,-0.5193944573402405,-0.8508780598640442,-0.23218928277492523,0.08014421164989471,-1.3451813459396362,-0.09205230325460434,0.11592161655426025,-0.01322716474533081
29,-0.08765747744070213,0.5186572047713256,-1.7719093914887452,-0.07603180408477783,-0.495714396238327,-0.8651511073112488,-0.01947258599102497,-0.1166762262582779,-0.38172292709350586,0.04037199914455414,-0.046201497316360474,0.12201756238937378
30,-0.058466771431010506,0.4828086738497663,-1.7843639457933715,-0.05175419896841049,-0.46426862478256226,-0.8841810822486877,-0.7950480580329895,0.16146139800548553,0.25911033153533936,0.037990763783454895,-0.056056082248687744,0.0013685822486877441
31,-0.04970133662284972,0.40854188510441886,-1.7644353468667273,-0.04559219256043434,-0.39727163314819336,-0.916567862033844,-0.4233971834182739,0.27685803174972534,0.17792925238609314,-0.02507125958800316,0.03809502720832825,-0.026410043239593506
32,-0.034620855693867685,0.4098780264400961,-1.772880619926944,-0.031746845692396164,-0.39849746227264404,-0.9166198372840881,0.35136502981185913,-0.1165095716714859,-0.24838142096996307,0.014946922659873962,0.023573756217956543,-0.06378787755966187
33,-0.031039875120121345,0.4318340924107049,-1.7894438900339336,-0.028185876086354256,-0.4185372292995453,-0.9077621698379517,-0.05428402125835419,-0.12212099134922028,-0.06247600540518761,0.040759116411209106,-0.022807985544204712,-0.018644630908966064
34,-0.034788573744505696,0.42275328018490754,-1.7918876406084738,-0.03171948716044426,-0.41027289628982544,-0.9114109873771667,0.008250315673649311,-0.00911059882491827,0.012016139924526215,-0.011050894856452942,0.01931220293045044,-0.009243309497833252
35,-0.033727010429643975,0.42671860389884897,-1.7936968505103426,-0.030696848407387733,-0.4138858914375305,-0.9098110795021057,0.049951761960983276,0.019795063883066177,-0.03068925254046917,-0.005970031023025513,0.007559597492218018,-0.013620316982269287
36,-0.03574662288649729,0.4305366582234851,-1.7925723436578855,-0.03247753530740738,-0.41735854744911194,-0.9081613421440125,-0.019568828865885735,-0.0014310898259282112,-0.04365480691194534,-0.014183849096298218,0.02095046639442444,0.009769618511199951
37,-0.03639212329438869,0.4256265983651952,-1.792836484105572,-0.033137910068035126,-0.41289156675338745,-0.9101771712303162,-0.031044185161590576,0.036423806101083755,0.06868815422058105,0.004497155547142029,9.551644325256348e-05,0.003194749355316162
38,-0.035708532110932056,0.42327784509557703,-1.7891803582678834,-0.03255024552345276,-0.41075122356414795,-0.911166250705719,0.019463900476694107,-0.007344593293964863,0.004824481904506683,-0.003079026937484741,0.005187869071960449,-0.016705453395843506
39,-0.03688024829274415,0.4217230142996454,-1.7865337790053488,-0.033641356974840164,-0.40933310985565186,-0.9117646217346191,-0.07922965288162231,0.022768568247556686,0.012761500664055347,-0.00018738210201263428,0.0031899213790893555,0.006674289703369141
40,-0.0415750181972742,0.4190552093555678,-1.7746948835410317,-0.03796675056219101,-0.4068976044654846,-0.912684440612793,-0.015655390918254852,0.025723494589328766,0.059200264513492584,-0.020062416791915894,0.02908998727798462,0.012141227722167969
41,-0.04170841814700005,0.41214460318122587,-1.7757200297150157,-0.03820483759045601,-0.40057528018951416,-0.9154670238494873,-0.008411477319896221,0.04896033555269241,0.04002024233341217,-0.004138290882110596,0.00326693058013916,0.012436628341674805
42,-0.04375610453462594,0.4003563690416272,-1.772571467121124,-0.04028310999274254,-0.3897465467453003,-0.9200407266616821,-0.20842404663562775,-0.09535108506679535,0.10586129128932953,0.004730135202407837,-0.019906163215637207,-0.014438033103942871
43,-0.0472127517828362,0.3793526706173643,-1.7665091416743215,-0.04383984953165054,-0.3703192472457886,-0.927869439125061,-0.1861032098531723,-0.026887182146310806,0.005481314845383167,-0.00218065083026886,0.021182894706726074,-0.002367377281188965
44,-0.044962382269559696,0.35897404159710905,-1.7659946099577755,-0.04208219796419144,-0.35131385922431946,-0.9353115558624268,-0.24930329620838165,-0.019861284643411636,-0.019553253427147865,-0.0031295865774154663,0.010112076997756958,-0.012015104293823242
45,-0.04675131547834816,0.35226053037739424,-1.7585057538843027,-0.04386457800865173,-0.3450204133987427,-0.9375696182250977,0.0680314302444458,0.022652987390756607,0.13495531678199768,0.004710525274276733,0.016407132148742676,-0.019507408142089844
46,-0.048221890433512014,0.36801109962609974,-1.7506258961324903,-0.04497574642300606,-0.3597604036331177,-0.9319601058959961,0.1878998726606369,0.03514273464679718,-0.009850545786321163,-0.01534225046634674,0.022663235664367676,0.007338523864746094
47,-0.0463661812565817,0.37985321542424144,-1.7537116574009386,-0.04304572939872742,-0.3707841634750366,-0.9277209639549255,0.08552345633506775,0.006016982719302177,-0.03603021055459976,0.000321120023727417,-0.002400040626525879,-0.002073347568511963
48,-0.04283394805166853,0.3814899971526532,-1.7535352873064782,-0.039742499589920044,-0.3723037540912628,-0.927259624004364,0.11410113424062729,0.004141291603446007,0.06365957856178284,0.010949164628982544,-0.010615527629852295,-0.01901412010192871
49,-0.040743899431059945,0.4098208230418027,-1.7251136522368684,-0.03735964745283127,-0.3984449803829193,-0.9164310097694397,0.5460939407348633,0.31099534034729004,0.4882740080356598,0.024664346128702164,-0.019554227590560913,0.013003945350646973
50,-0.034729934840559244,0.44705858422284406,-1.6961055261105944,-0.03131047263741493,-0.43231508135795593,-0.9011788368225098,-0.1627723127603531,-0.029558874666690826,-0.1838352233171463,-0.059418272227048874,0.03474733233451843,-0.001195371150970459
51,-0.03029835945098276,0.4457294956074455,-1.7087683029036729,-0.02733391895890236,-0.4311162233352661,-0.9018822908401489,0.2513522803783417,0.05445600673556328,0.030223751440644264,0.006856635212898254,-0.009435534477233887,0.0016595125198364258
52,-0.025298812999359762,0.4591607012547516,-1.7119472099586424,-0.02267606370151043,-0.4431959092617035,-0.8961379528045654,0.05586356669664383,0.08268113434314728,-0.048742808401584625,-0.013792440295219421,0.0051465630531311035,0.01858973503112793
53,-0.02308257767474631,0.46668838536663,-1.7154135035674996,-0.02061237022280693,-0.449931263923645,-0.8928253054618835,0.0716172307729721,0.007151489146053791,-0.005342873279005289,-0.012331351637840271,0.0023146867752075195,0.016223132610321045
54,-0.01948497108894954,0.47644584886350416,-1.7193349352292184,-0.017313845455646515,-0.4586237370967865,-0.8884618878364563,0.058405451476573944,0.016576092690229416,-0.09330085664987564,-0.014821171760559082,0.013387531042098999,0.014575779438018799
55,-0.017198005749681063,0.48731452463956776,-1.721424693597725,-0.015195297077298164,-0.4682547152042389,-0.8834628462791443,0.15304604172706604,0.012015577405691147,-0.07436513900756836,-0.004946306347846985,0.01848664879798889,0.012933671474456787
56,-0.01558038077781699,0.48382325066649007,-1.7251311021043474,-0.013791552744805813,-0.46516698598861694,-0.8851155042648315,-0.03142978623509407,0.0013867244124412537,-0.02593161165714264,-0.01072932779788971,-0.0020113587379455566,0.001524806022644043
57,-0.015194144412009192,0.48624219483233544,-1.7244729156926464,-0.013432552106678486,-0.4673069417476654,-0.8839930891990662,-0.029617492109537125,-0.0007341178134083748,0.009069303050637245,-0.0019177943468093872,-0.0009242594242095947,0.0005397200584411621
58,-0.016967349343454542,0.48446030739930307,-1.7232711462428247,-0.015014135278761387,-0.46573084592819214,-0.884799063205719,-0.04448631778359413,-0.013289747759699821,0.03330347687005997,-0.004944369196891785,0.007021129131317139,-0.0015534758567810059
59,-0.01732640714746895,0.48374515983081073,-1.723739121896152,-0.015337594784796238,-0.4650978744029999,-0.8851263523101807,0.0042704083025455475,-0.007830744609236717,0.022460846230387688,0.000826478935778141,-0.0012869834899902344,0.01113349199295044
60,-0.019726984982316696,0.4775747777020922,-1.7277844384026129,-0.01751864142715931,-0.4596266746520996,-0.887939453125,-0.031713057309389114,-0.05353860557079315,-0.056270234286785126,-0.00651395320892334,0.01175069808959961,0.0067901611328125
61,-0.021389879233852147,0.4761941479864036,-1.7319934858913526,-0.01900871843099594,-0.45840007066726685,-0.888542652130127,0.058955833315849304,0.051847562193870544,0.009262165054678917,-0.005557924509048462,0.009913742542266846,0.018166065216064453
62,-0.017741774700082858,0.4755246810935349,-1.7325809582725078,-0.015772543847560883,-0.45780497789382935,-0.8889127373695374,-0.06297367811203003,-0.006580176297575235,-0.019939178600907326,0.0057627856731414795,0.0034745335578918457,0.0006070733070373535
63,-0.01529401061168673,0.4730976822477653,-1.7325713539663024,-0.013613603077828884,-0.455645889043808,-0.8900570273399353,0.026704605668783188,0.016461458057165146,0.01725069060921669,0.004305736161768436,-0.008007615804672241,-0.008624613285064697
64,-0.015188331090209967,0.46230360000217724,-1.732994403594467,-0.013593451119959354,-0.4460110664367676,-0.8949242234230042,-0.14617475867271423,0.014584993943572044,-0.0087142214179039,0.00228668749332428,-0.005481243133544922,-0.0026893019676208496
65,-0.016085341510949383,0.4582082568029198,-1.7313989112268924,-0.014425460249185562,-0.4423418939113617,-0.8967304825782776,-0.11986342072486877,-0.035580553114414215,0.008943602442741394,0.0015775561332702637,-0.005030512809753418,0.005357801914215088
66,-0.0199774780082202,0.42610995940568386,-1.7316221617181617,-0.018189892172813416,-0.4133317470550537,-0.9103988409042358,-0.5088862180709839,0.012882471084594727,0.039449311792850494,0.012025341391563416,-0.014509439468383789,0.01927030086517334
67,-0.016901751986094386,0.36440726048346844,-1.7364071404026868,-0.01579114980995655,-0.35639554262161255,-0.934201717376709,-0.5615537762641907,0.0036957450211048126,-0.13067661225795746,0.007490366697311401,-0.005512416362762451,-0.004808902740478516
68,-0.009438726821997869,0.34475322684446214,-1.737729532595303,-0.008883209899067879,-0.3379644453525543,-0.941116988658905,0.030680019408464432,0.06683538854122162,0.04148045554757118,-0.0075199902057647705,0.01922360062599182,-0.02500849962234497
69,-0.00273155211368294,0.32712147529691876,-1.7414738520031992,-0.0025866979267448187,-0.32131847739219666,-0.9469676613807678,-0.3490603566169739,0.0965702086687088,-0.06927407532930374,0.0004504770040512085,-0.011948704719543457,0.012900888919830322
70,0.006308780008486725,0.29730041081570185,-1.7515977457566942,0.006031978875398636,-0.2929401099681854,-0.95611172914505,-0.1621643602848053,8.124206215143204e-05,0.007511300966143608,0.005946174263954163,-0.009748488664627075,-0.029132962226867676
71,0.0034417127034947854,0.28902381076936895,-1.753787982625041,0.0032989527098834515,-0.28501665592193604,-0.9585168957710266,-0.14482034742832184,-0.043135084211826324,-0.05309654399752617,0.0032318085432052612,-0.014589667320251465,0.0018060803413391113
72,0.0021016175449035113,0.26563882196466426,-1.7617013289041812,0.0020279018208384514,-0.262525737285614,-0.9649228453636169,-0.27694836258888245,-0.0335264578461647,-0.10233445465564728,0.0037856996059417725,0.007673442363739014,-0.006375372409820557
73,-0.0007148322693554905,0.26290163324521315,-1.7683092278422856,-0.0006902705645188689,-0.2598835825920105,-0.9656397104263306,0.06348367035388947,-0.03037591278553009,-0.03710000216960907,-0.005428507924079895,0.00011795759201049805,0.006395936012268066
74,-0.0027131809478778577,0.2659895917774204,-1.767710296647084,-0.002617762889713049,-0.2628641724586487,-0.9648292660713196,0.00819217599928379,-0.017360422760248184,-0.039878372102975845,0.013268396258354187,0.01535138487815857,-0.021254658699035645
75,-0.0033992627848418553,0.26896423829756183,-1.7709659867395067,-0.003277041483670473,-0.2657330632209778,-0.9640410542488098,0.12490513175725937,-0.02213837020099163,0.029377665370702744,-0.007709294557571411,-0.004774749279022217,-0.00394594669342041
76,-0.005034112560588608,0.27237305678193274,-1.770927459867936,-0.00484851049259305,-0.26901775598526,-0.9631230235099792,0.010610176250338554,0.012906561605632305,0.016007743775844574,0.010158568620681763,0.0024619698524475098,0.000507056713104248
77,-0.005201317907358174,0.2757917088366173,-1.7710885216393597,-0.005004737060517073,-0.2723088264465332,-0.9621968865394592,-0.028761304914951324,-0.0006172182038426399,-0.015949444845318794,-0.008102551102638245,-0.008910655975341797,0.013908922672271729
78,-0.005381878895836252,0.27740214278202036,-1.7669114331676932,-0.005176105536520481,-0.27385804057121277,-0.96175616979599,0.07628262788057327,-0.04905340075492859,-0.0035924329422414303,0.018405482172966003,0.02117246389389038,-0.025807857513427734
79,-0.006327853987378361,0.2791364002197555,-1.769947418676868,-0.0060828858986496925,-0.2755255699157715,-0.9612745046615601,0.048131443560123444,-0.00022496050223708153,0.018222056329250336,-0.011174812912940979,-0.015230655670166016,0.010590910911560059
80,-0.00955330923741864,0.2764597022351969,-1.7727190965340083,-0.009190409444272518,-0.27295151352882385,-0.9619839191436768,0.005263165570795536,-0.10638986527919769,-0.044318024069070816,0.015034526586532593,0.005937933921813965,-0.025015592575073242
81,-0.019158619508693336,0.28286569746465107,-1.7807419624284966,-0.018396122381091118,-0.27910861372947693,-0.9600833058357239,0.07858897000551224,-0.12321753054857254,-0.0367482528090477,-0.005575433373451233,-0.02081814408302307,0.011825859546661377
82,-0.02843910611596774,0.2830233446747762,-1.7889740598710626,-0.027303989976644516,-0.27925997972488403,-0.9598272442817688,-0.0566980354487896,-0.013299306854605675,-0.03865528851747513,-0.0059296488761901855,-0.009161651134490967,0.0293768048286438
83,-0.0307353441251224,0.27585091715092347,-1.7940355601378652,-0.02956870198249817,-0.2723657786846161,-0.9617393612861633,-0.08666541427373886,-0.0933677926659584,-0.12064917385578156,-0.006762474775314331,0.007961481809616089,-0.00720900297164917
84,-0.032646023926786005,0.27349658022287,-1.800959983501194,-0.03142706677317619,-0.2700996994972229,-0.9623193144798279,-0.008045180700719357,0.017564401030540466,0.003022276097908616,0.006021186709403992,-0.0076102614402771,0.0007714629173278809
85,-0.0305326695843215,0.2701799965173772,-1.8047259163724025,-0.029420459643006325,-0.26690492033958435,-0.9632737040519714,-0.08369190245866776,-0.0037610544823110104,-0.08316811919212341,-0.0059036388993263245,4.3958425521850586e-05,0.0035569071769714355
86,-0.023957295485103836,0.27357695958664546,-1.8046899496528528,-0.023064132779836655,-0.27017709612846375,-0.9625343680381775,0.17026250064373016,0.01806134730577469,-0.004371458198875189,-0.003379344940185547,0.012456148862838745,-0.03088909387588501
87,-0.027095303546235062,0.31317033469606603,-1.8053015224438516,-0.0257742777466774,-0.30807632207870483,-0.9510124325752258,0.41252830624580383,0.0732521191239357,0.02599741704761982,-0.006635397672653198,-0.012892305850982666,0.02248460054397583
88,-0.025975821974236337,0.3651498446651595,-1.7913466655095165,-0.024260515347123146,-0.35708925127983093,-0.9337551593780518,0.723528265953064,0.06588451564311981,0.14783510565757751,-0.00041294097900390625,0.028781145811080933,-0.006964445114135742
89,-0.02247571166471732,0.391559785691952,-1.7921354902346835,-0.020772887393832207,-0.3816305994987488,-0.9240814447402954,0.10006246715784073,-0.0752229169011116,-0.09086597710847855,-0.003503842279314995,0.000664442777633667,-0.022817909717559814
90,-0.05070831469975942,0.4589296313941072,-1.7908876452945297,-0.04544190317392349,-0.4429887533187866,-0.8953747749328613,0.9625465869903564,-0.11314712464809418,-0.0928424671292305,-0.01336546242237091,0.04934251308441162,0.012608051300048828
91,-0.0573061768478444,0.5255836113278406,-1.7988076790498158,-0.04954450577497482,-0.5017179250717163,-0.8636112809181213,0.5542306900024414,-0.23824390769004822,-0.15302570164203644,-0.001236751675605774,0.01984536647796631,-0.013189256191253662
92,-0.060362671781158304,0.549944041171918,-1.8113583254704961,-0.05143117904663086,-0.5226395130157471,-0.8510010242462158,-0.5852811932563782,0.13395088911056519,-0.14825108647346497,-0.01628732681274414,0.00553441047668457,0.12124943733215332
93,-0.031199841913321473,0.4083724214100813,-1.829747390043961,-0.02862958237528801,-0.39711612462997437,-0.9173217415809631,-1.2474122047424316,0.14618900418281555,0.03116176649928093,-0.012080863118171692,-0.047250330448150635,-0.07617801427841187
94,-0.030107210172386913,0.3720377266277839,-1.8227624934953306,-0.028043294325470924,-0.3635145127773285,-0.9311663508415222,0.23652170598506927,0.048374637961387634,-0.03610952943563461,-0.007311314344406128,0.01746043562889099,-0.014863312244415283
95,-0.023715214936851397,0.4076449393731377,-1.8096271020283248,-0.021769879385828972,-0.3964483439922333,-0.9177988767623901,0.5268144011497498,0.12726077437400818,0.07469181716442108,0.007731795310974121,-0.0017755329608917236,0.0019205808639526367
96,-0.02816504155413027,0.4479034053086427,-1.7954234743167197,-0.02538340352475643,-0.4330767095088959,-0.9009996056556702,0.3055747151374817,-0.1940564513206482,0.034571513533592224,-0.004691675305366516,0.022996753454208374,-0.007722318172454834
97,-0.03426209420689914,0.4679901511983568,-1.784223136611693,-0.030572138726711273,-0.451093465089798,-0.8919529318809509,-0.3573892414569855,0.024718256667256355,0.10020890086889267,0.01168176531791687,-0.031969308853149414,0.013565480709075928
98,-0.03410302002976295,0.4153129874268095,-1.7817808696356787,-0.03119787760078907,-0.4034763276576996,-0.9144580364227295,0.05395188555121422,-0.0792706161737442,0.08208715915679932,-0.00223412923514843,-0.016094565391540527,-0.05819815397262573
99,-0.03635061244825597,0.4262137013479473,-1.7779032929191068,-0.033091310411691666,-0.4134262204170227,-0.9099361300468445,-0.16650806367397308,-0.06230717897415161,-0.06859215348958969,0.018503904342651367,-0.007167041301727295,-0.010092556476593018
100,-0.0366187421576438,0.4366778239365782,-1.7759848947392882,-0.03317508473992348,-0.42293137311935425,-0.9055542349815369,0.4960777163505554,-0.23753350973129272,0.0923413410782814,-0.012097746133804321,-0.03994399309158325,-0.12424618005752563
101,-0.04537855069459101,0.49147974855234866,-1.762943451173583,-0.039993610233068466,-0.47193101048469543,-0.8807278871536255,0.17722845077514648,0.10912594199180603,0.014557438902556896,0.009857505559921265,0.008903056383132935,0.02928745746612549
102,-0.02539665385295999,0.4591759111375385,-1.7599609081037413,-0.02276357263326645,-0.44320952892303467,-0.8961290121078491,-0.574307918548584,0.211997389793396,0.015051879920065403,-0.012438461184501648,-0.022427678108215332,-0.010807633399963379
103,-0.02644438205946933,0.4603239952441396,-1.754975107658076,-0.023688988760113716,-0.4442383944988251,-0.895595371723175,0.3650197386741638,-0.015179152600467205,-0.019446179270744324,0.017249777913093567,0.025125235319137573,0.006465733051300049
104,-0.02279248825444854,0.47547348905619674,-1.754587542839713,-0.020262502133846283,-0.45775946974754333,-0.8888451457023621,-0.08656811714172363,1.2301839888095856e-05,-0.0005332636646926403,-0.018616899847984314,-0.009357810020446777,0.01939934492111206
105,-0.015678849264206773,0.4602404504064588,-1.7508524390290012,-0.014046822674572468,-0.44416356086730957,-0.8958356380462646,-0.11496104300022125,0.10831842571496964,0.06470618396997452,0.012993961572647095,0.009318560361862183,-0.015144586563110352
106,-0.014868442295527869,0.4528405265636999,-1.7385900119729436,-0.01336932834237814,-0.4375215172767639,-0.8991085290908813,-0.12645074725151062,0.3158626854419708,0.2926158905029297,-0.019604921340942383,-0.039239346981048584,0.08004724979400635
107,0.021579686568818663,0.39968794906336547,-1.7187740193172745,0.01987728662788868,-0.38913092017173767,-0.9209679961204529,-0.5538251399993896,0.4120471775531769,-0.20800484716892242,-0.05567440390586853,0.07997259497642517,0.01851743459701538
108,0.08394292976286617,0.35869091774702555,-1.727074773085311,0.07850828766822815,-0.3510487675666809,-0.9330601096153259,-0.22563332319259644,0.26343873143196106,0.21216732263565063,0.05573853850364685,-0.005488097667694092,-0.07470661401748657
109,0.10037541491536041,0.3185031002541318,-1.7209086893903622,0.09516706317663193,-0.31314530968666077,-0.9449250102043152,-0.6216183304786682,0.5193763375282288,0.4357042908668518,0.025880903005599976,-0.08806928992271423,0.06704109907150269
110,0.15530332778273556,0.3021963191382645,-1.6341776749962542,0.14767049252986908,-0.29761770367622375,-0.9431951642036438,0.05803398787975311,0.8982343077659607,0.5159978270530701,-0.15301106870174408,0.04026299715042114,0.0660589337348938
111,0.28813939472230954,0.28148712199079573,-1.604064281513374,0.27298489212989807,-0.2777845561504364,-0.9210401773452759,-0.7659564018249512,1.5552037954330444,0.028900984674692154,0.05037933588027954,0.0270063579082489,-0.01621568202972412
112,0.38130785785747895,0.2655447953273156,-1.5979680377651377,0.35909125208854675,-0.26243501901626587,-0.8956457376480103,0.6218663454055786,0.5467467904090881,-0.011500641703605652,0.04009392857551575,0.00787264108657837,-0.07658326625823975
113,0.37599948572207403,0.3753004965295546,-1.6562529702614335,0.34164416790008545,-0.36655211448669434,-0.8654009699821472,1.7910621166229248,-0.32244324684143066,0.05078404024243355,-0.030410677194595337,0.035161733627319336,-0.008866608142852783
114,0.45937746395564394,0.5553961386337056,-1.7104204552118443,0.37674492597579956,-0.5272799134254456,-0.7616029381752014,3.1073896884918213,1.4005557298660278,0.4068647027015686,0.06478339433670044,-0.09183013439178467,-0.1814512014389038
115,0.6938353969484004,0.842586745612239,-1.830281555044079,0.4256029725074768,-0.7463671565055847,-0.5116621851921082,2.1325087547302246,2.408245801925659,0.8312147259712219,-0.0873003900051117,0.11810183525085449,0.005406081676483154
116,1.408236724992332,1.0952470182337424,-2.3016190346095162,0.451790988445282,-0.8890413641929626,-0.07409680634737015,3.2342848777770996,3.3872570991516113,1.5939990282058716,0.10346108675003052,-0.022167742252349854,-0.05320727825164795
117,2.307857521630525,1.104103215946795,-2.9725844573921494,0.33315309882164,-0.8930610418319702,0.30240803956985474,2.466716766357422,3.0079996585845947,0.41017603874206543,0.0452038049697876,0.012949526309967041,-0.0212496817111969
118,2.800889920322834,0.9708737036589116,2.9714211832544,0.18865367770195007,-0.8253793120384216,0.5321267247200012,2.28425669670105,2.655139923095703,0.8649643063545227,-0.026284903287887573,0.06962674856185913,-0.019538164138793945
119,-3.1317451074253677,0.7252902810988343,2.7647807070018375,-0.007368865422904491,-0.6633526682853699,0.7482703924179077,2.461867094039917,1.033887505531311,1.0332366228103638,0.09638863801956177,-0.1420365571975708,-0.12058496475219727
120,-3.0487854393634466,0.5595012212465914,2.7283461946497587,-0.07854308933019638,-0.530763566493988,0.8438725471496582,0.746385395526886,-0.17056360840797424,-0.6404818892478943,0.022970587015151978,0.03376954793930054,-0.16874754428863525
121,-3.0813395532354746,0.4481755827170583,2.740243420488462,-0.05426959693431854,-0.433322012424469,0.8996036052703857,1.3104331493377686,0.36184489727020264,-0.028377259150147438,0.05672626942396164,-0.06664738059043884,0.04393875598907471
122,-3.086518069367006,0.3597439153774946,2.7404824786769946,-0.05152304098010063,-0.3520345389842987,0.9345678687095642,0.9609311819076538,0.05670753866434097,-0.32994604110717773,0.0029848292469978333,0.021223992109298706,0.010393619537353516
123,-3.0961058778584833,0.2865694818665585,2.782958077685516,-0.04361674189567566,-0.2826632857322693,0.9582269787788391,0.3936121463775635,-0.054534438997507095,-0.07061374932527542,0.03191325441002846,-0.11363795399665833,0.020532727241516113
124,-3.102068930681997,0.24438884796032215,2.7952391676754793,-0.03833930566906929,-0.24196337163448334,0.9695276021957397,0.027203107252717018,-0.29110562801361084,-0.07895505428314209,-0.0017607882618904114,-0.023005470633506775,0.03595024347305298
125,-3.0945919418411925,0.20765676680982761,2.794023093505043,-0.04597404599189758,-0.2061675786972046,0.9774360060691833,0.6177876591682434,0.33473554253578186,-0.08242622017860413,0.012374196201562881,-0.00284731388092041,0.0087699294090271
126,-3.0968629051747336,0.18349050339556353,2.7954001522298317,-0.0439641997218132,-0.18246258795261383,0.9822294116020203,0.15251362323760986,-0.1099017933011055,0.1085745170712471,0.0363500639796257,-0.040941327810287476,-0.0036527514457702637
127,-3.1173023452714546,0.17466680543644572,2.7869019715992502,-0.02391837164759636,-0.17378002405166626,0.9844942092895508,0.394221693277359,-0.0790354311466217,0.030683765187859535,-0.02049996703863144,0.005307689309120178,-0.02564692497253418
128,-3.1235982502649287,0.1411566951098105,2.7888815581583164,-0.01781446486711502,-0.14068840444087982,0.9898934364318848,0.46177294850349426,0.2544214129447937,0.01835917867720127,-0.02260606363415718,-0.02242802083492279,0.08441668748855591
129,-3.126567685080898,0.14299321633716724,2.803617999599579,-0.014871064573526382,-0.1425064206123352,0.9896823167800903,-0.4737853407859802,-0.29364246129989624,0.009407883509993553,0.034631192684173584,-0.03480073809623718,0.005984306335449219
130,-3.118809688085256,0.1396923670966875,2.8138208813966363,-0.022559072822332382,-0.13923849165439606,0.9900014996528625,0.36488422751426697,0.2854387164115906,-0.13444767892360687,0.03360644355416298,-0.02908116579055786,-0.04323983192443848
131,-3.0970627069517263,0.10688168476197991,2.822284403560808,-0.04426119476556778,-0.106678307056427,0.9933076500892639,0.043883636593818665,-0.03994813933968544,-0.01607057824730873,-0.009770166128873825,-0.03217665106058121,0.020821690559387207
132,-3.1078801084490992,0.10874153254781861,2.8500754090518186,-0.033507075160741806,-0.10852735489606857,0.9935286641120911,0.3223225474357605,0.22384494543075562,-0.42276531457901,0.017576899379491806,0.01492992788553238,-0.04472184181213379
133,-3.1154696802194173,0.08259435159542987,2.8563207985570864,-0.02603096328675747,-0.08250047266483307,0.9962511658668518,0.13388338685035706,-0.3410972058773041,0.28154927492141724,0.09005683660507202,-0.08304215222597122,-0.03287208080291748
134,3.136591029984403,0.09036708484596565,2.843475500882383,0.004981193691492081,-0.09024414420127869,0.9959070682525635,-0.2669813930988312,-0.1730537861585617,-0.1332758218050003,-0.07260815054178238,0.04858766496181488,0.1316714882850647
135,-3.132668119125012,0.10344777741158376,2.854978396844271,-0.008876705542206764,-0.10326337069272995,0.99461430311203,0.10616041719913483,0.3014419376850128,0.03619389981031418,0.05987158045172691,-0.04901933670043945,-0.10894852876663208
136,-3.1338988242340777,0.08866906426119257,2.8464469412609423,-0.007663528434932232,-0.08855292201042175,0.996042013168335,0.2284228652715683,-0.1533823311328888,0.20515073835849762,0.046634476631879807,-0.04322198033332825,-0.03122878074645996
137,3.1314515872684168,0.08473279098371422,2.828265656924894,0.010104512795805931,-0.08463143557310104,0.9963613152503967,-0.3325168788433075,-0.12265727669000626,-0.01138470508158207,-0.10628066211938858,0.09731148183345795,0.1936413049697876
138,-3.126232418254345,0.10785887826671575,2.8435915321744503,-0.015270371921360493,-0.10764987021684647,0.9940714240074158,-0.27590250968933105,0.058455951511859894,-0.18616265058517456,0.06718077510595322,-0.03840723633766174,-0.1287151575088501
139,-3.138085292066011,0.1043176876854144,2.8362628741707745,-0.0034882882609963417,-0.10412859171628952,0.9945578575134277,0.4974481165409088,0.05286417528986931,0.28014466166496277,0.027887091040611267,-0.021100305020809174,0.0002084970474243164
140,3.123900485273706,0.11593510778258524,2.8267661478196686,0.01757248304784298,-0.11567556858062744,0.9931314587593079,-0.4695368707180023,-0.41941237449645996,0.07644325494766235,-0.02575119584798813,-0.004716254770755768,0.07921034097671509
141,3.1166615313796795,0.1532096890262799,2.8245765849159383,0.024636533111333847,-0.15261100232601166,0.9879791736602783,-0.5129116177558899,-0.1627749800682068,0.06903929263353348,0.06429168581962585,-0.02048468589782715,-0.016940414905548096
142,3.1286397673675457,0.17861079982445088,2.810041278007009,0.01274646632373333,-0.17766264081001282,0.9840087294578552,0.08503134548664093,0.4843709468841553,0.26852697134017944,-0.01720203459262848,-0.008509799838066101,-0.04777538776397705
143,-3.1353014060258797,0.18504317942974563,2.8037643927524885,-0.006183804478496313,-0.18398897349834442,0.9829088449478149,0.1541193425655365,0.3472701907157898,-0.013898842968046665,-0.0061910729855299,0.02514497935771942,0.03732430934906006
144,-3.0720913041255455,0.1638092721132807,2.7899061064728974,-0.06851576268672943,-0.16307765245437622,0.9842313528060913,-0.20497047901153564,0.3437801003456116,0.42992284893989563,0.09257887303829193,-0.10141818225383759,0.01839315891265869
145,-2.9961710881335364,0.17568394088563016,2.7349051653949727,-0.14267905056476593,-0.17478159070014954,0.9742149710655212,0.10944259166717529,0.8687924742698669,0.7827344536781311,0.09310321509838104,-0.028648629784584045,0.021070361137390137
146,-2.923580376617941,0.18193269220200348,2.6601184868018817,-0.21271976828575134,-0.1809307038784027,0.9602161049842834,-0.18839256465435028,-0.05177910998463631,0.054277267307043076,-0.024966418743133545,0.24274401366710663,-0.09792637825012207
147,-2.9273287691909955,0.20463266245209608,2.665357593555154,-0.2081918567419052,-0.20320750772953033,0.9567459225654602,0.08322048932313919,0.3457232117652893,-0.2655055522918701,-0.0295858234167099,0.04967358708381653,0.05152428150177002
148,-2.88380366733951,0.2000538851468582,2.6750238139070803,-0.24985864758491516,-0.19872213900089264,0.9476710557937622,-0.7307987213134766,-0.13467788696289062,-0.14424161612987518,0.09725546836853027,0.04869769513607025,-0.08818912506103516
149,-2.945033791547803,0.18783790563875627,2.7706449674649627,-0.1918603479862213,-0.18673527240753174,0.9634930491447449,1.7010101079940796,1.2676831483840942,-0.6207425594329834,-0.07056024670600891,-0.01262076199054718,0.11603540182113647
150,-2.9084626423413082,0.10669844514954856,2.7649131791272565,-0.2297101765871048,-0.10649611055850983,0.9674149751663208,-0.6842777132987976,-0.6839830875396729,-0.10037494450807571,0.006687715649604797,0.028096452355384827,0.11614203453063965
151,-2.9587090497700896,0.15439639560961238,2.745128066131078,-0.17970246076583862,-0.15378370881080627,0.9716262817382812,-0.42764517664909363,-0.5777339935302734,0.3395721912384033,0.03807038068771362,-0.005441755056381226,-0.01422882080078125
152,-2.941843745044132,0.14257047655361166,2.7167071031414682,-0.19641007483005524,-0.14208798110485077,0.9701724052429199,0.39373505115509033,0.15320976078510284,0.21871264278888702,-0.005189076066017151,0.022642165422439575,-0.06264054775238037
153,-2.9891494751287038,0.14739551511538385,2.712186494414845,-0.15020690858364105,-0.14686238765716553,0.9776859283447266,-0.023545194417238235,-0.48134616017341614,0.00039987824857234955,0.0055688172578811646,0.00477251410484314,0.02042222023010254
154,-3.012546169736191,0.1466172298166779,2.722041841536023,-0.12730790674686432,-0.1460925042629242,0.9810451865196228,-0.08518974483013153,-0.25107043981552124,-0.07000565528869629,0.018863707780838013,-0.027766123414039612,-0.018597066402435303
155,-3.037592008539624,0.15836064454315674,2.7256828807662,-0.10251428186893463,-0.1576995700597763,0.9821517467498779,-0.1616617888212204,-0.38868167996406555,-0.06894420087337494,0.01177024096250534,0.0010985881090164185,0.009959697723388672
156,-3.0453077296751925,0.15939438722929744,2.7290135332234087,-0.09491754323244095,-0.15872029960155487,0.9827502965927124,0.04632158949971199,0.2717127501964569,0.12805241346359253,-0.0014264434576034546,-0.02696387469768524,0.03710120916366577
157,-3.0173943128921845,0.13881212088191003,2.7118335744584634,-0.12268766015768051,-0.13836675882339478,0.9827520847320557,0.4850190281867981,0.2863842248916626,0.1987166553735733,0.004737250506877899,-0.011901766061782837,0.005040526390075684
158,-2.958494509695669,0.06734609127808608,2.6892446773335807,-0.18166407942771912,-0.06729519367218018,0.981055498123169,0.5175962448120117,0.7282077074050903,0.48725655674934387,0.0026174336671829224,-0.04272068291902542,0.0042961835861206055
159,-2.914216995270138,0.03425045340882959,2.6607003579871846,-0.22528930008411407,-0.034243758767843246,0.9736899137496948,-0.24178245663642883,-0.05508633330464363,0.0724000409245491,-0.012137457728385925,0.016513042151927948,-0.015392184257507324
160,-2.920167171497685,0.05593444472194824,2.6463564070060475,-0.21927709877490997,-0.055905282497406006,0.9740598201751709,-0.01172635518014431,-0.05496930330991745,0.08067552000284195,0.02288118004798889,-0.003771848976612091,-0.025237679481506348
161,-2.915687825063048,0.03131355578186194,2.635216614066874,-0.2238784283399582,-0.03130843862891197,0.9741138219833374,0.22894564270973206,0.09123111516237259,0.2036130130290985,0.042878732085227966,-0.058031756430864334,0.07216578722000122
162,-2.9134606521375774,0.03657889973351371,2.5955023666225894,-0.22600708901882172,-0.03657074272632599,0.9734392166137695,-0.43511560559272766,-0.033235546201467514,0.29754242300987244,-0.06627507507801056,0.04064483195543289,-0.03422999382019043
163,-2.9194957893166626,0.049741927975415545,2.5730897030290487,-0.22000302374362946,-0.04972141981124878,0.9742312431335449,0.12728026509284973,-0.008862539194524288,0.002241135109215975,-0.06367312371730804,0.07094639539718628,-0.022220134735107422
164,-2.914574330314023,0.0404511512535307,2.5906699395962245,-0.22488924860954285,-0.04044011980295181,0.9735448360443115,-0.022534623742103577,0.10417839884757996,-0.1984681636095047,0.0016226470470428467,-0.021220646798610687,0.03654122352600098
165,-2.9108293626666795,0.0523267923474602,2.6023385458272386,-0.22840756177902222,-0.05230291560292244,0.9721595048904419,0.09817758202552795,0.0499453991651535,-0.11516278982162476,0.011702284216880798,0.011500924825668335,-0.01715785264968872
166,-2.9058778519124493,0.049192560224170255,2.6080359528551162,-0.23325565457344055,-0.049172721803188324,0.9711717367172241,-0.15865623950958252,0.00954857375472784,0.03551133722066879,-0.0019586682319641113,-0.006064116954803467,0.010960578918457031
167,-2.8927335824452136,0.04261943460188929,2.6105962789811765,-0.2460746467113495,-0.04260653257369995,0.9683138132095337,0.25889697670936584,0.10237941890954971,-0.02204832434654236,0.02132798731327057,-0.03660183399915695,-0.028250515460968018
168,-2.9035664079192403,0.05937833535659353,2.6102525536152266,-0.23536939918994904,-0.059343449771404266,0.9700923562049866,-0.1504640132188797,0.04461900517344475,-0.03577427566051483,-0.003476351499557495,0.006441246718168259,0.056671321392059326
169,-2.8909508784258224,0.06555211352292681,2.6127917707575543,-0.24749310314655304,-0.06550517678260803,0.9666730761528015,-0.13133016228675842,-0.04345978796482086,-0.0924079418182373,0.0008194297552108765,0.010573513805866241,-0.03205668926239014
170,-2.889087429178799,0.06703676517069146,2.6098163357031385,-0.24926938116550446,-0.0669865682721138,0.9661146998405457,0.14595994353294373,0.07452567666769028,0.08917520195245743,0.041429415345191956,-0.015136241912841797,-0.04333949089050293
171,-2.890273483053393,0.06662207170122973,2.606196370083967,-0.2481302171945572,-0.06657280027866364,0.9664364457130432,-0.07076482474803925,-0.043195247650146484,0.02334280125796795,-0.003914445638656616,-0.007844313979148865,0.03585231304168701
172,-2.884893946964815,0.06666592141391767,2.6050166931572076,-0.25332483649253845,-0.06661655008792877,0.9650847911834717,0.0028658155351877213,0.09852134436368942,0.026131972670555115,-4.735589027404785e-05,-0.018878445029258728,0.0049315690994262695
173,-2.881442013225047,0.06452090023112478,2.601689974974996,-0.25669097900390625,-0.0644761398434639,0.9643407464027405,0.05725349858403206,-0.05451678857207298,0.05222848802804947,0.008155792951583862,-0.006309382617473602,-0.05438268184661865
174,-2.8825198727186425,0.060909444472860313,2.592495368922702,-0.25570929050445557,-0.06087179109454155,0.9648353457450867,0.02028847485780716,0.10264724493026733,0.13111698627471924,-0.015286773443222046,-0.004786774516105652,0.052727460861206055
175,-2.8716796840975265,0.05727865291754779,2.587030659170133,-0.2662101686000824,-0.0572473369538784,0.9622132182121277,-0.008896305225789547,0.07078337669372559,0.08364199846982956,2.065300941467285e-05,-0.001865193247795105,-0.025842666625976562
176,-2.8680765569929028,0.056577307916607616,2.577247958024549,-0.2696863114833832,-0.0565471276640892,0.9612865447998047,-0.06389432400465012,0.07131052017211914,0.117996945977211,-0.009183317422866821,-0.012971915304660797,0.026414871215820312
177,-2.862898750802846,0.061536485737761125,2.5651954514681647,-0.2745795249938965,-0.061497654765844345,0.9595959186553955,0.023350749164819717,-0.004470063839107752,0.04250320419669151,-0.013659030199050903,0.03802963346242905,-0.04181015491485596
178,-2.866876268149008,0.0516097836472585,2.5687405036161093,-0.27091270685195923,-0.05158687382936478,0.961220383644104,0.027566365897655487,-0.09371623396873474,0.02579544298350811,0.011726975440979004,-0.03293154761195183,0.015738606452941895
179,-2.8669431788729582,0.04166276365983821,2.569608653409167,-0.27097412943840027,-0.04165071249008179,0.9616847634315491,-0.07437092065811157,-0.10397980362176895,0.019665615633130074,-0.04263967275619507,-0.022741366177797318,-0.009475648403167725
180,-2.858844622377445,0.04119124075829926,2.5528549216987426,-0.2787589132785797,-0.0411795936524868,0.9594777226448059,-0.08670872449874878,0.09175413846969604,0.3050064444541931,0.04117962718009949,-0.024494223296642303,0.04497772455215454
181,-2.8503695935001234,0.05467803785902857,2.523635822718032,-0.28669485449790955,-0.05465079843997955,0.9564617276191711,-0.5271444320678711,-0.2154771238565445,0.1427084356546402,0.02259579300880432,0.0011992789804935455,-0.04621410369873047
182,-2.864595955296696,0.09345736458149012,2.4677378576833306,-0.2722746431827545,-0.09332137554883957,0.9576833844184875,0.3585064709186554,0.31687861680984497,0.5756232142448425,0.042050063610076904,-0.008012227714061737,-0.0204123854637146
183,-2.839730882126542,0.07032345606201489,2.447652530719584,-0.2965634763240814,-0.0702655091881752,0.9524247646331787,-0.1092006266117096,0.032141584903001785,0.06608733534812927,-0.04135763645172119,0.057310789823532104,-0.05296492576599121
184,-2.8375674864091724,0.05986716192269541,2.4594743059701365,-0.2988269329071045,-0.0598314069211483,0.952430009841919,0.2712215185165405,0.06168658658862114,-0.15945816040039062,-0.011338531970977783,0.007051244378089905,0.014672160148620605
185,-2.8304449173898685,0.044786369425954334,2.486788322583102,-0.3058444559574127,-0.04477139934897423,0.9510281682014465,0.13530869781970978,0.05242864042520523,-0.1851603090763092,0.020535647869110107,-0.024228844791650772,-0.004815459251403809
186,-2.8328583509092446,0.03543643326078427,2.506837967661726,-0.3036622703075409,-0.03542901575565338,0.952120840549469,0.14308345317840576,-0.02390711009502411,-0.17982743680477142,-0.006335258483886719,-0.02015874907374382,0.012875497341156006
187,-2.8312371305450643,0.03188014888469476,2.52024340035578,-0.3052419424057007,-0.031874749809503555,0.9517410397529602,0.1950291246175766,0.048975441604852676,-0.18791572749614716,-0.0003915131092071533,0.034758664667606354,-0.02455615997314453
188,-2.8366401688358103,0.0016727592997165795,2.5652917463049074,-0.30024752020835876,-0.001672758487984538,0.9538601040840149,0.5632044672966003,-0.12821626663208008,-0.3612646758556366,0.0273745059967041,-0.007986053824424744,-0.010836243629455566
189,-2.8593824727703727,-0.005016306692482281,2.608200837621927,-0.27847564220428467,0.005016285460442305,0.960430383682251,-0.15184050798416138,-0.3858747184276581,-0.5145063400268555,-0.01861301064491272,0.028232619166374207,-0.007213711738586426
190,-2.8861339939578055,0.010734303501448685,2.6414666669622284,-0.2526746392250061,-0.010734097100794315,0.9674916863441467,-0.4145217537879944,-0.25077706575393677,-0.2651509642601013,0.01636180281639099,-0.02664993703365326,0.1152108907699585
191,-2.9017157509764986,0.12271513282230699,2.634679993125083,-0.23579645156860352,-0.12240736931562424,0.9640626311302185,-1.4340287446975708,-0.13100190460681915,-0.28402671217918396,-0.02795177698135376,0.07640208303928375,0.04442143440246582
192,-2.864763487894931,0.15745274731444114,2.641269546098516,-0.2699261009693146,-0.1568029820919037,0.9500278234481812,0.5730085968971252,0.33103233575820923,-0.022721942514181137,0.11793330311775208,-0.043712764978408813,-0.36151158809661865
193,-2.903498655519642,0.08566806488699165,2.6436552768671455,-0.234985813498497,-0.08556331694126129,0.9682251214981079,0.8378616571426392,-0.6086609363555908,0.29066964983940125,-0.02349799871444702,-0.002647712826728821,-0.017465591430664062
194,-2.947270364472429,0.05906231022583853,2.6404411293913217,-0.19276492297649384,-0.05902797728776932,0.9794679284095764,-0.07333789020776749,0.11782918125391006,0.00037903012707829475,-0.049437835812568665,0.01781398430466652,0.3153928518295288
195,-2.9142658100529304,0.09654346853461492,2.6383338980617523,-0.22432449460029602,-0.09639356285333633,0.9697356224060059,-0.48829931020736694,0.21129746735095978,-0.0032922346144914627,0.07198071479797363,-0.04366687685251236,-0.09513223171234131
196,-2.9101183778554387,0.08121015125923091,2.6284097417108128,-0.22865669429302216,-0.08112091571092606,0.9701216220855713,0.43117791414260864,-0.34752121567726135,0.21321570873260498,0.025897830724716187,0.010762624442577362,-0.1565990447998047
197,-2.935828793238245,0.07566704207254513,2.6293372721690225,-0.20373035967350006,-0.07559485733509064,0.9761042594909668,-0.4199737012386322,0.013519820757210255,-0.222788006067276,-0.05479931831359863,0.013094857335090637,0.1740727424621582
198,-2.9291185969629283,0.11055953661805677,2.6423355215300064,-0.20959149301052094,-0.11033444106578827,0.9715442061424255,0.08928698301315308,-0.05106247588992119,-0.07911121100187302,0.09684425592422485,-0.037813156843185425,-0.1866166591644287
199,-2.9464438480658033,0.06797083090321203,2.643545501382337,-0.1934647560119629,-0.06791850179433823,0.9787535071372986,0.22306226193904877,-0.2538699507713318,0.09135749936103821,-0.0364241749048233,0.0032822787761688232,0.06346750259399414
200,-2.9632302087308626,0.06975877627754008,2.6446826222970845,-0.1769866943359375,-0.06970221549272537,0.9817417860031128,-0.06143171340227127,0.07237229496240616,-0.05052565410733223,-0.006698578596115112,0.01077277958393097,0.08239072561264038
201,-2.9503846367613735,0.07693270350543356,2.645052301807959,-0.1894828975200653,-0.0768568366765976,0.9788713455200195,-0.11019179970026016,0.04423797130584717,-0.009286932647228241,0.025069460272789,-0.017472989857196808,-0.05646234750747681
202,-2.957012513667243,0.06922854956950779,2.6430251676289527,-0.18309423327445984,-0.06917326897382736,0.9806588888168335,0.2830654978752136,-0.019886815920472145,0.10327433794736862,0.011738017201423645,-0.011606767773628235,-0.013602495193481445
203,-2.956314147541144,0.07476813764361827,2.6415002953097946,-0.18370558321475983,-0.07469849288463593,0.9801388382911682,-0.34113773703575134,0.22248293459415436,0.01371812354773283,-0.014826521277427673,-0.027962632477283478,0.15770894289016724
204,-2.9352579034936355,0.08836829137948798,2.636422573020305,-0.2040744125843048,-0.08825332671403885,0.9749694466590881,0.22792509198188782,0.07291245460510254,0.13600751757621765,0.09469936788082123,-0.036685653030872345,-0.1532682180404663
205,-2.9296701614635388,0.06207667082069429,2.6173079125029486,-0.20993459224700928,-0.06203680858016014,0.9757451415061951,-0.1452755630016327,-0.02881922386586666,0.110920250415802,-0.07853277027606964,0.030573204159736633,0.1016625165939331
206,-2.9279769524340185,0.07606597456287174,2.6208527952628002,-0.21138177812099457,-0.0759926438331604,0.9744448661804199,0.14356370270252228,-0.03547048196196556,-0.1643509715795517,0.005571261048316956,0.028202123939990997,-0.0943637490272522
207,-2.935375925506785,0.05935262795638528,2.6320159959090805,-0.20439769327640533,-0.05931778624653816,0.977088987827301,-0.04178948700428009,-0.10056745260953903,0.021040989086031914,0.015615954995155334,-0.03472212702035904,0.0589827299118042
208,-2.9429866748339033,0.07577181120550203,2.6376039603414916,-0.19673678278923035,-0.0756993293762207,0.9775296449661255,-0.10713104158639908,0.021921664476394653,-0.11439256370067596,-0.00934840738773346,0.0112919881939888,0.005731403827667236
209,-2.945722495999011,0.06428974857703519,2.6508954899071226,-0.19421805441379547,-0.06424546986818314,0.9788522720336914,0.22420403361320496,-0.14740103483200073,-0.041516322642564774,0.02954523265361786,-0.04432079941034317,-0.06463724374771118
210,-2.968586316519633,0.06736929063277534,2.651575561376289,-0.17175410687923431,-0.06731834262609482,0.9828372597694397,-0.01920951157808304,-0.07870902121067047,-0.03407049924135208,-0.027449429035186768,0.04459799826145172,0.11469709873199463
211,-2.94846347084194,0.08476807193404072,2.652374174428051,-0.19124171137809753,-0.08466658741235733,0.9778847098350525,-0.4569563865661621,0.2795432209968567,-0.10178931057453156,0.028827130794525146,-0.01999344676733017,0.06310057640075684
212,-2.9406363113682428,0.1115740003751629,2.6553170431969675,-0.19836542010307312,-0.111342653632164,0.973783552646637,0.3413532078266144,-0.1764460802078247,0.04780179262161255,0.06839102506637573,-0.0012824833393096924,-0.25013530254364014
213,-2.9680519318243515,0.06343290105261422,2.65160212426019,-0.17232370376586914,-0.06339036673307419,0.9829986691474915,0.018025292083621025,-0.2914799451828003,-0.05694760009646416,-0.09562064707279205,0.04831467568874359,0.17430424690246582
214,-2.9626271077385744,0.08094870356582724,2.66268037611661,-0.17742876708507538,-0.08086032420396805,0.9808057546615601,-0.15688811242580414,0.22097820043563843,-0.1461656391620636,0.03996238112449646,0.0008737817406654358,-0.007646322250366211
215,-2.9575860649387784,0.08576790159039469,2.667116264154057,-0.1822974681854248,-0.08566278964281082,0.9795050024986267,0.16994386911392212,-0.0816291868686676,0.10018380731344223,0.06825324892997742,-0.05645758658647537,-0.11027264595031738
216,-2.972488500077657,0.07693201240006878,2.65314694695735,-0.16780157387256622,-0.07685614377260208,0.9828203916549683,0.006980885751545429,-0.024669498205184937,0.08304952830076218,-0.07473689317703247,0.07458258420228958,0.09986698627471924
217,-2.962960709579783,0.08981963442210994,2.6570598947648474,-0.17696721851825714,-0.0896989107131958,0.9801208972930908,-0.22817879915237427,0.05845970660448074,-0.11603736132383347,0.016383707523345947,-0.006736643612384796,-0.02402031421661377
218,-2.9651628109408277,0.08327900206134944,2.6600526990677893,-0.17490766942501068,-0.08318277448415756,0.9810646772384644,0.23792614042758942,-0.1780976951122284,0.047252196818590164,0.03249742090702057,-0.007439166307449341,-0.08912748098373413
219,-2.9756201642621094,0.06564422650090905,2.6535464223940957,-0.16485576331615448,-0.06559709459543228,0.984134316444397,-0.030333993956446648,0.1427886188030243,-0.007341822609305382,-0.058212533593177795,0.030013568699359894,0.17258906364440918
220,-2.9644592330150883,0.09791875001106118,2.6523236278558837,-0.17536455392837524,-0.0977623462677002,0.979637861251831,-0.18687106668949127,0.052811481058597565,-0.0669267326593399,0.026545539498329163,0.0164329931139946,-0.10308122634887695
221,-2.9715492943724646,0.0745505785146086,2.6566671812671014,-0.16875503957271576,-0.0744815394282341,0.9828398823738098,0.2727007269859314,-0.16363108158111572,0.10460581630468369,0.006386265158653259,-0.0245174840092659,-5.1856040954589844e-05
222,-2.974972429066313,0.07271004167564736,2.657134544834512,-0.16541209816932678,-0.07264599204063416,0.9835451245307922,-0.15338711440563202,0.1361640840768814,-0.05601823329925537,-0.004464000463485718,0.016081668436527252,0.08803367614746094
223,-2.952082762834599,0.0957662584025648,2.654696071222377,-0.18751439452171326,-0.09561994671821594,0.9775964617729187,-0.29048922657966614,0.26924580335617065,0.10216305404901505,0.033599019050598145,-0.037024691700935364,0.017337441444396973
224,-2.907769370257844,0.14882418897280095,2.6345122691638725,-0.22913727164268494,-0.14827542006969452,0.9620345234870911,-1.2609155178070068,0.4760124683380127,-0.017766956239938736,-0.034961849451065063,0.02071194350719452,0.13514864444732666
225,-2.8288071372828596,0.292011853732706,2.60021112809799,-0.2946837842464447,-0.28787949681282043,0.911200761795044,-0.2282787710428238,2.167381525039673,0.40093889832496643,0.11446225643157959,0.021979868412017822,-0.00861293077468872
226,-2.510504760089486,0.10418112927669916,2.591339409698091,-0.5868242979049683,-0.1039927750825882,0.8030083775520325,1.1262253522872925,2.783437967300415,0.812443196773529,0.03601258993148804,-0.04500928521156311,-0.017150402069091797
227,-2.412825690925185,0.09234722081928844,2.561152370662039,-0.6631128191947937,-0.09221602231264114,0.7428175806999207,-0.9621655941009521,-1.3062448501586914,-0.31730177998542786,0.07256704568862915,0.09519145637750626,-0.2107892632484436
228,-2.809825014571113,0.485945647507555,2.524218380387889,-0.2880079448223114,-0.46704474091529846,0.8360146284103394,-6.578205108642578,-6.166222095489502,-3.0017597675323486,-0.1920945644378662,0.020862549543380737,0.12918001413345337
229,2.2899006882957917,1.0557836464275767,-3.1170934159828585,0.37058958411216736,-0.8702864646911621,0.3244454264640808,-8.585270881652832,-9.19903564453125,-3.1486740112304688,0.16273561120033264,-0.05076456069946289,-0.021985650062561035
230,0.6168318390779595,0.6448569680734834,-1.7430395305691047,0.46229204535484314,-0.6010841131210327,-0.6519080400466919,-6.107509136199951,-1.7988179922103882,-0.9961882829666138,-0.24047502875328064,0.015177130699157715,0.059943318367004395
231,0.586257927678424,0.37579768089840004,-1.5934178691840646,0.5146393775939941,-0.36701464653015137,-0.7748848795890808,-0.7982315421104431,0.9325501918792725,0.32286107540130615,-0.03441476821899414,-0.003148317337036133,-0.11300879716873169
232,0.6432057844093835,0.3547631440801232,-1.4146350704812922,0.5624157190322876,-0.3473682701587677,-0.7503491640090942,-0.5772859454154968,-0.4651871621608734,1.2476568222045898,-0.013190865516662598,0.06408882141113281,-0.38981807231903076
233,0.4961476921510409,0.37483563974294715,-1.2449669140412378,0.44298869371414185,-0.3661195933818817,-0.8183627128601074,-0.37045207619667053,-1.327562689781189,1.8019092082977295,0.19231098890304565,-0.10739114880561829,-0.05987215042114258
234,0.35292769211827363,0.32043680083482984,-1.148140607449366,0.3280524015426636,-0.3149811625480652,-0.8906000852584839,-0.75677889585495,-0.6469631791114807,-0.6429731249809265,0.021816372871398926,-0.18620902299880981,-0.0006047487258911133
235,0.25470188978315916,0.17871494726624965,-1.203603371829411,0.24794399738311768,-0.1777651309967041,-0.9523252248764038,-1.3247684240341187,-0.4881569743156433,-0.340410053730011,0.042705416679382324,-0.2961575984954834,0.08129251003265381
236,0.21641726742085224,0.13317364045626082,-1.1640063832791214,0.21283049881458282,-0.13278034329414368,-0.9680250883102417,0.24187453091144562,-0.7148241400718689,0.641393780708313,-0.03215119242668152,0.06109455227851868,-0.1205216646194458
237,0.1326725204955695,0.16874336620646058,-1.054735986624194,0.1304047703742981,-0.16794370114803314,-0.9771333336830139,-0.08413616567850113,-0.05090920999646187,1.0116466283798218,0.0012633204460144043,0.03154538571834564,0.09007889032363892
238,0.1473766863996595,0.12590028042606793,-0.9725404542184687,0.1456815004348755,-0.1255679428577423,-0.9813305139541626,-0.9264241456985474,-0.00914144329726696,0.6104687452316284,-0.008230328559875488,-0.06007048487663269,-0.0829547643661499
239,0.12058927202691999,0.05303260987974163,-0.898089443946488,0.1201280951499939,-0.05300775542855263,-0.9913422465324402,-0.51969975233078,-0.541222095489502,0.8611685633659363,0.031178057193756104,0.008635196834802628,-0.06387931108474731
240,0.025224389884687896,0.02696351662463492,-0.8353713806767243,0.025212546810507774,-0.026960249990224838,-0.9993184804916382,-0.6045309901237488,-1.0232868194580078,0.1313244104385376,0.08883164077997208,-0.014589430764317513,-0.06168609857559204
241,-0.01023794542243356,-0.016034489651369676,-0.8374208046613848,-0.010236450470983982,0.016033802181482315,-0.9998190402984619,0.22631461918354034,0.2854069471359253,-0.0470271110534668,-0.05035620182752609,0.07561048865318298,0.2603781223297119
242,0.040372015995683554,0.03180605390974807,-0.8396391188745406,0.04034063592553139,-0.03180069103837013,-0.9986798167228699,0.03701263293623924,0.47658830881118774,-0.040027204900979996,0.0027807019650936127,-0.09515243768692017,-0.16741210222244263
243,0.01690813340896576,0.01993309464862654,-0.8177522724430675,0.016903968527913094,-0.019931774586439133,-0.9996584057807922,-0.10037686675786972,-0.7206568121910095,0.43943971395492554,0.028689289465546608,-0.05234910547733307,-0.1554776430130005
244,-0.02896257413680578,0.01240333237495136,-0.8095891573501836,-0.028956297785043716,-0.012403014115989208,-0.9995037317276001,0.14326287806034088,0.21075350046157837,-0.0742078647017479,-0.07252991199493408,0.12525701522827148,0.2927166223526001
245,0.021793174529578588,0.029560707006481585,-0.7987770053447786,0.021781928837299347,-0.029556401073932648,-0.9993257522583008,0.008915229700505733,0.4087013602256775,-0.06423834711313248,0.03723906725645065,-0.04556261748075485,-0.12454509735107422
246,0.028402414661344546,0.006644634603352573,-0.8082642983332687,0.028397969901561737,-0.006644585635513067,-0.999574601650238,-0.18372157216072083,-0.2262307107448578,-0.052693337202072144,0.03532273322343826,-0.030602119863033295,-0.13421446084976196
247,-0.00725235322309559,-0.002237862510421503,-0.8195418335319077,-0.0072522712871432304,0.002237860579043627,-0.9999712109565735,0.06570831686258316,0.015999548137187958,-0.04198804870247841,-0.041484300047159195,0.02605193480849266,0.2023943066596985
248,0.03360403482159746,0.0009590946075488613,-0.8062439164760039,0.03359769657254219,-0.0009590944391675293,-0.9994350075721741,-0.20211654901504517,0.7151424884796143,-0.03176415339112282,-0.025800451636314392,-0.010393444448709488,-0.05566447973251343
249,0.034186911592810905,-0.0210707951608478,-0.814787947408325,0.0341726653277874,0.02106923609972,-0.9991938471794128,0.026432838290929794,-0.3912448585033417,0.10340802371501923,-0.0198599211871624,-0.029583640396595,-0.030453979969024658
250,0.026777162722076794,-0.01865322269088902,-0.8086465646262417,0.026769304648041725,0.018652141094207764,-0.9994676113128662,-0.06290147453546524,0.27780628204345703,-0.03002549335360527,-0.027440693229436874,0.056268513202667236,0.1285417079925537
251,0.06515363571516347,-0.008532563563706639,-0.7933110793470713,0.06510517746210098,0.00853245984762907,-0.9978419542312622,0.16178132593631744,0.17214520275592804,0.31625959277153015,0.016132615506649017,-0.06711095571517944,-0.09583175182342529
252,0.06522366597484129,-0.008245267815374395,-0.7742091775464323,0.06517521291971207,0.008245174773037434,-0.9978397488594055,-0.1227731704711914,-0.11863626539707184,0.15779045224189758,0.020106151700019836,0.013864810578525066,-0.04706680774688721
253,0.05248000319323433,-0.008535139134392368,-0.7775504557186688,0.05245400592684746,0.008535035885870457,-0.998586893081665,0.15066120028495789,0.06542664021253586,-0.2564757466316223,-0.009775176644325256,0.09398876875638962,0.14609360694885254
254,0.09430923568489606,0.028246175698987807,-0.7930661969565894,0.09413193166255951,-0.02824242040514946,-0.9951590299606323,0.7433563470840454,0.3944787383079529,0.14893023669719696,-0.002792827785015106,-0.14297644793987274,-0.1494179368019104
255,0.08429969392900767,0.0654460718144095,-0.7692324916320901,0.08401962369680405,-0.06539936363697052,-0.9943156838417053,-0.052301857620477676,-0.27772971987724304,0.15647661685943604,0.012583762407302856,-0.00225810706615448,-0.04636424779891968
256,0.06893896472599709,0.053675926675585905,-0.7617135260486163,0.068785160779953,-0.053650155663490295,-0.9961878657341003,-0.054916102439165115,0.1892232596874237,-0.10391239821910858,-0.013578861951828003,0.1242220550775528,0.18319958448410034
257,0.09972893252144463,0.062432773557882355,-0.7847338368708424,0.09936971962451935,-0.0623922236263752,-0.9930925965309143,0.19806519150733948,0.08976701647043228,-0.09669189155101776,-0.010136321187019348,-0.111542709171772,-0.1109723448753357
258,0.0878741964561181,0.08200727692254053,-0.7750401002721051,0.08746621012687683,-0.08191538602113724,-0.9927937984466553,-0.02459222823381424,-0.15081310272216797,0.15874536335468292,0.01904013752937317,-0.050515636801719666,-0.04979348182678223
259,0.07825690296353635,0.0679455520270313,-0.764413047749866,0.07799666374921799,-0.06789328157901764,-0.9946391582489014,-0.005174889229238033,0.021550165489315987,0.013367612846195698,-0.014123380184173584,0.10140158236026764,0.11736559867858887
260,0.09810891052295032,0.08158524164960736,-0.7742637570596682,0.09762578457593918,-0.0814947634935379,-0.9918809533119202,0.11555309593677521,0.4001041650772095,-0.1748521476984024,-0.024749815464019775,-0.0764337033033371,-0.054994046688079834
261,0.10886497031605813,0.08587726617375603,-0.7636731766938599,0.10824966430664062,-0.08577174693346024,-0.9904167056083679,0.09700518101453781,-0.03215658292174339,0.21842259168624878,-0.000583648681640625,-0.017392918467521667,-0.04176408052444458
262,0.1841780686639883,0.10620578205360694,-0.7802849578002061,0.18210665881633759,-0.10600623488426208,-0.9775478839874268,0.10716405510902405,1.356719732284546,-1.0810461044311523,0.05258876085281372,0.24304541945457458,0.07308316230773926
263,0.36128565258061696,0.05978477602497987,-0.9401672587398686,0.3528456687927246,-0.059749167412519455,-0.9337719082832336,0.44885286688804626,1.6168094873428345,-1.5050567388534546,0.06423807144165039,-0.04687926173210144,-0.10918158292770386
264,0.4823766731757379,0.10072538712704329,-1.1023929260846408,0.4615347683429718,-0.10055515170097351,-0.8814047574996948,1.4754769802093506,0.8215082883834839,-1.315468430519104,0.006681174039840698,0.057723745703697205,0.0021170377731323242
265,0.6066525896268088,0.1639783989919675,-1.309404486949576,0.5624727606773376,-0.16324451565742493,-0.8105403780937195,0.8820905089378357,1.1943334341049194,-1.636136770248413,-0.06496000289916992,0.09892871975898743,-0.04085433483123779
266,0.7190692707696125,0.10522323763692555,-1.4675624675523606,0.6550415754318237,-0.10502917319536209,-0.7482576370239258,0.6838424801826477,0.8805851340293884,-2.081899404525757,-0.04066169261932373,-0.005032479763031006,0.03538227081298828
267,0.7922493792944001,-0.02723017623478376,-1.5999924086748363,0.7116707563400269,0.02722681127488613,-0.7019853591918945,-0.004231082275509834,0.44417792558670044,-1.6830321550369263,0.06483376026153564,-0.17052209377288818,-0.11509227752685547
268,0.8280059057424705,-0.14706262429697478,-1.7556918534944244,0.7286332845687866,0.14653310179710388,-0.6690453290939331,0.44198480248451233,0.6151776909828186,-1.9231404066085815,-0.05095994472503662,-0.14927968382835388,0.0823143720626831
269,0.8771377891046503,-0.23529836680164615,-1.864064180246847,0.7477245330810547,0.23313313722610474,-0.621737003326416,-0.28867653012275696,1.0244669914245605,-1.2581716775894165,0.030794084072113037,0.00733010470867157,-0.06750243902206421
270,0.9322133440821471,-0.3152058734132164,-1.9885267695046753,0.7633823752403259,0.31001222133636475,-0.566692054271698,0.868365466594696,1.1468651294708252,-0.8959485292434692,-0.029037892818450928,-0.02697691321372986,0.025157570838928223
271,0.9996023521150098,-0.31949952080033545,-2.032047014258476,0.7986823916435242,0.31409144401550293,-0.5132767558097839,0.9809284806251526,1.0749218463897705,0.33353567123413086,-0.055869340896606445,-0.06801292300224304,-0.08894187211990356
272,1.086302441856523,-0.2302951083882291,-2.0660306882443784,0.8615483045578003,0.22826485335826874,-0.4534640312194824,0.16702556610107422,0.5983576774597168,0.3228868544101715,0.01599985361099243,0.08504386246204376,0.04895356297492981
273,1.1416449742007826,-0.16565455174110288,-2.0667639310370904,0.8968712091445923,0.16489796340465546,-0.41040313243865967,0.10865885764360428,1.2691086530685425,0.5422358512878418,0.051508307456970215,0.06793591380119324,0.12565886974334717
274,1.206305000184425,-0.11080208078015279,-2.076502535999214,0.928575873374939,0.11057549715042114,-0.35428810119628906,0.6404839754104614,-0.0823439508676529,0.300936222076416,-0.030428290367126465,0.03891485929489136,-0.0054531097412109375
275,1.2174003358363568,-0.07754277472551416,-2.111306589109399,0.935383677482605,0.07746508717536926,-0.3450459837913513,0.06476239860057831,0.40058809518814087,0.6751056909561157,-0.01804053783416748,-0.05689623951911926,-0.0025187134742736816
276,1.2820161011375055,-0.031059834238614477,-2.0931192665311253,0.9581297039985657,0.031054841354489326,-0.28464582562446594,-0.2503407299518585,0.5458967685699463,0.5143598318099976,-0.009765326976776123,-0.021792735904455185,-0.0029518306255340576
277,1.3446504655824885,0.02652831167312619,-2.0708848945928584,0.9741948843002319,-0.02652519941329956,-0.22414429485797882,-0.0007063485682010651,0.4401015639305115,0.4402565360069275,0.000948488712310791,0.03339165449142456,-0.02577941119670868
278,1.3666636554530722,0.045764493188336586,-2.069974278215647,0.9782118201255798,-0.045748520642519,-0.20250564813613892,0.2438703179359436,0.3502347469329834,0.19082686305046082,0.006773471832275391,-0.00024145469069480896,0.03267529606819153
279,1.4178917186346809,0.06179192132673793,-2.086878995074555,0.9864464998245239,-0.06175260618329048,-0.15201878547668457,0.08204054087400436,0.6106362342834473,-0.11125804483890533,-0.07371163368225098,0.054413147270679474,0.016276612877845764
280,1.427267556045736,0.047642953322577425,-2.1034245300713423,0.9885942935943604,-0.04762493073940277,-0.14287416636943817,-0.08159350603818893,-0.40334901213645935,0.16047576069831848,0.10611695051193237,-0.06663286685943604,0.03272099792957306
281,1.3939952124018258,0.08517734216398552,-2.101027100183217,0.9808424711227417,-0.08507438004016876,-0.1752438247203827,0.09376534819602966,-0.13247349858283997,0.2756684422492981,-0.0206984281539917,0.006110161542892456,0.0469173789024353
282,1.426173491680408,0.034962589129155994,-2.127836117990409,0.988955557346344,-0.0349554680287838,-0.14403113722801208,0.39834755659103394,0.05692713335156441,-1.3443740606307983,-0.045336782932281494,0.0978979766368866,-0.08718524873256683
283,1.4629200585186002,0.007214991728000485,-2.152203898479406,0.9941611289978027,-0.007214928977191448,-0.10766436159610748,-0.14511741697788239,0.5591686367988586,0.6322502493858337,0.10648584365844727,-0.06965884566307068,0.05645585060119629
284,1.446971277418213,0.02872518823207143,-2.1467034944377374,0.9919341206550598,-0.028721237555146217,-0.12345791608095169,0.04859813675284386,-0.4076600670814514,0.05531102418899536,-0.00871884822845459,-0.008449167013168335,0.057387351989746094
285,1.4494109046088441,0.05695874922797054,-2.143280007064188,0.9910320043563843,-0.05692795664072037,-0.12089117616415024,-0.19455397129058838,0.3648277223110199,0.40293535590171814,-0.09395259618759155,-0.019732173532247543,0.029094286262989044
286,1.4776740960705348,0.0492060822009795,-2.130539623994564,0.994462251663208,-0.04918622970581055,-0.0928751602768898,-0.058411914855241776,0.15840031206607819,-0.32345205545425415,0.026198267936706543,0.00516461580991745,0.01886998862028122
287,1.4768258199192248,0.04318069419140255,-2.129771025156479,0.9946600794792175,-0.04316727817058563,-0.09374480694532394,0.07665756344795227,0.2241024225950241,0.050290547311306,0.0015862584114074707,-0.0058287084102630615,0.05672699213027954
288,1.5305271294598424,0.06865036488421192,-2.132447447790228,0.9968357086181641,-0.06859645247459412,-0.04016348719596863,0.06372527033090591,0.4212782382965088,0.2536502778530121,0.008367538452148438,-0.005668073892593384,0.0018181800842285156
289,1.5578328128092416,0.08879511736187512,-2.1404616527134435,0.9959766268730164,-0.08867847919464111,-0.012912079691886902,0.09645380079746246,0.261557012796402,0.15835638344287872,0.004343807697296143,0.023355580866336823,0.0007965574041008949
290,1.5626571125775854,0.08906199523242223,-2.1493477256482647,0.9960036277770996,-0.08894430100917816,-0.008106865920126438,0.06930994242429733,-0.13224458694458008,-0.07394967973232269,-0.02060079574584961,0.0009315907955169678,0.02516615390777588
291,1.5646626333062716,0.0824605098078765,-2.1470054774649183,0.9965832233428955,-0.08236709237098694,-0.006112812552601099,-0.13010665774345398,-0.06362640857696533,-0.01657135970890522,0.03567373752593994,-0.011092983186244965,0.01639723777770996
292,1.5246357785966822,0.09929623430156977,-2.154756246699649,0.994014322757721,-0.09913314133882523,-0.04591686278581619,0.36419013142585754,-0.7836887240409851,0.4414726495742798,0.07857179641723633,0.012051254510879517,-0.028179824352264404
293,1.517211283159055,0.1314511453022836,-2.1775581550440553,0.9899498820304871,-0.13107290863990784,-0.05309733748435974,-0.017789434641599655,0.3418731689453125,-0.032903995364904404,-0.15434801578521729,0.010848909616470337,0.03582441806793213
294,1.5307020217240535,0.101139179225556,-2.174097210353233,0.9940903782844543,-0.10096684098243713,-0.039878733456134796,-0.11532831192016602,0.03431405872106552,-0.20186848938465118,0.0629318356513977,-0.0021063238382339478,0.0033796988427639008
295,1.5210885841538242,0.10783805806488925,-2.1757010759316526,0.9929631948471069,-0.10762917250394821,-0.04939865320920944,0.13419295847415924,-0.289385586977005,0.2654082179069519,0.06982684135437012,0.020104721188545227,-0.006814725697040558
296,1.4471893629629855,0.14068042657841137,-2.19200336553798,0.9825665354728699,-0.1402168571949005,-0.1220744177699089,0.20603381097316742,-0.8347193598747253,0.33240899443626404,0.0040209293365478516,0.0032844990491867065,0.0677531436085701
297,1.433359996672919,0.1774064794460824,-2.188135151631289,0.9750230312347412,-0.1764773577451706,-0.13485373556613922,-0.4083089828491211,0.5345690250396729,0.23557361960411072,-0.18377870321273804,-0.030798017978668213,0.06693688035011292
298,1.4591466042761,0.17206955599817847,-2.1406889923167913,0.9790980219841003,-0.17122170329093933,-0.10977252572774887,-0.41556093096733093,-0.24833597242832184,0.11210504174232483,0.10029339790344238,-0.011883750557899475,-0.03399579972028732
299,1.4249348020359962,0.16920334038965015,-2.1205363755829523,0.9752519726753235,-0.16839711368083954,-0.14326922595500946,-0.04329761490225792,-0.2773171365261078,-0.29583311080932617,-0.020921528339385986,0.048539355397224426,0.021793976426124573
300,1.4110734405482628,0.1276643686414936,-2.150273272400978,0.9792370200157166,-0.1273178607225418,-0.15775033831596375,0.27233463525772095,-0.4973613917827606,-0.4210745394229889,0.04195749759674072,-0.01986841857433319,-0.022867992520332336
301,1.3262240508385545,0.052322007947462,-2.1891923310750188,0.9689132571220398,-0.05229813978075981,-0.24180999398231506,-0.024646300822496414,-0.8478220701217651,-0.7665605545043945,0.0011336803436279297,-0.07689803838729858,0.06804293394088745
302,1.2619214673894263,0.01199258561396673,-2.17565837947566,0.9526076316833496,-0.011992298066616058,-0.3039650619029999,-0.31320735812187195,-0.576295018196106,-0.08732128143310547,0.029219090938568115,-0.01538196112960577,0.0005440413951873779
303,1.233726812550582,-0.0012261139496526716,-2.157667942889399,0.9437272548675537,0.0012261136434972286,-0.33072271943092346,-0.19416292011737823,-0.4150092601776123,-0.0443008728325367,0.00010514259338378906,-0.01530998945236206,-0.026485562324523926
304,1.1852980334240781,-0.028171804723460193,-2.1393913785493415,0.9262435436248779,0.028168078511953354,-0.3758717179298401,-0.050347503274679184,-0.45579656958580017,-0.27780681848526,0.03950047492980957,0.0028072595596313477,0.003358900547027588
305,0.9757152367469973,-0.06393550723951606,-2.130547227677999,0.8264111280441284,0.0638919547200203,-0.5594305992126465,-0.25869476795196533,-3.486290693283081,0.002549930475652218,0.07388794422149658,-0.06665381789207458,-0.033876895904541016
306,0.7215099585739194,-0.08118099316265678,-2.0831434429027875,0.6583437919616699,0.08109185099601746,-0.7483365535736084,-0.3797656297683716,-1.6860671043395996,0.3974176347255707,-0.005755901336669922,0.007927924394607544,0.0999600887298584
307,0.5126055594913036,0.010632281299124307,-2.05421253052196,0.490421861410141,-0.01063208095729351,-0.8714203238487244,1.329908847808838,-2.1841654777526855,0.6717464923858643,0.06898060441017151,0.008526355028152466,0.032690465450286865
308,0.41369556218506676,0.08168001925238591,-2.0656688842449107,0.4006556272506714,-0.0815892294049263,-0.9125887751579285,-0.6624220609664917,-0.47996917366981506,-0.48111313581466675,0.027444958686828613,0.030060291290283203,0.0018526911735534668
309,0.3331890440590519,-0.02819206503387627,-2.067080289897421,0.32692837715148926,0.028188331052660942,-0.9446286559104919,-0.7549617290496826,-0.6674399375915527,-0.39708319306373596,0.027045011520385742,-0.05154953896999359,0.07437413930892944
310,0.2549090710907209,-0.10995746290595931,-2.04752584891925,0.2506345808506012,0.10973601788282394,-0.9618421196937561,-0.6564309597015381,-1.9057132005691528,-0.7956531047821045,0.010595858097076416,0.08597319573163986,-0.18076646327972412
311,0.10101189280215292,-0.143185753481372,-2.067172401241353,0.09980824589729309,0.14269699156284332,-0.9847212433815002,1.1070590019226074,-0.26027897000312805,0.10192587971687317,-0.004608660936355591,0.014865264296531677,0.033473074436187744
312,0.022378255583669866,0.08259687481574371,-2.0458763347354654,0.022300101816654205,-0.08250299096107483,-0.9963412880897522,1.0991724729537964,0.6242282390594482,-0.09856869280338287,-0.0866921916604042,0.10377374291419983,0.2634311318397522
313,-0.0019366569206392885,0.10007182080494852,-2.0421584061102056,-0.0019269665936008096,-0.09990487992763519,-0.9949951171875,0.9478273987770081,-0.14877183735370636,-0.058052051812410355,0.0143323615193367,-0.00528920441865921,0.028045713901519775
314,0.007872406375844283,0.18749759158917306,-2.029072971096051,0.007734352722764015,-0.18640093505382538,-0.9824433326721191,0.06939418613910675,-0.3037804365158081,0.07076659798622131,0.056245751678943634,0.04289202392101288,-0.02069997787475586
315,0.010603418180449135,0.20750034179566687,-2.032383149722802,0.01037576887756586,-0.2060145139694214,-0.9784939289093018,0.27265647053718567,-0.1252940595149994,-0.1923324018716812,-0.009841710329055786,-0.0022221803665161133,-0.06300997734069824
316,0.004187371293395251,0.21533643377640518,-2.057890172024694,0.0040906500071287155,-0.2136761099100113,-0.9768959879875183,0.33029189705848694,0.42418673634529114,-0.06221018731594086,0.0029131323099136353,-0.05100284516811371,0.06156700849533081
317,0.03554101011110504,0.27457069284974794,-2.056744756387809,0.03420250117778778,-0.27113375067710876,-0.9619338512420654,1.0316351652145386,0.4571271240711212,-0.06855502724647522,-0.016426004469394684,-0.03169220685958862,-0.04624485969543457
318,0.09307784645568846,0.41682236765485975,-2.069580824532207,0.08498568832874298,-0.40485695004463196,-0.9104220271110535,1.3066246509552002,0.23066627979278564,-0.14359532296657562,0.023946799337863922,0.10003212094306946,-0.020241975784301758
319,0.06775630074746744,0.4826067840389167,-2.072796732706865,0.05997181683778763,-0.4640898108482361,-0.883755624294281,0.34336933493614197,-1.0340853929519653,0.11802709102630615,0.07287120819091797,0.02860400080680847,-0.12610149383544922
320,-0.03491366398753427,0.557592418797332,-2.05414273965054,-0.029619326815009117,-0.529144823551178,-0.8480144143104553,1.0731972455978394,-0.489572674036026,0.3399093747138977,0.07292377948760986,0.01640373468399048,0.05399280786514282
321,-0.12350693961322616,0.7044669338804157,-1.9768388391991414,-0.09386789053678513,-0.6476277709007263,-0.7561528086662292,1.2978401184082031,-0.16319981217384338,0.11867662519216537,-0.02782095968723297,0.10763448476791382,0.03981375694274902
322,-0.14859319807709534,0.7978335131734827,-1.9287554819494668,-0.10337517410516739,-0.715844988822937,-0.6905646324157715,0.6109501719474792,0.026648757979273796,0.24175384640693665,0.018749922513961792,0.1507662534713745,0.09808111190795898
323,-0.15208905715520546,0.8077881907514727,-1.9066521601309823,-0.10470379889011383,-0.7227603793144226,-0.6831211447715759,0.3802613914012909,1.5457395315170288,0.1503148376941681,0.02223006635904312,0.11318707466125488,0.3337864279747009
324,0.000452621513729117,0.8475993225492194,-1.947662293188909,0.00029953804914839566,-0.7496938109397888,-0.6617847681045532,0.45032474398612976,0.6060199737548828,-0.26125621795654297,0.03168290853500366,-0.035386085510253906,-0.05463063716888428
325,0.08561560977129212,0.8672429784640429,-1.9661459543109916,0.055319786071777344,-0.7625482082366943,-0.6445618271827698,-0.13682590425014496,0.514014482498169,-0.06292570382356644,0.013955116271972656,-0.017557382583618164,-0.005843997001647949
326,0.12966362698517703,0.8811320971604562,-1.9639704683782482,0.08227115869522095,-0.771459698677063,-0.6309369206428528,-0.03994902968406677,0.312735915184021,0.03716500476002693,0.02014586329460144,-0.005746722221374512,0.022675812244415283
327,0.11080657703176297,0.8387352037958503,-1.9316742446493071,0.0739121064543724,-0.7437983155250549,-0.6643049120903015,-0.5360530018806458,-0.1858915090560913,0.27766677737236023,0.045350581407547,-0.04558461904525757,-0.054109394550323486
328,0.07022463079301075,0.8052921849272343,-1.897055708429171,0.048618707805871964,-0.7210331559181213,-0.6911928057670593,-0.17263123393058777,-0.15266293287277222,0.293781042098999,0.028285592794418335,-0.023214340209960938,0.0073091983795166016
329,0.044153980677520015,0.7673101760615865,-1.8509676425205228,0.031770847737789154,-0.694201648235321,-0.7190790176391602,-0.6652129888534546,0.03399992361664772,0.3074949383735657,0.009504169225692749,0.0029175281524658203,-0.012183189392089844
330,0.017695371806377293,0.719030761790748,-1.8117813410557615,0.013314089737832546,-0.6586557030677795,-0.7523266673088074,-0.24077950417995453,0.025413669645786285,0.12279140949249268,-0.00345689058303833,0.03983551263809204,-0.021095573902130127
331,0.010366517300193357,0.6957928605725134,-1.7961286160136103,0.00795663334429264,-0.6409941911697388,-0.7675044536590576,-0.26953956484794617,-0.0710892528295517,0.09765499830245972,-0.016577869653701782,0.00952446460723877,-0.023587465286254883
332,0.016030658258371366,0.6845999800294736,-1.7995006091860857,0.012417971156537533,-0.6323632001876831,-0.7745725512504578,0.024823695421218872,0.0449194610118866,-0.06465743482112885,0.005923092365264893,0.030022501945495605,-0.016580402851104736
333,0.02643827451842012,0.6806507368562423,-1.8074533067507967,0.020544463768601418,-0.6292988657951355,-0.7768917679786682,-0.023639313876628876,0.18431434035301208,-0.017451977357268333,0.020165979862213135,-0.021518945693969727,0.030935347080230713
334,0.03128823254319758,0.6810438604381183,-1.8083400577109658,0.024304360151290894,-0.6296043395996094,-0.77653568983078,-0.19673661887645721,-0.04495840519666672,0.0716618150472641,0.019579917192459106,-0.018680572509765625,0.02412480115890503
335,0.021275660353065416,0.6587013740520882,-1.800895620385885,0.016823263838887215,-0.6120904088020325,-0.790608823299408,-0.21971078217029572,0.0966426283121109,0.1335815042257309,0.005149394273757935,-0.032623887062072754,0.06306976079940796
336,0.010573245640023394,0.6299394024631833,-1.7872169543214174,0.008543691597878933,-0.5890957713127136,-0.8080180287361145,-0.10793623328208923,-0.20514339208602905,0.005864058155566454,0.009553252719342709,0.0437009334564209,-0.0485798716545105
337,0.021879353237819643,0.6228891821825248,-1.792595462610717,0.017768913879990578,-0.5833841562271118,-0.8120019435882568,-0.16354221105575562,0.41986826062202454,0.014331991784274578,-0.025657713413238525,0.0027719736099243164,0.062261343002319336
338,0.03006171101233677,0.6105849684272997,-1.7951387433458577,0.0246262326836586,-0.5733468532562256,-0.8189425468444824,-0.10435307770967484,-0.00747352559119463,-0.04978867992758751,0.017228631302714348,-0.01860255002975464,0.0481906533241272
339,-0.00164589378874658,0.5914262380570696,-1.7886694452343088,-0.0013663320569321513,-0.5575456023216248,-0.8301452398300171,-0.2877975404262543,-0.35806453227996826,0.06520677357912064,0.005364120006561279,-0.01108849048614502,-0.01575624942779541
340,-0.006024460210161098,0.5801009145300079,-1.7945184203124194,-0.0050388723611831665,-0.5481083393096924,-0.8363921642303467,-0.005647885613143444,0.11973600089550018,0.006575485225766897,-0.021465659141540527,-0.026522397994995117,-0.03055119514465332
341,-0.023855291420231635,0.5770440049178568,-1.8105132140927511,-0.019990721717476845,-0.5455489754676819,-0.8378404974937439,-0.04840230941772461,-0.4390677511692047,-0.340093731880188,0.0272081196308136,0.047029078006744385,-0.025730669498443604
342,-0.02350647806717926,0.5741873105633444,-1.8534129088185256,-0.019735019654035568,-0.5431526303291321,-0.8394020199775696,0.05193953588604927,-0.39383652806282043,-0.19410893321037292,0.03143851459026337,-0.02598494291305542,-0.06391829252243042
343,-0.017677973286102464,0.6229549132303575,-1.8692393864675825,-0.014356560073792934,-0.5834375619888306,-0.812031090259552,1.043887972831726,0.5820860862731934,-0.096468485891819,0.001981675624847412,0.017916321754455566,0.0335429310798645
344,0.07642931381612426,0.7408662146619351,-1.8999367463599441,0.05634109675884247,-0.6749273538589478,-0.7357301115989685,1.1467869281768799,0.6033934354782104,-0.2731148302555084,-0.016942888498306274,0.010071396827697754,-0.043307363986968994
345,0.13121252235526132,0.8145091552314566,-1.9306090542647953,0.08978323638439178,-0.727388858795166,-0.6803267598152161,0.2595841884613037,0.15676170587539673,-0.07471264898777008,0.00820872187614441,0.0013756752014160156,0.024992287158966064
346,0.12850321707271456,0.798547109669445,-1.9388320749458423,0.08941632509231567,-0.716343104839325,-0.6919952034950256,0.0441095232963562,-0.04132293909788132,-0.07144775986671448,0.025360286235809326,-0.02508145570755005,-0.01067209243774414
347,0.11928890870848818,0.7947487792459526,-1.9432149476118104,0.08335956931114197,-0.7136876583099365,-0.6954862475395203,-0.2154264897108078,-0.20331287384033203,0.03165137395262718,0.016204029321670532,0.00020194053649902344,0.030401408672332764
348,0.11735989724698855,0.7888818415533047,-1.930488869228749,0.08250667154788971,-0.7095658183097839,-0.6997920870780945,-0.006581347435712814,0.09740138798952103,0.06574098765850067,-0.0011468306183815002,0.011781454086303711,-0.019186735153198242
349,0.12687249604580317,0.7927032823356976,-1.9265516342591122,0.08881592750549316,-0.7122533917427063,-0.6962807178497314,0.0024151005782186985,0.13467393815517426,0.01070365123450756,-0.013590097427368164,0.0304906964302063,0.014487504959106445
350,0.12473700556244117,0.7730860211130627,-1.922620179550608,0.08905029296875,-0.6983473896980286,-0.7101978659629822,-0.19073064625263214,0.06102752313017845,-0.012823909521102905,-0.0036010444164276123,0.0020735859870910645,-0.014274179935455322
351,0.1338302883315122,0.7765194371089164,-1.9264044937766338,0.09518405795097351,-0.7008007764816284,-0.7069783210754395,0.1222819834947586,0.13958124816417694,-0.03836669772863388,0.0009920895099639893,0.018229365348815918,0.008003711700439453
352,0.14914796314121798,0.7745519834083813,-1.9323190244396669,0.10620640218257904,-0.6993959546089172,-0.7067995071411133,-0.0487646609544754,0.03375285863876343,0.0020899511873722076,0.011957667768001556,0.004190266132354736,-0.018526971340179443
353,0.15325409847474433,0.7734602763600329,-1.9331068947746957,0.10922420024871826,-0.6986152529716492,-0.7071115970611572,0.06875238567590714,0.09399037063121796,-0.02123401314020157,0.009641759097576141,0.01358717679977417,-0.009242713451385498
354,0.17747649959570153,0.7707127445369876,-1.942527401112793,0.12665683031082153,-0.6966467499732971,-0.7061454653739929,0.04876711964607239,0.16043323278427124,-0.03693300485610962,0.014746367931365967,-0.0018853545188903809,-0.04994279146194458
355,0.17686991201374713,0.7676852072500453,-1.9503536892453446,0.12659898400306702,-0.694471538066864,-0.7082951068878174,-0.040380239486694336,-0.10666216909885406,-0.05215764790773392,0.013293594121932983,-0.001649618148803711,0.018033266067504883
356,0.18357706467349738,0.7647375319129699,-1.9552667197843845,0.13171985745429993,-0.6923476457595825,-0.7094396352767944,-0.018629617989063263,-0.03198729082942009,-0.006915445439517498,0.007760733366012573,-0.00981605052947998,-0.044680237770080566
357,0.1840474885996985,0.7612958887966567,-1.9591968459769227,0.13248887658119202,-0.6898601651191711,-0.7117159962654114,-0.09960398077964783,-0.09953763335943222,-0.09741924703121185,-0.0032469630241394043,0.028605282306671143,0.015289604663848877
358,0.18338562032755432,0.7534156889037027,-1.9601431758633667,0.1330050230026245,-0.6841340065002441,-0.7171263694763184,-0.016311876475811005,-0.039020560681819916,0.04417930170893669,0.022680386900901794,-0.022332608699798584,-0.049414098262786865
359,0.157026385245062,0.7639530872511398,-1.939617506427297,0.11292444169521332,-0.6917814016342163,-0.7132226824760437,0.1731405258178711,-0.28489476442337036,0.2945186495780945,0.02841770648956299,-0.006598114967346191,-0.0442846417427063
360,0.1367190386548198,0.7674699411632346,-1.9318599865461479,0.09808629751205444,-0.6943166851997375,-0.712954044342041,-0.05285079777240753,0.15067417919635773,-0.11862371861934662,-0.03860753774642944,0.06124472618103027,0.09160089492797852
361,0.15411021914771358,0.753843626565303,-1.9469339836606359,0.11191191524267197,-0.6844460368156433,-0.7204229831695557,-0.1221042275428772,-0.0342949815094471,-0.06592576950788498,0.0031393393874168396,-0.014635324478149414,-0.01315850019454956
362,0.15309115628088216,0.7489595542318622,-1.9543921455432982,0.11168615520000458,-0.6808770895004272,-0.7238318920135498,0.0682673379778862,0.051983967423439026,-0.03987191990017891,0.0018392205238342285,0.001693129539489746,0.007538557052612305
363,0.1532721972960298,0.7513994276062842,-1.9585069498961192,0.11156323552131653,-0.6826620101928711,-0.7221677303314209,0.04315047338604927,-0.05316172540187836,0.04698830470442772,0.006616085767745972,-0.010254859924316406,0.012786626815795898
364,0.1503002650441562,0.7504903676532714,-1.9572270930119617,0.10950938612222672,-0.6819974780082703,-0.7231093645095825,-0.09563268721103668,0.04492514580488205,0.0052764276042580605,-0.008862435817718506,0.010702311992645264,0.02224266529083252
365,0.13718542173813117,0.7393391935510181,-1.9511156592132401,0.10105056315660477,-0.6737997531890869,-0.7319717407226562,-0.02647976204752922,-0.1081024557352066,0.05945760756731033,0.006874829530715942,0.005525827407836914,-0.02880096435546875
366,0.13609776615237973,0.7420741568147255,-1.9519871030769371,0.10000397264957428,-0.675818145275116,-0.7302526831626892,-0.10913275927305222,-0.025348497554659843,-0.010182008147239685,-0.015455007553100586,0.023001432418823242,0.025876522064208984
367,0.1308155137372398,0.7349599399023536,-1.9539372765622618,0.09676992893218994,-0.67055743932724,-0.7355190515518188,0.07314808666706085,-0.0018957625143229961,-0.05215802788734436,0.004945129156112671,0.0029549002647399902,-0.011337637901306152
368,0.13230548005288087,0.73682275845218,-1.9584161037638064,0.09770077466964722,-0.6719382405281067,-0.7341346144676208,-0.08912332355976105,-0.04530597850680351,-0.02450653724372387,0.0018933415412902832,0.008119821548461914,0.019168853759765625
369,0.1256921376690161,0.7271705159471038,-1.9597548052991391,0.09365230053663254,-0.6647585034370422,-0.7411648035049438,-0.2352464199066162,-0.22260062396526337,-0.00816043745726347,6.716698408126831e-05,-0.007314801216125488,-0.028137505054473877
370,0.10429452279670033,0.6996074870510144,-1.9649584367148432,0.0796506404876709,-0.643917441368103,-0.7609376907348633,-0.20685064792633057,-0.194585919380188,-0.04944521188735962,0.009079217910766602,0.008297324180603027,0.0031251907348632812
371,0.12957469559174473,0.6660327616702664,-1.957365532841071,0.10159701853990555,-0.6178715229034424,-0.7796876430511475,-0.3040100038051605,1.2473329305648804,0.20657682418823242,-0.0012705028057098389,-0.05021929740905762,0.13315749168395996
372,0.20789842088118685,0.6482740793060449,-1.9547098741296756,0.16453026235103607,-0.603811502456665,-0.7799624800682068,0.1337691992521286,1.0345370769500732,0.14739951491355896,-0.026163563132286072,-0.08901381492614746,0.10447114706039429
373,0.4160917017136193,0.7030904780500921,-2.0120830383457102,0.3083344101905823,-0.646578311920166,-0.697758138179779,0.8661374449729919,1.486038327217102,-0.14439882338047028,0.09864801168441772,-0.08823919296264648,-0.18088871240615845
374,0.6324058611557906,0.776848216499392,-2.0753684276162936,0.4215199053287506,-0.7010352611541748,-0.5752134919166565,1.6236499547958374,2.5542948246002197,0.218182772397995,-0.00791516900062561,0.0747077465057373,0.083926260471344
375,0.9441986059479166,0.9356774616787604,-2.213181450740378,0.48056742548942566,-0.8050011992454529,-0.3478907644748688,0.8701304793357849,2.3974413871765137,0.19649992883205414,-0.04251813888549805,0.04068845510482788,0.07622331380844116
376,1.2487186362473082,1.0226529271050075,-2.2855996016976623,0.49430811405181885,-0.8534934520721436,-0.16494905948638916,0.515907883644104,2.2789576053619385,0.5610741376876831,-0.018279701471328735,0.024971842765808105,0.022065773606300354
377,1.5407224883116912,1.0797552503195045,-2.3505879214578673,0.47133079171180725,-0.8818424344062805,-0.01417900063097477,-0.08189956098794937,1.636497974395752,0.5031214952468872,0.004422932863235474,0.03307241201400757,-0.10123848915100098
378,1.5574579650006448,1.0947872166111847,-2.225464796661315,0.45819464325904846,-0.8888307809829712,-0.006111928261816502,-0.7567709684371948,1.3209975957870483,0.2662108540534973,-0.03235241770744324,0.04555386304855347,-0.05451124906539917
379,1.5999041895788482,1.1168449290856914,-2.147290505497414,0.438334584236145,-0.8987213373184204,0.012762587517499924,0.21147389709949493,1.5785454511642456,0.2877296507358551,-0.01986229419708252,0.01061403751373291,0.14959096908569336
380,1.7218432255797824,1.1369340836298931,-2.1657594857896347,0.41559216380119324,-0.9073489308357239,0.06325570493936539,-0.34031596779823303,-0.08196429908275604,-0.37501275539398193,0.016719907522201538,0.014023005962371826,-0.0798724815249443
381,1.6744176635974708,1.1177314432348981,-2.1287000886941434,0.4353756010532379,-0.8991097807884216,0.04527636989951134,0.1834297776222229,0.2668496072292328,-0.10791909694671631,0.014957040548324585,0.07692039012908936,-0.04767203330993652
382,1.6008246982604666,1.0800393847652474,-2.089753778273098,0.47108107805252075,-0.8819763660430908,0.014150050468742847,-0.3260688781738281,-0.5935935378074646,-0.3645928204059601,-0.06332048773765564,-0.010357558727264404,-0.018270015716552734
383,1.6010437526491155,1.1098905131031631,-2.0693145769916317,0.44455644488334656,-0.8956499695777893,0.013450791127979755,0.08043760061264038,0.6671878099441528,0.7100808620452881,0.02912217378616333,-0.003916800022125244,-0.01566326431930065
384,1.5475639976648272,1.177823577441879,-2.0029407389508687,0.38283273577690125,-0.923774778842926,-0.008895696140825748,-0.6088211536407471,-0.6291585564613342,0.38513344526290894,0.09018969535827637,0.0272294282913208,-0.012329219840466976
385,1.4551061974919997,1.2163534646440175,-1.9470688236268117,0.34474778175354004,-0.9378399848937988,-0.040062811225652695,0.030029432848095894,0.14704805612564087,0.5596207976341248,-0.040594398975372314,0.0830426812171936,-0.02220826968550682
386,1.522234972611983,1.2156487030368475,-2.041904732788169,0.34731870889663696,-0.9375951886177063,-0.01687953807413578,0.10598815232515335,-0.3328121602535248,-0.3552160859107971,-0.01420411467552185,0.027332186698913574,0.008212568238377571
387,1.5174215241322886,1.1927348964319122,-2.0648701867212305,0.3685937225818634,-0.9293819665908813,-0.019692322239279747,0.02378447912633419,-0.11475645005702972,0.018696894869208336,0.04340878129005432,-0.10322600603103638,0.055092692375183105
388,1.506874145778226,1.1915865029560837,-2.087700383025413,0.3694303035736084,-0.928957462310791,-0.02364700846374035,-0.05781960487365723,-0.07138607650995255,-0.0871044397354126,-0.037734776735305786,0.03164917230606079,0.020488442853093147
389,1.487300508085923,1.181563273487984,-2.086355511309551,0.3781566619873047,-0.925200343132019,-0.03164807707071304,0.001752298790961504,-0.22038869559764862,-0.1890697330236435,-0.013746291399002075,0.02596956491470337,-0.01594405621290207
390,1.475014513081459,1.1656923783718174,-2.0893025972692296,0.3923076391220093,-0.9190614223480225,-0.03769126906991005,0.028121624141931534,0.014510096050798893,-0.0015391719061881304,0.023021280765533447,-0.014425396919250488,0.0015279091894626617
391,1.5156259118813857,1.1706669626608968,-2.1355096424169484,0.3889448642730713,-0.9210106134414673,-0.021480048075318336,0.15526609122753143,0.008428453467786312,0.052029892802238464,0.03251814842224121,-0.042658209800720215,0.012095928192138672
392,1.4877013042851732,1.1783517200442906,-2.126646420726469,0.38112854957580566,-0.9239768981933594,-0.03174297884106636,0.0008019190281629562,-0.059348925948143005,0.15592968463897705,-0.010309487581253052,0.03060537576675415,-0.010767992585897446
393,1.54198183422858,1.1777282648440988,-2.1942334624960202,0.38286539912223816,-0.9237382411956787,-0.011035126633942127,0.4134105145931244,0.01391142699867487,-0.3122844398021698,-0.08359476923942566,0.1352860927581787,-0.07827460765838623
394,1.5804669709596977,1.1579811227697634,-2.253357377790331,0.4011707901954651,-0.9159950017929077,0.00387970102019608,0.06198533624410629,-0.1775675266981125,-0.00405276520177722,0.046430498361587524,-0.10742717981338501,0.056056857109069824
395,1.5867021846620921,1.1901680719097603,-2.246250818202706,0.3714568316936493,-0.9284313917160034,0.005908838007599115,-0.21509359776973724,0.18794992566108704,0.31696444749832153,0.017611771821975708,0.0015668272972106934,0.031490445137023926
396,1.4949742705877336,1.2015907968488688,-2.1492301093897157,0.35983791947364807,-0.9326143264770508,-0.027336055412888527,-0.4875962734222412,0.2032710760831833,0.1499658077955246,-0.02997341752052307,0.02735614776611328,0.014793336391448975
397,1.4674470751204132,1.1987100848957524,-2.111276915755857,0.361619770526886,-0.9315708875656128,-0.037506766617298126,0.1740705966949463,0.01839500665664673,-0.22185291349887848,-0.033845752477645874,0.09899038076400757,-0.07212764024734497
398,1.5040793902652667,1.1842369932437156,-2.157362083575751,0.37616482377052307,-0.9262116551399231,-0.02513386681675911,0.0596085861325264,-0.0687173381447792,0.0257869865745306,0.06028226017951965,-0.09057283401489258,0.03688317909836769
399,1.5023720765377384,1.205430052430613,-2.1495934472005174,0.3564551770687103,-0.9339929819107056,-0.024428313598036766,-0.01928204670548439,-0.006717182695865631,0.14221049845218658,-0.0388282835483551,0.03210705518722534,0.013991300016641617
400,1.5120887471640403,1.1970481413852905,-2.166604091890678,0.3644782602787018,-0.9309654235839844,-0.02142225205898285,0.03020675666630268,0.1038568764925003,-0.07054150104522705,-0.01558607816696167,0.0035362839698791504,0.008665921166539192
401,1.5317484625385267,1.1986212831852094,-2.183840307486971,0.36336541175842285,-0.9315385818481445,-0.014195858500897884,0.07172074913978577,0.1212705597281456,0.062100354582071304,0.0017621517181396484,-0.01999950408935547,0.03903716802597046
402,1.5101152304980845,1.1929302993607336,-2.1631856370623463,0.36825916171073914,-0.9294540286064148,-0.02237383835017681,-0.1712716519832611,-0.11858358234167099,-0.11958874017000198,0.010830223560333252,0.013316214084625244,-0.007609667256474495
403,1.5384267167940149,1.1784412254241339,-2.198903102110467,0.38216501474380493,-0.9240111112594604,-0.012374854646623135,0.3542202115058899,-0.028961436823010445,-0.3279101550579071,-0.04335892200469971,0.1161651611328125,-0.0844268798828125
404,1.6024419455617993,1.1660359724441711,-2.26678526782994,0.39360132813453674,-0.9191967844963074,0.01245991699397564,0.2619553804397583,0.06790478527545929,0.11680268496274948,0.05351170897483826,-0.09987670183181763,0.05036056041717529
405,1.6291865052824626,1.1871414258870536,-2.2914229516016986,0.3736739754676819,-0.9273027777671814,0.021843720227479935,-0.083927221596241,-0.08929093182086945,0.07374240458011627,-0.02073824405670166,0.04513126611709595,-0.00034416094422340393
406,1.6085573277928964,1.1771353917432215,-2.276864434673517,0.3832981586456299,-0.9235110282897949,0.01448060479015112,0.12003111094236374,0.10907816886901855,-0.06731538474559784,0.0052821338176727295,0.04841959476470947,-0.0545196533203125
407,1.6307335566261771,1.1933178476083621,-2.2972910992239997,0.36791563034057617,-0.9295969605445862,0.022078288719058037,-0.1820712387561798,-0.1085437536239624,0.10494071990251541,-0.00541260838508606,-0.027769923210144043,0.06622433662414551
408,1.5695611515906789,1.196319411379813,-2.2280997661659083,0.36578550934791565,-0.9306991100311279,-0.0004518094356171787,-0.14709340035915375,0.08427649736404419,0.06347324699163437,-0.0012835562229156494,0.03699183464050293,-0.03896164894104004
409,1.5640196618285338,1.1969620752380763,-2.2238877309266676,0.36517924070358276,-0.930933952331543,-0.0024747352581471205,0.11038768291473389,0.04679033160209656,0.013003505766391754,-0.005788981914520264,0.036616384983062744,-0.012066900730133057
410,1.5748270972227285,1.1999584468829108,-2.2327748415557083,0.362393856048584,-0.9320240020751953,0.001460734405554831,-0.03298316150903702,0.0016690250486135483,0.004858287051320076,0.010286808013916016,-0.015043258666992188,0.008793115615844727
411,1.5949268945356518,1.2064386854986924,-2.251573808888548,0.35624536871910095,-0.9343528747558594,0.00859807152301073,0.013080094009637833,-0.013520166277885437,0.09078854322433472,-0.008848518133163452,0.01400381326675415,0.011848687194287777
412,1.5979651245545516,1.201993424208755,-2.254574840832949,0.36036643385887146,-0.9327595829963684,0.009793132543563843,0.08390147984027863,0.04794379323720932,-0.016567792743444443,0.007706135511398315,0.009572207927703857,-0.013546823523938656
413,1.6273839958704082,1.1984163794759073,-2.289168103187964,0.3632507920265198,-0.9314640760421753,0.020577482879161835,0.10649319738149643,0.08130411803722382,0.05838252604007721,-0.001724332571029663,-0.00013071298599243164,0.030310628935694695
414,1.6533087928104133,1.1943811807211209,-2.3186914731221155,0.36633843183517456,-0.9299883842468262,0.03029627352952957,0.028772126883268356,-0.053783975541591644,-0.09258503466844559,0.0061133503913879395,-0.013035297393798828,0.03124237060546875
415,1.6516235726601702,1.1954088257727584,-2.3201673996183816,0.3654361963272095,-0.9303656220436096,0.0296016912907362,0.0041584656573832035,-0.002749113366007805,0.08876817673444748,-0.012973427772521973,-0.01149839162826538,0.05497777462005615
416,1.6502036359898324,1.1911128062219252,-2.315194211155411,0.3694584369659424,-0.9287819862365723,0.02939951978623867,0.04066628962755203,0.043091632425785065,-0.14986801147460938,-0.0034153759479522705,0.055307984352111816,-0.04955637827515602
417,1.6721536325907413,1.1867539087669516,-2.340475551563626,0.37274831533432007,-0.9271576404571533,0.03791067376732826,0.1826256811618805,-0.010132267139852047,0.09512018412351608,0.022469550371170044,-0.02848494052886963,0.00696539506316185
418,1.718479474032971,1.2002448312292204,-2.3845463603304933,0.3581879734992981,-0.9321277737617493,0.05328628793358803,0.08277899026870728,0.16158261895179749,0.11620264500379562,-0.026232987642288208,-0.017945587635040283,0.06179548054933548
419,1.8697265013971518,1.222471994496563,-2.4812054536581374,0.3261863589286804,-0.9399459958076477,0.10051903873682022,0.5234222412109375,0.8622286915779114,0.4376417100429535,-0.01017683744430542,0.01764369010925293,-0.009012103080749512
420,2.1344095107637946,1.2421519627350204,-2.671329779826382,0.27283912897109985,-0.9464807510375977,0.1724327951669693,0.4603767991065979,0.8809820413589478,0.4350542426109314,0.0063661932945251465,0.018425941467285156,-0.035866618156433105
421,2.390177875334575,1.2512537840806304,-2.8630664425319248,0.21444962918758392,-0.9493792057037354,0.22954383492469788,0.430669367313385,0.6899634599685669,0.4655604362487793,0.02111552655696869,0.019508659839630127,-0.03134752810001373
422,2.6366565512573428,1.2655300860848409,-3.055390118593637,0.14539003372192383,-0.953766942024231,0.26304030418395996,0.08321458846330643,0.44786083698272705,0.4135744571685791,-0.00024844706058502197,0.016511201858520508,0.02286359667778015
423,2.747839914641414,1.2747670334643328,3.132300120931621,0.11192208528518677,-0.956502377986908,0.26940059661865234,-0.07175199687480927,0.27361202239990234,0.2562006711959839,-0.047179028391838074,0.004308164119720459,0.025292396545410156
424,2.8270387670235713,1.2748742727140028,3.0710858881028895,0.0902257040143013,-0.956533670425415,0.2773137390613556,0.1772468537092209,0.39009007811546326,0.21553528308868408,-0.0022893026471138,0.02435886859893799,0.004592448472976685
425,2.945032573991658,1.264894561577909,2.9780880413677533,0.05881417915225029,-0.9535757899284363,0.29535385966300964,-0.1061149463057518,0.2768869400024414,0.18185758590698242,0.023232314735651016,-0.02831190824508667,0.05236333608627319
426,3.036418039555557,1.2868803781075642,2.908113554119976,0.029406899586319923,-0.9599658846855164,0.2785690128803253,-0.021475767716765404,0.591960072517395,0.37059512734413147,-0.008700715377926826,-0.0004069805145263672,0.03202363848686218
427,-2.997922288494412,1.2662803436759826,2.726316545134043,-0.04292893409729004,-0.9539921879768372,0.29674288630485535,0.2898106575012207,0.6617127060890198,0.5283259153366089,0.03331590071320534,0.03382605314254761,-0.033696502447128296
428,-2.782236184764356,1.2327848392206116,2.5658859849346687,-0.1166183203458786,-0.9434159398078918,0.3104289472103119,0.3241252601146698,0.6305681467056274,0.5852117538452148,0.022792048752307892,0.019298076629638672,-0.03293269872665405
429,-2.6304755455390976,1.1801288208934417,2.4587714006439065,-0.18627206981182098,-0.9246550798416138,0.33213862776756287,0.19244834780693054,0.5325887799263,0.5399366617202759,0.010490790009498596,0.006121635437011719,0.0015101730823516846
430,-2.5047240491405405,1.1388423926662188,2.36620792854874,-0.24896088242530823,-0.9081494808197021,0.33657559752464294,0.15984474122524261,0.3362581133842468,0.4771314561367035,-0.0031906068325042725,0.010368108749389648,-0.018323063850402832
431,-2.4026034706052637,1.0847676878647754,2.2937087031344743,-0.31462332606315613,-0.8841949105262756,0.3452703058719635,0.28209519386291504,0.4422133266925812,0.7044734358787537,0.00711292028427124,0.0010009407997131348,0.00012755393981933594
432,-2.286057603929292,1.0094864967661374,2.2114036530399335,-0.40184155106544495,-0.8465586304664612,0.3490872085094452,0.3024982810020447,0.6620782613754272,0.9957568645477295,0.009522855281829834,-0.02087301015853882,0.008685588836669922
433,-2.1729318002202964,0.9169383589491468,2.145070002145278,-0.5012785792350769,-0.7937430739402771,0.34451690316200256,0.2964843809604645,0.5986389517784119,0.9383223056793213,0.012570023536682129,-0.004261136054992676,-0.007618039846420288
434,-2.0869244834189917,0.8237374030618386,2.0971572275586765,-0.590971827507019,-0.7336904406547546,0.3353363275527954,0.13594584167003632,0.36622241139411926,0.7630764245986938,0.006056725978851318,0.018312692642211914,-0.0339142382144928
435,-2.0198277533299382,0.7582622892683786,2.042396236018492,-0.6540590524673462,-0.6876608729362488,0.31516557931900024,-0.041361864656209946,0.37496981024742126,0.6920756697654724,-0.014428436756134033,0.0001608729362487793,0.021367043256759644
436,-1.9761152705434475,0.7084166635927146,2.0153430622555226,-0.6978643536567688,-0.6506322026252747,0.29943764209747314,0.09750513732433319,0.1473444551229477,0.33652979135513306,-0.0028191804885864258,0.035489439964294434,-0.02839568257331848
437,-1.9609347152609151,0.6864677746990786,2.0046498688227747,-0.7153669595718384,-0.6338090300559998,0.2941708564758301,-0.019409488886594772,0.12484678626060486,0.14117372035980225,-0.0006975531578063965,0.0014084577560424805,0.01190522313117981
438,-1.9458571905276103,0.670644520218571,1.9902285006520808,-0.728961706161499,-0.6214910745620728,0.2869899570941925,0.03514964133501053,0.18935638666152954,0.2986147105693817,0.0374792218208313,-0.01014643907546997,0.019863903522491455
439,-1.9155905765569075,0.6213612216158899,1.975261012371467,-0.765232503414154,-0.5821424722671509,0.274825781583786,0.06497909128665924,0.269503116607666,0.4141431450843811,-0.04275083541870117,0.009831130504608154,0.0236361026763916
440,-1.8963200144635584,0.5969311705259087,1.971403315753617,-0.7836297154426575,-0.5621070265769958,0.26449933648109436,0.21888263523578644,-0.021254591643810272,0.027275748550891876,0.07670539617538452,0.046955108642578125,-0.0574224591255188
441,-1.9053469630561566,0.5834192188804797,1.9676938780121245,-0.7883129119873047,-0.5508807897567749,0.27403125166893005,0.035965029150247574,-0.11704391986131668,0.1319715827703476,-0.0005359649658203125,-0.016410470008850098,0.02174508571624756
442,-1.8948125751767082,0.5659708228367643,1.9520958424583075,-0.8001469373703003,-0.536235511302948,0.2687315046787262,0.07822946459054947,0.11254417151212692,0.19083257019519806,-0.020226716995239258,0.05132639408111572,-0.010461181402206421
443,-1.8972512559449368,0.5620220425993215,1.9455631986581046,-0.8014883995056152,-0.5328983068466187,0.271358847618103,-0.027930034324526787,-0.13271580636501312,-0.1411910355091095,-0.02057880163192749,0.007065236568450928,-0.014065295457839966
444,-1.9056708354453689,0.5776742154905807,1.936267087274182,-0.7912001013755798,-0.5460770130157471,0.2753221392631531,-0.07029873132705688,0.07133020460605621,0.034773778170347214,-2.9146671295166016e-05,0.0031387805938720703,0.012275457382202148
445,-1.8960316307400658,0.5688835431298186,1.926927142832776,-0.7983351349830627,-0.5386917591094971,0.2692064344882965,-0.02317461371421814,0.040223583579063416,-0.016700217500329018,0.0053206682205200195,0.0001328587532043457,-0.005610853433609009
446,-1.897486251999591,0.5724937027553583,1.9186025255001145,-0.796095609664917,-0.5417298078536987,0.26974156498908997,-0.01187549065798521,-0.10978172719478607,0.01869267411530018,0.05099374055862427,0.011502265930175781,-0.039059191942214966
447,-1.9014081365046187,0.5565112506497945,1.9114830369525602,-0.8031190037727356,-0.5282270908355713,0.27563735842704773,0.026742463931441307,-0.07937020063400269,0.057872459292411804,-0.04952681064605713,0.0037978291511535645,0.025983184576034546
448,-1.8758709320232014,0.5669439697993517,1.8794542867443402,-0.8045951724052429,-0.5370566844940186,0.2533712387084961,-0.2921712398529053,0.3196518123149872,0.004469084553420544,-0.01393204927444458,-0.005591690540313721,0.029938697814941406
449,-1.8583542942589544,0.5669505643897512,1.8640461957461265,-0.8089059591293335,-0.5370622277259827,0.23923815786838531,0.1486554741859436,-0.1671227365732193,0.158146932721138,0.11014515161514282,0.06149160861968994,-0.11638981103897095
450,-1.883595412751376,0.5564313701695205,1.8697178181110006,-0.8079414367675781,-0.5281592607498169,0.2613016366958618,-0.04294390603899956,-0.1414589285850525,-0.18527771532535553,-0.08922958374023438,0.047110676765441895,0.061757445335388184
451,-1.8853886789111103,0.585508137665415,1.8627802083934537,-0.7925288677215576,-0.5526229739189148,0.25788775086402893,-0.011777213774621487,0.04002075269818306,-0.192280575633049,-0.0010807514190673828,-0.02937781810760498,0.03202927112579346
452,-1.8900409008478476,0.5831976553984293,1.8660822890369162,-0.7925305366516113,-0.5506958365440369,0.26197192072868347,0.12103761732578278,-0.041912466287612915,0.22156129777431488,0.0810285210609436,-0.011239469051361084,-0.028451472520828247
453,-1.8823134604109741,0.5645849983572235,1.8436846707445755,-0.8041496276855469,-0.5350652933120728,0.2589370906352997,-0.08619310706853867,0.02876681461930275,0.2392067015171051,-0.04948800802230835,0.01246708631515503,0.03969261050224304
454,-1.8716919424026022,0.5543349390185812,1.8251478225015927,-0.8120499849319458,-0.5263779759407043,0.2519935965538025,-0.0732254907488823,0.05115249380469322,0.0943390503525734,-0.0042493343353271484,0.03907334804534912,-0.019709020853042603
455,-1.8690252246286025,0.541163307248413,1.8182508594465723,-0.8192756772041321,-0.5151334404945374,0.2518426775932312,-0.010672246105968952,-0.0019279811531305313,0.11900784820318222,0.002274453639984131,0.023846209049224854,-0.011669427156448364
456,-1.861853939858653,0.528536667686926,1.8045874871715937,-0.8272262215614319,-0.5042702555656433,0.24780796468257904,-0.1535636931657791,0.11238405108451843,0.10671675950288773,-0.02300894260406494,-0.016603827476501465,0.03467801213264465
457,-1.8563041368494424,0.5244862966154099,1.7965493361406375,-0.8305414915084839,-0.5007684230804443,0.24378642439842224,0.03963146358728409,-0.03807986155152321,0.004329154267907143,0.0013941526412963867,0.044179677963256836,-0.03623640537261963
458,-1.8593147517014137,0.5250095131538784,1.795697630821105,-0.8295525312423706,-0.501221239566803,0.2462111860513687,0.02824612334370613,-0.025041289627552032,-0.08060113340616226,0.0051048994064331055,0.0012059807777404785,-0.0007735490798950195
459,-1.858381289626514,0.524251451039022,1.7895155511126049,-0.8301461935043335,-0.5005651116371155,0.24554443359375,-0.04537898302078247,-0.043901797384023666,-0.014187322929501534,0.013968706130981445,0.011856555938720703,-0.009582489728927612
460,-1.855017612553071,0.522036248673374,1.7811516901422106,-0.8320297598838806,-0.49864619970321655,0.24306105077266693,0.00880845170468092,0.06266020238399506,0.05505729839205742,-0.01667940616607666,0.010502278804779053,-0.001071929931640625
461,-1.8606407037047796,0.52991583367613,1.7766630526058946,-0.8268588781356812,-0.5054607391357422,0.24660512804985046,-0.1359270066022873,-0.08058325946331024,-0.20182259380817413,-0.0041043758392333984,0.027738511562347412,0.005332738161087036
462,-1.8621719448814276,0.537384576907908,1.7710808029662821,-0.8228411078453064,-0.5118909478187561,0.24677951633930206,0.028631919994950294,0.0965842604637146,0.05795077234506607,-0.017399311065673828,-0.01879441738128662,0.02446076273918152
463,-1.8637981709288025,0.5474075043685942,1.7712975151560686,-0.8174853920936584,-0.5204753279685974,0.2466229945421219,-0.03146708384156227,-0.17987151443958282,-0.34902042150497437,-0.0074808597564697266,-0.05746656656265259,0.018345803022384644
464,-1.8634875434720797,0.5912543702202271,1.745313031050293,-0.7949325442314148,-0.5574029088020325,0.23954977095127106,-0.36110424995422363,0.043711259961128235,0.08250293135643005,0.052317917346954346,-0.034103989601135254,-0.011629238724708557
465,-1.8225764734120349,0.545987522713538,1.7152017443914438,-0.8276693224906921,-0.5192623138427734,0.21290883421897888,0.09532951563596725,0.14191947877407074,0.3903464674949646,-0.004972219467163086,0.14005088806152344,-0.09280693531036377
466,-1.8496651950778187,0.5676919394502343,1.729595134278541,-0.8105713725090027,-0.5376874804496765,0.23209095001220703,-0.09588021785020828,-0.34648340940475464,-0.7371031045913696,-0.06325364112854004,0.023252665996551514,0.010050758719444275
467,-1.8615092007971203,0.6001886047318149,1.7420153150754147,-0.790602445602417,-0.56479811668396,0.2365397959947586,0.16815733909606934,0.20630522072315216,0.08488976210355759,0.014784455299377441,-0.024542152881622314,0.0211658775806427
468,-1.8660864491106692,0.5987121486897606,1.7593794293918092,-0.7903081774711609,-0.5635790824890137,0.24039843678474426,0.1074565201997757,-0.11286573857069016,-0.017270399257540703,0.07505255937576294,-0.023594319820404053,-0.03420642018318176
469,-1.8666388293390956,0.5724350790106211,1.7624499952732324,-0.8040668964385986,-0.5416805148124695,0.24506893754005432,0.10119838267564774,0.16830182075500488,0.5619050860404968,-0.018229365348815918,-0.03320968151092529,0.0345177948474884
470,-1.8478082589979867,0.5499810604994021,1.7547474389410145,-0.8200329542160034,-0.522671103477478,0.23315337300300598,-0.06610333919525146,0.07765357196331024,-0.06528717279434204,-0.015644967555999756,0.0392116904258728,-0.01869112253189087
471,-1.8564174693342645,0.5555752992012656,1.7645684985629477,-0.8151771426200867,-0.5274321436882019,0.23937691748142242,0.07916498184204102,-0.05813048034906387,-0.04265796020627022,0.00803309679031372,0.015332043170928955,-0.005337625741958618
472,-1.8499679126855433,0.5527479058638375,1.7711448328224708,-0.8181343674659729,-0.5250279307365417,0.2345244586467743,-0.03739988058805466,0.1720632016658783,-0.07882414013147354,-0.04546719789505005,-0.030193626880645752,0.06196901202201843
473,-1.8393198965138366,0.5621406020577768,1.7729854487321142,-0.8157942891120911,-0.5329986214637756,0.2244815081357956,0.03109532594680786,0.08901433646678925,0.045397043228149414,0.08190768957138062,0.01636660099029541,-0.05896942317485809
474,-1.8549721201278735,0.5513449102645496,1.784547509304935,-0.817656934261322,-0.5238333344459534,0.23882193863391876,0.10743483901023865,-0.36636626720428467,0.05725233256816864,0.07336360216140747,0.036269187927246094,-0.06714531779289246
475,-1.8848017787684146,0.5301696105960805,1.797748242552208,-0.820537805557251,-0.5056796669960022,0.2664693593978882,0.08465984463691711,0.06828340142965317,0.1729350984096527,-0.11626029014587402,-0.026089131832122803,0.08533728122711182
476,-1.877128710919542,0.528885039763587,1.805835205445264,-0.8231768012046814,-0.5045710206031799,0.2603611648082733,0.09232224524021149,0.06580083817243576,-0.12370077520608902,0.03867673873901367,0.024270176887512207,-0.03369191288948059
477,-1.8903807157608836,0.5286389987703152,1.8206940044546187,-0.8197722434997559,-0.5043585896492004,0.2712857723236084,0.05855291336774826,-0.14649131894111633,0.02342909947037697,0.04784536361694336,-0.014394402503967285,-0.0173184871673584
478,-1.888879985901979,0.5297166678690004,1.814302039780243,-0.8196618556976318,-0.50528883934021,0.2698850929737091,-0.015026876702904701,0.08424974977970123,0.034267473965883255,-0.047113776206970215,-0.0008299946784973145,0.03478720784187317
479,-1.8883210510121835,0.5258696316931705,1.8174296395054408,-0.8216530680656433,-0.501965343952179,0.27003180980682373,0.03294546157121658,0.00925413053482771,0.08515306562185287,0.041364312171936035,0.01679682731628418,-0.04261481761932373
480,-1.8851627885579223,0.5089787583634889,1.8190368958892178,-0.8304471373558044,-0.48728570342063904,0.27001887559890747,0.07935045659542084,0.0997355505824089,0.12070818245410919,-0.04583460092544556,0.013317197561264038,0.042938947677612305
481,-1.873168374897743,0.5048063709938662,1.8209924347781608,-0.835559606552124,-0.4836379587650299,0.2606421113014221,0.022692501544952393,0.2596125602722168,0.04771360009908676,-4.214048385620117e-05,0.004649370908737183,0.01804444193840027
482,-1.8494194377355477,0.46005953147841605,1.833046090588985,-0.8614707589149475,-0.4440014362335205,0.24643592536449432,0.23555588722229004,0.3547629117965698,0.693798840045929,0.02416008710861206,-0.03788632154464722,0.00011560320854187012
483,-1.8295192327438123,0.40303774170638496,1.8439098366895905,-0.889258086681366,-0.39221447706222534,0.23534618318080902,0.11914142221212387,0.051962632685899734,0.1877671331167221,0.007956206798553467,0.012957274913787842,0.0011650323867797852
484,-1.823095242973702,0.3989287041999631,1.8385878266791122,-0.8923047184944153,-0.3884314000606537,0.2300291657447815,0.03626251965761185,0.03111034631729126,0.008823745884001255,-0.002363860607147217,0.005267918109893799,-0.0026121139526367188
