,attitude.roll,attitude.pitch,attitude.yaw,gravity.x,gravity.y,gravity.z,rotationRate.x,rotationRate.y,rotationRate.z,userAcceleration.x,userAcceleration.y,userAcceleration.z
0,2.541851042500666,-0.1369701295510028,-1.669145491510568,0.5591428279876709,0.13654224574565887,0.8177501559257507,0.042866870760917664,-0.013702699914574623,0.025006093084812164,0.002823054790496826,0.005135595798492432,0.006636321544647217
1,2.824251153076364,-0.13227350181698733,-0.667761507230215,0.30931606888771057,0.13188812136650085,0.9417690634727478,0.197391539812088,-0.09218400716781616,-0.0326920747756958,-0.03561919927597046,-0.05670808255672455,0.006488323211669922
2,2.800274487142278,-0.15331265735051608,-0.6744009569034993,0.33080339431762695,0.15271276235580444,0.9312615990638733,0.37603145837783813,-0.3366996645927429,-0.03440745919942856,-0.014000415802001953,-0.05064672231674194,0.018186092376708984
3,2.6955671766640643,-0.236186432307087,-0.698896336059341,0.4194069504737854,0.23399664461612701,0.8771222829818726,1.2675714492797852,-1.465218186378479,-0.24614058434963226,0.00022497773170471191,-0.0011322945356369019,0.009199798107147217
4,2.5567308617687527,-0.34004046000845645,-0.7405511456191376,0.5204723477363586,0.33352524042129517,0.7860465049743652,0.6609274744987488,-0.8290443420410156,0.1728169471025467,-0.006236076354980469,-0.05251944065093994,-0.018804192543029785
5,2.481384777570273,-0.37937248969045334,-0.7621411015600783,0.569675087928772,0.3703376352787018,0.7337032556533813,0.39681997895240784,-0.3771888017654419,-0.033630043268203735,-0.00023227930068969727,-0.04808726906776428,0.027115285396575928
6,2.443647917120684,-0.3984668126613079,-0.7813429352202457,0.5922977924346924,0.38800573348999023,0.7061410546302795,-0.0055172014981508255,-0.011058179661631584,0.040054067969322205,-0.018719851970672607,0.012079805135726929,0.03682476282119751
7,2.440407224014522,-0.39903064523267023,-0.7631179490320724,0.5944418907165527,0.3885253369808197,0.7040507197380066,-0.02460191398859024,-0.0019441088661551476,0.0005214978009462357,-0.001347959041595459,0.007547140121459961,-0.013254702091217041
8,2.4416168898389743,-0.3942860482141884,-0.7453259840054636,0.5947704911231995,0.38414910435676575,0.7061711549758911,-0.0016138507053256035,-0.17493045330047607,-0.01224634237587452,0.016145646572113037,0.021353214979171753,-0.012430310249328613
9,2.4429159197149564,-0.3913227320884491,-0.7292646313095824,0.5945820808410645,0.38141149282455444,0.7078114748001099,-0.05761601775884628,0.09509667009115219,0.0312790684401989,-0.014992356300354004,-0.006960868835449219,0.024366140365600586
10,2.4691450204907124,-0.3729151886485441,-0.713977569125213,0.5800901651382446,0.36433181166648865,0.7285314798355103,0.06011529266834259,-0.19039484858512878,0.23636206984519958,0.029071331024169922,-0.040891170501708984,-0.09446758031845093
11,2.458396558284234,-0.36408402531680856,-0.7087884574939063,0.5898952484130859,0.35609352588653564,0.7247216105461121,0.08805500715970993,-0.17789585888385773,0.09739980101585388,0.022546827793121338,-0.013899832963943481,0.0023140311241149902
12,2.472655443270304,-0.3580774542768466,-0.7023812414544914,0.580817699432373,0.3504742681980133,0.7347233295440674,-0.12858827412128448,0.4609849452972412,0.22239217162132263,0.013634145259857178,-0.02964302897453308,0.04733532667160034
13,2.4874333804466477,-0.33477725851200824,-0.700416378871372,0.5747109651565552,0.3285588026046753,0.7495041489601135,-0.13283056020736694,0.11522749066352844,0.0904214009642601,0.021892428398132324,-0.019186854362487793,-0.02051544189453125
14,2.5111765523869107,-0.3306260776236907,-0.7144741075034247,0.5575541853904724,0.32463526725769043,0.7640321850776672,-0.026526954025030136,0.35533779859542847,0.2885105609893799,-0.03727531433105469,-0.027149945497512817,-0.02851283550262451
15,2.5689415905229316,-0.3132038002820137,-0.7096119406084918,0.5155013203620911,0.3081081509590149,0.799579918384552,-0.0605592355132103,0.4452611804008484,0.17713645100593567,-0.02442765235900879,-0.07232934236526489,-0.03534340858459473
16,2.6266460629791686,-0.3002745627874597,-0.7622892075121902,0.47045210003852844,0.29578250646591187,0.831376850605011,-0.2782506048679352,1.4032964706420898,0.981515109539032,-0.12835010886192322,-0.10558173060417175,-0.046434223651885986
17,2.7803395283673056,-0.2049008771723899,-0.863534141648126,0.3460531234741211,0.2034701108932495,0.9158862233161926,-0.50124192237854,1.5013095140457153,1.192521333694458,-0.1221151053905487,0.06871619820594788,-0.1592942476272583
18,2.8255878606300042,-0.16108549534866998,-0.9760621115898276,0.30674827098846436,0.1603897362947464,0.9381791353225708,-0.22051450610160828,0.2664416432380676,1.0607109069824219,0.0022878944873809814,-0.04327857494354248,-0.07798045873641968
19,2.852630581685943,-0.048860290904470034,-1.0486230572262885,0.28461742401123047,0.048840850591659546,0.9573962688446045,-0.9292436242103577,-0.08450686186552048,0.594529926776886,0.07338428497314453,0.029055260121822357,0.024216890335083008
20,2.796363480814229,0.026112047167890676,-1.079585679119189,0.33829694986343384,-0.026109080761671066,0.9406771063804626,-0.6310815811157227,-0.5921260714530945,0.3714405596256256,0.05685991048812866,0.06405769288539886,0.2756161689758301
21,2.739944085568796,0.0848382689921254,-1.1146573718189519,0.389530211687088,-0.08473653346300125,0.9171074032783508,-0.8496482372283936,-0.20120956003665924,0.6705213785171509,0.1695670485496521,-0.06469277292490005,0.00662916898727417
22,2.734242723072234,0.13744546339934482,-1.1247578700273444,0.3924412131309509,-0.13701312243938446,0.9095147848129272,0.023340392857789993,-0.25327739119529724,-0.07249792665243149,0.046660929918289185,-0.005000412464141846,-0.02911323308944702
23,2.7236605295903584,0.1498825416060848,-1.1313929774624807,0.40132108330726624,-0.14932198822498322,0.9036838412284851,-0.03314375877380371,0.06253183633089066,0.2398388832807541,-0.013381659984588623,-0.053116366267204285,0.029513239860534668
24,2.7519201609857324,0.1465039412293607,-1.136200885376519,0.37581583857536316,-0.14598041772842407,0.9151238203048706,-0.054311688989400864,0.5827987194061279,-0.16832348704338074,0.049995869398117065,0.00669822096824646,0.16950112581253052
25,2.8435868911488247,0.14246372274589308,-1.1221346829535537,0.2906399369239807,-0.141982302069664,0.946239709854126,0.24154600501060486,0.9451954960823059,0.007850287482142448,0.009210556745529175,-0.0395515114068985,0.020938634872436523
26,2.925273328729763,0.10604627528413689,-1.1223334026708256,0.21343044936656952,-0.10584762692451477,0.9712073802947998,0.2583456337451935,0.5673874616622925,-0.03709184750914574,-0.011739775538444519,-0.01877090334892273,-0.0005958080291748047
27,2.9880471055833757,0.10131886005959083,-1.130070840537376,0.15215860307216644,-0.10114560276269913,0.9831672310829163,-0.016593869775533676,0.9557698965072632,0.031231166794896126,0.001024395227432251,-0.013280078768730164,-0.0036443471908569336
28,3.032945346505003,0.10105438590583311,-1.128597624203355,0.10788051784038544,-0.10088247805833817,0.9890323281288147,0.10153822600841522,0.25838515162467957,0.00026716198772192,0.005583859980106354,0.0034703537821769714,0.003613114356994629
29,3.0959090306862582,0.08740781364077355,-1.1189439934264862,0.04549339413642883,-0.08729655295610428,0.9951430559158325,-0.07737952470779419,0.8248417377471924,-0.033865660429000854,-0.0065529607236385345,-0.020003244280815125,0.03178870677947998
30,-3.093639262809223,0.09004108257061107,-1.0939729766085553,-0.04774084314703941,-0.08991946280002594,0.9948043823242188,0.05729299038648605,1.3183479309082031,-0.45297327637672424,-0.024219617247581482,0.01652466505765915,0.02448296546936035
31,-3.006233294712435,0.09544916667955244,-1.0661110836177288,-0.13433212041854858,-0.09530430287122726,0.9863426089286804,-0.16065114736557007,0.8610129356384277,-0.41153568029403687,-0.014807268977165222,0.02155858278274536,0.02903813123703003
32,-2.9268817685861377,0.10632092171232432,-1.0366864535799316,-0.21186189353466034,-0.10612072050571442,0.9715211987495422,0.017479781061410904,0.6826262474060059,-0.26865506172180176,0.05400969088077545,0.0017048120498657227,-0.01864016056060791
33,-2.857240139155414,0.11003531190582372,-1.0087845477064612,-0.27883943915367126,-0.1098133996129036,0.9540387392044067,0.0435359850525856,0.45580145716667175,-0.20689177513122559,0.035263389348983765,-0.027836143970489502,0.012071609497070312
34,-2.8331249073286164,0.09821751870533235,-0.9893837874262724,-0.3021358549594879,-0.09805968403816223,0.9482077956199646,0.1522362232208252,-0.0038556098006665707,0.012507928535342216,0.0600246787071228,-0.04421325773000717,-0.02416616678237915
35,-2.84716126974211,0.08369287898266618,-0.9848786020791171,-0.2891799807548523,-0.08359520882368088,0.9536176323890686,0.02817659266293049,-0.04272764176130295,0.012813925743103027,-0.006031781435012817,-0.03293616324663162,0.018916428089141846
36,-2.867897149515628,0.09026991911642523,-1.001872874693725,-0.2691907584667206,-0.09014737606048584,0.9588587880134583,-0.12828654050827026,-0.39082252979278564,0.33137714862823486,0.0012006163597106934,-0.020234711468219757,0.018405795097351074
37,-2.875951502975706,0.10136106596999785,-1.0242629064030555,-0.2611805200576782,-0.10118758678436279,0.9599717855453491,-0.10467278212308884,-0.004773018416017294,0.18419526517391205,0.008678078651428223,0.00025069713592529297,-0.005763411521911621
38,-2.8729943109755007,0.1041096864754774,-1.038202867204265,-0.26394346356391907,-0.10392171889543533,0.9589236378669739,-0.032050661742687225,0.10971421748399734,0.06004652753472328,0.012951582670211792,-0.0061704665422439575,0.01708972454071045
39,-2.873998441957854,0.10874856522915467,-1.0438257374590456,-0.2628500759601593,-0.10853434354066849,0.9587127566337585,0.12543269991874695,-0.17552365362644196,0.11559101939201355,0.02716284990310669,-0.0038313791155815125,-0.020846545696258545
40,-2.8684117690916664,0.12103315700657473,-1.040171663791503,-0.2678219974040985,-0.12073787301778793,0.9558732509613037,-0.41434797644615173,0.36712488532066345,-0.20838704705238342,0.0295712947845459,0.010264240205287933,0.027311503887176514
41,-2.82573197546609,0.16280433637882064,-1.0226754237915645,-0.30652710795402527,-0.1620860993862152,0.9379603862762451,-0.3095077872276306,0.321909099817276,-0.2579571604728699,0.01429075002670288,-0.006935566663742065,0.012265682220458984
42,-2.8615241409672785,0.16565882969990536,-1.0339584025725428,-0.2726372182369232,-0.16490218043327332,0.9478796720504761,-0.04086383432149887,-0.5638884902000427,0.28748467564582825,0.020256876945495605,-0.021972179412841797,0.0233420729637146
43,-2.9071143737823975,0.18720441678727878,-1.0714885185069047,-0.2282763421535492,-0.1861128807067871,0.9556423425674438,-0.6195771098136902,-0.9182669520378113,0.5180489420890808,0.027058660984039307,-0.024839892983436584,0.004288196563720703
44,-2.9404423835903253,0.22775115054548026,-1.128091444591762,-0.19463717937469482,-0.22578732669353485,0.9545349478721619,-0.5767133235931396,-0.3122275173664093,0.3945077061653137,0.010616108775138855,0.0016509145498275757,0.009652972221374512
45,-3.0308384924529843,0.25711581728518185,-1.1910077335677955,-0.10689453780651093,-0.25429224967956543,0.9612018465995789,-0.43625032901763916,-0.9919184446334839,0.59575355052948,-0.037560418248176575,0.01794886589050293,0.012278318405151367
46,-3.127996749674424,0.2709153304046289,-1.2444050479503215,-0.0130996098741889,-0.2676135003566742,0.9634374380111694,-0.13528965413570404,-0.9401976466178894,0.5036420226097107,-0.029548706486821175,-0.01578804850578308,0.017214536666870117
47,3.1218144743344656,0.3029913141077503,-1.277659254021218,0.01887601427733898,-0.29837659001350403,0.9542614221572876,-0.0218813419342041,-0.2607314884662628,0.13538594543933868,0.0007315259426832199,0.055014193058013916,0.03945183753967285
48,3.0843702891610234,0.2811661623687276,-1.2945314286858496,0.05494539439678192,-0.2774762213230133,0.9591600894927979,-0.028185896575450897,-0.3043350279331207,0.0392044335603714,0.02238614857196808,0.026469111442565918,0.07680487632751465
49,3.079149287804676,0.2898021893234757,-1.2928086628518638,0.05980061739683151,-0.2857626676559448,0.9564326405525208,-0.37698766589164734,-0.10356689244508743,-0.06626450270414352,-0.017869476228952408,0.0017814040184020996,-0.026348531246185303
50,3.068662872918517,0.32923385077641804,-1.2889929281814094,0.06895159184932709,-0.32331812381744385,0.9437750577926636,-0.2930229604244232,-0.11467447131872177,0.011695997789502144,-0.0017518848180770874,-0.005966544151306152,-0.019046545028686523
51,3.0679453311582523,0.3633924580924564,-1.2853184962705497,0.06877566874027252,-0.3554472029209137,0.9321625828742981,-0.3696643114089966,0.15562081336975098,-0.04991360753774643,0.02123592048883438,0.0020536482334136963,0.01752912998199463
52,3.1026714393558397,0.39090622250831897,-1.281914265876859,0.03597607463598251,-0.3810264468193054,0.92386394739151,-0.17313317954540253,0.37810757756233215,-0.012877024710178375,-0.007777828723192215,0.0035545527935028076,0.03766864538192749
53,3.1326927972912864,0.40320404869841536,-1.2805980644658204,0.008186055347323418,-0.3923674523830414,0.9197720289230347,-0.3126406669616699,0.9236562848091125,-0.02267654426395893,0.026100441813468933,-0.002911388874053955,0.04835224151611328
54,3.135913041075515,0.4084977379006839,-1.2827652912595195,0.005212258081883192,-0.3972311317920685,0.9177038073539734,-0.00923901703208685,0.016169268637895584,-0.01243102177977562,-0.005059674847871065,-0.0030221641063690186,0.02208501100540161
55,3.135995654489053,0.4058813259418048,-1.28342068293254,0.0051422412507236,-0.3948286473751068,0.9187401533126831,0.03699912503361702,-0.008406464010477066,0.009535113349556923,0.005096405278891325,-0.0081559419631958,0.006583094596862793
56,3.134705606742131,0.40079557248567177,-1.285555278090349,0.006341205444186926,-0.3901509940624237,0.9207291603088379,0.07179967314004898,-0.02781512588262558,0.05952811986207962,0.021979108452796936,-0.01229962706565857,-0.0008224248886108398
57,3.1345258411124735,0.4001418540940355,-1.2862376071058756,0.006508520804345608,-0.38954898715019226,0.9209827184677124,0.01056941319257021,0.005201064515858889,-0.0027015842497348785,0.0038064122200012207,-0.005302697420120239,-0.010063648223876953
58,3.134916225155092,0.40018104132869947,-1.2860417015428438,0.006148883607238531,-0.38958507776260376,0.9209703207015991,-0.04794066771864891,0.00530140521004796,0.004567747935652733,0.00762981316074729,-0.0019860565662384033,0.014622688293457031
59,3.13609664398942,0.40296118975883805,-1.2850802820506346,0.005055774934589863,-0.3921440541744232,0.9198899269104004,-0.017656337469816208,0.05218430981040001,-0.0058511849492788315,0.01380409300327301,-0.010764241218566895,0.0034041404724121094
60,-3.12968025609561,0.40638778857191965,-1.283483618202049,-0.010941932909190655,-0.3952938914299011,0.9184897541999817,-0.049431342631578445,0.32067015767097473,-0.011423774063587189,0.000291300006210804,-0.00102272629737854,0.027662158012390137
61,-3.1037468344594723,0.413512429115629,-1.2809438302885157,-0.03464771434664726,-0.40182816982269287,0.9150593876838684,-0.024718742817640305,0.296970009803772,-0.049027226865291595,-0.018834348767995834,0.002231031656265259,0.006586730480194092
62,-3.100753635547488,0.4140778159648719,-1.2808296489626092,-0.03737723454833031,-0.4023458659648895,0.9147245287895203,0.040123265236616135,-0.26274293661117554,0.011597467586398125,-0.002265099436044693,-0.006162524223327637,-0.03207981586456299
63,-3.119887398218205,0.41237405027681484,-1.2813179710465954,-0.01988418586552143,-0.40078550577163696,0.9159561991691589,0.0023593446239829063,-0.07209780812263489,-0.004999810829758644,0.0035267602652311325,-0.0011005401611328125,0.02606046199798584
64,-3.131339120136478,0.41106466817334997,-1.28230040474759,-0.009399204514920712,-0.3995855450630188,0.9166474342346191,0.0232488252222538,-0.17034125328063965,-0.008813837543129921,-0.00215169508010149,-0.0037346482276916504,-0.0017917752265930176
65,-3.1407208045628936,0.40878937003116134,-1.2814781973728802,-0.0008000112138688564,-0.39749875664711,0.9176027178764343,0.03734937310218811,-0.1933075338602066,0.023751184344291687,0.010229945182800293,-0.006508320569992065,-0.01211535930633545
66,3.1354042723962183,0.4049519546361711,-1.2812434628325913,0.0056878370232880116,-0.3939746022224426,0.919103741645813,0.03374656289815903,-0.009164022281765938,0.002959507517516613,0.0010718107223510742,-0.004081428050994873,-0.005178570747375488
67,3.1345476581388776,0.4016309140660024,-1.280777047257032,0.006484334357082844,-0.3909199833869934,0.9204018712043762,0.021737022325396538,-0.002408263273537159,-0.004829367622733116,0.003037154208868742,-0.003199249505996704,0.01018589735031128
68,3.133853708277361,0.39990419908853503,-1.2804489188585153,0.007128259167075157,-0.38933008909225464,0.9210708737373352,0.024475784972310066,0.0022841794416308403,0.0008827755227684975,0.004071684554219246,-0.0029276907444000244,0.005504012107849121
69,3.133246760482258,0.3987924060827987,-1.2796519814784415,0.007690907921642065,-0.38830578327178955,0.9214986562728882,0.0013214368373155594,-0.005778795573860407,0.0009955763816833496,0.008986949920654297,-0.0003966093063354492,0.007517576217651367
70,3.132031936316301,0.3971528260626091,-1.2794560072081784,0.008816437795758247,-0.3867943584918976,0.9221242070198059,-0.0007067462429404259,-0.027114158496260643,0.004637223668396473,-0.00017995946109294891,-0.0015114247798919678,0.011408805847167969
71,3.120709969507663,0.3945257213612665,-1.2799555561246376,0.019277049228549004,-0.3843703866004944,0.9229774475097656,0.06487023085355759,-0.13085411489009857,0.0008306140080094337,0.005152266472578049,-0.004209846258163452,-0.0044443607330322266
72,3.1080192864373046,0.3907412643988361,-1.2797624842497577,0.03103700838983059,-0.3808739185333252,0.9241058826446533,0.06588352471590042,-0.1334240585565567,-0.005693787708878517,0.0011742990463972092,-0.001007765531539917,-0.005099594593048096
73,3.0976328022610335,0.3870610552213968,-1.2792826228174878,0.040694709867239,-0.3774685263633728,0.9251280426979065,0.05726047232747078,-0.1719733029603958,0.011154966428875923,0.004532340914011002,-0.005023598670959473,-0.006625056266784668
74,3.091325202732251,0.3839583688976034,-1.278301358252387,0.046587809920310974,-0.3745935559272766,0.9260179996490479,0.018636023625731468,-0.04132615029811859,-0.02309012971818447,-0.0016201585531234741,-0.0018560290336608887,0.008582830429077148
75,3.0881675418702192,0.38154107701299994,-1.2777418856951046,0.0495598204433918,-0.37235116958618164,0.9267675876617432,0.021163366734981537,-0.08023430407047272,-0.005579918622970581,0.004090078175067902,-0.0002836883068084717,0.006383538246154785
76,3.07971140655467,0.37773699952850104,-1.277789431556183,0.0574820376932621,-0.3688179552555084,0.9277228713035583,0.041174594312906265,-0.07916897535324097,-0.01115836575627327,-0.004900224506855011,-0.003435581922531128,0.006237387657165527
77,3.0701127225711553,0.3734322479353529,-1.2778245599753657,0.06649691611528397,-0.36481326818466187,0.9287030100822449,0.07277348637580872,-0.15319348871707916,0.008836265653371811,0.002259187400341034,-0.0008940994739532471,-0.0008161067962646484
78,3.0565925767375544,0.36846921549211364,-1.279278183228856,0.07919943332672119,-0.360187828540802,0.929512083530426,0.0558616928756237,-0.180183544754982,0.006728147156536579,0.002923406660556793,-0.0016134083271026611,0.0059740543365478516
79,3.0450684656583196,0.3626689056198707,-1.2808026954811933,0.09010552614927292,-0.35477080941200256,0.9306011199951172,0.05430776998400688,-0.10453305393457413,-0.005469206720590591,-0.0012841150164604187,-0.0015982091426849365,0.007524371147155762
80,3.0281039303419064,0.35347084500057846,-1.2816498560519407,0.1062440574169159,-0.34615615010261536,0.9321414232254028,0.11647650599479675,-0.2161964774131775,-0.03534146398305893,-0.011700630187988281,-0.0032852888107299805,-0.003446042537689209
81,2.989967429959691,0.3338523331902174,-1.2857117151773487,0.1427052617073059,-0.32768508791923523,0.9339473843574524,0.1993618607521057,-0.3646819591522217,-0.007051389664411545,-0.006093353033065796,-0.0018436908721923828,0.015256106853485107
82,2.9590896833028513,0.3146473265645084,-1.288739058376071,0.17258137464523315,-0.309481143951416,0.9351137280464172,0.19570322334766388,-0.31919386982917786,0.03132856637239456,0.011409148573875427,0.00039905309677124023,0.00945138931274414
83,2.9331763501178023,0.2999436739594058,-1.2932987300637682,0.1976727992296219,-0.2954663932323456,0.9346789717674255,0.1250300407409668,-0.12961162626743317,-0.005135282874107361,0.006962805986404419,0.0018110275268554688,-0.00010883808135986328
84,2.931647390343611,0.29499057930544564,-1.2918157228508866,0.19940423965454102,-0.2907308340072632,0.935795783996582,-0.01249673031270504,-0.07099146395921707,-0.004300383850932121,0.0038886070251464844,0.004170745611190796,0.04329979419708252
85,2.9240253895087736,0.2940086832378115,-1.2918035034428865,0.20659255981445312,-0.2897912263870239,0.9345270991325378,0.002923801075667143,-0.007012346759438515,-0.0074205417186021805,0.0056724995374679565,0.00010308623313903809,0.005826473236083984
86,2.9242734666510577,0.2931865333234964,-1.2909810090638867,0.2064119279384613,-0.28900423645973206,0.934810221195221,0.0015962067991495132,-0.054690491408109665,0.00642770528793335,0.0007108151912689209,0.0018186867237091064,0.004154384136199951
87,2.9229326210830386,0.2923893738081472,-1.290713116023348,0.20771515369415283,-0.2882409989833832,0.9347575306892395,0.005763326771557331,0.02121516689658165,-0.006941856816411018,-0.000851750373840332,-0.0004705190658569336,0.0028798580169677734
88,2.9196228545600293,0.2918920371138938,-1.2903056810809492,0.2108394056558609,-0.2877647578716278,0.9342048168182373,0.006091845687478781,0.03653530776500702,-0.0028996746987104416,0.005103021860122681,0.00031960010528564453,0.004058361053466797
89,2.9173894161388314,0.29136730069186023,-1.2906886363772814,0.21295884251594543,-0.2872621715068817,0.9338783621788025,0.00490436190739274,-0.013702676631510258,0.002629506401717663,-0.0006023049354553223,-0.0007169246673583984,0.003987729549407959
90,2.918750480331901,0.2904015255040632,-1.2902824716592178,0.21174874901771545,-0.2863369584083557,0.9344373345375061,0.0038870456628501415,-0.06808065623044968,0.005956592969596386,0.00793197751045227,0.00023475289344787598,0.011637866497039795
91,2.9168505190171428,0.2898655022260023,-1.289718752643576,0.21355806291103363,-0.28582334518432617,0.9341833591461182,0.005090389400720596,-8.428096771240234e-05,-0.0032657068222761154,0.005100414156913757,0.00020927190780639648,0.0001277923583984375
92,2.9204091727269454,0.28847598226983323,-1.2884006321226347,0.21031911671161652,-0.28449150919914246,0.9353235960006714,-0.009489276446402073,-0.10514719039201736,-0.010639011859893799,0.004112660884857178,0.0009069144725799561,0.020486831665039062
93,2.9209592012891075,0.2883505695028542,-1.2891045724510228,0.20981253683567047,-0.2843712866306305,0.9354743361473083,-0.010840235278010368,-0.04340513050556183,0.0027000792324543,-0.00503954291343689,-0.00012889504432678223,0.018261313438415527
94,2.923802114881955,0.2877206322934,-1.2885547430043038,0.20719082653522491,-0.2837672829627991,0.9362415075302124,0.00537378154695034,0.04009556397795677,0.005136757157742977,0.004830077290534973,-0.0009007155895233154,0.007224678993225098
95,2.920608815754535,0.28776961013750174,-1.288406147648931,0.21017643809318542,-0.2838142514228821,0.9355616569519043,0.0048461249098181725,0.05474778264760971,0.005695373751223087,0.010404646396636963,0.0007484257221221924,-0.002120375633239746
96,2.918490309399984,0.2877948465633278,-1.2889427828215863,0.2121562957763672,-0.2838384509086609,0.9351069927215576,0.0007700817659497261,0.019467905163764954,0.001991868019104004,0.005968034267425537,-0.00034117698669433594,-0.0027036070823669434
97,2.921182421860097,0.2874209884672008,-1.2891556082006024,0.20966137945652008,-0.2834799587726593,0.9357785582542419,-0.010250493884086609,-0.07754236459732056,0.019069960340857506,0.006647258996963501,0.0008413791656494141,0.017041444778442383
98,2.9227645130963444,0.2868292002918346,-1.2889144516750486,0.20821702480316162,-0.28291240334510803,0.9362727403640747,-0.001110653392970562,-0.011466952040791512,-0.00046322308480739594,-0.00016339123249053955,-0.00047391653060913086,0.009787559509277344
99,2.921161191285848,0.2868359793728272,-1.289186152285444,0.20971745252609253,-0.28291890025138855,0.9359356760978699,0.004284315276890993,0.06193821504712105,-0.0016288124024868011,0.007369369268417358,0.0004329085350036621,-0.0010906457901000977
100,2.9230737391895034,0.28647838004793896,-1.2889759967518746,0.20794901251792908,-0.2825758755207062,0.9364339709281921,-0.00034413207322359085,0.009361501783132553,0.0022969916462898254,0.0008217990398406982,-0.001970052719116211,0.0035533905029296875
101,2.922404741656992,0.28645698091217575,-1.289423218926345,0.2085767537355423,-0.28255537152290344,0.9363005757331848,0.005754403304308653,0.04199902340769768,0.0006931191310286522,-0.0019422024488449097,-0.0021432042121887207,0.0011081695556640625
102,2.9224549271437446,0.2862507262833229,-1.289298993953969,0.2085423469543457,-0.28235751390457153,0.9363675117492676,0.0009430907666683197,0.02540428191423416,0.000935886986553669,0.0012812316417694092,-0.0005709230899810791,0.005572676658630371
103,2.9221425219037007,0.28624278132462927,-1.2895132753674374,0.20883533358573914,-0.2823498845100403,0.9363044500350952,0.0013309121131896973,-0.04696804657578468,-0.003999901935458183,-0.0013921409845352173,-0.0012041330337524414,0.006734311580657959
104,2.9212150999483915,0.28604570694133485,-1.2899706553646098,0.20971578359603882,-0.28216081857681274,0.9361647963523865,-0.001827523112297058,-0.04258802533149719,0.003151332028210163,0.0007181465625762939,-0.002171427011489868,0.01126861572265625
105,2.9213160822077384,0.2860355741072969,-1.290348190776361,0.20962190628051758,-0.28215110301971436,0.9361888766288757,0.004856947809457779,-0.0015304782427847385,0.00513687077909708,0.005877986550331116,-0.0009147226810455322,0.005186915397644043
106,2.91838722246045,0.2862326348307964,-1.2906567326759786,0.21235059201717377,-0.2823401391506195,0.9355164170265198,-0.003142484463751316,-0.016631407663226128,0.005820125341415405,0.0021268874406814575,-0.00161057710647583,0.005706608295440674
107,2.915934617747299,0.28631478615597866,-1.290756045718083,0.21463926136493683,-0.28241896629333496,0.9349703788757324,-0.0032142847776412964,-0.032488349825143814,0.00020230095833539963,0.0010284483432769775,-0.00020432472229003906,0.004238605499267578
108,2.9168968615083055,0.2861406363691232,-1.2907855780365156,0.2137504667043686,-0.28225189447402954,0.9352244734764099,-0.0010050972923636436,-0.028714310377836227,-0.0016610752791166306,-0.0021415650844573975,-0.0024313628673553467,0.008012890815734863
109,2.9170755778121555,0.2858001369495188,-1.2905787434148783,0.21360467374324799,-0.281925231218338,0.9353561997413635,0.007208667695522308,0.019565586000680923,0.008390683680772781,0.0038177818059921265,-0.0011100172996520996,0.0012435317039489746
110,2.9168075070735533,0.28582907324068885,-1.2906802741229093,0.2138536423444748,-0.28195297718048096,0.9352911114692688,0.005059767048805952,0.019568586722016335,-0.014815114438533783,-0.002382040023803711,-0.0033254027366638184,0.0030940771102905273
111,2.9157050892018472,0.2857299096567571,-1.2901174549467729,0.21489079296588898,-0.28185784816741943,0.9350818395614624,0.0005675656720995903,0.022865667939186096,-0.011309061199426651,-0.002152740955352783,-0.001177459955215454,0.0016552209854125977
112,2.9134188043510325,0.28579705375693215,-1.2903170011810359,0.21702376008033752,-0.28192225098609924,0.9345694184303284,0.004275709390640259,-0.015721119940280914,0.0025517018511891365,0.0041370689868927,-0.0008230209350585938,0.0010229945182800293
113,2.9140102954835796,0.2856359118809676,-1.290514205989343,0.21648123860359192,-0.28176766633987427,0.9347420930862427,-0.0005928818136453629,-0.024190912023186684,0.0067820195108652115,0.0024823397397994995,-0.002320408821105957,0.003398716449737549
114,2.913300135402764,0.2856446661466361,-1.2908009136827039,0.21714448928833008,-0.2817760407924652,0.9345859289169312,0.004460275638848543,0.012283126823604107,0.005427384749054909,0.0027499794960021973,-0.0012592971324920654,-0.0005800724029541016
115,2.9101032876605957,0.285780957395549,-1.290754468458118,0.22012226283550262,-0.2819068133831024,0.9338494539260864,0.007214101031422615,0.02153191715478897,0.005246859975159168,0.0035563260316848755,-0.001540452241897583,-0.0013238191604614258
116,2.9081618802323796,0.2857450676612392,-1.290659049508305,0.2219371646642685,-0.28187239170074463,0.9334301948547363,-0.0002377741038799286,-0.014073707163333893,-0.007035752758383751,-0.0022411197423934937,-0.002124190330505371,0.0014300346374511719
117,2.90723127395621,0.285556401325971,-1.290277472915483,0.222818061709404,-0.28169137239456177,0.9332749247550964,0.0054016937501728535,-0.00267003383487463,-0.000809740275144577,0.008856147527694702,0.0003803372383117676,0.003660440444946289
118,2.9069618577077008,0.2853801349615357,-1.2901639288629685,0.22308100759983063,-0.2815222442150116,0.9332630634307861,0.001603427343070507,-0.011270851828157902,-0.0025755297392606735,0.002916887402534485,-0.0006280243396759033,-0.0003560185432434082
119,2.904349719722997,0.2853058493811418,-1.2894143754136207,0.2255229651927948,-0.28145095705986023,0.9326974153518677,-0.007793438620865345,-0.022702926769852638,-0.011117847636342049,0.0016346126794815063,-0.0014469623565673828,0.004665076732635498
120,2.903164366845266,0.285911874071146,-1.2876454777284798,0.22658808529376984,-0.28203243017196655,0.9322636723518372,-0.027187567204236984,-0.0196696687489748,-0.026156336069107056,-0.00754818320274353,-0.0022082626819610596,0.0004298090934753418
121,2.896735843503246,0.28636874883369173,-1.2858762853363623,0.23254519701004028,-0.2824707329273224,0.9306627511978149,0.014526333659887314,-0.1690276861190796,0.0217728391289711,-0.013032257556915283,0.002532958984375,0.01893746852874756
122,2.892284626225947,0.25074581231144,-1.2989546399229424,0.23901745676994324,-0.24812652170658112,0.9387776851654053,0.5101332068443298,0.010799208655953407,0.027248412370681763,-0.0016975551843643188,-0.0413936972618103,0.0781288743019104
123,2.9100270971891717,0.18273468064097254,-1.3102455934474537,0.225680410861969,-0.18171939253807068,0.95710289478302,0.6707308292388916,0.19937565922737122,-0.1872178465127945,0.05189216136932373,0.004336029291152954,0.03329908847808838
124,2.9113810733875347,0.09472925038161176,-1.3070744456555996,0.2271604984998703,-0.09458763897418976,0.9692530632019043,0.8296520709991455,0.046451300382614136,-0.32733044028282166,-0.012072592973709106,0.020445168018341064,0.024872422218322754
125,2.909755649553817,0.023896583667523782,-1.298415383368173,0.22970019280910492,-0.023894309997558594,0.9729681611061096,0.7430391907691956,-0.22768206894397736,-0.20896784961223602,-0.016779035329818726,-0.016800880432128906,-0.020270347595214844
126,2.895260345503591,-0.045529894029087976,-1.2954877139390997,0.24359600245952606,0.04551416635513306,0.9688085317611694,0.5208679437637329,-0.08766220510005951,-0.1767600029706955,-0.012898415327072144,-0.023922987282276154,0.000735163688659668
127,2.885382398500012,-0.1087240062563197,-1.2929124062702608,0.25192007422447205,0.10850992798805237,0.9616456627845764,0.6583284735679626,-0.19175346195697784,-0.1567726731300354,-0.015424072742462158,-0.03018655627965927,0.01047670841217041
128,2.887410420058942,-0.14841670619299885,-1.2923699625471634,0.248689666390419,0.1478724330663681,0.9572290778160095,0.06162486970424652,0.19083274900913239,-0.0555507093667984,0.004102736711502075,-0.010283902287483215,-0.018080949783325195
129,2.897847248691805,-0.14924255876939943,-1.289555006909012,0.23865626752376556,0.1486891508102417,0.9596534371376038,0.07903679460287094,-0.02396397665143013,-0.0014311335980892181,0.007162809371948242,-0.004447832703590393,0.0024895071983337402
130,2.90336928018332,-0.1418818215881128,-1.2854148814364217,0.23360541462898254,0.14140628278255463,0.9619943499565125,0.1343788057565689,-0.13932214677333832,-0.019505053758621216,-0.0038079917430877686,-0.0003845095634460449,-0.005680084228515625
131,2.9054289296758036,-0.14537758100493564,-1.2835220712346946,0.23150646686553955,0.14486603438854218,0.9619869589805603,0.010848273523151875,0.08515659719705582,-0.023995792493224144,-0.0007935166358947754,-0.009474769234657288,0.009509801864624023
132,2.904149955256669,-0.15512620539010585,-1.2837902761813584,0.23239333927631378,0.15450479090213776,0.9602715373039246,-0.12417921423912048,0.17921262979507446,-0.01839139498770237,0.0018595606088638306,0.00726887583732605,0.01886957883834839
133,2.9050135729647053,-0.15609691495545194,-1.282383669070048,0.23152877390384674,0.15546377003192902,0.9603260159492493,0.026641983538866043,-0.008713365532457829,-0.011034946888685226,0.0033650845289230347,-0.0010753124952316284,0.01114034652709961
134,2.9052121865346834,-0.15510933353909184,-1.2820872548674134,0.2313738763332367,0.15448811650276184,0.9605207443237305,0.032909441739320755,-0.06654752790927887,-0.006194042041897774,0.002863854169845581,-0.001320376992225647,-0.002711057662963867
135,2.9009755033572766,-0.15336646280642077,-1.2822686949677882,0.2355049103498459,0.15276594460010529,0.9597914814949036,-0.07886263728141785,0.0041657439433038235,-0.003991875797510147,-0.0031746476888656616,0.0029804855585098267,-0.0003495216369628906
136,2.8997215942282466,-0.14761130255966048,-1.277923388892345,0.23691490292549133,0.1470758318901062,0.9603332281112671,0.005119706969708204,-0.09050136804580688,-0.013654239475727081,0.0013968497514724731,-0.003872111439704895,0.009316980838775635
137,2.9017420657686994,-0.14524378491519255,-1.2737885974671055,0.23505625128746033,0.14473365247249603,0.9611458778381348,0.06715000420808792,-0.04546680673956871,-0.014773491770029068,-0.002680063247680664,-0.008030116558074951,0.0019129514694213867
138,2.9054413468026805,-0.147074171590707,-1.2692847142082058,0.23143668472766876,0.14654451608657837,0.9617494940757751,-0.024305883795022964,0.07145390659570694,-0.026445064693689346,-0.0005101263523101807,-0.011199027299880981,0.00486445426940918
139,2.905920962666701,-0.14729270753262336,-1.26678794356178,0.2309679239988327,0.1467607021331787,0.9618292450904846,0.07111676782369614,-0.027346212416887283,-0.015108786523342133,0.0013472139835357666,-0.0020768195390701294,0.002968907356262207
140,2.899520512390957,-0.16112522286764722,-1.2675395787236379,0.23660993576049805,0.1604289561510086,0.958268404006958,0.24033509194850922,-0.15110565721988678,-0.020660143345594406,0.008308887481689453,0.002153441309928894,-0.011735200881958008
141,2.8976714153249703,-0.1829762152758911,-1.2690519250803023,0.23747806251049042,0.18195690214633942,0.9541993737220764,0.20415402948856354,-0.06307634711265564,-0.08272028714418411,0.007150903344154358,0.003986746072769165,-0.005193948745727539
142,2.902504118813098,-0.19009299572099106,-1.266662626733207,0.23255138099193573,0.18895021080970764,0.954053521156311,0.08207416534423828,0.07686008512973785,-0.05486699938774109,0.007911920547485352,-0.005859971046447754,0.006197571754455566
143,2.9048439870608376,-0.19654672331365197,-1.2645488037914234,0.2300274819135666,0.1952837109565735,0.9533893465995789,0.007469020783901215,0.040392253547906876,-0.060471322387456894,0.001005798578262329,0.011686474084854126,0.007654726505279541
144,2.903247789198269,-0.20339283140662714,-1.2641186051231226,0.23122788965702057,0.20199337601661682,0.9516993761062622,0.08195257186889648,-0.08126232028007507,-0.02392476052045822,-0.00948721170425415,0.010546252131462097,0.006384372711181641
145,2.8945628318662004,-0.21103881333882735,-1.2668004864718019,0.23909991979599,0.2094757854938507,0.9481301307678223,0.0284026600420475,-0.09983015805482864,0.054853446781635284,0.005254283547401428,-0.0067170411348342896,-0.002756774425506592
146,2.9029804468005147,-0.19751065993361347,-1.2627352792874205,0.2317592054605484,0.1962289959192276,0.9527758955955505,-0.2586776316165924,0.15443378686904907,-0.05099407583475113,-0.009316593408584595,0.0172719806432724,0.020368576049804688
147,2.9023124592077894,-0.1966390730499696,-1.260793579158676,0.23243609070777893,0.1953742802143097,0.9527868628501892,-0.034928128123283386,0.031842030584812164,-0.01028427854180336,-0.0002582967281341553,0.0014488846063613892,0.008288145065307617
148,2.903263364853097,-0.19580392062054056,-1.260684773715117,0.2315683513879776,0.1945551633834839,0.9531654119491577,-0.05385226756334305,0.06663128733634949,-0.01897345297038555,-0.0010233521461486816,0.01217089593410492,0.01004558801651001
149,2.9087517973549963,-0.18796419299003836,-1.2579385210502614,0.22667856514453888,0.1868593394756317,0.9558770656585693,-0.0776890367269516,0.01776968128979206,-0.014206089079380035,-0.001596108078956604,0.007400348782539368,0.008539676666259766
150,2.9164020075700456,-0.1754622435608424,-1.2534916852996338,0.21986371278762817,0.17456330358982086,0.959784984588623,-0.13986118137836456,0.10019244998693466,-0.008779937401413918,0.005874767899513245,0.0032625943422317505,0.002998650074005127
151,2.924503596709526,-0.16409333894089292,-1.2484165475090214,0.21249455213546753,0.1633579134941101,0.9634105563163757,-0.1906510293483734,0.14596077799797058,-0.031002303585410118,-0.000855177640914917,0.006472393870353699,0.011015534400939941
152,2.938800852696289,-0.14576219065575796,-1.2427669572683053,0.1992688924074173,0.14524658024311066,0.9691208600997925,-0.19782178103923798,0.1645849049091339,-0.020021628588438034,0.008174344897270203,0.005327135324478149,0.0012007355690002441
153,2.947288032961709,-0.1312703818567775,-1.2377468147448878,0.19142304360866547,0.13089370727539062,0.9727403521537781,-0.1423245370388031,0.0572696328163147,-0.002791091799736023,0.00736844539642334,-0.006855025887489319,0.010749518871307373
154,2.95273799201999,-0.1220207907592402,-1.2344707241280355,0.1863381415605545,0.12171822041273117,0.9749165177345276,-0.10235130786895752,0.036223869770765305,-0.0036928411573171616,-0.006589636206626892,-0.0030964240431785583,0.007337212562561035
155,2.9614478285387507,-0.11001344861991515,-1.2315596005829916,0.17808890342712402,0.10979166626930237,0.9778702855110168,-0.1556502729654312,0.08349354565143585,0.006085640750825405,-0.0041081905364990234,-0.004887491464614868,-0.0029709339141845703
156,2.9649415812892586,-0.10408598913618294,-1.2295364268971023,0.17478270828723907,0.10389814525842667,0.9791101217269897,-0.10998137295246124,0.07556959986686707,-0.0057672131806612015,-0.005150705575942993,0.004683442413806915,0.008744120597839355
157,2.973234156943558,-0.09233204780060904,-1.2261012326574416,0.1668505221605301,0.09220091253519058,0.9816617369651794,-0.21740718185901642,0.1551274061203003,-0.023506268858909607,0.00944952666759491,-0.004554420709609985,0.010342597961425781
158,2.990906041898339,-0.05667743917099225,-1.2158838768590092,0.14987598359584808,0.05664709955453873,0.9870809316635132,-0.5030116438865662,0.20038431882858276,-0.042111337184906006,-0.010059654712677002,0.0041286759078502655,-0.006428837776184082
159,2.9959409032675945,-0.039507464334636276,-1.211743713171183,0.14502406120300293,0.03949718922376633,0.9886394739151001,-0.09380240738391876,0.07664094865322113,-0.00040760263800621033,-0.00629115104675293,-0.006309326738119125,0.0386890172958374
160,3.0034375630602574,-0.03259274712730952,-1.2110920047271023,0.13764284551143646,0.03258697688579559,0.9899454116821289,-0.03561028093099594,0.045092690736055374,-0.000486813485622406,-0.00246526300907135,-0.0031833015382289886,-0.013886809349060059
161,3.0137693355719968,-0.013802017559412906,-1.2067896777008102,0.12746338546276093,0.013801579363644123,0.9917473196983337,-0.38610807061195374,0.08598342537879944,-0.03626778721809387,-0.0020513981580734253,-0.004661558195948601,0.005262017250061035
162,3.0259356791907472,0.03129964034122456,-1.1962803176548724,0.11534279584884644,-0.031294528394937515,0.9928328394889832,-0.2555082440376282,0.13711580634117126,-0.01760462485253811,-0.010377556085586548,-0.006638828665018082,0.004695415496826172
163,3.0321663266141456,0.031927548687719236,-1.194262796496961,0.1091524064540863,-0.031922124326229095,0.9935122132301331,-0.02282724156975746,0.07373391091823578,-0.010189468041062355,0.0005735233426094055,-0.013655871152877808,0.016878902912139893
164,3.0443762452441483,0.029713744462855452,-1.1928147310710178,0.09702049940824509,-0.02970937266945839,0.9948388338088989,0.06210419535636902,0.11061729490756989,-0.0037462934851646423,0.008310921490192413,-0.01698251999914646,-0.006328761577606201
165,3.055644396431539,0.02014370884483391,-1.1913811330124298,0.08582507073879242,-0.020142346620559692,0.9961066842079163,0.14807672798633575,0.12100046128034592,-0.04605989158153534,0.004094973206520081,-0.004683703184127808,0.009905338287353516
166,3.1295540854510984,-0.014536696165036445,-1.179519804374128,0.012037007138133049,0.014536184258759022,0.9998220205307007,0.8561921715736389,1.0744863748550415,-0.10772846639156342,0.0031149722635746002,-0.03682927414774895,-0.03557324409484863
167,3.1231749407375387,-0.035066973284984364,-1.1829185972909062,0.01840534806251526,0.03505978733301163,0.9992156624794006,-0.06173615902662277,0.10412431508302689,-0.048747822642326355,0.005886642262339592,0.0018207021057605743,0.03438413143157959
168,3.1139729305825736,-0.0578377108654863,-1.1803186023935581,0.02757003717124462,0.05780547112226486,0.9979472756385803,0.23248596489429474,-0.16835464537143707,-0.019157586619257927,-0.016644742339849472,-0.006993696093559265,0.023964524269104004
169,3.0989868310306314,-0.04363723564236044,-1.1749303395454427,0.042552389204502106,0.043623387813568115,0.9981414079666138,-0.38391849398612976,-0.33443278074264526,-0.02174915000796318,0.015934552997350693,0.0009017623960971832,0.01072394847869873
170,3.089335686502623,-0.012533260144523549,-1.1607136344826774,0.05222909525036812,0.012532931752502918,0.9985567331314087,-0.14685280621051788,0.10143598169088364,-0.16917166113853455,0.03654654696583748,0.014581935480237007,0.02303469181060791
171,3.098494071345811,-0.003756574121030005,-1.1196222737806998,0.043084945529699326,0.00375656527467072,0.999064564704895,0.05600960925221443,0.5835689902305603,-0.3984687328338623,0.06102578341960907,-0.029055634513497353,0.12428772449493408
172,3.135504913748723,-0.039413222065755246,-1.0658766402547528,0.006082972977310419,0.03940301761031151,0.9992046356201172,0.6694198250770569,-0.0482146218419075,-0.5365257263183594,0.20490030944347382,-0.1088305190205574,-0.1309034824371338
173,-3.121166233960361,-0.059484858304158894,-0.9745719192391286,-0.020388875156641006,0.05944978445768356,0.9980230927467346,-0.10578952729701996,0.48228904604911804,-0.9521782994270325,0.2360108196735382,-0.12779390811920166,-0.042792320251464844
174,-3.080898577735429,-0.03848918471915763,-0.8487335905250092,-0.060611896216869354,0.03847968205809593,0.9974194765090942,0.10403898358345032,0.3491230309009552,-1.1608495712280273,0.025058921426534653,-0.10441291332244873,-0.06622135639190674
175,-3.007134790723218,-0.031125171268156216,-0.7535274939094099,-0.1339881718158722,0.031120145693421364,0.9904943108558655,-0.2167753130197525,0.8001036047935486,-0.8523302674293518,-0.114455446600914,-0.014808498322963715,-0.0446782112121582
176,-2.9243090426055067,-0.01647208702999212,-0.6731563610274809,-0.2155485898256302,0.016471341252326965,0.9763538837432861,0.3335234522819519,0.9375396966934204,-0.7695180177688599,-0.04392705857753754,0.019081631675362587,-0.10230022668838501
177,-2.88393616503473,-0.012773596654606294,-0.5822936867771055,-0.2547943890094757,0.012773249298334122,0.9669111967086792,0.1932864636182785,-0.30359259247779846,-0.7896755933761597,-0.06388548016548157,-0.04185649752616882,-0.1497417688369751
178,-2.9054915030297197,0.031909965973461164,-0.5365092412434025,-0.2337946891784668,-0.03190455213189125,0.9717625379562378,-0.0717025026679039,-0.4534033536911011,-0.23030562698841095,-0.041412875056266785,-0.07270970940589905,-0.015066862106323242
179,-2.9661735153505,0.02954158886954502,-0.5243301967128546,-0.17444472014904022,-0.029537292197346687,0.9842239022254944,0.16415034234523773,-0.7078191041946411,0.08959171175956726,0.0015626251697540283,-0.05144110321998596,-0.01490926742553711
180,-3.0149725036800934,0.06292282934382404,-0.5312270851500568,-0.12603217363357544,-0.06288131326436996,0.9900313019752502,0.11950676888227463,-0.23909731209278107,0.3191111385822296,-0.01682060956954956,0.014709316194057465,0.02780628204345703
181,-3.057380748480003,0.06686038366727302,-0.5501617293089708,-0.08392445743083954,-0.06681057810783386,0.9942296743392944,-0.29400259256362915,-0.37862464785575867,-0.019151009619235992,-0.004561245441436768,0.11354826390743256,0.03314441442489624
182,-3.0671304165879523,0.09645784429164009,-0.5415470101557228,-0.07404763996601105,-0.09630833566188812,0.9925934672355652,-0.16049110889434814,-0.0814669132232666,-0.0897948145866394,-0.16533225774765015,-0.16588345170021057,0.01279294490814209
183,-3.074942718790357,0.11194952711504136,-0.5350486430729023,-0.06618370115756989,-0.11171583831310272,0.9915339350700378,-0.10212892293930054,-0.291675865650177,-0.09735594689846039,0.009298935532569885,0.05283217132091522,0.07609307765960693
184,-3.068066857026198,0.07630384331974807,-0.5059397601881866,-0.0732458159327507,-0.07622981816530228,0.9943962693214417,0.6696156859397888,0.34872061014175415,-0.32179370522499084,-0.0361597016453743,-0.010180696845054626,0.07887637615203857
185,-3.015911238479252,0.023647095062294912,-0.5063854892052265,-0.12531577050685883,-0.023644890636205673,0.9918351769447327,0.46638593077659607,0.5426973104476929,0.29609352350234985,0.012019261717796326,0.0010466258972883224,-0.06416177749633789
186,-2.973658497711607,-0.0032981087992619965,-0.5088010360561867,-0.1671449840068817,0.003298102878034115,0.985926628112793,-0.12054844200611115,0.24836401641368866,-0.0728285014629364,-0.0500180721282959,0.015134512446820736,0.0887344479560852
187,-2.96499844366321,0.016590909583733063,-0.484917321580725,-0.17565366625785828,-0.016590148210525513,0.9843125939369202,-0.02865772135555744,0.013068301603198051,-0.09510542452335358,0.011194378137588501,-0.020275089889764786,-0.1541426181793213
188,-2.9858324702239933,0.03537252024384515,-0.5037908654435679,-0.15503406524658203,-0.03536514565348625,0.9872757792472839,-0.4355821907520294,-0.39453133940696716,0.39504557847976685,0.05757620930671692,-0.08224959671497345,-0.10749995708465576
189,-2.997590476726787,0.06228835656279037,-0.5191515924628018,-0.1432267725467682,-0.06224808469414711,0.9877307415008545,-0.6658316254615784,0.5001270771026611,0.20359547436237335,0.027397260069847107,-0.004051372408866882,0.03306734561920166
190,-2.884446503456354,0.13557749564962934,-0.5090434655345085,-0.25198784470558167,-0.13516253232955933,0.9582451581954956,-0.07253957539796829,0.6674657464027405,-0.5321588516235352,0.12495839595794678,0.15051285922527313,0.081626296043396
191,-2.8194222378083396,0.18422211290629353,-0.537608188134041,-0.3112684190273285,-0.18318186700344086,0.9325000047683716,-0.027380838990211487,1.0579347610473633,0.15355893969535828,0.020756393671035767,-0.10038743913173676,0.010187923908233643
192,-2.770884208587271,0.20363857162750743,-0.5621919572936217,-0.35479018092155457,-0.20223404467105865,0.9128116369247437,-0.296534925699234,0.3021177053451538,0.03196403384208679,0.06188249588012695,0.034555211663246155,-0.020081043243408203
193,-2.797840999926522,0.20550005638798355,-0.5806836277406617,-0.32993048429489136,-0.2040567249059677,0.9216871857643127,0.40502235293388367,-0.7682746052742004,-0.02894211746752262,-0.021586358547210693,-0.04926975071430206,0.005284547805786133
194,-2.838485112272155,0.13962094988195908,-0.591066557108091,-0.29558295011520386,-0.13916775584220886,0.9451261758804321,0.7342833280563354,0.1165795549750328,-0.204496368765831,-0.32375606894493103,-0.0033493340015411377,0.09492826461791992
195,-2.900208200961881,0.07078748176139024,-0.5318496200795099,-0.23844845592975616,-0.0707283765077591,0.9685760140419006,0.24099639058113098,0.04263733699917793,-0.07981115579605103,-0.19384825229644775,0.04901513457298279,0.16824936866760254
196,-2.9105016988164585,0.008322328674383836,-0.6069657215996854,-0.22903165221214294,-0.008322232402861118,0.9733832478523254,0.14699223637580872,-0.6117599606513977,1.4419091939926147,0.06609833240509033,-0.07994986325502396,0.11407995223999023
197,-3.020993294749018,0.07552449629352634,-0.6723263562840157,-0.11996425688266754,-0.07545271515846252,0.9899065494537354,-1.1201610565185547,-0.8925597667694092,-0.6821690201759338,-0.43493685126304626,0.17356674373149872,0.15100812911987305
198,-3.0179918941846413,0.15828743196351783,-0.5362195833454406,-0.12174506485462189,-0.15762728452682495,0.979965329170227,-0.4354591369628906,1.0083045959472656,-2.49428653717041,-0.2496233731508255,0.20566190779209137,-0.0660247802734375
199,-2.9119048281882756,0.2726822985805947,-0.211730638303733,-0.2192615121603012,-0.26931560039520264,0.9377599954605103,-0.743374228477478,2.4645893573760986,-3.445852279663086,0.05303221940994263,0.33604225516319275,-0.005157947540283203
200,-2.8789602680945428,0.36464810903631034,0.07514894207109257,-0.24255314469337463,-0.35662055015563965,0.9022138118743896,0.06765644252300262,0.7631990909576416,-2.2984728813171387,0.26028385758399963,0.16838812828063965,-0.14191412925720215
201,-2.9453144663330226,0.4005602810816003,0.32832617478009857,-0.1795830875635147,-0.38993433117866516,0.9031619429588318,0.535330057144165,0.4129599928855896,-1.7476494312286377,0.373140811920166,0.04824423789978027,-0.10520339012145996
202,-2.9949512913104073,0.385562108357128,0.5006889203583295,-0.1353895515203476,-0.3760800361633301,0.916642427444458,-0.05460912734270096,-0.3804266154766083,-1.1266862154006958,0.3055860996246338,0.047863543033599854,0.09678518772125244
203,-3.0639393535569095,0.41470775281070743,0.6067202523961455,-0.07099955528974533,-0.40292248129844666,0.9124761819839478,-0.342726469039917,-0.16674651205539703,-1.0820468664169312,0.055450841784477234,0.04962041974067688,0.0719447135925293
204,-3.11928089609694,0.4494050917641581,0.7176616297234115,-0.020094655454158783,-0.43442976474761963,0.9004813432693481,-0.06606601923704147,-0.0019893753342330456,-0.6987131834030151,0.03990057483315468,0.018475264310836792,0.01144474744796753
205,-3.108863825493529,0.4378066754114388,0.7734017938750645,-0.029636677354574203,-0.423954039812088,0.9051987528800964,-0.43009841442108154,-0.3156357705593109,-0.20314925909042358,0.164112389087677,0.08176037669181824,0.03721463680267334
206,-3.1107635681294337,0.43194852111057863,0.7722157701194502,-0.027993058785796165,-0.4186411499977112,0.9077203869819641,0.4252220094203949,-0.018765363842248917,0.04159999638795853,0.03043445572257042,0.0693368911743164,-0.028005242347717285
207,-3.110949875985168,0.402130934413074,0.7714259143722118,-0.02819395437836647,-0.3913801908493042,0.9197967648506165,0.22858673334121704,0.008714093826711178,0.020934853702783585,0.10424376279115677,0.022972077131271362,0.004992365837097168
208,-3.098595111838258,0.3787972892016373,0.7430864234240256,-0.039937134832143784,-0.3698032796382904,0.9282512068748474,0.01086129155009985,-0.00014998577535152435,0.2478240728378296,0.039723511785268784,-0.06464493274688721,0.05705446004867554
209,-3.1001310617956523,0.4125751256642341,0.7235983093547673,-0.037971723824739456,-0.4009697139263153,0.9153040647506714,-0.5194511413574219,-0.1432425081729889,-0.03628171235322952,-0.02355170249938965,-0.02391129732131958,-0.022268176078796387
210,-3.0999120575381838,0.446773247097496,0.7215021765721014,-0.03757859393954277,-0.43205776810646057,0.9010626673698425,-0.25718551874160767,-0.06590104103088379,0.040243495255708694,-0.03227613866329193,0.008412718772888184,-0.010941267013549805
211,-3.110895395407139,0.4600981090389,0.730535084304062,-0.02750069461762905,-0.44403600692749023,0.8955866694450378,0.12507207691669464,0.0653497576713562,-0.12716273963451385,0.012333458289504051,-0.0322517454624176,-0.020708858966827393
212,-3.1039543684161464,0.447309036728709,0.7463954482138783,-0.03392720967531204,-0.4325408935546875,0.9009759426116943,0.4408181607723236,0.11554716527462006,-0.07962987571954727,0.02588583156466484,0.039886415004730225,-0.06250536441802979
213,-3.091163426147821,0.38798421251335763,0.7428564194293792,-0.046661216765642166,-0.3783232271671295,0.9244967699050903,0.4379364848136902,-0.027871914207935333,0.04194115102291107,-0.0025483742356300354,0.004452377557754517,0.07144439220428467
214,-3.0880839658907115,0.3618985145628075,0.7385780240330163,-0.05001886188983917,-0.3540503978729248,0.9338878393173218,-0.01761559210717678,0.02132808044552803,0.012653033249080181,-0.00012151896953582764,-0.008910417556762695,0.10071909427642822
215,-3.106249744061002,0.4091272260540976,0.7678547886834802,-0.03241925686597824,-0.3978087306022644,0.9168955087661743,-0.5090585350990295,-0.02564310096204281,-0.33530351519584656,0.003351256251335144,0.030804336071014404,0.007161498069763184
216,-3.1318220504650642,0.4560015319372747,0.8018476174256145,-0.008772105909883976,-0.44036173820495605,0.8977774381637573,-0.6186267733573914,-0.3168886601924896,-0.46752333641052246,-0.0476243793964386,-0.0076972246170043945,0.037647247314453125
217,3.0762386511533193,0.5401033989053222,0.8770621027789723,0.05601133406162262,-0.514224648475647,0.8558246493339539,-1.4185357093811035,-0.563355028629303,-0.7645506262779236,-0.03641905263066292,-0.008785545825958252,0.15571099519729614
218,2.957832821000464,0.687588468211671,1.0028222558531825,0.14120779931545258,-0.6346754431724548,0.7597677111625671,-1.3093219995498657,0.03660980612039566,-0.8314110040664673,-0.06677545607089996,0.12703090906143188,-0.052019476890563965
219,2.901277835129152,0.7917494803767396,1.1388463185006752,0.1672251671552658,-0.7115835547447205,0.6824113130569458,-0.8337398171424866,0.5032915472984314,-0.4960699677467346,0.03805138170719147,0.06302380561828613,-0.10140210390090942
220,2.93742974733564,0.8295036236467664,1.1813471213327713,0.13690368831157684,-0.7375962734222412,0.6612181663513184,-0.01256508193910122,0.6664062142372131,-0.2642136812210083,0.03504760563373566,0.028810203075408936,-0.07300704717636108
221,2.9874771344664484,0.8339296553658574,1.1739637174153632,0.10315170139074326,-0.7405776977539062,0.6640067100524902,-0.42022043466567993,0.5052123069763184,0.08383023738861084,0.059674881398677826,0.021415531635284424,0.05044049024581909
222,3.065763256544329,0.8515841009924752,1.1229157752241459,0.04990795627236366,-0.7523249387741089,0.656899094581604,0.0024538314901292324,0.7586339116096497,0.3255883455276489,0.07892201095819473,0.000997304916381836,-0.01584690809249878
223,-3.1351656622776356,0.8442707649149027,1.05417880679319,-0.004269269295036793,-0.7474868893623352,0.6642627120018005,-0.022756284102797508,0.43785107135772705,0.29606762528419495,0.05219712853431702,-0.02924644947052002,0.04659837484359741
224,-3.0838958896407758,0.8134627033605893,1.0097073212109007,-0.03961490839719772,-0.7266703844070435,0.685843288898468,0.42369842529296875,0.16733424365520477,0.04813326150178909,0.04165958985686302,-0.03236287832260132,0.03775900602340698
225,-3.068962141009685,0.7895507841498662,0.9731253243179009,-0.05109884589910507,-0.7100369930267334,0.7023075819015503,0.7037538886070251,-0.1907140463590622,0.21652798354625702,0.11465171724557877,-0.027648985385894775,-0.10742855072021484
226,-3.0592243367513903,0.7023336514855988,0.9271452175910152,-0.06280367076396942,-0.6460008025169373,0.760748565196991,0.8446024656295776,-0.36237967014312744,0.256193071603775,0.03802342712879181,-0.011851251125335693,0.002984285354614258
227,-3.069651673361104,0.6178915538328154,0.8766079584028288,-0.058588657528162,-0.5793178677558899,0.8129934668540955,0.6613548398017883,-0.5928285717964172,0.2646520733833313,-0.03128562122583389,0.004656493663787842,0.013788819313049316
228,-3.094789425099873,0.5829711304453167,0.844653277912402,-0.03905850648880005,-0.5505067706108093,0.833916425704956,-0.16115744411945343,-0.288019061088562,0.2580297291278839,-0.022297080606222153,0.0018618106842041016,0.06709975004196167
229,-3.12215874770196,0.566198687242031,0.8322931231014957,-0.01640014350414276,-0.5364278554916382,0.8437870144844055,0.20237697660923004,-0.23291073739528656,0.19159820675849915,-0.010714741423726082,0.021275818347930908,0.01969277858734131
230,-3.1341913979913585,0.5620916546689013,0.8237922171728267,-0.006262457929551601,-0.5329571962356567,0.8461190462112427,0.5224582552909851,0.07509908080101013,0.3017444908618927,0.06017176806926727,0.01573002338409424,-0.14375698566436768
231,-3.1028933984946825,0.48742245338149226,0.7849605266958111,-0.03418393060564995,-0.4683500826358795,0.8828817009925842,0.5738019347190857,0.030880242586135864,0.2984194755554199,-0.003032255917787552,-0.01689472794532776,0.0413433313369751
232,-3.0851189906906153,0.4268051959081587,0.7471647049723892,-0.051380254328250885,-0.41396471858024597,0.9088416695594788,0.525863528251648,-0.054016001522541046,0.41182658076286316,0.01848232001066208,-0.009802311658859253,0.029894232749938965
233,-3.07141527129555,0.36605985626142185,0.6996168716289118,-0.0654740110039711,-0.35793912410736084,0.9314467310905457,0.6057257652282715,0.07925085723400116,0.4703947603702545,-0.0054946169257164,-0.002946525812149048,0.006434798240661621
234,-3.06087319806068,0.31076908281748467,0.6630718694827463,-0.07676948606967926,-0.3057909607887268,0.9489989876747131,0.5948436260223389,0.0034823347814381123,0.3319576382637024,-0.021130912005901337,-0.006037712097167969,0.0008304119110107422
235,-3.0635470522019608,0.29351528731157606,0.660918752372034,-0.07463199645280838,-0.2893189489841461,0.9543190002441406,-0.23976118862628937,-0.2544178068637848,-0.3919985294342041,-0.08091609925031662,-0.017886251211166382,0.08369064331054688
236,-3.128397348874349,0.3358442712453463,0.7443646463242057,-0.012457752600312233,-0.3295663893222809,0.944050133228302,-0.8009771108627319,-0.7530727386474609,-1.075502634048462,-0.034417249262332916,-0.0013356804847717285,0.09478336572647095
237,2.998165963852429,0.42887686182589846,0.8416226086266624,0.12999029457569122,-0.4158496558666229,0.9000954627990723,-1.0335837602615356,-1.1257717609405518,-0.48080626130104065,-0.0036627650260925293,0.04191771149635315,0.016500115394592285
238,2.8749443342503156,0.5134403089392443,0.9136086790796379,0.22952401638031006,-0.49117687344551086,0.8402761816978455,-0.6053957939147949,-0.6178833246231079,-0.25271493196487427,0.06530630588531494,0.06763863563537598,-0.06335973739624023
239,2.8500775494064614,0.532168136750497,0.9349968868970627,0.24765834212303162,-0.5074028372764587,0.8253529071807861,0.20453375577926636,-0.13826800882816315,-0.09225937724113464,0.0036386102437973022,0.04333740472793579,-0.12877404689788818
240,2.8619105518829238,0.505146768779541,0.9274507366972077,0.24157239496707916,-0.4839358925819397,0.841099739074707,0.16783244907855988,0.04576672241091728,0.016522569581866264,0.035527199506759644,-0.015255361795425415,0.04168218374252319
241,2.872947696084188,0.4983455511989477,0.9173949196674042,0.2331427037715912,-0.47797295451164246,0.8468682765960693,0.0042313323356211185,-0.1334998607635498,0.11548734456300735,0.035030439496040344,0.00047978758811950684,0.013376295566558838
242,2.853986260663267,0.5034804877583917,0.9101937629449045,0.24845834076404572,-0.4824770390987396,0.8399314284324646,-0.1910369098186493,-0.4545252323150635,0.09016700088977814,-0.005568861961364746,-0.011083871126174927,0.002811610698699951
243,2.8065208101879637,0.5288432094667894,0.9090498938555347,0.2839150130748749,-0.504534900188446,0.8153752088546753,-0.3360496163368225,-0.41939857602119446,0.0907348245382309,0.002675563097000122,0.00732731819152832,0.03080087900161743
244,2.771044994829687,0.5548407928133845,0.9224879649733839,0.30780139565467834,-0.526807963848114,0.7922952175140381,-0.10637221485376358,-0.01721685752272606,-0.12988577783107758,-0.029893100261688232,0.019956767559051514,-0.021528005599975586
245,2.7852859338624825,0.5367420294424312,0.9482531071334296,0.29976460337638855,-0.5113388895988464,0.8054028153419495,0.2462741732597351,0.11534788459539413,-0.2559274435043335,0.01433756947517395,0.014466941356658936,-0.02755558490753174
246,2.815905555348324,0.4854028306251172,0.9641082757000453,0.28300032019615173,-0.46656468510627747,0.8379904627799988,0.5948310494422913,0.2731839716434479,-0.2542058825492859,0.04184401035308838,-0.0006135404109954834,-0.04091721773147583
247,2.8457108694274513,0.42452493564427213,0.9720335200492735,0.2657008469104767,-0.4118879437446594,0.8716371059417725,0.36611074209213257,0.24133600294589996,-0.29841670393943787,0.01960793137550354,-0.03546920418739319,0.042013347148895264
248,2.8609664129369805,0.3927690912158015,0.9777981295286612,0.25586777925491333,-0.3827480971813202,0.8877132534980774,0.19465012848377228,-0.009904338046908379,0.062225304543972015,0.096289724111557,-0.001635909080505371,0.03831183910369873
249,2.8578531953261104,0.3951740397369334,0.9652132523445902,0.25837182998657227,-0.3849688172340393,0.8860264420509338,-0.013296869583427906,-0.06223040819168091,0.1807546466588974,0.023961514234542847,0.008076757192611694,0.004537403583526611
250,2.853767394693329,0.4030005167644782,0.9531669667011563,0.2611266076564789,-0.3921802341938019,0.8820476531982422,-0.029700925573706627,0.03356078267097473,0.1086324080824852,-0.015383750200271606,0.012541472911834717,-0.007535696029663086
251,2.858135971620812,0.4105225629116454,0.9478769790792617,0.2564384937286377,-0.3990885317325592,0.8803226351737976,-0.10070431977510452,0.06879059970378876,0.016207478940486908,-0.010741442441940308,0.0030923783779144287,0.011950373649597168
252,2.8660327565541164,0.41154813320271344,0.9446786415705348,0.24936731159687042,-0.40002867579460144,0.8819257020950317,0.04753555729985237,0.048784058541059494,0.07419579476118088,0.021460935473442078,-0.00410035252571106,0.002565145492553711
253,2.870736860084346,0.4128355907497148,0.9399882960046521,0.24507787823677063,-0.4012083113193512,0.8825920224189758,-0.005950553342700005,-0.056783292442560196,0.04685418680310249,0.009484484791755676,0.0007718801498413086,-0.0010002851486206055
254,2.8719385593735094,0.4154721404764867,0.9325012953891302,0.2437344640493393,-0.40362194180488586,0.8818632364273071,-0.01585150510072708,-0.10015010833740234,0.08578184247016907,-0.004446133971214294,-0.006183356046676636,-0.0027740001678466797
255,2.8757535361396287,0.41385342334026826,0.9288857052003316,0.24053972959518433,-0.40214040875434875,0.8834158778190613,0.031810835003852844,0.020898405462503433,0.03613058477640152,0.012389957904815674,-0.008366763591766357,0.005744218826293945
256,2.8783321083578586,0.41326854812849556,0.9261777330346304,0.2383222132921219,-0.40160486102104187,0.8842604160308838,-0.021519795060157776,0.020649461075663567,0.012008548714220524,0.009755238890647888,-0.003210902214050293,0.021913528442382812
257,2.8804996107394487,0.41336348940351925,0.925534169195896,0.23639518022537231,-0.4016917943954468,0.8847380876541138,0.010868266224861145,0.0246129110455513,0.009825024753808975,-0.001440286636352539,-0.0026204288005828857,-0.005358576774597168
258,2.879798673347068,0.41264753239377755,0.9245049028190971,0.237089604139328,-0.40103602409362793,0.8848496079444885,0.009482478722929955,0.09807217866182327,-0.05439794063568115,-0.007292240858078003,0.0011184513568878174,0.00977325439453125
259,2.881422865968403,0.4133000919192061,0.9221140815984609,0.23558469116687775,-0.40163373947143555,0.8849802017211914,0.0004833424463868141,-0.0010019578039646149,0.04845660924911499,0.011363506317138672,-0.0035175681114196777,0.011366724967956543
260,2.883474122322808,0.4128295153418842,0.9189909866316561,0.2338171750307083,-0.4012027382850647,0.8856444954872131,0.0640542209148407,0.06246262043714523,0.012311160564422607,-0.017539069056510925,0.005877971649169922,-0.010156035423278809
261,2.887012492899501,0.40810573310872467,0.913291473993406,0.2311566174030304,-0.39687132835388184,0.888290286064148,0.15416350960731506,0.09472601115703583,0.02186007797718048,-0.011170685291290283,0.015218555927276611,-0.030090272426605225
262,2.901120581599739,0.3912887549835347,0.9009372146462159,0.22016049921512604,-0.3813800811767578,0.8978186845779419,0.27089637517929077,0.18200404942035675,0.12695404887199402,0.008400887250900269,0.005312025547027588,-0.030036211013793945
263,2.9318597145139185,0.34628720519192924,0.8665923433374354,0.19583995640277863,-0.339407742023468,0.9200270175933838,0.7043067812919617,0.19215074181556702,0.2970080077648163,0.01222895085811615,-0.027718812227249146,-0.03191936016082764
264,2.9864052334230937,0.2806326879570138,0.8445027063056175,0.14851868152618408,-0.27696365118026733,0.9493327736854553,0.5753105878829956,0.6721388697624207,0.09486941993236542,-0.01086917519569397,-0.03755044937133789,0.0476914644241333
265,3.0865853015508202,0.25821649681506553,0.8220551673769646,0.053156886249780655,-0.2553565800189972,0.9653847813606262,-0.18441687524318695,1.203426480293274,0.18896690011024475,0.01149461418390274,-0.030287981033325195,0.1097496747970581
266,-3.076136881198656,0.29927325806448296,0.813993023985442,-0.06250165402889252,-0.29482585191726685,0.9535044431686401,-0.5717201828956604,1.322670578956604,0.17297928035259247,0.0823228508234024,-0.011402696371078491,0.08503895998001099
267,-2.9435553693082266,0.36275587672713894,0.7517845334621495,-0.18394166231155396,-0.3548521101474762,0.9166491031646729,-0.6528825163841248,0.7668727040290833,0.28603941202163696,0.038052380084991455,-0.021048158407211304,0.05960822105407715
268,-2.8329715264356032,0.4426762775225513,0.6594739051002858,-0.2744666337966919,-0.4283592998981476,0.8609156608581543,-1.4088373184204102,0.5235450267791748,0.9396330118179321,-0.0008476078510284424,0.008788526058197021,-0.0243680477142334
269,-2.761993683804964,0.46258282326058764,0.5764995243266134,-0.331604540348053,-0.4462609589099884,0.8311978578567505,-0.0984308123588562,0.1222674772143364,0.5605153441429138,0.002197772264480591,0.001390904188156128,-0.04509544372558594
270,-2.717547348822635,0.4189466576515972,0.5096959251013071,-0.375867635011673,-0.40679842233657837,0.8326092958450317,0.3996475040912628,0.1824580281972885,0.990623950958252,0.04940590262413025,0.012358784675598145,-0.05033707618713379
271,-2.669462088207168,0.32731842428147245,0.4193659425681788,-0.4306394159793854,-0.32150498032569885,0.8433176279067993,0.4531753659248352,-0.0034391586668789387,1.182025671005249,0.0431576669216156,-0.003339409828186035,-0.011469364166259766
272,-2.6466682180756083,0.228334917770701,0.33333682774365925,-0.46263718605041504,-0.22635596990585327,0.8571636080741882,0.47545793652534485,-0.059261489659547806,1.387884497642517,0.09917294979095459,-0.030266284942626953,0.014845550060272217
273,-2.671732017787033,0.11944637002673758,0.21822515059605188,-0.44953587651252747,-0.11916253715753555,0.8852781057357788,0.3655514121055603,-0.6489589214324951,1.0131160020828247,-0.1072266697883606,-0.022606834769248962,0.04990231990814209
274,-2.694676196512254,0.10003160553947255,0.16226250426666386,-0.43002641201019287,-0.09986486285924911,0.8972761034965515,-0.3505624532699585,-0.10043250769376755,0.22535419464111328,-0.08807048201560974,0.044170282781124115,0.08429133892059326
275,-2.6828778044153387,0.11694609149712207,0.14523413409746377,-0.4397716522216797,-0.11667970567941666,0.8904979228973389,-0.16926896572113037,0.011124626733362675,0.0043984148651361465,0.010633528232574463,0.05515629053115845,-0.03330504894256592
276,-2.678190337058588,0.10638248412054248,0.14603523000317617,-0.4444672465324402,-0.10618194192647934,0.8894798755645752,0.15946227312088013,0.004098119679838419,0.03455159813165665,0.01357424259185791,-0.009754359722137451,-0.014815449714660645
277,-2.6781538589664713,0.09602388779937045,0.14824906963406645,-0.4449675381183624,-0.09587638825178146,0.8903998136520386,0.09037548303604126,0.02120305597782135,0.0788663700222969,0.02214643359184265,-0.03217538446187973,0.016231775283813477
278,-2.6822034826402086,0.09769134720711552,0.14104699117344888,-0.4412866234779358,-0.09753603488206863,0.8920499682426453,-0.03675226867198944,-0.02013840526342392,0.05125448852777481,-0.0013556480407714844,-0.0011273100972175598,0.006601214408874512
279,-2.682175224116078,0.0994998260920623,0.133754200759084,-0.441232830286026,-0.09933573007583618,0.8918778300285339,-0.07702909409999847,0.000529945595189929,0.0012834686785936356,-0.011587023735046387,0.007920309901237488,0.00965726375579834
280,-2.6804236882516395,0.10126841320057946,0.12770196812857582,-0.4427154064178467,-0.10109541565179825,0.8909448385238647,-0.06635607779026031,0.0029465542174875736,0.024933896958827972,-0.005908221006393433,0.0019438043236732483,0.0052190423011779785
281,-2.6811585935077478,0.10097637085932103,0.12742279067406342,-0.4420735836029053,-0.10080486536026001,0.8912962675094604,-0.004749150015413761,-0.021793056279420853,-0.008540172129869461,-0.0020791292190551758,-0.0039161741733551025,0.00335693359375
282,-2.6806093029832865,0.10191992795725736,0.12853207924419666,-0.4425206482410431,-0.10174357146024704,0.890967845916748,-0.00797268096357584,-0.02174137346446514,-0.01912083476781845,0.017929643392562866,-0.012071728706359863,-0.00012922286987304688
283,-2.682244487771132,0.10115364060211698,0.1263879564334062,-0.4410974979400635,-0.1009812280535698,0.8917596340179443,-0.06617274135351181,-0.02813587710261345,0.038041748106479645,0.0028499066829681396,-0.013261295855045319,0.019159317016601562
284,-2.6822410809311634,0.10374881453383258,0.1231960638454963,-0.4409831166267395,-0.10356279462575912,0.8915207982063293,-0.04384627938270569,-0.01570301130414009,0.03438393399119377,0.014103114604949951,-0.00038010627031326294,0.0022172927856445312
285,-2.685751759680923,0.10358690768428877,0.1194350623594008,-0.43785789608955383,-0.10340175777673721,0.8930783867835999,0.009337300434708595,-0.033872805535793304,0.018307572230696678,-0.0054405927658081055,0.00040490925312042236,0.0010715723037719727
286,-2.6882135356285883,0.10251257546674677,0.11824954329368592,-0.43570634722709656,-0.10233312100172043,0.8942527770996094,-0.03152626380324364,-0.04094092547893524,-0.012784833088517189,-0.010140210390090942,-0.0039596036076545715,0.010059356689453125
287,-2.6911037107801135,0.10092851660141107,0.11665770457370321,-0.43319007754325867,-0.10075724869966507,0.895653247833252,0.0012773824855685234,-0.003918313886970282,0.03080122172832489,-0.006278365850448608,-0.008282072842121124,0.021323800086975098
288,-2.6930859869306216,0.10166591282549393,0.1148988215725222,-0.4313815236091614,-0.10149087011814117,0.8964431285858154,0.03507547453045845,0.009729359298944473,0.0163891464471817,0.00010696053504943848,-0.0026504024863243103,0.005290567874908447
289,-2.6935090684971987,0.10189444565642607,0.11370022891675777,-0.43099191784858704,-0.10171821713447571,0.8966041803359985,-0.0047654565423727036,0.0046584527008235455,0.012955340556800365,0.0007094144821166992,0.002291962504386902,0.004167735576629639
290,-2.6943301066813015,0.10124917439056988,0.11323877644016228,-0.4302839934825897,-0.10107627511024475,0.8970168232917786,0.020075976848602295,-0.00404076324775815,0.0056098103523254395,-0.0028062164783477783,0.001512676477432251,0.0017715692520141602
291,-2.6960493915057624,0.09931890046955105,0.11272992562235824,-0.42882445454597473,-0.09915569424629211,0.8979297876358032,0.03558673709630966,-0.021956536918878555,0.01578902266919613,-0.0005884468555450439,-0.0013234466314315796,0.0015149116516113281
292,-2.698870930505485,0.09748206596489802,0.11125944781727201,-0.42636653780937195,-0.09732774645090103,0.8992992639541626,0.006457786075770855,-0.018535979092121124,0.03692907840013504,-0.0007727742195129395,-0.0031666532158851624,0.015266895294189453
293,-2.6991407938994234,0.098005627405266,0.10951336267209512,-0.42610201239585876,-0.0978488102555275,0.8993682265281677,0.0030481829307973385,0.007574163842946291,-0.0004484616219997406,0.005569636821746826,0.007501482963562012,0.006088554859161377
294,-2.6997678615026723,0.09884143162930052,0.10741461295002516,-0.4255027174949646,-0.09868057072162628,0.8995606899261475,-0.03768739104270935,-0.009594447910785675,-0.006944673135876656,-0.013752013444900513,0.0021534860134124756,-0.005197405815124512
295,-2.6989495517920585,0.09753757940470441,0.10960412394431424,-0.4262934625148773,-0.09738299995660782,0.89932781457901,0.0006059147417545319,-0.012273143976926804,-0.013677144423127174,0.006508946418762207,-0.015394710004329681,0.00997394323348999
296,-2.699624262450375,0.0971225177763544,0.1101405859314474,-0.42570382356643677,-0.09696990251541138,0.8996516466140747,0.02063480205833912,-0.012054740451276302,0.0154931815341115,0.015730679035186768,-0.002929389476776123,0.005347132682800293
297,-2.7019126842548022,0.09780045926949352,0.10696293272107125,-0.42361587285995483,-0.0976446270942688,0.9005637764930725,-0.022981319576501846,-0.016627248376607895,0.00991637073457241,-0.007963716983795166,0.006000347435474396,0.00034564733505249023
298,-2.7032033857825417,0.0968289615814143,0.1054664943993207,-0.4224931597709656,-0.09667772054672241,0.9011951088905334,-0.021852238103747368,-0.032096561044454575,0.014821608550846577,0.00020623207092285156,0.001447632908821106,0.0072977542877197266
299,-2.704413078555431,0.09672659752753592,0.10382501337733485,-0.42140689492225647,-0.09657584130764008,0.901714563369751,-0.06176082044839859,-0.01727396622300148,0.027007512748241425,0.004170626401901245,-0.01017463207244873,0.017123818397521973
300,-2.704874381566795,0.09891665731529826,0.10304503135126264,-0.4209004044532776,-0.09875542670488358,0.9017150402069092,-0.007926777005195618,-0.004505319520831108,-0.007977332919836044,0.0033284127712249756,-0.007323667407035828,-0.00013434886932373047
301,-2.70582943428172,0.09890789226764818,0.10139496938231517,-0.4200395345687866,-0.09874670207500458,0.9021176695823669,-0.0030010463669896126,-0.005155421327799559,0.021985169500112534,-0.005131453275680542,-0.004158593714237213,0.007077455520629883
302,-2.706498641065647,0.09973304184398198,0.10066136788635423,-0.419401079416275,-0.09956778585910797,0.9023240208625793,0.01664547249674797,-0.018928661942481995,0.011792035773396492,0.010923385620117188,-0.00014837831258773804,0.0011487007141113281
303,-2.707360275673465,0.09891411972756206,0.10014599489693948,-0.4186578392982483,-0.09875290095806122,0.9027591943740845,-0.008707218803465366,0.0046061682514846325,0.01490157749503851,0.006990790367126465,-0.0008412525057792664,0.014691054821014404
304,-2.7083608393434884,0.09960550845358321,0.09818461561554857,-0.41772547364234924,-0.09944088757038116,0.9031152129173279,0.022755946964025497,0.0016803760081529617,0.0013641994446516037,-0.009352803230285645,0.004317581653594971,-0.011452555656433105
305,-2.7086054982405154,0.10005528012292414,0.09678254042206579,-0.4174857437610626,-0.09988842159509659,0.9031767845153809,0.022446710616350174,-0.009880388155579567,0.010650718584656715,-0.008524447679519653,0.0024305209517478943,-0.01673257350921631
306,-2.7093057133268212,0.09768268228117853,0.09660978058262176,-0.41695114970207214,-0.0975274071097374,0.9036811590194702,0.02171444706618786,-0.015559460036456585,0.025816660374403,0.007435888051986694,-0.0008307173848152161,0.0003865957260131836
307,-2.7105738050197785,0.09748990139857347,0.09720350473334562,-0.4158128499984741,-0.09733554720878601,0.904226541519165,-0.02471863478422165,-0.018508492037653923,-0.0020798780024051666,0.008250564336776733,-0.004272744059562683,0.006128191947937012
308,-2.712925214860052,0.09804481821284047,0.09789452889444684,-0.41366297006607056,-0.09788781404495239,0.905152440071106,0.011674937792122364,-0.062004003673791885,-0.017897149547934532,0.0013552308082580566,0.0025356411933898926,-0.004044651985168457
309,-2.713812383583099,0.09721420920338264,0.09819598694797572,-0.4128933548927307,-0.0970611572265625,0.9055927395820618,-0.06843959540128708,0.034318115562200546,-0.015123279765248299,-0.013772904872894287,-0.003570549190044403,0.029633641242980957
310,-2.709869652743094,0.1084118197752566,0.09972796452288112,-0.4159797132015228,-0.1081995815038681,0.9029138684272766,-0.2129126340150833,0.029949041083455086,-0.3441905677318573,-0.0850120484828949,-0.011627674102783203,0.06933021545410156
311,-2.801564575024819,0.1872071323577413,0.2544386895344678,-0.3276863992214203,-0.1861155480146408,0.9262735843658447,-0.4846890866756439,-0.7815650105476379,-1.5426853895187378,0.015873044729232788,0.032612144947052,0.025615453720092773
312,-2.8754978517495364,0.22439535727431092,0.3844772406594528,-0.2563727796077728,-0.22251692414283752,0.9406161904335022,0.1440076380968094,-1.216700553894043,-1.8513060808181763,0.0009712278842926025,0.011381089687347412,-0.03938651084899902
313,-2.9653261175095365,0.25320848343483393,0.48985030721654327,-0.1697637289762497,-0.25051140785217285,0.9531128406524658,-0.090953029692173,-0.5431663393974304,-0.9354631304740906,-0.023259922862052917,0.0036089718341827393,0.02897322177886963
314,-3.0316287017919676,0.3046137895140554,0.5540647695422155,-0.10469024628400803,-0.2999247610569,0.9482010006904602,-0.16619710624217987,-0.8383999466896057,-0.6471841931343079,-0.011215515434741974,0.010221391916275024,-0.05449378490447998
315,-3.1226410841498753,0.34313109237583805,0.5976367231505446,-0.01784573681652546,-0.33643731474876404,0.9415368437767029,-0.884089469909668,-0.8068923354148865,-0.4214431941509247,-0.05234469473361969,0.03191763162612915,0.038794636726379395
316,3.0514951875864362,0.4012017968650511,0.6640351369094911,0.08283086866140366,-0.3905249834060669,0.916858434677124,-0.7898876667022705,-0.9678246378898621,-0.6982862949371338,-0.05003972351551056,0.012564778327941895,0.04998421669006348
317,2.8871881835205175,0.4621440149268435,0.7682343520322312,0.22526861727237701,-0.44586822390556335,0.8662882447242737,-0.47754716873168945,-1.1217073202133179,-0.9330337643623352,-0.07019355893135071,0.05478549003601074,-0.04267996549606323
318,2.8002833509561955,0.4376698486703306,0.8358846315193507,0.30317094922065735,-0.4238300919532776,0.8534960746765137,0.4381021559238434,0.009372907690703869,-0.5438271164894104,-0.04848650097846985,-0.016797959804534912,-0.07267332077026367
319,2.8007621447530795,0.39798552634191137,0.8636692609757595,0.3081446588039398,-0.387562096118927,0.8688168525695801,0.23319800198078156,0.04128962382674217,-0.18199607729911804,0.08180901408195496,-0.017879247665405273,0.0008579492568969727
320,2.791232802845778,0.3935724817982915,0.8622493588361217,0.3169936239719391,-0.3834902048110962,0.8674386739730835,-0.11400187015533447,-0.11439269781112671,0.11410657316446304,0.03171539306640625,-0.0077603161334991455,0.03270763158798218
321,2.7779789234425216,0.411756044546738,0.8497266035709661,0.32592833042144775,-0.40021923184394836,0.8565019965171814,-0.098407082259655,-0.17353308200836182,0.1459082067012787,-0.04963734745979309,0.005809962749481201,-0.0018265843391418457
322,2.7841091749870057,0.41422560944523223,0.8428601853497474,0.32032477855682373,-0.4024811387062073,0.8575552701950073,-0.01684661954641342,-0.06331294029951096,-0.0028312690556049347,-0.02927863597869873,-0.005630403757095337,0.007907986640930176
323,2.791806422661285,0.40984691176940863,0.845196225730665,0.31431543827056885,-0.39846891164779663,0.8616427779197693,0.00824162270873785,-0.016730599105358124,-0.055359914898872375,0.004120200872421265,-0.01895049214363098,0.011449873447418213
324,2.7919178394265427,0.4096273512338692,0.8510707566859629,0.3142494857311249,-0.398267537355423,0.861760139465332,0.010962116532027721,-0.03547108173370361,0.007259373553097248,0.03169780969619751,-0.013384133577346802,-0.01291358470916748
325,2.792559606270741,0.40879619167335596,0.8469663616361804,0.31380948424339294,-0.3975050151348114,0.8622725009918213,0.03471942991018295,-0.012274120002985,0.04692628234624863,-0.0006990730762481689,-0.0030993521213531494,0.003236711025238037
326,2.793041855045082,0.4103249516689585,0.8433957882643726,0.3131856620311737,-0.398907333612442,0.8618513941764832,0.03051740862429142,0.010468247346580029,0.013017470017075539,-0.01841634511947632,0.003521561622619629,-0.012318253517150879
327,2.7962741462310143,0.4085595797153456,0.8420399764415338,0.3106362223625183,-0.39728787541389465,0.8635206818580627,-0.02652331441640854,-0.04634701460599899,-0.004379210993647575,0.0005820393562316895,-0.004308164119720459,0.011296510696411133
328,2.798853719160652,0.40825543737545694,0.8413697832789769,0.3084481656551361,-0.3970087468624115,0.8644325733184814,0.0027810768224298954,-0.028033586218953133,0.001832800917327404,0.0018698275089263916,-0.0015660524368286133,0.0026327967643737793
329,2.799739284996575,0.40742062720754557,0.840444362403339,0.3077935576438904,-0.3962424099445343,0.8650174736976624,0.01134587824344635,0.019112803041934967,-0.01051323115825653,-0.007058054208755493,-0.004377156496047974,0.008121013641357422
330,2.80267353999096,0.40613507175750024,0.8397096629927149,0.3054231107234955,-0.39506176114082336,0.866396427154541,0.039330724626779556,0.04101194068789482,-0.01607459783554077,-0.020251601934432983,-0.0007206499576568604,0.0006994009017944336
331,2.8040937844135265,0.40562510216666553,0.8413983063373315,0.30425897240638733,-0.394593209028244,0.8670192956924438,0.03652456775307655,0.05709488317370415,-0.00897761806845665,0.008302032947540283,0.005112677812576294,-0.011626958847045898
332,2.8054713734900054,0.40385353286860043,0.8388784152004887,0.30329430103302,-0.39296478033065796,0.8680959939956665,0.01694546453654766,0.026230793446302414,0.013946493156254292,-0.009989947080612183,-0.0005592703819274902,0.008795857429504395
333,2.810244291778492,0.40305929198925733,0.8329706667001694,0.2992490828037262,-0.39223429560661316,0.8698289394378662,0.025948885828256607,0.05116988345980644,0.06451843678951263,-0.004281401634216309,-0.009193956851959229,0.00262296199798584
334,2.81191719868542,0.4042291460540997,0.8309258026074668,0.2976447343826294,-0.39331015944480896,0.8698934316635132,-0.028260212391614914,-0.01686783879995346,0.005587590858340263,-0.012747883796691895,-0.0035099387168884277,0.006144046783447266
335,2.8157602825581094,0.4044463453769545,0.8304229990840842,0.2942720353603363,-0.3935098350048065,0.8709497451782227,-0.023301204666495323,0.00724827591329813,-0.011400293558835983,-0.012045562267303467,0.0021372437477111816,0.008902370929718018
336,2.8196719973345226,0.40345718499135824,0.8292489552967119,0.2909860610961914,-0.39260029792785645,0.8724634647369385,0.02025332674384117,0.039244573563337326,0.007921433076262474,-0.0005044639110565186,-0.00263291597366333,0.008045077323913574
337,2.8229347814870933,0.4022645292076835,0.8296865113956275,0.2882842421531677,-0.39150312542915344,0.8738519549369812,0.05096840113401413,0.020292896777391434,-0.0015972349792718887,-0.005569428205490112,-0.00153273344039917,-0.012356162071228027
338,2.826814981100597,0.39981297408345995,0.8300864503910803,0.285187691450119,-0.3892460763454437,0.8758741021156311,0.06673826277256012,0.08071444928646088,-0.011794935911893845,-0.00038242340087890625,0.003915876150131226,-0.004688858985900879
339,2.8292355537874836,0.397052487560424,0.8303241544191858,0.2833958864212036,-0.3867018222808838,0.8775810599327087,0.012522304430603981,-0.028615713119506836,-0.004207095131278038,0.0035456418991088867,0.003141641616821289,-0.00023126602172851562
340,2.8318638387041073,0.39461212766763876,0.8288486334217143,0.28137513995170593,-0.38445016741752625,0.8792189359664917,0.04839245229959488,0.08150354027748108,-0.009731102734804153,-0.002673417329788208,0.0024159252643585205,-0.0010909438133239746
341,2.8352962846775065,0.38988036198219983,0.8283684523391318,0.27890098094940186,-0.3800777494907379,0.8819040656089783,0.07286505401134491,0.047331832349300385,-0.005661070346832275,-0.003891885280609131,-0.002414226531982422,0.0015949010848999023
342,2.8706082545719727,0.3832409910020837,0.8244747943062692,0.24826186895370483,-0.3739283084869385,0.8936126232147217,0.04637426882982254,0.4095192551612854,0.11239062249660492,0.022932574152946472,-0.006854742765426636,0.011233508586883545
343,2.9716346964068063,0.3878067186007728,0.7967842275501884,0.1565805971622467,-0.37815892696380615,0.9124023914337158,-0.0682574138045311,1.0526052713394165,0.3987652361392975,0.012471511960029602,-0.016036570072174072,0.01746809482574463
344,3.0623903460868034,0.39650191550697955,0.776324500650592,0.07298123091459274,-0.38619402050971985,0.9195258021354675,0.08124217391014099,1.039693832397461,0.1504116654396057,0.004136674106121063,0.000482410192489624,-0.01788407564163208
345,-3.128497894377913,0.3826867154883143,0.7602780825155363,-0.012147203087806702,-0.37341418862342834,0.9275854825973511,0.14984320104122162,1.0005381107330322,0.24108141660690308,0.021531354635953903,-0.01701253652572632,0.020092368125915527
346,-3.0306150347765235,0.37215749506421075,0.7348419922879464,-0.10316856950521469,-0.363626092672348,0.9258143901824951,0.03163635730743408,0.8380292057991028,0.31443363428115845,0.05705651640892029,-0.01235044002532959,0.027936160564422607
347,-2.905912566240181,0.3541518926742055,0.6814905056483808,-0.21901331841945648,-0.3467950224876404,0.91201251745224,0.19406752288341522,1.037835717201233,0.5525122284889221,0.0298348069190979,0.005288034677505493,0.002568960189819336
348,-2.8241162426063715,0.32527685456107747,0.6395101757459754,-0.29580068588256836,-0.3195711374282837,0.9002092480659485,0.13321399688720703,0.44966739416122437,0.3907252848148346,0.021356046199798584,-0.0029082000255584717,0.00767362117767334
349,-2.7991482863114454,0.3034530565317573,0.6133242481022024,-0.3204483389854431,-0.2988172769546509,0.8988998532295227,0.10509508103132248,-0.03433931991457939,0.22908802330493927,-0.002458125352859497,-0.005198836326599121,0.0051375627517700195
350,-2.8158475523186826,0.287361955671097,0.6031999245004483,-0.3068925142288208,-0.2834233343601227,0.9085637331008911,0.20965982973575592,-0.3171500861644745,0.05987004563212395,0.0062943994998931885,0.007727563381195068,-0.007105112075805664
351,-2.868289455474022,0.2571485001606832,0.6135883390272245,-0.26103848218917847,-0.2543238401412964,0.93122398853302,0.5361234545707703,-1.3751780986785889,-0.5407778024673462,-0.011941224336624146,-0.0020237863063812256,-0.051051318645477295
352,-3.116060636467653,0.22041416928367458,0.6573136167655927,-0.024911610409617424,-0.21863378584384918,0.9754887819290161,0.0831780955195427,-2.164128065109253,0.3484897315502167,0.029382433742284775,-0.05973224341869354,0.08057183027267456
353,2.852858442526172,0.2924622202038815,0.6361933444866924,0.2726481556892395,-0.2883107662200928,0.9178997278213501,-0.4797322452068329,-2.688933849334717,0.43598809838294983,-0.0742533802986145,0.07661029696464539,-0.0480419397354126
354,2.6427366054822903,0.3285206603054053,0.6033497054554541,0.45283567905426025,-0.3226431608200073,0.8311685919761658,-0.7738686203956604,-3.3732595443725586,0.9294422268867493,0.08093205094337463,-0.033893704414367676,0.12877702713012695
355,2.363332141466571,0.42460656211258535,0.5968123518076772,0.6397009491920471,-0.4119623005390167,0.6488986611366272,-0.6464295387268066,-2.4095253944396973,0.4090442955493927,0.017205119132995605,0.0485590398311615,0.04262953996658325
356,2.1628261518806697,0.4802726051860397,0.6018597824385382,0.7359325885772705,-0.46202096343040466,0.4949142634868622,-0.0917392298579216,-0.9976804852485657,0.21577396988868713,-0.04797476530075073,0.0153656005859375,0.050816357135772705
357,2.110652294336197,0.48786639065321036,0.5817767355229103,0.7577093839645386,-0.4687422513961792,0.4540451169013977,0.22525782883167267,0.13682301342487335,0.08530239760875702,-0.038837432861328125,-0.0009689629077911377,0.040827810764312744
358,2.1341536433977377,0.4876100012333433,0.5540829106024154,0.7469320893287659,-0.4685157835483551,0.47178947925567627,0.4639641046524048,0.20646297931671143,0.17461058497428894,-0.015547871589660645,0.03469321131706238,-0.07472530007362366
359,2.1963191815512273,0.45995159279262016,0.5149780565637322,0.7264087796211243,-0.44390472769737244,0.5246703624725342,0.4131755530834198,0.06175766885280609,0.09977899491786957,0.05766409635543823,-0.008396327495574951,-0.02250361442565918
360,2.2839426180660696,0.4359807974296859,0.4525765626211777,0.6855593919754028,-0.42229965329170227,0.593018651008606,0.9570940136909485,0.841072678565979,0.30091628432273865,0.07808184623718262,0.030209839344024658,-0.05555838346481323
361,2.367299218851246,0.41497090213656596,0.3673570301763343,0.6398677825927734,-0.4031633138656616,0.6542390584945679,0.4898814260959625,0.10556668043136597,0.4592399299144745,0.07030677795410156,-0.02629530429840088,0.03474104404449463
362,2.4050656077866184,0.4136450073899942,0.28298057646884817,0.6150674223899841,-0.40194958448410034,0.6783274412155151,0.47417736053466797,0.06439124792814255,0.5808122754096985,0.03727620840072632,-0.012677401304244995,0.05966371297836304
363,2.425543818386896,0.42608178475312264,0.20700525144627507,0.5977210998535156,-0.4133060872554779,0.6869556903839111,0.5278679132461548,0.19451044499874115,0.7735600471496582,0.00484853982925415,0.01422765851020813,-0.030827581882476807
364,2.4730499895346845,0.4242401562948483,0.11541585116952505,0.56489497423172,-0.4116284251213074,0.715161144733429,0.45197173953056335,0.06505424529314041,0.6067824363708496,-0.004012465476989746,-0.01435115933418274,0.017977774143218994
365,2.506164847593138,0.41798412343437497,0.04620705148154528,0.5424250364303589,-0.4059189558029175,0.7355303168296814,0.41740351915359497,0.01926714926958084,0.44391629099845886,-0.007329821586608887,0.005986154079437256,-0.0042528510093688965
366,2.5341905997392766,0.3991140807838554,-0.00041691776968292925,0.5258796215057373,-0.38860219717025757,0.7565972208976746,0.32269734144210815,0.2911824584007263,0.04129411280155182,-0.050385117530822754,0.0014713704586029053,0.04587787389755249
367,2.614327654657309,0.3485912934859483,0.009012381511192942,0.4729084372520447,-0.34157416224479675,0.8122100234031677,0.5625436305999756,1.7250863313674927,-0.8481956124305725,-0.1322101354598999,-0.006097376346588135,-0.0274350643157959
368,2.878072563533147,0.1451080424363478,0.12210104965770201,0.25774314999580383,-0.1445993334054947,0.9553321003913879,2.456021308898926,3.491037130355835,-2.7334587574005127,-0.19748619198799133,0.10602511465549469,-0.12905347347259521
369,3.120824163804957,-0.15744016626561033,0.32589362546264117,0.020510150119662285,0.15679055452346802,0.9874189496040344,1.9154260158538818,0.40470942854881287,-1.525251865386963,0.13970713317394257,-0.006583020091056824,0.13150811195373535
370,3.1099120746882516,-0.27318178606938837,0.38389591631198616,0.030500683933496475,0.26979658007621765,0.9624344110488892,1.0475481748580933,0.05691519007086754,-0.22872017323970795,0.17440959811210632,0.09470540285110474,0.17462027072906494
371,3.1146728048112746,-0.2999583182795914,0.37537704982955367,0.025714745745062828,0.2954804003238678,0.9550029039382935,-0.3721085786819458,0.08264735341072083,0.276796817779541,0.05410398542881012,-0.04097899794578552,0.14274513721466064
372,3.117568235444565,-0.2763417069529829,0.3578082940932173,0.023110702633857727,0.2728379964828491,0.9617821574211121,0.06644720584154129,0.17947226762771606,0.14596326649188995,0.003027595579624176,0.0058026909828186035,-0.07652848958969116
373,3.117156291183777,-0.28071982941396334,0.34815875125603946,0.023477498441934586,0.27704736590385437,0.9605695009231567,0.0171024389564991,0.08278631418943405,0.008107095956802368,-0.03708833456039429,0.03244668245315552,0.03383064270019531
374,3.1281578572125994,-0.2745162568125552,0.3533532385453618,0.012931362725794315,0.2710813283920288,0.9624696969985962,-0.19374728202819824,0.00799870677292347,0.03642916679382324,0.03885696828365326,-0.007882475852966309,0.004708766937255859
375,3.12710143841606,-0.26283837207465943,0.34343623424923675,0.013993045315146446,0.2598224878311157,0.9655550718307495,-0.14662639796733856,-0.02262928895652294,0.06972027570009232,-0.0014045462012290955,-0.014918923377990723,0.007269024848937988
376,3.1299355997682707,-0.2533001779657646,0.3371565983870546,0.011284828186035156,0.2506001889705658,0.9680247902870178,-0.11172066628932953,-0.10306967049837112,0.04273754730820656,0.0069951992481946945,-0.006276518106460571,-0.004646003246307373
377,3.1254894870270147,-0.24431973781477645,0.3259943206532303,0.01562426332384348,0.24189631640911102,0.9701764583587646,-0.08969096839427948,-0.007941357791423798,0.09126612544059753,-0.007460808381438255,-0.0025316625833511353,0.0034869909286499023
378,3.1180567049639416,-0.23533975335917834,0.31590312315804536,0.022885072976350784,0.23317338526248932,0.9721659421920776,-0.03631916642189026,-0.00219950033351779,0.06751993298530579,-0.008099304512143135,0.002361312508583069,-0.005643606185913086
379,3.116126036080299,-0.232300073057997,0.31263458337522504,0.02477988973259926,0.23021642863750458,0.9728238582611084,-0.002714909613132477,0.03879162669181824,0.021088864654302597,-0.003326037898659706,0.012627184391021729,0.001983821392059326
380,3.113570841344197,-0.22852082735489537,0.30656091618648584,0.02728974260389805,0.2265370488166809,0.9736201167106628,-0.05674184113740921,-0.016673266887664795,0.07065653055906296,-0.012793894857168198,0.004023253917694092,-0.003832578659057617
381,3.114153305358288,-0.22705408305787372,0.30598923538749073,0.026731733232736588,0.22510819137096405,0.9739671349525452,-0.04788826406002045,-0.017551962286233902,0.03608120605349541,0.009141683578491211,-0.016428962349891663,0.0020918846130371094
382,3.113514542239197,-0.2260890480830084,0.3039286927123943,0.027359938248991966,0.2241678237915039,0.974166214466095,0.008475672453641891,0.003272359725087881,-0.005030810832977295,-0.00039766542613506317,0.004713967442512512,0.0032200217247009277
383,3.1137997778335382,-0.2243749228578391,0.30194336149235673,0.027092712000012398,0.22249700129032135,0.9745568037033081,-0.02544684149324894,0.00835440494120121,0.08376156538724899,0.019599178805947304,-0.013970404863357544,0.0011969208717346191
384,3.111809920907632,-0.22290490620981424,0.2966949293831976,0.0290415957570076,0.22106358408927917,0.9748268723487854,-0.0064785415306687355,0.03682665526866913,0.029805807396769524,-0.003864595666527748,-0.004190430045127869,0.0150260329246521
385,3.110553964497938,-0.22168969286838544,0.2941672475277315,0.03027423471212387,0.21987827122211456,0.9750576615333557,0.048850975930690765,0.01852618344128132,-0.02701079100370407,-0.014069397002458572,0.008286431431770325,0.0031987428665161133
386,3.112776940211329,-0.22109146614328465,0.2952053268185234,0.028110414743423462,0.21929465234279633,0.9752538204193115,-0.03550400584936142,-0.0082504041492939,-0.015333326533436775,0.001461118459701538,0.004063531756401062,-0.0032535791397094727
387,3.1132900902954552,-0.2211967986686422,0.29515717453237855,0.027609309181571007,0.2193974256515503,0.9752451181411743,-0.0307585708796978,0.017517248168587685,0.05642083287239075,0.01816706731915474,-0.004050076007843018,0.015676140785217285
388,3.1140137949807585,-0.2197821262405396,0.2918840260510615,0.026912031695246696,0.21801699697971344,0.975573718547821,-0.032808512449264526,0.02514468878507614,0.07029186934232712,0.006901441141963005,0.002716630697250366,0.005276381969451904
389,3.1138656290555864,-0.219445563294109,0.28910837921408095,0.02705862745642662,0.21768851578235626,0.9756435751914978,0.030923306941986084,0.04803360253572464,-0.035197727382183075,-0.013005273416638374,0.014290928840637207,0.000949859619140625
390,3.1160723590005066,-0.2215405993798383,0.2914320890066256,0.024893883615732193,0.2197328358888626,0.9752426147460938,-0.0016242796555161476,0.021332019940018654,0.0011494336649775505,0.006188277155160904,-0.011282488703727722,0.0142289400100708
391,3.1165963192935835,-0.22187802760625366,0.28874317892557705,0.02438102476298809,0.2200620025396347,0.9751808643341064,0.011118115857243538,0.015714947134256363,0.04118720442056656,0.003298413008451462,-0.0006864368915557861,0.006187856197357178
392,3.1173687303121023,-0.2225133348140377,0.28768106576153984,0.023624392226338387,0.22068168222904205,0.9750596880912781,0.0038676792755723,0.012271098792552948,-0.016130752861499786,0.0016594193875789642,0.008749440312385559,0.0038220882415771484
393,3.1171879965651885,-0.2233872971066673,0.28786185131663583,0.023795897141098976,0.22153401374816895,0.9748620390892029,-0.011669051833450794,-0.0008424725383520126,-0.018853338435292244,-0.0036390461027622223,0.0017630457878112793,0.013937771320343018
394,3.1185270047393074,-0.22296899644920837,0.28774980411348355,0.02249266766011715,0.22112609446048737,0.9749857187271118,0.0006151702255010605,-0.009783228859305382,-0.006250500679016113,0.0019213929772377014,-0.0031848400831222534,-0.0019328594207763672
395,3.1190115004134067,-0.22385035628157557,0.2867292412436464,0.022015878930687904,0.22198554873466492,0.974801242351532,-0.027500661090016365,-0.008356350474059582,0.009830616414546967,0.0003840215504169464,0.0048363059759140015,0.014609038829803467
396,3.120321443897085,-0.22461629954635973,0.2852372641856121,0.02073531039059162,0.2227323204278946,0.974659264087677,-0.0072935959324240685,0.008539145812392235,0.05152890831232071,0.011155560612678528,-0.0003354400396347046,0.010020971298217773
397,3.122109938140839,-0.22535408305927498,0.28396108433058953,0.018988892436027527,0.22345151007175446,0.9745299816131592,0.036015089601278305,0.03439611569046974,0.0005552452057600021,-0.0009682662785053253,-0.0013140738010406494,-0.002682507038116455
398,3.1221317230367984,-0.22699953604630532,0.2829171392940973,0.018960488960146904,0.2250550538301468,0.9741618037223816,0.029958093538880348,0.031431492418050766,-0.018201282247900963,-0.013482581824064255,0.0015685409307479858,0.0037436485290527344
399,3.122623524136041,-0.2271347579688819,0.2815822156331165,0.018480807542800903,0.2251867949962616,0.9741401672363281,-0.026333006098866463,-0.012675724923610687,0.004613712430000305,-0.0067620594054460526,0.004839390516281128,0.008449375629425049
400,3.123740543785149,-0.22788508446787095,0.2819285863341808,0.01738964393734932,0.225917786359787,0.9739910960197449,0.04089342802762985,0.01472197100520134,-0.026409640908241272,-0.005304684862494469,0.004306778311729431,-0.0015332698822021484
401,3.1258935864762414,-0.22851647476204273,0.28265779775303246,0.015290319919586182,0.22653281688690186,0.9738836288452148,-0.04710843786597252,-0.021453995257616043,0.015211000107228756,0.010710658505558968,-0.0023811757564544678,0.009301304817199707
402,3.1268235416712797,-0.22911664346133984,0.282446920802939,0.014382637105882168,0.22711734473705292,0.9737614393234253,-0.001212114468216896,-0.005556387826800346,0.039907440543174744,0.018515314906835556,-0.009587988257408142,0.004266142845153809
403,3.132565501012066,-0.22775693267672495,0.2796871072308498,0.008793909102678299,0.22579295933246613,0.9741355180740356,-0.048869624733924866,0.2929927408695221,0.06758179515600204,0.009745517745614052,0.005316600203514099,0.059693098068237305
404,-3.111596944771985,-0.18908671767192675,0.27660582666810096,-0.029456662014126778,0.18796196579933167,0.9817346930503845,-0.5929698944091797,0.6255353689193726,-0.08873412013053894,-0.04157301038503647,0.0034290701150894165,0.0659797191619873
405,-3.0390230162741374,-0.11186072547552821,0.2900568636337418,-0.10174993425607681,0.11162758618593216,0.9885271191596985,-0.7543472647666931,0.6461345553398132,-0.18258193135261536,0.046070635318756104,0.028142891824245453,-0.03622627258300781
406,-2.9715131327610957,-0.04497892238502919,0.28558927013066043,-0.16908955574035645,0.04496375843882561,0.9845746755599976,-0.8157874941825867,0.5795611143112183,0.009124004282057285,0.02191852033138275,-0.0006064549088478088,0.05032229423522949
407,-2.906009054099231,0.041622939287400164,0.26305487851300957,-0.2332083284854889,-0.041610922664403915,0.9715360403060913,-0.9111269116401672,0.5661675333976746,0.04069261997938156,0.026283904910087585,0.026703085750341415,-0.020730435848236084
408,-2.8518577197133035,0.10972773279274321,0.23303993109329016,-0.2839799225330353,-0.10950767248868942,0.9525559544563293,-0.5554010272026062,0.3183954656124115,0.15513861179351807,0.02693045139312744,0.03592982888221741,-0.073772132396698
409,-2.819001071058215,0.12712768284272294,0.2027725399676065,-0.3144672214984894,-0.1267855316400528,0.940763533115387,-0.031100915744900703,0.32221055030822754,0.24970483779907227,0.005430936813354492,0.009201288223266602,-0.024991989135742188
410,-2.778033121956537,0.13915742334696352,0.17758177965609023,-0.35216572880744934,-0.13870872557163239,0.9256017804145813,-0.31885185837745667,0.4557196795940399,-0.006734700873494148,-0.010306715965270996,0.004141509532928467,0.07514560222625732
411,-2.721845890154617,0.19056436331159732,0.15927163355889998,-0.4001520276069641,-0.18941307067871094,0.8966613411903381,-0.6810545325279236,0.4339127242565155,-0.07246212661266327,0.027318686246871948,0.028264954686164856,0.009039640426635742
412,-2.6805123902266885,0.23126114590220648,0.13519079229048545,-0.43307146430015564,-0.22920528054237366,0.8717308640480042,-0.28486305475234985,0.282500684261322,0.12834888696670532,0.022472620010375977,0.004061788320541382,-0.02968961000442505
413,-2.6614335745418547,0.24247271582149524,0.11778420324168602,-0.44840770959854126,-0.24010373651981354,0.8609763383865356,-0.018974456936120987,-0.015521779656410217,0.12564034759998322,0.0363900363445282,0.008597448468208313,-0.05787593126296997
414,-2.6628749985841753,0.22415746543565737,0.10482853074991497,-0.44911694526672363,-0.22228498756885529,0.865380585193634,0.060486942529678345,-0.06425688415765762,0.15517669916152954,-0.01218673586845398,-0.009618088603019714,0.029806852340698242
415,-2.658898163172516,0.2237897019603471,0.09043742126619943,-0.4525927007198334,-0.22192640602588654,0.8636598587036133,-0.23268581926822662,-0.046469468623399734,0.05601157620549202,0.0024584829807281494,0.0072657763957977295,0.03587621450424194
416,-2.6705643846099067,0.2314205161824244,0.07499429016609911,-0.44170525670051575,-0.2293604016304016,0.867347002029419,0.03724564239382744,-0.2252911925315857,0.18060007691383362,0.03681322932243347,0.015462666749954224,-0.06442928314208984
417,-2.6900860937389517,0.2043389976870395,0.06926448903076421,-0.4272441267967224,-0.20291996002197266,0.8810709714889526,0.21916644275188446,-0.13707637786865234,0.09237673878669739,-0.04368788003921509,-0.0028600841760635376,0.022890210151672363
418,-2.6970802828590994,0.199433015358453,0.07388503933171905,-0.42149442434310913,-0.19811362028121948,0.884925901889801,-0.10351931303739548,-0.02784252166748047,-0.02142968401312828,-0.00027382373809814453,-0.0017460435628890991,0.0533066987991333
419,-2.6972715781579315,0.2104391130643065,0.07252263002827582,-0.4203622043132782,-0.20888935029506683,0.8829838633537292,-0.11079426109790802,0.03921172022819519,-0.022196482867002487,0.0038889050483703613,0.002621084451675415,-0.00487130880355835
420,-2.6940465193692567,0.2193410980822123,0.07067351006882217,-0.42238637804985046,-0.21758656203746796,0.8799126744270325,-0.07786065340042114,0.016292231157422066,-0.01666254736483097,0.0010758936405181885,0.0014762729406356812,-0.011168599128723145
421,-2.688011328651996,0.23300649229791473,0.07117984034259457,-0.42634621262550354,-0.23090380430221558,0.8745927214622498,-0.19894130527973175,0.08942557126283646,-0.08765587955713272,-4.5359134674072266e-05,0.007606685161590576,0.02567589282989502
422,-2.681193834486469,0.2511453028704436,0.06909021077682387,-0.4303668439388275,-0.24851348996162415,0.8677703142166138,-0.18630509078502655,0.002938863355666399,-0.07630608975887299,0.005913138389587402,0.01104097068309784,-0.023883044719696045
423,-2.675731802708896,0.2640689072550613,0.06794172072898351,-0.4336213171482086,-0.2610105574131012,0.8624652028083801,-0.042640216648578644,0.0970735102891922,-0.004262492060661316,0.028424113988876343,-0.003943085670471191,0.00019049644470214844
424,-2.6679650596078703,0.2746977705559934,0.06212084906642451,-0.4390164315700531,-0.27125605940818787,0.8565539717674255,-0.15101265907287598,0.04659608006477356,-0.029189640656113625,0.005346417427062988,-0.007659345865249634,0.0057201385498046875
425,-2.6742978553828847,0.29423932852217577,0.05703808152842283,-0.43111279606819153,-0.2900119423866272,0.8544207215309143,-0.16271205246448517,-0.08193228393793106,-0.042346756905317307,-0.006982237100601196,-0.013500601053237915,0.004038691520690918
426,-2.6758251000387747,0.2970423657159722,0.05337642191353073,-0.4294406771659851,-0.2926933765411377,0.8543485999107361,-0.02218567207455635,-0.03598887845873833,0.06224086508154869,0.01040378212928772,-0.014618635177612305,0.010595917701721191
427,-2.683345431573597,0.2904773418240309,0.052641397264177346,-0.4238445460796356,-0.2864096164703369,0.8592588305473328,0.19313286244869232,-0.02350396290421486,0.09761814028024673,0.019044041633605957,-0.013318866491317749,-0.017400801181793213
428,-2.6927694998074077,0.2775096113963807,0.05146300617212323,-0.41730451583862305,-0.2739613950252533,0.8664880990982056,0.14207792282104492,-0.03616275638341904,0.06891558319330215,0.00020560622215270996,-0.008753389120101929,0.009503543376922607
429,-2.702827804600988,0.269074648259381,0.05274577938293986,-0.4095354676246643,-0.26583948731422424,0.8727028965950012,0.083003468811512,-0.09425319731235504,0.02476802095770836,-0.003916740417480469,-0.012587666511535645,0.009423017501831055
430,-2.7098802697532944,0.2643790915414545,0.055328905850282224,-0.40388840436935425,-0.26130998134613037,0.8766932487487793,0.03574598580598831,-0.06369397789239883,-0.013135761022567749,0.000552833080291748,-0.003338456153869629,0.011627554893493652
431,-2.724115313576197,0.2616238789540193,0.06174148866110742,-0.3916585445404053,-0.2586494982242584,0.8830083608627319,0.1058812364935875,-0.17900606989860535,-0.055254943668842316,0.002147465944290161,0.001157522201538086,-0.01487499475479126
432,-2.7460936707482304,0.2546052081035306,0.07620886042424735,-0.37284860014915466,-0.25186336040496826,0.8930555582046509,0.08122016489505768,-0.30127596855163574,-0.13538475334644318,0.009094446897506714,-0.014677077531814575,0.0061751604080200195
433,-2.786024842877285,0.25450203142719374,0.09749098351285168,-0.33690935373306274,-0.2517635226249695,0.907252848148346,0.19378462433815002,-0.5975794792175293,-0.5109538435935974,0.0029096901416778564,0.026833683252334595,-0.012675642967224121
434,-2.8548088210551286,0.2550308856308639,0.12854353027000556,-0.2737196385860443,-0.252275288105011,0.928135097026825,0.09910603612661362,-0.8281605243682861,-0.3172690272331238,0.0004957914352416992,0.010255664587020874,-0.04147738218307495
435,-2.96044655338664,0.255931223325866,0.16904446598732975,-0.17428894340991974,-0.2531464099884033,0.9515986442565918,0.1607256531715393,-0.6914699673652649,-0.2467784434556961,-0.014416486024856567,-0.013271987438201904,0.022873222827911377
436,-3.0521438705346724,0.2764709736589979,0.2140101260517947,-0.08593721687793732,-0.2729623317718506,0.9581784605979919,-0.47930094599723816,-0.47773829102516174,-0.25490909814834595,-0.02960231900215149,-0.02153223752975464,0.06898194551467896
437,-3.124170409130618,0.33225508176078605,0.2611295647470268,-0.016468573361635208,-0.32617560029029846,0.9451656937599182,-0.5109997391700745,-0.5610091686248779,-0.44852808117866516,-0.006999442353844643,0.0031165778636932373,-0.02562534809112549
438,3.120978136734853,0.34828959985638186,0.30112907671469186,0.019375404343008995,-0.34129059314727783,0.9397581219673157,-0.06401865929365158,-0.31894344091415405,-0.4876399338245392,-0.026775918900966644,0.00576511025428772,0.005584895610809326
439,3.0932406364568696,0.38943215017790717,0.33426329477002525,0.044714223593473434,-0.3796631395816803,0.924043595790863,-0.7667637467384338,-0.1929551064968109,-0.3746144771575928,0.0060517676174640656,0.015054374933242798,0.06515312194824219
440,3.0592197593935846,0.4721761791723279,0.3669549645273114,0.07327677309513092,-0.45482543110847473,0.8875609040260315,-0.6221615672111511,-0.24683688580989838,-0.22269652783870697,0.008266188204288483,0.02510744333267212,-0.021899282932281494
441,3.0324215413220683,0.512654434642026,0.386480866761742,0.09494784474372864,-0.49049216508865356,0.866257905960083,-0.1864863932132721,-0.04208999499678612,-0.00022639334201812744,-0.002952583134174347,-0.010270893573760986,-0.02697855234146118
442,3.021923091696566,0.5174349791152912,0.39374639856692367,0.10375567525625229,-0.49465253949165344,0.8628753423690796,-0.004513034597039223,-0.02561587654054165,-0.0015789736062288284,0.009540833532810211,-0.006110429763793945,-0.008733987808227539
443,3.0196283033328246,0.5141742069749441,0.3889587880656627,0.10593121498823166,-0.4918160140514374,0.864231526851654,0.09171616286039352,-0.04994417354464531,0.007872088812291622,-0.004109293222427368,0.0016730725765228271,-0.012500941753387451
444,3.02070028845195,0.5088047610250909,0.3836925682050032,0.10532166808843613,-0.48713377118110657,0.8669536113739014,0.0029208087362349033,-0.02507111430168152,-0.015420790761709213,-0.000432722270488739,-7.94827938079834e-05,0.013875424861907959
445,3.02337020872506,0.5051107450517849,0.3789762877209181,0.10321813076734543,-0.4839043617248535,0.8690126538276672,0.04170583561062813,-0.03212356939911842,-0.05297250300645828,-0.007209807634353638,0.0017265081405639648,0.0040343403816223145
446,3.0242623949939444,0.5016795935377272,0.37555584523768876,0.10263652354478836,-0.4808988571166992,0.8707482218742371,0.08363835513591766,-0.004795589484274387,-0.009557921439409256,-0.013677775859832764,0.010744988918304443,-0.012441158294677734
447,3.0297624881697347,0.4901686502337989,0.3705905867207843,0.09845703840255737,-0.47077468037605286,0.8767424821853638,0.126772940158844,0.062190569937229156,0.0573488287627697,0.003746330738067627,-0.010975778102874756,0.009457409381866455
448,3.0334261847971464,0.47894261628842105,0.364556274564424,0.09580878913402557,-0.46084102988243103,0.8822959661483765,0.18913623690605164,-0.020432371646165848,0.10708248615264893,0.009965136647224426,-0.00015750527381896973,-0.006197333335876465
449,3.0362991970501776,0.46245229696695594,0.3526847890171943,0.0940595269203186,-0.446144163608551,0.8900046348571777,0.22941972315311432,0.0011722089257091284,0.09600480645895004,0.011210858821868896,-0.020790070295333862,-0.0032858848571777344
450,3.0360709399736154,0.4395528399452126,0.3455198455329221,0.09531393647193909,-0.42553484439849854,0.8999086618423462,0.29858580231666565,-0.1386776864528656,0.027782602235674858,0.006813153624534607,-0.00471729040145874,-0.00888681411743164
451,3.0284737992558894,0.412987647125289,0.34081034052163,0.10338769853115082,-0.4013475775718689,0.9100723266601562,0.11496293544769287,-0.16965514421463013,-0.02671952173113823,-0.004953227937221527,-0.015171676874160767,0.03302788734436035
452,3.0204531017380507,0.39688228218602534,0.3370459839049029,0.1114504337310791,-0.3865448534488678,0.9155121445655823,0.2916555106639862,0.04115419089794159,0.06995060294866562,0.013351231813430786,0.017800867557525635,-0.0058286190032958984
453,3.049198939535598,0.36468317913389353,0.31107090751534855,0.08619488775730133,-0.3566533327102661,0.9302524328231812,0.4943861961364746,0.4949380159378052,0.3949970304965973,-0.00013528764247894287,-0.020895004272460938,0.00836181640625
454,3.101531170430155,0.3139829114324178,0.2792018009075405,0.0380927212536335,-0.3088492751121521,0.9503477215766907,0.4031096398830414,0.08861991763114929,0.057097576558589935,0.010201338678598404,0.004726380109786987,-0.001556396484375
455,3.1167468652009083,0.26416269437424,0.26771984053020315,0.023981450125575066,-0.261101096868515,0.9650132656097412,0.6320996284484863,0.11836303025484085,-0.008241862058639526,0.010671256110072136,0.005226552486419678,-0.0016651153564453125
456,3.128680476893304,0.1874957557113347,0.2694330936718658,0.012685524299740791,-0.18639913201332092,0.9823920130729675,0.5129562616348267,0.013453210704028606,0.01272132620215416,0.01420046016573906,0.014814063906669617,0.015181660652160645
457,3.115493244275403,0.16611170615878124,0.264363197337541,0.025737231597304344,-0.1653488427400589,0.9858992099761963,0.05209385231137276,-0.13843503594398499,0.09679652005434036,-0.020076222717761993,0.006474345922470093,-0.0007460713386535645
458,3.1139470382325007,0.16038101773809185,0.25715968687130486,0.027287352830171585,-0.1596943438053131,0.9867894649505615,0.021904833614826202,-0.07626141607761383,-0.060072798281908035,-0.021931514143943787,0.0014606863260269165,0.04472005367279053
459,3.0995326614893717,0.15468207554812752,0.2662616184500823,0.041545569896698,-0.15406598150730133,0.9871867895126343,0.06516673415899277,-0.11649482697248459,-0.016196534037590027,0.017765343189239502,-0.004778012633323669,0.011943459510803223
460,3.0717779358332025,0.15212243827657107,0.2743369503416794,0.06895243376493454,-0.15153640508651733,0.9860437512397766,-0.04554469883441925,-0.265606552362442,0.0066713858395814896,0.01480305939912796,-0.009581148624420166,0.007318615913391113
461,3.045169278224917,0.15239932267302284,0.27851132491616226,0.0951581820845604,-0.15181007981300354,0.9838184118270874,0.04941181093454361,-0.22264567017555237,-0.07836969941854477,0.0013841763138771057,0.00483742356300354,-0.00031316280364990234
462,3.030428629863541,0.14278389977969416,0.2827685151231075,0.10980630666017532,-0.14229923486709595,0.9837141633033752,0.1922256499528885,-0.14313825964927673,-0.06636036932468414,0.01285911351442337,0.007640406489372253,-0.01914501190185547
463,3.0116169290548007,0.11317327606372692,0.28359081046355294,0.12878094613552094,-0.11293184012174606,0.9852219223976135,0.33364957571029663,-0.084874726831913,0.06028260290622711,0.009295850992202759,-0.0062240660190582275,0.0152970552444458
464,3.007786735601958,0.08729324004607993,0.27615299200815524,0.13289903104305267,-0.08718241751194,0.987287700176239,0.17628847062587738,-0.02290324494242668,0.06587375700473785,0.005086183547973633,0.004952810704708099,0.013581991195678711
465,3.0144453492380867,0.06884362369154931,0.26728184252450815,0.12650461494922638,-0.06878925859928131,0.9895779490470886,0.24407213926315308,0.05097435042262077,0.010863160714507103,0.00937490165233612,0.005327947437763214,0.0032961368560791016
466,3.016147109708556,0.053343350650787595,0.2648158964983242,0.12493880093097687,-0.05331805720925331,0.9907306432723999,0.14111177623271942,0.0048594349063932896,-0.005254784598946571,0.011200100183486938,0.008640330284833908,-0.0007405281066894531
467,3.017320505362856,0.043032134665769106,0.26252653363258127,0.12383780628442764,-0.04301885515451431,0.9913697838783264,0.044179558753967285,0.03887766972184181,0.05260227620601654,0.011873871088027954,0.0005689002573490143,0.02761232852935791
468,3.020582661037559,0.04371243546370004,0.2595030911677362,0.12059958279132843,-0.0436985157430172,0.9917390942573547,0.0071008820086717606,0.081767737865448,0.03190852329134941,-0.0030153319239616394,0.001996241509914398,0.008077859878540039
469,3.025768990604189,0.04069002194440596,0.2570409163629627,0.11546923965215683,-0.04067879542708397,0.9924779534339905,0.078905388712883,0.05093371868133545,0.008185922168195248,0.007989659905433655,0.007536694407463074,0.0010372400283813477
470,3.0249899571813144,0.036916791555104266,0.25546831407818027,0.1162593811750412,-0.036908406764268875,0.9925329089164734,-0.008603508584201336,-0.0007422240450978279,0.04502318799495697,0.008984744548797607,5.8434903621673584e-05,0.01590520143508911
471,3.025354242974553,0.03672559398221846,0.25170972942872055,0.11589866131544113,-0.03671734035015106,0.9925824403762817,0.07414817065000534,0.03600345551967621,0.01877705007791519,0.000800594687461853,0.013615522533655167,-0.0024088621139526367
472,3.024231426388716,0.033990488185566416,0.2510860517934529,0.11702437698841095,-0.03398394212126732,0.9925475716590881,0.03889360651373863,0.058725886046886444,-0.03353805094957352,-0.004795968532562256,0.004030939191579819,0.0025697946548461914
473,3.0265066356808448,0.031038075652127795,0.2511118184021215,0.11477682739496231,-0.031033093109726906,0.9929064512252808,0.03761812299489975,0.0024055493995547295,-0.03485315665602684,0.0009916052222251892,-0.0014986451715230942,0.004499554634094238
474,3.029012145265131,0.028488857989916773,0.24871366729480876,0.11229728162288666,-0.028485003858804703,0.9932665228843689,-0.00964111927896738,-0.005065049510449171,0.05192644149065018,0.003577984869480133,0.0008055549114942551,0.00888514518737793
475,3.0330601545197284,0.025717971718808554,0.2414790831670249,0.10828369855880737,-0.025715136900544167,0.9937870502471924,0.03573528677225113,0.10659468919038773,0.07376965135335922,-0.013999678194522858,0.005024230107665062,0.016374945640563965
476,3.059780500742012,0.02385078478172881,0.22655107443516964,0.08169768750667572,-0.023848524317145348,0.996371865272522,0.035968586802482605,0.5013930797576904,0.2706705331802368,0.0002877861261367798,0.0028676874935626984,0.008938193321228027
477,3.116337565183179,0.014403469627943893,0.19747696997534658,0.0252497848123312,-0.014402971602976322,0.9995774626731873,0.1162244975566864,0.5780372619628906,0.27749761939048767,-0.0063288863748312,0.00033436715602874756,0.01081383228302002
478,-3.110650181869937,0.001931445646872221,0.17360626839305396,-0.03093748725950718,-0.0019314443925395608,0.9995198249816895,0.001956544816493988,0.3590172529220581,0.21597906947135925,0.027885718271136284,-0.008383497595787048,0.007194399833679199
479,-3.0678260851974732,-0.007263890451965512,0.14713233096700154,-0.0736977607011795,0.007263826671987772,0.9972544312477112,0.061432983726263046,0.39799460768699646,0.2238759845495224,0.010450072586536407,-0.0034796446561813354,0.022688984870910645
480,-3.042581160644295,-0.008752079192013939,0.13085201664772472,-0.09884602576494217,0.008751967921853065,0.995064377784729,0.014674457721412182,0.12930570542812347,0.09898613393306732,0.009765200316905975,0.013571641407907009,-0.015327930450439453
481,-3.034990012854926,-0.019377650585816905,0.12425103352742227,-0.1063808724284172,0.019376438111066818,0.9941366314888,0.17093701660633087,0.024243850260972977,0.12722477316856384,0.028988294303417206,0.006883937865495682,-0.026302218437194824
482,-3.0548976713706737,-0.045874505066617444,0.12222388658759249,-0.08649532496929169,0.045858416706323624,0.9951961636543274,0.3969458043575287,-0.5273245573043823,-0.10233796387910843,-0.004492826759815216,0.015024147927761078,-0.07831090688705444
483,-3.128220070724612,-0.13454076105459475,0.1430379726823528,-0.01325133815407753,0.13413523137569427,0.9908742308616638,1.4257978200912476,-0.8050968050956726,-0.2495633214712143,-0.02526184171438217,0.009984001517295837,-0.12094038724899292
484,3.106960861400172,-0.24076442624760924,0.17154992538471667,0.033626142889261246,0.23844507336616516,0.9705734252929688,0.2853076159954071,-0.22669310867786407,-0.3153410851955414,0.011249955743551254,-0.013957798480987549,0.29216742515563965
