,attitude.roll,attitude.pitch,attitude.yaw,gravity.x,gravity.y,gravity.z,rotationRate.x,rotationRate.y,rotationRate.z,userAcceleration.x,userAcceleration.y,userAcceleration.z
0,-0.45027339976731556,0.0956840066340393,-1.6473247526876964,-0.4332209527492523,-0.09553807228803635,-0.8962098360061646,-0.40977615118026733,0.44183939695358276,1.591902732849121,-0.02495470643043518,0.23268406093120575,0.14167797565460205
1,-0.006110879675516293,0.2925454133303068,-2.037479824550433,-0.005851209629327059,-0.2883904278278351,-0.9574950337409973,-0.16708099842071533,0.2620241641998291,0.11695967614650726,0.07390540838241577,0.12753227353096008,0.047659218311309814
2,-0.0021166936860620164,0.17802259316933777,-2.0191966120299205,-0.0020832393784075975,-0.17708376049995422,-0.9841935634613037,-1.1565351486206055,-0.26958906650543213,0.08442288637161255,0.07341808080673218,0.06433656811714172,0.05944991111755371
3,-0.059557747261371745,0.14503601530271548,-2.0264465373559237,-0.05889759957790375,-0.14452806115150452,-0.9877462983131409,-0.2689756155014038,-0.5451895594596863,-0.2546636164188385,0.008558854460716248,0.011868149042129517,-0.03926175832748413
4,-0.2069893440345997,0.10153221318394787,-2.0877687459636065,-0.20445604622364044,-0.1013578549027443,-0.9736140370368958,-0.03343585878610611,-1.8185598850250244,-0.8788671493530273,0.12955066561698914,0.05967085063457489,-0.015765845775604248
5,-0.33058013078028187,0.10411540683341167,-2.1591303757460167,-0.3228341042995453,-0.10392740368843079,-0.9407323002815247,-0.7835431098937988,-1.5582250356674194,-0.28901687264442444,0.03566369414329529,-0.050766199827194214,0.007306396961212158
6,-0.40883372192813544,0.16199964747184675,-2.274957911564785,-0.39233434200286865,-0.16129198670387268,-0.905570924282074,0.5493817925453186,-1.0541354417800903,-2.266045093536377,0.13729897141456604,0.13722889125347137,-0.19092565774917603
7,-0.41917961629914363,0.15909674222276088,-2.335248215047406,-0.401870995759964,-0.1584264189004898,-0.9018872976303101,-0.6935139298439026,0.8478346467018127,1.0981767177581787,0.7250369191169739,-0.03546701371669769,0.13858169317245483
8,-0.24996605349805834,0.12128397602135628,-2.2494804455431803,-0.2455539107322693,-0.12098684906959534,-0.9618032574653625,0.03406994789838791,1.990729808807373,0.9478715062141418,-0.03272061049938202,0.12135306745767593,-0.02075594663619995
9,-0.04481206336466888,0.0737160362027816,-2.2151690775783908,-0.04467540606856346,-0.07364929467439651,-0.9962830543518066,-0.1412532925605774,1.7142047882080078,0.11259232461452484,-0.44690173864364624,0.17165648937225342,-0.20180654525756836
10,0.033947622472189576,-0.009265446661048587,-2.1900347456940934,0.03393964469432831,0.009265313856303692,-0.9993809461593628,-0.07892204076051712,1.7895663976669312,-0.308226078748703,0.11017961800098419,-0.07490862160921097,-0.3014308214187622
11,0.09955307487260259,-0.1158210520372375,-2.1941890582372,0.09872283041477203,0.11556227505207062,-0.98838210105896,0.17332741618156433,-0.045831259340047836,-0.9622612595558167,-0.19117584824562073,-0.22341139614582062,-0.03417038917541504
12,0.10033256142386972,-0.09712638219870073,-2.218454465552106,0.09969223290681839,0.09697374701499939,-0.9902815222740173,0.7097973227500916,-0.07844876497983932,-0.16489456593990326,0.11634169518947601,-0.11928210407495499,0.05998373031616211
13,0.0879708815233468,-0.044835245353575824,-2.216112308989454,0.08776916563510895,0.04482022672891617,-0.9951320290565491,-0.062023889273405075,0.035525526851415634,0.2351682186126709,-0.015350952744483948,0.011072717607021332,-0.2891086935997009
14,0.08813428015626722,-0.04528413146544969,-2.1852410205195794,0.08792999386787415,0.04526865482330322,-0.9950975179672241,-0.011073417030274868,0.06588114798069,0.42245545983314514,-0.010171204805374146,-0.0016895532608032227,-0.001804947853088379
15,0.08415707942857827,-0.03419895527555393,-2.102574580635955,0.08400862663984299,0.0341922901570797,-0.9958782196044922,-0.014473913237452507,-0.3418121933937073,-0.07585907727479935,-0.1747526377439499,0.082842618227005,-0.013719558715820312
16,0.039945105985660104,-0.02342944140567542,-2.04778841635695,0.039923522621393204,0.023427298292517662,-0.9989280700683594,0.24071919918060303,-1.226509690284729,0.8211731910705566,-0.0668095126748085,-0.10770158469676971,0.058483123779296875
17,-0.004425890041881902,-0.021200450579206456,-2.0141426267214264,-0.004424881190061569,0.02119886316359043,-0.9997655153274536,0.05711276829242706,-0.0340714231133461,0.5450334548950195,-0.01882951334118843,-0.004673592746257782,0.03356373310089111
18,-0.0045180127972893865,0.021148537620139716,-1.9854066590312707,-0.004516987130045891,-0.02114696055650711,-0.9997661709785461,0.3088931739330292,1.3885102272033691,-0.057971980422735214,-0.00958213396370411,0.05544871836900711,0.33335381746292114
19,-0.008045204759772473,0.02025313970409145,-1.987001179238745,-0.008043467998504639,-0.02025175467133522,-0.9997625350952148,-0.016248345375061035,-0.04110592603683472,0.00011432799510657787,0.005006969906389713,0.0010409411042928696,-0.02153867483139038
20,-0.008001909657224672,0.02016553262953642,-1.9870152269208814,-0.008000196889042854,-0.020164165645837784,-0.9997646808624268,-0.0022076405584812164,0.001252892892807722,0.0012445661704987288,0.008442701771855354,0.011817608028650284,-0.004965543746948242
21,-0.00709608390131611,0.01940535636174947,-1.9870271185125132,-0.00709468824788928,-0.01940413936972618,-0.9997865557670593,-0.0019256854429841042,-0.004465683363378048,0.0008548467885702848,0.007918663322925568,0.002726281061768532,0.008148372173309326
22,-0.006576584534470568,0.01905196072019462,-1.9870439867358105,-0.006575343664735556,-0.019050808623433113,-0.9997968673706055,0.0005411552265286446,-0.0012843306176364422,0.0013916506431996822,0.001570461317896843,0.0037767626345157623,-0.017140328884124756
23,-0.005922762741189527,0.01844205551676142,-1.9870813159004996,-0.005921720992773771,-0.018441010266542435,-0.9998124241828918,-0.0004155673086643219,0.004472358152270317,-0.00016469485126435757,0.011048674583435059,0.009774018079042435,-8.07642936706543e-05
24,-0.005238502208281392,0.017880805622401356,-1.9870786837147896,-0.00523764081299305,-0.017879853025078773,-0.9998264312744141,-0.0005966946482658386,0.001708026509732008,0.0012943672481924295,0.0015297550708055496,0.0015987250953912735,0.0011844635009765625
25,-0.0049539064486188306,0.01768326236408439,-1.9870545099513632,-0.0049531115218997,-0.017682339996099472,-0.9998313784599304,0.0033331122249364853,-0.0006408216431736946,-0.0009703210089355707,0.0042664664797484875,0.0031559746712446213,-0.005387067794799805
26,-0.004316942721229047,0.017176727854727392,-1.98704893662756,-0.004316292703151703,-0.017175883054733276,-0.999843180179596,-0.002529105171561241,0.001559126190841198,0.001049680169671774,0.007657967507839203,0.007639139890670776,0.00022464990615844727
27,-0.003931196682360757,0.016732538300789877,-1.9870665232555447,-0.003930636215955019,-0.016731757670640945,-0.9998522996902466,-0.001504608429968357,-0.0014639929868280888,-0.0011698701418936253,-3.6648940294981e-05,0.0009541697800159454,-0.005320429801940918
28,-0.0036614740595940568,0.016668811135912755,-1.9871085392305665,-0.0036609573289752007,-0.016668038442730904,-0.9998543858528137,-0.0007790466770529747,0.001433646772056818,0.002028199378401041,0.006789009086787701,0.0035912562161684036,-0.004524886608123779
29,-0.003120515142772456,0.01616486541639481,-1.9871532205008087,-0.0031201024539768696,-0.016164161264896393,-0.9998644590377808,-0.0005735699087381363,0.0010591773316264153,-0.0005867164582014084,0.0022961280774325132,0.007573464885354042,0.0014056563377380371
30,-0.0029658140870971266,0.015895668708003567,-1.9871858753918807,-0.002965435152873397,-0.015894999727606773,-0.9998692870140076,-0.0005790852010250092,0.0002839653752744198,-0.0010104067623615265,0.0009665340185165405,-0.0011643264442682266,-0.004006445407867432
31,-0.0026750361709571165,0.01583937673023681,-1.9871714431873349,-0.002674697432667017,-0.015838714316487312,-0.9998709559440613,-0.002046634443104267,0.002389786299318075,0.0004585455171763897,0.004337905906140804,0.0028534866869449615,-0.0029671192169189453
32,-0.002344276932901442,0.015415131401500835,-1.9871704254349178,-0.0023439961951225996,-0.015414521098136902,-0.999878466129303,-0.0004694601520895958,0.003326832316815853,-0.0014764006482437253,0.0005282005295157433,0.005679413676261902,-0.0013727545738220215
33,-0.0021017750172919016,0.01521726382667534,-1.9871648835001094,-0.0021015300881117582,-0.015216676518321037,-0.9998819828033447,0.0012118872255086899,0.0007232273928821087,-5.2740564569830894e-05,0.0030933513771742582,-0.001323849894106388,-0.003932654857635498
34,-0.0018355598365184668,0.01516937604377875,-1.9871871290039367,-0.00183534761890769,-0.015168794430792332,-0.999883234500885,1.7328187823295593e-05,0.0005422723479568958,-6.400048732757568e-06,0.0016369834775105119,0.0029159877449274063,-0.0016425848007202148
35,-0.0017447446831910796,0.014761493627935461,-1.9872185723645255,-0.001744553679600358,-0.014760957099497318,-0.9998895525932312,-0.0003947308287024498,-0.0016693747602403164,-0.0011160904541611671,0.0011952370405197144,0.004049288108944893,-0.0019415020942687988
36,-0.001542886888752397,0.014751534186417775,-1.987244985979314,-0.0015427183825522661,-0.01475099939852953,-0.9998900294303894,5.027279257774353e-06,0.0011937492527067661,-0.002430344233289361,0.0030228211544454098,-0.0028271256014704704,-0.0034821629524230957
37,-0.0014008735851143673,0.014712464013188448,-1.9872998846861287,-0.0014007214922457933,-0.014711933210492134,-0.9998908042907715,-0.0011876607313752174,0.0008587446063756943,0.000222525792196393,-0.000720249954611063,0.003557758405804634,-0.0022149085998535156
38,-0.001222914001999405,0.014405650623009858,-1.9872512864495233,-0.0012227868428453803,-0.014405152760446072,-0.9998955130577087,-0.0019485903903841972,-0.0008817431516945362,0.0004069460555911064,0.003038582857698202,0.002091309055685997,-0.0023933053016662598
39,-0.0010060721192344192,0.014425676508932752,-1.9872530566091346,-0.0010059672640636563,-0.014425176195800304,-0.999895453453064,0.003634039778262377,0.002358230296522379,0.0015833331272006035,-0.0005199117586016655,-0.0029851021245121956,-0.003644585609436035
40,-0.0010214067554361733,0.014272337663370693,-1.987290686950521,-0.0010213025379925966,-0.014271853491663933,-0.9998976588249207,-5.7184137403964996e-05,-0.0018148883245885372,-0.0007146724965423346,0.0014027724973857403,0.004719851538538933,-0.0013840794563293457
41,-0.0008312314007215537,0.014134969607887819,-1.9872843644470317,-0.0008311482961289585,-0.014134499244391918,-0.9998997449874878,0.0005815126933157444,0.001813726034015417,-0.0021716321352869272,0.002402803860604763,-0.0005444558337330818,-0.0029688477516174316
42,-0.0008016205870892484,0.014207561973671703,-1.9872828793155495,-0.0008015395724214613,-0.014207083731889725,-0.9998987317085266,-0.0001245979219675064,0.002337600104510784,-0.0008958308026194572,-0.0033793686889111996,-0.0006244583055377007,-0.0036412477493286133
43,-0.0007698355455993978,0.01414109417365029,-1.9872439656324548,-0.0007697584806010127,-0.014140622690320015,-0.9998997449874878,-0.0003666970878839493,0.001286716666072607,0.0014557570684701204,0.0023261550813913345,0.0025897203013300896,-0.002633213996887207
44,-0.000585189963077485,0.014000534919927242,-1.9872213652712232,-0.000585132569540292,-0.014000077731907368,-0.9999018311500549,-0.00395740382373333,0.00036364514380693436,0.0006883894093334675,0.00024943891912698746,-0.0005720658227801323,-0.0029668211936950684
45,-0.0006393445264512835,0.014046428091499898,-1.987220932941804,-0.0006392814102582633,-0.014045965857803822,-0.9999011754989624,-0.00014859437942504883,0.0003829915076494217,-1.576053909957409e-05,-0.0006119394674897194,-0.00031255465000867844,-0.0030285120010375977
46,-0.0005325731637127037,0.013961039610022234,-1.9872387999714578,-0.000532521225977689,-0.013960585929453373,-0.9999024271965027,-0.0009006354957818985,-0.0039017582312226295,0.0007437227759510279,0.0030502215959131718,0.002028212882578373,-0.0027373433113098145
47,-0.00046097218121096965,0.013840014936048932,-1.987227205835746,-0.00046092801494523883,-0.013839572668075562,-0.9999040961265564,-0.00037188827991485596,-0.00045265723019838333,-0.0005293400026857853,-0.0009581390768289566,3.036949783563614e-05,-0.0017590522766113281
48,-0.0004643722665933908,0.013850227285710412,-1.9872603953125405,-0.00046432772069238126,-0.01384978462010622,-0.9999039769172668,-0.0010211849585175514,-0.00026349304243922234,-0.0015160538023337722,0.00115097314119339,-0.00038666464388370514,-0.0026900172233581543
49,-0.00034285407027690156,0.013724652388995971,-1.9872914139177695,-0.0003428217605687678,-0.013724221847951412,-0.9999057650566101,-0.0004296582192182541,-0.00104101886972785,-0.0007634991779923439,0.00012919865548610687,0.0027989279478788376,-0.0037410855293273926
50,-0.00034228882039311466,0.013627996176005727,-1.9873559810638133,-0.0003422570298425853,-0.013627574779093266,-0.9999070763587952,-0.00016982760280370712,0.0011682035401463509,-0.0006557265296578407,-0.0012751747854053974,-0.0007309466600418091,-0.002824246883392334
51,-0.0003375187982167282,0.013691382652952722,-1.9873834376258306,-0.0003374871448613703,-0.013690955005586147,-0.9999062418937683,0.0014825635589659214,0.00020164158195257187,4.4597312808036804e-05,0.0016344841569662094,-0.0006370488554239273,-0.0027030110359191895
52,-0.0002921178417065789,0.013552722022107774,-1.9873836751996616,-0.00029209101921878755,-0.013552307151257992,-0.9999081492424011,-0.0006950702518224716,-0.0005676816217601299,-0.001317824935540557,0.00023105600848793983,0.002352355979382992,-0.001602470874786377
53,-0.00033893441923663276,0.013517333140337772,-1.987415632636555,-0.0003389034536667168,-0.013516921550035477,-0.9999085664749146,-0.001312057487666607,-0.00019458914175629616,-0.001588136306963861,0.0008729612454771996,-0.0015892786905169487,-0.002273380756378174
54,-0.00018878204273018,0.0136061293067463,-1.9874019838275687,-0.00018876456306315958,-0.013605709187686443,-0.9999074339866638,0.001036154106259346,-0.0012886892072856426,0.0016770984511822462,0.00034135207533836365,-0.00034082308411598206,-0.0032053589820861816
55,-0.0001842795024560892,0.01353904474233487,-1.9873886516033783,-0.00018426260794512928,-0.013538630679249763,-0.9999083280563354,0.0029503097757697105,-0.00027232058346271515,0.001408824697136879,-0.00030401861295104027,0.0016062576323747635,-0.0026398897171020508
56,-0.00017991403547700673,0.013479949734509913,-1.9874024437615592,-0.0001798976882128045,-0.013479541055858135,-0.9999091029167175,-0.00041827838867902756,-0.0007105953991413116,-0.0014789196429774165,0.0019499175250530243,-0.0013825176283717155,-0.0031425952911376953
57,-8.251703378875209e-05,0.013496763724054898,-1.98739068975559,-8.250951941590756e-05,-0.013496354222297668,-0.9999089241027832,0.0007698829285800457,0.003066158387809992,0.0005937393289059401,-0.0009550880640745163,0.0006637126207351685,-0.002196788787841797
58,-0.00011499274186582246,0.01338183106117397,-1.9873776021699312,-0.00011498244566610083,-0.013381431810557842,-0.9999104738235474,-0.0015862733125686646,0.0015537659637629986,0.0020507972221821547,0.001152580138295889,0.0010523293167352676,-0.0029124021530151367
59,-4.7264325410662893e-05,0.01339884447863601,-1.987435744442826,-4.726008410216309e-05,-0.013398443348705769,-0.9999102354049683,-0.0012012375518679619,-0.0016812756657600403,-0.00038329907692968845,0.0005813180468976498,-0.0013568047434091568,-0.0023328065872192383
60,-9.336994538466746e-05,0.01341635491249636,-1.9874489249559681,-9.336154471384361e-05,-0.01341595221310854,-0.9999099969863892,-0.000872255302965641,-0.0029282975010573864,-0.001383933238685131,-0.0008984599262475967,0.0014683203771710396,-0.00269925594329834
61,-6.985770252316564e-05,0.013308908907288442,-1.9875032013057197,-6.985151412663981e-05,-0.013308515772223473,-0.9999114274978638,0.0027945758774876595,0.001188274472951889,0.0009884473402053118,0.0007412382401525974,-0.0001802537590265274,-0.0034455060958862305
62,-4.883841710397436e-05,0.013346037345031196,-1.987486913591438,-4.883406654698774e-05,-0.01334564108401537,-0.9999109506607056,-0.0032825302332639694,0.0009379982948303223,0.0023182646837085485,-0.0010955752804875374,-0.0014248667284846306,-0.0033086538314819336
63,-5.126051381052128e-05,0.013362469957114249,-1.9874687651565883,-5.125593816046603e-05,-0.01336207240819931,-0.9999107122421265,-0.001272931694984436,0.00023832917213439941,-0.00019595609046518803,0.0009515243582427502,0.0007888302206993103,-0.002515435218811035
64,7.136648059713045e-05,0.013276299742213343,-1.987488823655856,7.136019121389836e-05,-0.013275910168886185,-0.9999118447303772,0.0020754425786435604,0.0003834790550172329,-8.535711094737053e-05,-0.0005901590920984745,0.0008247392252087593,-0.0024684667587280273
65,-3.0322625575382388e-05,0.013297986686679529,-1.9874981879546942,-3.0319944926304743e-05,-0.013297595083713531,-0.9999116063117981,-0.0006189728155732155,0.00230714725330472,0.001374696148559451,-0.0007631373591721058,0.0004039183259010315,-0.0024840235710144043
66,2.439809124313996e-05,0.013210290098002772,-1.9874743297013402,2.4395962100243196e-05,-0.013209905475378036,-0.9999127388000488,0.0021317549981176853,-4.631141200661659e-05,0.001782780047506094,0.0018219174817204475,-0.0002330876886844635,-0.003871440887451172
67,3.593855218834422e-05,0.0132004567996741,-1.9874484113128332,3.59354198735673e-05,-0.013200073502957821,-0.9999128580093384,-0.0016857301816344261,-0.0013450486585497856,0.000316498801112175,-0.00015800539404153824,0.0009625256061553955,0.0005995631217956543
68,-1.1078391562953299e-05,0.01320194929797845,-1.9874824492588563,-1.1077426279371139e-05,-0.013201565481722355,-0.9999128580093384,0.0014259368181228638,0.0009978958405554295,-0.00039811315946280956,-9.573390707373619e-05,-0.0008975546807050705,-0.001048445701599121
69,5.426097967114695e-05,0.013246526790471539,-1.987505024249567,5.4256219300441444e-05,-0.013246139511466026,-0.9999122619628906,0.0007661115378141403,0.0007236008532345295,0.00044062710367143154,0.00032721366733312607,7.78045505285263e-05,-0.003292083740234375
70,4.7766081604614616e-05,0.013247149833144288,-1.9874548557128873,4.776188870891929e-05,-0.013246762566268444,-0.9999122619628906,-0.003652595914900303,0.002191220410168171,0.0014095855876803398,-0.00200088694691658,-0.0009896885603666306,-0.004741668701171875
71,-7.146996736444406e-06,0.01326910597689982,-1.9874543117000512,-7.1463673521066085e-06,-0.013268716633319855,-0.9999119639396667,0.00030735041946172714,0.000703116413205862,0.0012069684453308582,0.0003886162303388119,-0.0017611905932426453,-0.002620995044708252
72,-2.4721038652701404e-06,0.013269115453106113,-1.9874550141246912,-2.4718863187445095e-06,-0.013268725946545601,-0.9999119639396667,-0.0004322594031691551,0.0010632374323904514,0.0005664797499775887,0.0002618711441755295,0.004159228876233101,-0.002132713794708252
73,-3.467294440889362e-05,0.013173085546627123,-1.987466961803942,-3.466993439360522e-05,-0.013172704726457596,-0.999913215637207,0.002202171366661787,-0.005662917159497738,0.0007720324210822582,-0.0003010234795510769,-0.00017873570322990417,-0.004969537258148193
74,-8.474192404011681e-05,0.013354153102338213,-1.9874683707479255,-8.473436901113018e-05,-0.013353756628930569,-0.999910831451416,0.0006881663575768471,0.002159315161406994,0.00010697613470256329,0.00138173159211874,-1.294352114200592e-05,-0.006680965423583984
75,-6.102132022425194e-05,0.013298107435417796,-1.9874841694183454,-6.101592589402571e-05,-0.013297715224325657,-0.9999116063117981,0.001185107510536909,0.00036988407373428345,0.0015803247224539518,-0.0016937446780502796,0.0023266468197107315,-0.0008665919303894043
76,-8.044420615259268e-05,0.01334948510783196,-1.9874725555711743,-8.043703564908355e-05,-0.013349088840186596,-0.9999108910560608,0.00075940927490592,0.0031366958282887936,-0.0007039261981844902,0.001575798261910677,-0.003130403347313404,-0.000501096248626709
77,1.8338536488096084e-05,0.013382546426606391,-1.987475470417489,1.833689384511672e-05,-0.013382147066295147,-0.9999104738235474,-0.0006802016869187355,0.0009504598565399647,0.0007918756455183029,-0.0013305926695466042,0.001968572847545147,-0.0022104978561401367
78,-3.0078736492741253e-05,0.013245179663466024,-1.9874984955145536,-3.0076098482823e-05,-0.013244792819023132,-0.9999122619628906,-0.0008416334167122841,-0.0021821279078722,0.0003686270210891962,0.0008235331624746323,0.0006562927737832069,-0.0035514235496520996
79,3.626388956249882e-05,0.01335633352350531,-1.9875172656522597,3.62606551789213e-05,-0.013355936855077744,-0.999910831451416,0.0007397443987429142,0.0021023349836468697,-0.00020771403796970844,-0.0005703181959688663,-0.0020554400980472565,-0.0026831626892089844
80,-3.557298027317272e-05,0.013338123334552428,-1.9874826531330738,-3.556981755536981e-05,-0.013337727636098862,-0.9999110698699951,0.002537770662456751,-0.004859430715441704,-0.001824663602747023,-0.001475050114095211,0.0035568438470363617,-0.003598451614379883
81,1.2399258724173446e-05,0.01321224100285227,-1.98748314099271,1.239817629539175e-05,-0.013211856596171856,-0.9999127388000488,-0.0017592981457710266,0.00013573793694376945,-0.0012604447547346354,0.0023527140729129314,-0.001665462739765644,-0.003871440887451172
82,6.31799405961616e-05,0.013368131901680244,-1.98746873709858,6.317429506452754e-05,-0.013367733918130398,-0.9999106526374817,-0.0008383924141526222,0.0017828214913606644,-0.00013308506458997726,-0.0017263824120163918,-0.0008687172085046768,-0.0032173991203308105
83,-8.26555241251306e-05,0.01334414052982379,-1.9874782326773117,-8.264816278824583e-05,-0.013343744911253452,-0.9999109506607056,0.001691760029643774,0.0008239573799073696,0.0010470114648342133,0.0009676576592028141,0.0022658640518784523,-0.003064453601837158
84,1.54859655449488e-05,0.01330132642016046,-1.9874899465981268,1.5484594769077376e-05,-0.013300933875143528,-0.9999115467071533,-0.001630133017897606,0.0006292904727160931,0.00024177809245884418,-0.0005953186191618443,-0.0009812917560338974,-0.0030486583709716797
85,-4.903071756040169e-05,0.013347748826472407,-1.987454359904775,-4.902634827885777e-05,-0.013347352854907513,-0.9999108910560608,-0.0017866482958197594,-4.074163734912872e-05,-0.00039442675188183784,-0.002010909840464592,-0.0011027203872799873,-0.004025816917419434
86,-7.289146652904358e-06,0.013327072670148985,-1.9874481164645406,-7.288499546120875e-06,-0.013326678425073624,-0.9999111890792847,-0.0008254442363977432,0.0009890338405966759,-0.0031796740368008614,0.0011974740773439407,0.0013180114328861237,-0.002698063850402832
87,4.264854925016494e-05,0.013331080055466663,-1.9874600787779657,4.264475865056738e-05,-0.01333068497478962,-0.9999111294746399,0.0004924950189888477,0.0009222216904163361,0.000473816879093647,-0.0015685237012803555,-0.0009210230782628059,-0.003552556037902832
88,-3.409816113949771e-05,0.013353412271846103,-1.9874991359520464,-3.4095122828148305e-05,-0.013353015296161175,-0.999910831451416,-0.0018973862752318382,-0.0018197409808635712,0.00040632463060319424,0.0006444468162953854,-0.0005019651725888252,-0.004300534725189209
89,7.207059569307334e-05,0.013327741672658341,-1.9875216308673522,7.206419832073152e-05,-0.013327347114682198,-0.9999111890792847,0.0017338222824037075,-0.00186994019895792,-0.0007552788592875004,0.0006603575311601162,0.0015933383256196976,-0.002499699592590332
90,6.3826290117597e-05,0.013296934965900292,-1.9874896516321048,6.382064748322591e-05,-0.013296542689204216,-0.9999116063117981,0.0001765163615345955,0.0009764493443071842,-0.000240386463701725,-0.002383156679570675,-0.001138271763920784,-0.0027129054069519043
91,1.0959004914277308e-05,0.013307663412137374,-1.987506809612285,1.0958034181385301e-05,-0.013307270593941212,-0.9999114274978638,-0.0008502388373017311,-0.000479669775813818,-0.0015090092783793807,0.0015454385429620743,-0.0002577919512987137,-0.002972424030303955
92,7.671189632434178e-05,0.013300256342503765,-1.9875197167106313,7.67051096772775e-05,-0.013299863785505295,-0.9999115467071533,0.00018726568669080734,-0.00032829539850354195,8.455198258161545e-05,-0.0005192100070416927,0.0014132671058177948,-0.0035216808319091797
93,2.416572598560167e-05,0.013300560825705207,-1.987513921335926,2.4163588022929616e-05,-0.013300168327987194,-0.9999115467071533,-0.002721725031733513,0.0016651577316224575,0.0005432157777249813,-0.0004819273017346859,-0.0008752457797527313,-0.0035674571990966797
94,8.471557876950696e-05,0.013316548976027926,-1.987482137984476,8.470806642435491e-05,-0.013316155411303043,-0.9999113082885742,0.003249130677431822,-0.0017672497779130936,0.0014436596538871527,0.0008308193646371365,-0.000874517485499382,-0.003903329372406006
95,8.963266675328363e-05,0.0133196278296969,-1.9874615849480164,8.96247147466056e-05,-0.013319234363734722,-0.9999113082885742,0.0003159753978252411,0.002943451050668955,-0.0003128272946923971,-0.000867823138833046,0.0012647900730371475,-0.0027894973754882812
96,1.0713204693246244e-05,0.013323173883807111,-1.9874496362488332,1.0712254152167588e-05,-0.013322779908776283,-0.9999112486839294,0.0016410532407462597,-0.0007608747109770775,-0.0015699100913479924,0.0018508597277104855,-0.0012951400130987167,-0.0023165345191955566
97,2.8669730426585734e-05,0.013346468096113116,-1.987468882710971,2.866717659344431e-05,-0.013346072286367416,-0.9999109506607056,0.0010986211709678173,0.00037015555426478386,-0.0013535479083657265,-0.00010496098548173904,0.0005439482629299164,-0.0038274526596069336
98,-2.1201333228641816e-05,0.013269027601078188,-1.9875268048984096,-2.119946657330729e-05,-0.013268638402223587,-0.9999119639396667,0.0005289791151881218,0.0012004682794213295,-0.0007719181012362242,-0.00043656444177031517,0.000558067113161087,-0.002590477466583252
99,1.1897040767656174e-05,0.013257872459683177,-1.9875417973905485,1.189599515782902e-05,-0.013257483951747417,-0.9999121427536011,-0.0012354664504528046,0.0009233229793608189,0.0007997204083949327,0.00023224437609314919,-0.001909751445055008,-0.0022546052932739258
100,2.7267186755527904e-05,0.013306725963285712,-1.9875613840902886,2.7264772143098526e-05,-0.013306333683431149,-0.9999114871025085,-0.0005160672590136528,0.0010516205802559853,0.0013674043584614992,-0.00030192313715815544,0.0008551618084311485,-0.003140270709991455
101,4.6536601989932474e-05,0.01325037609975407,-1.987582476089497,4.6532517444575205e-05,-0.013249988667666912,-0.9999122023582458,-0.001896643079817295,-0.001655589323490858,0.00034615141339600086,0.0006553716957569122,-0.0005744742229580879,-0.002925872802734375
102,4.384166911424399e-05,0.013321498966295435,-1.987538495922382,4.3837779230671003e-05,-0.013321105390787125,-0.9999112486839294,-0.0006978409364819527,-0.0012831012718379498,-0.0012915657134726644,-0.0009593651629984379,-0.0005033565685153008,-0.0035982131958007812
103,-6.037717220793546e-05,0.013321375170432024,-1.9875154191077067,-6.037181447027251e-05,-0.0133209815248847,-0.9999112486839294,0.0011914209462702274,0.0017253509722650051,0.00024250266142189503,-1.5921887097647414e-05,0.0007935157045722008,-0.0035524368286132812
104,-5.866344024120018e-06,0.013294095798734785,-1.9875075993368871,-5.865825642104028e-06,-0.013293704017996788,-0.9999116063117981,0.0014705955982208252,-0.0007804529741406441,-0.0013483013026416302,0.0007688053883612156,3.2996758818626404e-06,-0.002346634864807129
105,-4.178875272731428e-05,0.013332274110088943,-1.9874746006839898,-4.178503877483308e-05,-0.013331878930330276,-0.9999111294746399,-0.001397247426211834,0.0011710850521922112,0.0016360876616090536,-0.0012094355188310146,-4.302710294723511e-06,-0.0039035677909851074
106,-6.489742937596283e-05,0.01328669015036779,-1.9874282624193649,-6.489169754786417e-05,-0.01328629907220602,-0.9999117255210876,0.0014308751560747623,-0.0006206165999174118,0.001557669835165143,0.0009346427395939827,0.00027055293321609497,-0.0027585625648498535
107,-5.896059718701869e-05,0.013287654520680077,-1.9874469384230575,-5.8955392887583e-05,-0.013287263922393322,-0.9999117255210876,-6.635300815105438e-05,0.0017620055004954338,-0.000271249795332551,-0.0008565718308091164,-0.00021676532924175262,-0.0030484795570373535
108,-0.00014396578744436137,0.013298573231723012,-1.9874567050807201,-0.00014395306061487645,-0.013298180885612965,-0.9999115467071533,0.0010170908644795418,-0.000681332778185606,-0.001463620807044208,6.765873695258051e-05,-0.0008009392768144608,-0.0037810206413269043
109,-9.983971494945537e-05,0.01325686539048944,-1.9874898982582556,-9.983094059862196e-05,-0.013256477192044258,-0.9999121427536011,-0.0012863008305430412,-0.0014769984409213066,0.0007959897629916668,0.0013052751310169697,0.0003933180123567581,-0.0036126375198364258
110,-5.7657453660113816e-05,0.013254654926311298,-1.987513211039723,-5.7652388932183385e-05,-0.013254267163574696,-0.9999121427536011,0.000671757385134697,0.0008995281532406807,-0.0010359936859458685,-0.0009799450635910034,-9.717326611280441e-05,-0.0025749802589416504
111,-0.00010086299738427817,0.013249055662839002,-1.9875432048440451,-0.00010085414396598935,-0.013248668052256107,-0.9999122023582458,-0.00017574243247509003,0.0005468740127980709,-0.0023147764150053263,0.0004365472123026848,4.041008651256561e-06,-0.004100799560546875
112,-8.76542678210491e-05,0.013188962301075,-1.987485774637344,-8.764664380578324e-05,-0.013188580051064491,-0.9999130368232727,-0.00021219812333583832,0.0009790281765162945,-0.0010433634743094444,0.0003317873924970627,0.0008137021213769913,-0.002497851848602295
113,-0.00011709712473904229,0.013167007694626172,-1.9875097607154963,-0.0001170869727502577,-0.013166626915335655,-0.9999133348464966,0.0018563228659331799,-0.0005364874377846718,-0.000757347559556365,-0.0005237823352217674,0.0001356210559606552,-0.002833247184753418
114,-0.00010304612528802804,0.01316306941890547,-1.9875076584781417,-0.0001030372004606761,-0.013162689283490181,-0.9999133348464966,-0.0006215469911694527,-0.0021423473954200745,0.0010318586137145758,0.0017204685136675835,-0.0009822072461247444,-0.0027263760566711426
115,-3.847819669805563e-05,0.013140100310710265,-1.9875392804407332,-3.84748746000696e-05,-0.013139721937477589,-0.9999136924743652,0.0010287459008395672,0.0008834954351186752,-0.0002505879383534193,-0.00044980645179748535,0.0011005373671650887,-0.0021920204162597656
116,-8.246599263779518e-05,0.013156903776439107,-1.9875499107473982,-8.245885692304e-05,-0.013156523928046227,-0.9999134540557861,0.0006019594147801399,-0.0008270828984677792,0.0008618838619440794,-9.093433618545532e-06,-0.0003932807594537735,-0.002375364303588867
117,-7.864446176818578e-05,0.01325493351534112,-1.9875464306782502,-7.863755308790132e-05,-0.013254545629024506,-0.9999121427536011,-0.0014367187395691872,-2.8458423912525177e-05,-0.001791263115592301,-4.343269392848015e-05,0.0003456100821495056,-0.0029412508010864258
118,-0.00012114113568333331,0.013245080881041857,-1.9875454555509877,-0.00012113050615880638,-0.013244693167507648,-0.9999122619628906,0.0010269396007061005,0.0002481951378285885,-6.44077081233263e-05,0.00013638939708471298,0.0014954274520277977,-0.0032767653465270996
119,-4.0286737824094526e-05,0.013286699674110414,-1.9875690617167605,-4.028318289783783e-05,-0.013286308385431767,-0.9999117255210876,-0.0011046845465898514,-0.0009113741107285023,-0.0013611189788207412,0.0004370114766061306,-0.00011090748012065887,-0.0030789971351623535
120,-4.299267767493255e-05,0.013275084517550578,-1.9875795487708559,-4.2988889617845416e-05,-0.013274694792926311,-0.999911904335022,-0.0005435319617390633,0.0002489304170012474,0.00014251470565795898,-0.0012540081515908241,-4.5262277126312256e-07,-0.0036739110946655273
121,-4.308801404677823e-05,0.013191038127461313,-1.9875887835612143,-4.308426650823094e-05,-0.01319065596908331,-0.9999129772186279,-0.0009768828749656677,-0.00010935915634036064,-0.00016205967403948307,0.000790765043348074,-8.449051529169083e-05,-0.003504931926727295
122,4.792427617451794e-05,0.013168014392708902,-1.9875950446419999,4.792012259713374e-05,-0.013167633675038815,-0.9999132752418518,-0.001395275816321373,-0.0015747379511594772,-0.0002775604370981455,0.00016570277512073517,-0.0010535567998886108,-0.003825068473815918
123,1.1878021467363371e-05,0.01321054842079187,-1.987616265608813,1.1876984899572562e-05,-0.01321016438305378,-0.9999127388000488,-0.001312953419983387,0.0010181199759244919,-0.0016832605469971895,0.0002780398353934288,0.0008047688752412796,-0.002513408660888672
124,-5.106734506690738e-06,0.013197959275586334,-1.9875711551131436,-5.106289791001473e-06,-0.013197575695812702,-0.9999129176139832,0.00022319331765174866,0.0024140584282577038,0.0020234903786331415,-2.541113644838333e-05,1.3982877135276794e-05,-0.0026658177375793457
125,-2.639859765586969e-05,0.013173751497298892,-1.9875784055590284,-2.6396306566311978e-05,-0.013173370622098446,-0.999913215637207,-0.0026831338182091713,-0.0005025668069720268,0.0014802361838519573,-0.0013316357508301735,0.0001728832721710205,-0.0031232237815856934
126,-3.6636315061728706e-05,0.013186328972892047,-1.9875469956294425,-3.663312963908538e-05,-0.013185947202146053,-0.9999130368232727,-0.00030957814306020737,0.00022372743114829063,-0.0003280048258602619,0.0009826780296862125,0.0006584813818335533,-0.0046035051345825195
127,3.10445883724456e-05,0.013220356335565063,-1.987511257950262,3.1041876354720443e-05,-0.01321997120976448,-0.9999126195907593,0.0006735618226230145,-0.001550775021314621,-0.00017867470160126686,-0.0004430292174220085,0.0002042241394519806,-0.0027118921279907227
128,6.9677136170547335e-06,0.013270412924518063,-1.9875056479228912,6.967100034671603e-06,-0.01327002327889204,-0.9999119639396667,-4.3653883039951324e-05,-0.00019862409681081772,0.0003429155331104994,0.0001913970336318016,0.0006052274256944656,-0.004177391529083252
129,3.1487074046980074e-05,0.013256865568891312,-1.987502012985542,3.1484305509366095e-05,-0.013256477192044258,-0.9999121427536011,0.0023869206197559834,-0.0002535795792937279,-0.0003296241629868746,0.00022791512310504913,-3.392808139324188e-05,-0.0015527009963989258
130,5.217556715836559e-05,0.013226573590941234,-1.987513964913526,5.2171002607792616e-05,-0.013226187787950039,-0.9999125003814697,-0.0001886710524559021,0.00015157880261540413,0.0009601640049368143,-0.0004946757107973099,4.259590059518814e-05,-0.003307044506072998
131,2.5015963875007448e-05,0.013300333305050144,-1.9874897667461005,2.5013750928337686e-05,-0.013299941085278988,-0.9999115467071533,0.0015736166387796402,0.0025378400459885597,0.002406306564807892,0.00014283321797847748,-0.0002498636022210121,-0.0031707286834716797
132,6.676635478893698e-05,0.013335056197937567,-1.987505971863113,6.676041812170297e-05,-0.013334660790860653,-0.9999110698699951,0.0008289157412946224,-0.0016152570024132729,-0.0013584709959104657,0.0005435915663838387,7.477495819330215e-05,-0.0033695101737976074
133,1.840931833368668e-05,0.013375875915235879,-1.9874761418286369,1.840767072280869e-05,-0.013375476934015751,-0.9999105334281921,0.0006962614133954048,-0.002193926367908716,0.0004866484086960554,-0.0007203118875622749,0.0003902474418282509,-0.0029123425483703613
134,-2.9576615559725628e-05,0.01333629760329168,-1.9874338959665798,-2.95739846478682e-05,-0.013335902243852615,-0.9999110698699951,0.0008269920945167542,-0.0005231671966612339,8.105533197522163e-06,0.0003042323514819145,-0.0005495958030223846,-0.003506898880004883
135,-6.824563605297694e-05,0.013328259421291093,-1.987412829445103,-6.823957664892077e-05,-0.013327864930033684,-0.9999111890792847,-0.0003550443798303604,-0.0015683136880397797,0.0018374559003859758,-0.00040478259325027466,0.0008003991097211838,-0.003537297248840332
136,-9.19766200265688e-05,0.013332203598339485,-1.987382738807683,-9.196844621328637e-05,-0.01333180908113718,-0.9999111294746399,0.0007465616799890995,0.000583600252866745,0.0009477748535573483,-0.0001674308441579342,-0.0003400668501853943,-0.0022708773612976074
137,-0.00010260960548921086,0.01331883329029806,-1.9873379882284632,-0.00010260050476063043,-0.013318439945578575,-0.9999113082885742,-0.001444850116968155,-0.0018244432285428047,-0.001069951569661498,-0.0005535273812711239,-6.351806223392487e-05,-0.0033998489379882812
138,-0.000123221995117705,0.013241426832466981,-1.9873001621327049,-0.0001232111972058192,-0.013241039589047432,-0.9999123215675354,0.002612394280731678,0.002986013423651457,-0.0010137652279809117,0.00033683422952890396,1.1669471859931946e-05,-0.0030326247215270996
139,-9.27570808612906e-05,0.01327041178729212,-1.987228669071747,-9.274891635868698e-05,-0.013270022347569466,-0.9999119639396667,-0.002505139447748661,0.0036856140941381454,-0.00017224205657839775,0.0007946533150970936,-0.0005544405430555344,-0.002727806568145752
140,-5.281830910773648e-05,0.013253913211257644,-1.98715874443893,-5.28136697539594e-05,-0.013253524899482727,-0.9999121427536011,0.0032844971865415573,-0.003844405757263303,0.000745690893381834,-0.0008932310156524181,5.4673291742801666e-05,-0.0023918747901916504
141,-8.21617226728776e-05,0.013240935994416109,-1.9871740578754618,-8.215451816795394e-05,-0.01324054878205061,-0.9999123215675354,0.000891663134098053,0.0006502829492092133,0.00041957967914640903,-0.0003756093792617321,0.0005910135805606842,-0.0020407438278198242
142,-0.00012150670153123066,0.01328012045934216,-1.987169462005774,-0.00012149598478572443,-0.013279730454087257,-0.9999117851257324,-0.00034322217106819153,-0.0006875698454678059,0.000605051638558507,0.0011285762302577496,-0.000163261778652668,-0.003963887691497803
143,-7.108139772354434e-05,0.013232168200558572,-1.9872062430712774,-7.107517740223557e-05,-0.013231782242655754,-0.999912440776825,-0.0008413083851337433,0.0009759524837136269,0.0005596864502876997,0.00023892195895314217,0.0005212118849158287,-0.0028188228607177734
144,-5.574205184995139e-05,0.013201607141450435,-1.9871897772690916,-5.573719317908399e-05,-0.013201223686337471,-0.9999128580093384,-0.0026922132819890976,0.0008809794671833515,0.0036802180111408234,0.0005287597887217999,-0.000348581001162529,-0.003108382225036621
145,6.926439828838038e-08,0.013217131107071485,-1.987186569555489,6.925834838966693e-08,-0.013216746039688587,-0.999912679195404,0.0016757361590862274,-0.0020455080084502697,-5.445070564746857e-05,-0.0009155967272818089,-2.788286656141281e-05,-0.0029712319374084473
146,-4.859569113021492e-05,0.013184152390316709,-1.987179499146079,-4.859146793023683e-05,-0.013183770701289177,-0.9999130964279175,-0.0020726313814520836,0.0009376886300742626,-0.0009965444914996624,0.00014014402404427528,0.0004884582012891769,-0.0029250383377075195
147,-4.3197849155673044e-05,0.013207123332607226,-1.9871897365622948,-4.319408253650181e-05,-0.013206738978624344,-0.9999127984046936,-0.00045588426291942596,-0.0017882226966321468,0.0012489969376474619,-0.0016963076777756214,0.00023676827549934387,-0.0025286078453063965
148,-7.055467488804645e-05,0.013195255357147382,-1.9872360551752066,-7.054852903820574e-05,-0.013194872066378593,-0.9999129176139832,-0.003155807964503765,0.0009867395274341106,0.0008932722266763449,-0.0003109211102128029,-0.00024812016636133194,-0.0035507678985595703
149,-5.873675054881659e-05,0.01323713592358954,-1.987198894669114,-5.873160625924356e-05,-0.013236748985946178,-0.9999123811721802,0.0011111609637737274,0.001298835501074791,0.0016426790971308947,0.0003333897329866886,0.000755060464143753,-0.0032461881637573242
150,-4.297668814185997e-05,0.013248812173625358,-1.9872397590952626,-4.2972915252903476e-05,-0.013248424977064133,-0.9999122619628906,-0.0004703262820839882,-0.0006515192799270153,-0.0009007193148136139,0.0004244423471391201,0.0008125118911266327,-0.003398895263671875
151,-3.711198957265198e-05,0.013224739439359449,-1.9872481368727917,-3.7108744436409324e-05,-0.013224354013800621,-0.9999125599861145,0.00035282690078020096,0.00041014887392520905,0.0014444554690271616,-0.00020703207701444626,-0.00029493309557437897,-0.003703773021697998
152,-2.4600633912238096e-05,0.013270867204799409,-1.9872567506251726,-2.4598468371550553e-05,-0.013270477764308453,-0.9999119639396667,0.0008406252600252628,-0.0005985097959637642,0.00024308543652296066,-0.00012798933312296867,-0.0004013972356915474,-0.002758324146270752
153,-5.400612513613236e-05,0.013271852917090397,-1.98729105493287,-5.400136797106825e-05,-0.013271463103592396,-0.999911904335022,-0.0011379504576325417,-0.002412702888250351,-0.0008859292138367891,8.45189206302166e-05,-0.000964985229074955,-0.002819359302520752
154,-9.405784821536729e-05,0.01333034837472994,-1.9872326615021443,-9.404949378222227e-05,-0.013329953886568546,-0.9999111294746399,4.188902676105499e-05,-0.00021207518875598907,0.0010808934457600117,7.879082841100171e-05,0.0002531716600060463,-0.003598332405090332
155,-7.957943480049955e-05,0.013306200557122113,-1.9872127961251418,-7.957238995004445e-05,-0.01330580748617649,-0.9999114871025085,0.0004187431186437607,-0.00014561600983142853,0.0011937429662793875,0.0009035468101501465,0.0009004119783639908,-0.002987682819366455
156,-2.221474000577004e-05,0.013279422225577323,-1.9872084714396523,-2.2212781914277002e-05,-0.013279031962156296,-0.9999118447303772,0.0013515045866370201,0.0003410670906305313,7.797498255968094e-07,0.00020531797781586647,-0.00016396120190620422,-0.0028042197227478027
157,-3.7316901302816757e-05,0.01326007630852908,-1.9872322483892177,-3.73136208509095e-05,-0.013259687460958958,-0.9999120831489563,0.0014108642935752869,0.00016097817569971085,0.0019522563088685274,0.00017464300617575645,1.5059486031532288e-05,-0.002437770366668701
158,-4.39420052709366e-05,0.01333224441267286,-1.987260431858004,-4.3938100134255365e-05,-0.013331849128007889,-0.9999111294746399,0.0008367374539375305,-0.0006654351018369198,8.144648745656013e-05,-0.000642707571387291,0.0003466196358203888,-0.0024387240409851074
159,-4.167269502568809e-05,0.01329276712285579,-1.987290041732347,-4.166901271673851e-05,-0.013292375952005386,-0.9999116659164429,0.00030647870153188705,-0.00017278362065553665,-0.0012352580670267344,-0.00030928291380405426,4.774704575538635e-05,-0.003124833106994629
160,-2.5554002275686404e-05,0.013282196363708096,-1.9873319976436596,-2.5551747967256233e-05,-0.0132818054407835,-0.9999117851257324,-0.00030343420803546906,-0.0014131274074316025,-0.0015182167990133166,-0.0005847997963428497,-0.00022222287952899933,-0.003033161163330078
161,-3.895051161091831e-05,0.013245999676648352,-1.987367839642958,-3.894709516316652e-05,-0.013245612382888794,-0.9999122619628906,-0.000887872651219368,-0.0002085994929075241,-0.001701310626231134,0.0001915348693728447,-0.00045678019523620605,-0.002452850341796875
162,-7.476439848526427e-05,0.01327079478628711,-1.987414048671196,-7.475781603716314e-05,-0.013270405121147633,-0.9999119639396667,-0.00325816310942173,0.0006378870457410812,-0.000737715745344758,-0.0005966289900243282,7.15525820851326e-05,-0.003521263599395752
163,-5.1320295981311444e-05,0.013187665326681267,-1.9874259329036557,-5.131583384354599e-05,-0.013187282718718052,-0.9999130368232727,0.0004952331073582172,0.001074344851076603,-0.0008013511542230844,0.00012760981917381287,-0.00010312162339687347,-0.002207934856414795
164,-0.00011148486472772652,0.013181260953757202,-1.9874253788804062,-0.00011147517943754792,-0.013180878944694996,-0.9999130964279175,-0.0002028355374932289,-0.0006789485923945904,-0.0006574916187673807,-0.000147924292832613,-0.0003384072333574295,-0.003642141819000244
165,-0.00010600057611753866,0.013165818427122443,-1.9874158481209456,-0.00010599139204714447,-0.013165437616407871,-0.9999133348464966,-0.002167736180126667,0.0022578812204301357,0.002282649278640747,-0.0009010885842144489,-0.00033858977258205414,-0.002940058708190918
166,-0.00014001434953496108,0.01315785424042794,-1.9873716096202605,-0.00014000223018229008,-0.013157474808394909,-0.9999134540557861,0.0018880725838243961,-0.00029253121465444565,0.00017186719924211502,-0.00027198484167456627,0.0004926798865199089,-0.002466917037963867
167,-0.00011197328647475946,0.013129916287735549,-1.9874240398105434,-0.0001119636363000609,-0.013129538856446743,-0.9999138116836548,-0.0004291953518986702,-0.0008667898364365101,0.0013391682878136635,0.0005697272717952728,-2.3536384105682373e-05,-0.003794074058532715
168,-0.00010676358962684099,0.013168968239311768,-1.987385117378439,-0.00010675433441065252,-0.01316858734935522,-0.9999132752418518,0.0004682987928390503,0.00013775937259197235,3.996281884610653e-05,-0.00028997426852583885,-0.0003964761272072792,-0.0029858946800231934
169,-0.00011065794204829215,0.013175873097270963,-1.9873873439773369,-0.00011064833961427212,-0.01317549217492342,-0.999913215637207,-0.0009553376585245132,0.0003392798826098442,0.0004992815665900707,3.435462713241577e-05,-0.00037431251257658005,-0.0031690597534179688
170,-9.724818549905026e-05,0.013099856770441546,-1.987393444264049,-9.723984112497419e-05,-0.013099482282996178,-0.9999141693115234,-0.0006547011435031891,-0.0028597707860171795,-0.0006440046709030867,0.0005855211056768894,0.0005262410268187523,-0.002908647060394287
171,-0.00012293760376501207,0.01311445582153352,-1.987377852877944,-0.00012292702740523964,-0.0131140798330307,-0.9999139904975891,-0.0006432803347706795,-0.0016227448359131813,-0.002607461530715227,0.00013818545266985893,-0.0005272775888442993,-0.0032140612602233887
172,-0.00010099727156276487,0.013153140271986514,-1.9873603531575217,-0.00010098853817908093,-0.01315276138484478,-0.9999135136604309,0.0020355749875307083,0.0010865340009331703,-0.0014528377214446664,0.00010098842903971672,-6.134994328022003e-05,-0.003351867198944092
173,-0.00010937456828009408,0.013111695461684841,-1.9873679812664855,-0.00010936516628134996,-0.01311131939291954,-0.9999140501022339,-0.00188389141112566,-4.395516589283943e-05,0.0012518961448222399,0.00033824658021330833,3.4537166357040405e-05,-0.0037175416946411133
174,-0.00011069311589539543,0.013101117234734028,-1.9874038632252506,-0.00011068361345678568,-0.013100742362439632,-0.9999141693115234,0.002018739003688097,0.0009234696626663208,-0.0025074207223951817,-8.768029510974884e-05,0.0007411222904920578,-0.0015659332275390625
175,-9.775166662405087e-05,0.013101561341701451,-1.987413661660034,-9.774327918421477e-05,-0.013101186603307724,-0.9999141693115234,0.0009661945514380932,-0.0007035825401544571,-0.00017745583318173885,0.0008301655761897564,0.000161733478307724,-0.0034427642822265625
176,-0.00011998906046677279,0.013097500893684414,-1.9873900470534651,-0.00011997876572422683,-0.0130971260368824,-0.9999142289161682,-0.0020884471014142036,-0.0008363085798919201,0.0012765070423483849,-3.2609328627586365e-05,-0.0002848319709300995,-0.003183305263519287
177,-0.00016350772336681864,0.013101693451333104,-1.9873685143401514,-0.00016349369252566248,-0.01310131885111332,-0.9999141693115234,-0.0013037947937846184,0.0014994917437434196,0.001148686045780778,-0.0007062572985887527,-0.0003264155238866806,-0.0038089752197265625
178,-0.00023363955401642324,0.01307698370982944,-1.9873628233044833,-0.00023361957573797554,-0.01307661086320877,-0.9999144673347473,0.0008862819522619247,-0.000511691439896822,0.0016433068085461855,-8.681509643793106e-05,0.00019819289445877075,-0.0017487406730651855
179,-0.00030053617788624334,0.013117584610617941,-1.9873068676156918,-0.00030051032081246376,-0.013117208145558834,-0.9999139308929443,-0.0013936255127191544,0.000530194491147995,0.0003093755804002285,0.00039206305518746376,-0.0003868192434310913,-0.002680063247680664
180,-0.00025048097036982976,0.013058736202001143,-1.9872658354352115,-0.00025045961956493556,-0.013058365322649479,-0.9999147057533264,0.002716316841542721,0.0010204296559095383,0.0006754724308848381,0.000357271172106266,-0.0002930751070380211,-0.003869473934173584
181,-0.00021144074673189444,0.013066040750333827,-1.9872278460594461,-0.00021142269542906433,-0.013065668754279613,-0.9999146461486816,2.3791566491127014e-05,0.00219730194658041,-0.0001511373557150364,-0.0005820342339575291,-0.0001942180097103119,-0.0011382102966308594
182,-0.00017070967745512762,0.013045574266020316,-1.9872495344883578,-0.00017069514433387667,-0.013045203872025013,-0.9999148845672607,-0.0009402679279446602,0.0003342544659972191,-0.0003429593052715063,7.914239540696144e-05,-0.00035201292484998703,-0.003136873245239258
183,-0.00014627582201484556,0.012978255388785113,-1.9872872565531061,-0.0001462634972995147,-0.01297789067029953,-0.9999157786369324,0.001917707733809948,-0.00017600227147340775,2.5202520191669464e-05,-0.00011313566938042641,-0.00023621972650289536,-0.003258049488067627
184,-0.0001726086080105094,0.013017099616522343,-1.9873105279617456,-0.00017259398009628057,-0.013016732409596443,-0.9999152421951294,0.002038777805864811,-0.0005603805184364319,0.0016453275457024574,-0.0003309459425508976,0.0003061620518565178,-0.00359421968460083
185,-0.0002155753751508478,0.013005296219171396,-1.9872831445707253,-0.00021555714192800224,-0.013004929758608341,-0.9999154210090637,-0.0015620710328221321,0.0005836114287376404,-0.0003533759154379368,7.822830229997635e-05,-0.0004685809835791588,-0.0031058192253112793
186,-0.00020892523559949122,0.013027639740924277,-1.9872498547817157,-0.00020890749874524772,-0.013027271255850792,-0.9999151229858398,0.00024352502077817917,0.002969592809677124,9.40284226089716e-05,-0.00017256243154406548,-0.00011054612696170807,-0.0032892227172851562
187,-0.00024282365411877935,0.013011903407143106,-1.9872454371285113,-0.0002428031002636999,-0.013011536560952663,-0.9999153017997742,-0.0004581538960337639,0.002565629780292511,-0.0011082778219133615,-0.0002302196662640199,0.00031622499227523804,-0.0038840770721435547
188,-0.0002576326175167299,0.01297917315900898,-1.9872870644409735,-0.0002576109254732728,-0.012978808954358101,-0.9999157190322876,-0.004304605536162853,-0.0013896552845835686,0.0006311561446636915,-0.0008867979049682617,0.0002987552434206009,-0.002510368824005127
189,-0.00031286037425820124,0.012963956374881288,-1.9873371794430779,-0.00031283407588489354,-0.012963593006134033,-0.9999158978462219,0.001543648075312376,-0.0003905552439391613,0.0006310073658823967,-0.00023648233036510646,-0.0002505173906683922,-0.0038529634475708008
190,-0.00022877075663813975,0.01294819988636715,-1.9872608982911102,-0.0002287515817442909,-0.012947837822139263,-0.999916136264801,0.00034401146695017815,0.0012448905035853386,0.0008674939163029194,0.00047289207577705383,3.890320658683777e-05,-0.0028151869773864746
191,-0.00020151171209551217,0.012952331610716548,-1.9872346134665546,-0.00020149481133557856,-0.012951969169080257,-0.9999160766601562,-5.349982529878616e-05,0.0007549128495156765,0.00038768723607063293,-0.00013419844617601484,8.881185203790665e-05,-0.0021895766258239746
192,-0.00017563303336508193,0.012986837583853147,-1.9872914994617938,-0.0001756182173267007,-0.012986472807824612,-0.9999156594276428,-0.0002141166478395462,0.001505797728896141,-0.002507231431081891,-0.00038895709440112114,-0.00015134457498788834,-0.0029987692832946777
193,-0.00016410111734478322,0.012877571269295864,-1.9873607462152736,-0.00016408751253038645,-0.012877215631306171,-0.9999170899391174,0.00010582152754068375,-6.992369890213013e-06,-0.0012752788607031107,0.0005608163774013519,-0.0003521554172039032,-0.0021733641624450684
194,-0.0001448768657620321,0.01286423257787396,-1.9873868763592777,-0.00014486488362308592,-0.012863878160715103,-0.9999172687530518,-0.0007030069828033447,0.0011522918939590454,0.0008528251200914383,0.00048055825755000114,-0.0005028210580348969,-0.003348112106323242
195,-0.00015094883104743563,0.012895352845364565,-1.9873767623721639,-0.00015093627735041082,-0.012894995510578156,-0.9999168515205383,-0.00011864397674798965,0.0007341471500694752,-0.0008715500589460135,-0.00047467416152358055,-0.0008379146456718445,-0.00224989652633667
196,-0.00011334302052469032,0.012957933987085921,-1.9873937129643418,-0.00011333350266795605,-0.01295757107436657,-0.9999160170555115,-0.0010374737903475761,-0.0004356876015663147,0.0006474312394857407,-0.0004207240417599678,-0.0010957727208733559,-0.00238800048828125
197,-0.00011993343144332767,0.01295522508306246,-1.987390732117375,-0.00011992336658295244,-0.012954862788319588,-0.9999160766601562,-0.0009765103459358215,0.000542032066732645,0.0005213916301727295,-9.369943290948868e-05,-0.0004576127976179123,-0.00214385986328125
198,-0.00014313015390567173,0.013012609520576672,-1.9873935700595708,-0.0001431180426152423,-0.013012242503464222,-0.9999153017997742,-0.00018413085490465164,0.0017168447375297546,-0.0003528220113366842,-0.0006808568723499775,-0.00011031515896320343,-0.0031974315643310547
199,-7.707103006228898e-05,0.01301377841239401,-1.9873887540177602,-7.70645056036301e-05,-0.013013411313295364,-0.9999153017997742,0.0013759820722043514,-0.001384140457957983,0.00013848580420017242,-0.0002128523774445057,-0.000185440294444561,-0.0038688182830810547
200,-0.00010696946505615175,0.013051319533732845,-1.9873801816285304,-0.00010696035315049812,-0.013050949200987816,-0.999914824962616,0.0013698264956474304,0.0004048040136694908,0.0024017905816435814,-0.0012358129024505615,-0.0007429961115121841,-0.003304779529571533
201,-0.00012540314829897304,0.013091237526760266,-1.987382908184195,-0.00012539239833131433,-0.013090863823890686,-0.999914288520813,-0.00020589493215084076,0.0018862374126911163,-0.000960241537541151,-0.00017978342657443136,0.00019718799740076065,-0.0032747387886047363
202,-0.00014617106571312985,0.013082685379590417,-1.987362396751978,-0.00014615856343880296,-0.013082312420010567,-0.9999144077301025,5.3729861974716187e-05,-0.00031419191509485245,-6.836699321866035e-05,-5.2205752581357956e-05,-0.0002691280096769333,-0.002603292465209961
203,-0.00017705854047706258,0.013070546476457555,-1.987366385420801,-0.0001770434173522517,-0.013070174492895603,-0.9999145865440369,-0.000953960232436657,9.038671851158142e-05,0.002123526530340314,-0.00031123775988817215,-0.0005254065617918968,-0.0033660531044006348
204,-0.00017702762608208313,0.013128152859045816,-1.9873557224904268,-0.00017701236356515437,-0.013127775862812996,-0.9999138116836548,0.0018271887674927711,-0.0014388225972652435,-0.001439494895748794,-0.00041808048263192177,0.0007986743003129959,-0.002832770347595215
205,-0.00017500168032933943,0.013117179200619224,-1.9873812058990887,-0.00017498662055004388,-0.013116803020238876,-0.9999139308929443,-0.000493236817419529,-0.0013038371689617634,0.0002949219197034836,-8.118789992295206e-06,-0.00037196557968854904,-0.0028173327445983887
206,-0.00017599058423732093,0.013129272497953556,-1.9873976906338342,-0.00017597540863789618,-0.013128895312547684,-0.9999138116836548,-0.0005348566919565201,0.0010506967082619667,-0.0019318846752867103,-0.0001292005181312561,6.737187504768372e-05,-0.002390265464782715
207,-0.000181355826408898,0.013154688390458228,-1.987426895501426,-0.00018134013225790113,-0.013154309242963791,-0.9999134540557861,0.0012630941346287727,5.187559872865677e-05,0.0027039241977036,0.00019659893587231636,-0.0004260130226612091,-0.002070188522338867
208,-0.00010294750796166504,0.013174869084556926,-1.9874053476005913,-0.00010293857485521585,-0.013174488209187984,-0.999913215637207,0.00031239259988069534,-0.0017870995216071606,-0.001929134363308549,8.767982944846153e-05,-0.00042109284549951553,-0.0027875900268554688
209,-0.00012900566071948085,0.013219014720966905,-1.9874150365330812,-0.0001289943902520463,-0.013218630105257034,-0.9999126195907593,0.002348432783037424,0.00047579407691955566,-0.0015371047193184495,0.0004036524333059788,-2.5998800992965698e-05,-0.0027118921279907227
210,-0.00015045105383101228,0.013200029062415129,-1.9873922455223068,-0.0001504379470134154,-0.013199646025896072,-0.9999128580093384,0.00047232024371623993,-0.0011651432141661644,5.402229726314545e-05,-0.0001547378342365846,-6.0240738093853e-05,-0.0034745335578918457
211,-0.00012874754067870303,0.013253190672873467,-1.987382408742356,-0.00012873623927589506,-0.0132528031244874,-0.9999121427536011,-7.293000817298889e-05,0.0010929619893431664,-4.928768612444401e-05,-0.0005579092539846897,0.0006795618683099747,-0.0035057663917541504
212,-0.00011232512183000445,0.013249177697042347,-1.9873697425130683,-0.00011231526150368154,-0.013248790055513382,-0.9999122023582458,-0.0015093693509697914,-0.001321861520409584,-2.2416701540350914e-05,9.705685806693509e-05,-0.0002857549116015434,-0.003200531005859375
213,-5.7366931307039685e-05,0.013243552291235545,-1.9874156951583675,-5.736189996241592e-05,-0.013243164867162704,-0.9999123215675354,-0.0006545847281813622,-0.0015490371733903885,-0.0019110367866232991,1.1585187166929245e-05,-0.00041345134377479553,-0.0036887526512145996
214,-4.155615118665254e-05,0.013294338499249212,-1.987460475589207,-4.155247734161094e-05,-0.013293947093188763,-0.9999116063117981,0.0011560926213860512,0.0008028177544474602,-0.0007009354885667562,-0.0014995853416621685,3.4059397876262665e-05,-0.002621293067932129
215,-0.00010175785382996525,0.01329809139084713,-1.9875285023395026,-0.00010174885392189026,-0.013297699391841888,-0.9999115467071533,0.0009963014163076878,-0.0007342803291976452,-4.191487096250057e-05,8.649007213534787e-05,0.00028195325285196304,-0.0032927393913269043
216,-0.00011691034561780987,0.013263790684916054,-1.987538140195691,-0.00011690006067510694,-0.013263401575386524,-0.9999120235443115,0.0005590301007032394,-4.9874186515808105e-05,0.0010345345363020897,-0.00038663996383547783,0.0006901593878865242,-0.0030176639556884766
217,-0.00012894459130253613,0.013227257131156103,-1.987535075727168,-0.00012893331586383283,-0.013226871378719807,-0.9999125003814697,-0.0004349416121840477,-0.0018659159541130066,-0.000271019758656621,-0.000115206916234456,0.0004247482866048813,-0.002910315990447998
218,-8.755896520453688e-05,0.013186671775335338,-1.9875971478965448,-8.755135058891028e-05,-0.013186289928853512,-0.9999130368232727,-0.0003576008602976799,0.003302467055618763,-3.534066490828991e-05,0.0003927270881831646,0.0002010604366660118,-0.0027419328689575195
219,-4.533338435944574e-05,0.013210736400825141,-1.9876392567890635,-4.5329426939133555e-05,-0.013210352510213852,-0.9999127388000488,0.0004979241639375687,9.251479059457779e-05,-0.0016010449035093188,-0.0006718337535858154,0.0005455575883388519,-0.003093242645263672
220,-4.086103359070407e-05,0.013219159233969796,-1.9876456521066,-4.085746331838891e-05,-0.0132187744602561,-0.9999126195907593,0.0019023893401026726,0.0006824629381299019,-0.000783802242949605,-0.000554235652089119,0.0006607919931411743,-0.0026813745498657227
221,-6.204766032330389e-05,0.013220286984494655,-1.987626493059277,-6.204223609529436e-05,-0.013219902291893959,-0.9999126195907593,0.0019268598407506943,-0.001700498629361391,9.611505083739758e-05,-0.00022787461057305336,0.0011501992121338844,-0.004405617713928223
222,-7.628858460943324e-05,0.013237564041769845,-1.9876410317856708,-7.628190360264853e-05,-0.013237177394330502,-0.9999123811721802,-0.00113726407289505,-0.0005919011309742928,-0.0009031295776367188,-0.00053406972438097,-0.0006788391619920731,-0.0030478239059448242
223,-0.00013886045354753897,0.013233522845263239,-1.9876264266015542,-0.00013884829240851104,-0.013233136385679245,-0.999912440776825,0.0012904400937259197,-0.0008660503663122654,0.0018497726414352655,0.00032195355743169785,-1.1492520570755005e-05,-0.002940952777862549
224,-0.00012658197851711658,0.013197001225578413,-1.9876356373611237,-0.00012657095794565976,-0.013196618296205997,-0.9999129176139832,0.0006216680631041527,0.0002787970006465912,-0.000988862244412303,-0.0002701571211218834,-0.0005668094381690025,-0.0020707249641418457
225,-0.0001816923986778941,0.013203968169255113,-1.9876554509418192,-0.00018167655798606575,-0.013203584589064121,-0.9999127984046936,0.0006985627114772797,-0.002679447177797556,0.00016190111637115479,-0.0005507450550794601,6.576813757419586e-05,-0.002894759178161621
226,-0.00023715891953351564,0.013168944286505238,-1.9876578411007375,-0.0002371383598074317,-0.013168564066290855,-0.9999132752418518,0.001898237969726324,-0.0003389231860637665,0.000517247011885047,-0.0003884718753397465,-0.0001370999962091446,-0.0031842589378356934
227,-0.0002766648086361564,0.01310723879914159,-1.9876847710541106,-0.00027664104709401727,-0.01310686394572258,-0.9999140501022339,0.0018323566764593124,-0.001103412825614214,-0.0017566638998687267,0.0003071585961151868,7.585901767015457e-05,-0.002084791660308838
228,-0.00033557697803624783,0.013061460231566336,-1.9877234778048964,-0.0003355483349878341,-0.013061088509857655,-0.9999146461486816,-0.00028525758534669876,-0.0022585177794098854,-0.000498312758281827,-0.0004731672815978527,-4.621036350727081e-05,-0.0035338401794433594
229,-0.00038709127666800475,0.0130406178187452,-1.987684107488981,-0.00038705836050212383,-0.013040248304605484,-0.9999148845672607,0.0004332088865339756,0.0008734371513128281,0.0018452571239322424,0.00024972952087409794,-0.0011656833812594414,-0.0034114718437194824
230,-0.0004142647913485392,0.013030077567745817,-1.9876643734229105,-0.00041422960930503905,-0.01302970852702856,-0.9999150037765503,-0.0016241706907749176,0.0006605479866266251,0.0019309502094984055,-0.00024189797113649547,-0.00012336671352386475,-0.0032282471656799316
231,-0.0003805671537776886,0.013009238839590393,-1.987679661611359,-0.00038053494063206017,-0.013008872047066689,-0.9999153017997742,0.00044560106471180916,-0.00021342933177947998,2.9900576919317245e-05,0.001051921397447586,-0.0005867090076208115,-0.00281602144241333
232,-0.00037974176416556184,0.013022772223790556,-1.9876545243771613,-0.0003797095560003072,-0.013022404164075851,-0.9999151229858398,-0.0011747628450393677,0.00012120325118303299,0.0028611738234758377,0.0006085913628339767,8.295103907585144e-05,-0.0029840469360351562
233,-0.00043036166832724525,0.013036921202882678,-1.9876228256184914,-0.00043032507528550923,-0.013036551885306835,-0.9999149441719055,-0.0007469123229384422,-0.00037849554792046547,-0.00014165416359901428,-0.0007751192897558212,-0.0004522167146205902,-0.0018092989921569824
234,-0.00045608020707597235,0.012951587264344871,-1.9876149410636692,-0.00045604194747284055,-0.01295122504234314,-0.9999160170555115,0.0009370795451104641,3.6191195249557495e-05,0.001980546861886978,0.0007001827470958233,-0.00012555625289678574,-0.0027390122413635254
235,-0.00045368007816505465,0.013033063533737248,-1.9875167905734499,-0.00045364152174443007,-0.013032694347202778,-0.9999149441719055,-4.964694380760193e-05,-0.0014977236278355122,-0.0010505699319764972,8.743072976358235e-05,-0.0006086612120270729,-0.002617955207824707
236,-0.0004637232729751711,0.01300532262731008,-1.9874748082690725,-0.0004636840312741697,-0.01300495583564043,-0.9999153017997742,-0.0017425846308469772,-0.0018005678430199623,0.0002035149373114109,0.00041790775139816105,-0.00040751881897449493,-0.0030143260955810547
237,-0.0003882225215819266,0.013021630632329835,-1.9874294748462837,-0.0003881895972881466,-0.013021262362599373,-0.9999151229858398,-0.0011838190257549286,0.0015856605023145676,0.0005243895575404167,0.00035767213557846844,0.0004022447392344475,-0.004418313503265381
238,-0.0004041905683918727,0.013053458679997123,-1.9874163375326068,-0.00040415613329969347,-0.013053087517619133,-0.9999147057533264,0.0028253942728042603,-0.0014091618359088898,-0.001047797384671867,-3.8348574889823794e-05,-0.0004509398713707924,-0.0033048391342163086
239,-0.0003808182929860573,0.013020506147953624,-1.9873486437897587,-0.00038078599027357996,-0.013020138256251812,-0.9999151825904846,-0.0001227259635925293,0.0016420185565948486,0.0014516105875372887,-0.00010749557986855507,-0.00010242033749818802,-0.002785623073577881
240,-0.00038681665036883057,0.013051203532792304,-1.987290849352148,-0.00038678370765410364,-0.013050832785665989,-0.9999147653579712,-0.0009071137756109238,0.0027034981176257133,0.0017338418401777744,3.583123907446861e-05,0.0004470730200409889,-0.0036557912826538086
241,-0.0004063118986378212,0.013033812163836847,-1.9872011537422156,-0.0004062773659825325,-0.013033443130552769,-0.9999150037765503,-0.0009027756750583649,0.0020116521045565605,0.0025011878460645676,0.0004825713112950325,-0.0007452433928847313,-0.002938389778137207
242,-0.0004168258504966239,0.013028846639025298,-1.9871640032661342,-0.00041679045534692705,-0.013028478249907494,-0.9999150633811951,0.0010500862263143063,-0.000580071471631527,0.001100082416087389,0.00012687360867857933,-0.0003992561250925064,-0.0037317872047424316
243,-0.0004483154624103428,0.013011213795480162,-1.9871035185279355,-0.0004482775111682713,-0.013010846450924873,-0.9999152421951294,0.0007530390284955502,0.00032218731939792633,0.000934642506763339,-0.0004367325163912028,0.00014768913388252258,-0.00339585542678833
244,-0.0004271359870670476,0.013032958635011777,-1.9870891764029721,-0.00042709970148280263,-0.013032590039074421,-0.9999150037765503,-0.002032010816037655,-0.00037730298936367035,-0.0003937096334993839,0.00030502909794449806,-0.00027307402342557907,-0.003640294075012207
245,-0.00048510839945702333,0.012928649471432768,-1.9870502849800753,-0.0004850678378716111,-0.012928289361298084,-0.9999163150787354,-0.000749773345887661,-3.701448440551758e-05,-0.001099419197998941,0.0006681731902062893,-0.00043840985745191574,-0.0023877620697021484
246,-0.00047472439773485134,0.012946876008678315,-1.9870303673977643,-0.00047468458069488406,-0.012946514412760735,-0.9999160766601562,0.0017559509724378586,-0.0011433488689363003,-0.0004759666044265032,0.0005662371404469013,-0.00011500902473926544,-0.00328826904296875
247,-0.00044447116314272485,0.012991122231717483,-1.9870132925190047,-0.00044443365186452866,-0.012990756891667843,-0.9999155402183533,-0.00015942566096782684,-0.0008631609380245209,9.595602750778198e-05,0.00018503423780202866,0.00032596103847026825,-0.0031514763832092285
248,-0.00043863234491023546,0.012970898078246841,-1.9870165293125748,-0.0004385954234749079,-0.012970534153282642,-0.9999157786369324,0.0015284949913620949,-0.0008183233439922333,-0.0005675649736076593,-0.0004921904765069485,-0.000350387766957283,-0.003303825855255127
249,-0.0004486256000654832,0.012994414450001037,-1.9869957279927055,-0.00044858769979327917,-0.012994049116969109,-0.9999154806137085,-0.0004353141412138939,0.0012763692066073418,-0.00016527250409126282,-0.000543233472853899,-0.00012850947678089142,-0.002464890480041504
250,-0.00043989409622357964,0.013013403475168654,-1.986987564788659,-0.00043985684169456363,-0.013013035990297794,-0.9999152421951294,-0.0013612741604447365,-0.0019612349569797516,-0.0012385580921545625,0.0003330451436340809,-0.0010403087362647057,-0.0022820234298706055
251,-0.00034343241027791967,0.013032762606621957,-1.9870086906671147,-0.00034340322599746287,-0.013032393530011177,-0.9999150037765503,-2.0470470190048218e-05,0.0008865464478731155,-0.001391319907270372,0.0001450390846002847,-0.0005021514371037483,-0.0031977295875549316
252,-0.0003398043443103926,0.013061895516908015,-1.9870255770289171,-0.00033977534621953964,-0.013061524368822575,-0.9999146461486816,0.001625796314328909,-0.0023057558573782444,-0.0017364867962896824,0.00024822261184453964,0.0006713876500725746,-0.0029234886169433594
253,-0.00033885371218736785,0.01311900173680978,-1.9870344846728651,-0.0003388245531823486,-0.013118625618517399,-0.9999138712882996,-0.0006911111995577812,-0.0013256995007395744,-0.0004513098392635584,-0.0004241149581503123,-0.0008584242314100266,-0.002191781997680664
254,-0.0003699530012215677,0.0131296188311063,-1.9870258639869682,-0.0003699210938066244,-0.01312924176454544,-0.99991375207901,0.0017838519997894764,0.0013152649626135826,0.002614343771710992,-0.0009575937874615192,0.00012875348329544067,-0.00397723913192749
255,-0.00037490711294626693,0.013159969320447287,-1.987021315690331,-0.00037487465306185186,-0.01315958984196186,-0.9999133348464966,0.00037754885852336884,0.0005137622356414795,0.00030750478617846966,-0.0007084989920258522,-0.00014607422053813934,-0.003901362419128418
256,-0.0004101069296403163,0.013150146858760588,-1.987027503133658,-0.00041007145773619413,-0.013149768114089966,-0.9999134540557861,-0.0007984200492501259,-0.001612793654203415,-0.0008462276309728622,0.00012015458196401596,-0.0005678832530975342,-0.0014598369598388672
257,-0.0004130406128943675,0.01319042599555564,-1.9870754710668506,-0.0004130046581849456,-0.013190043158829212,-0.9999129176139832,-0.00032202713191509247,-0.003098039887845516,0.001333022490143776,0.0010386151261627674,0.0001895558089017868,-0.0028184056282043457
258,-0.00041367204536385657,0.013218663285157684,-1.9870837672886157,-0.0004136358911637217,-0.01321827806532383,-0.9999125599861145,0.0014747618697583675,0.000806877389550209,0.0007943382952362299,-0.0001661982387304306,0.00021778978407382965,-0.003322303295135498
259,-0.00040959035976387135,0.01313230691621327,-1.987096028903026,-0.00040955503936856985,-0.013131929561495781,-0.9999136924743652,0.0006292811594903469,0.002078072167932987,-0.0004500909708440304,-0.0002923491410911083,0.00020773522555828094,-0.0024666786193847656
260,-0.00043600279133348323,0.01313631483392354,-1.9871633258613983,-0.00043596516479738057,-0.013135937042534351,-0.9999136328697205,-0.0007022293284535408,-0.0019082180224359035,-0.000828619347885251,0.0007716584950685501,0.0006237290799617767,-0.002863466739654541
261,-0.00046365001285373974,0.013081117194124544,-1.9871441226043365,-0.00046361034037545323,-0.013080744072794914,-0.9999143481254578,-0.0017785849049687386,-0.0009569409303367138,0.0012452325318008661,0.00023472821339964867,0.00029387883841991425,-0.0034578442573547363
262,-0.0004095259305733904,0.013041452542172972,-1.9871956911826785,-0.0004094910982530564,-0.01304108276963234,-0.9999148845672607,-0.0030413642525672913,-0.0017475192435085773,0.0016103882808238268,0.0010351012460887432,-0.0007528625428676605,-0.003182649612426758
263,-0.00039129248408392524,0.01303851640679579,-1.9872236550023539,-0.0003912592073902488,-0.013038147240877151,-0.9999149441719055,0.001594693399965763,0.001021429430693388,-0.0007391255348920822,0.0001928950659930706,-0.0011983029544353485,-0.0026485323905944824
264,-0.0003947009560859514,0.013056212739728467,-1.9871993882828338,-0.00039466729504056275,-0.013055841438472271,-0.9999147057533264,-0.0013824235647916794,-0.001977626234292984,0.0006355512887239456,-3.257906064391136e-05,0.00028423499315977097,-0.002725064754486084
265,-0.0003746168497443185,0.013118296677604151,-1.9871869352023035,-0.00037458460428752005,-0.013117920607328415,-0.9999138712882996,0.0013763639144599438,-4.535634070634842e-05,0.0015964861959218979,-0.00014421434025280178,-0.00046240072697401047,-0.002847909927368164
266,-0.00037936074835375285,0.013119157842787726,-1.9871971301932556,-0.0003793280920945108,-0.01311878114938736,-0.9999138712882996,-0.0017369864508509636,0.001188946422189474,0.001799269812181592,0.0004556220956146717,2.6741065084934235e-05,-0.0032446980476379395
267,-0.00037065159331102753,0.01307245802864962,-1.9871887435451365,-0.00037061990587972105,-0.013072085566818714,-0.9999144673347473,-0.0010520275682210922,-2.2938009351491928e-05,3.554532304406166e-05,-0.0006669778376817703,-0.00024883542209863663,-0.0019012689590454102
268,-0.00033938068711274904,0.013070738090813324,-1.9871810392618716,-0.00033935168175958097,-0.013070366345345974,-0.9999145269393921,0.00035596080124378204,0.0015167482197284698,0.00253489357419312,3.417627885937691e-05,0.00016142986714839935,-0.00406801700592041
269,-0.0003298336032324782,0.013091335000377107,-1.9871321279795924,-0.00032980533433146775,-0.013090960681438446,-0.9999142289161682,-0.0014809910207986832,0.001458747312426567,-4.055630415678024e-05,-0.0009366739541292191,2.943817526102066e-05,-0.0032900571823120117
270,-0.0002738626171250231,0.013074181814895712,-1.9870732673128482,-0.0002738392213359475,-0.013073809444904327,-0.9999144673347473,-0.0008892519399523735,-0.00021711410954594612,0.002905061235651374,-9.237133781425655e-05,0.000531085766851902,-0.00306093692779541
271,-0.0002557906814465324,0.013065668304574564,-1.9870315817171111,-0.00025576885673217475,-0.013065296225249767,-0.9999145865440369,-0.0002443874254822731,-0.0004320582374930382,-0.000377072487026453,1.1628057109192014e-05,-0.00031665991991758347,-0.004098415374755859
272,-0.00020541311133402579,0.013061607665310854,-1.9870594267402266,-0.00020539558317977935,-0.013061236590147018,-0.9999147057533264,0.0017192349769175053,-0.00010734284296631813,0.002098148688673973,-0.0007101316004991531,-0.00021391082555055618,-0.002801358699798584
273,-0.0002564667902933934,0.013126039354635943,-1.9869843868546349,-0.000256444705883041,-0.013125662691891193,-0.9999138116836548,0.0008805878460407257,-0.0011643324978649616,-0.00010520266368985176,0.0006226557306945324,0.0004913853481411934,-0.002710700035095215
274,-0.00024563162498293423,0.013116658543122656,-1.9869563426935974,-0.0002456104848533869,-0.013116282410919666,-0.9999139308929443,0.001018553040921688,-0.0007661683484911919,-0.0001603218261152506,-0.0007614698261022568,-0.0001436043530702591,-0.0021917223930358887
275,-0.00028657789844544943,0.013139225937833027,-1.986922516024594,-0.0002865531714633107,-0.013138847425580025,-0.9999136328697205,0.001913405954837799,-0.00029585976153612137,0.00285947322845459,0.0003933645784854889,-0.00022785179316997528,-0.002710878849029541
276,-0.0002700572853621874,0.013096586529230325,-1.9869684974003843,-0.00027003412833437324,-0.013096212409436703,-0.9999142289161682,0.0005264659412205219,-0.001997535116970539,0.0012331767939031124,0.0008498681709170341,-0.0011249789968132973,-0.003976762294769287
277,-0.00029211053048328435,0.013118433325188358,-1.9869023091306672,-0.0002920854021795094,-0.013118057511746883,-0.9999139308929443,0.0015343339182436466,0.0004190625622868538,-0.0007428259123116732,-0.00028774840757250786,-8.079595863819122e-05,-0.002542734146118164
278,-0.0002778618030992812,0.0131575713440264,-1.9868846048130093,-0.00027783773839473724,-0.013157191686332226,-0.9999133944511414,6.848853081464767e-05,0.001706499606370926,-0.0031017884612083435,1.8438324332237244e-05,0.0003550676628947258,-0.0029857754707336426
279,-0.000337749882482897,0.013179489380163745,-1.986948154690453,-0.00033772055758163333,-0.013179107569158077,-0.9999130964279175,-0.0008279010653495789,-0.0003820466808974743,7.808487862348557e-05,-0.0001200428232550621,-9.603798389434814e-05,-0.0024367570877075195
280,-0.0003201912522396051,0.013166475231382965,-1.986933036806633,-0.000320163497235626,-0.01316609513014555,-0.9999132752418518,-0.0022834734991192818,0.0011203931644558907,0.001295991474762559,-0.0006563989445567131,2.827681601047516e-05,-0.0027417540550231934
281,-0.0003849045116948133,0.013169845598443452,-1.9868873441864188,-0.0003848711203318089,-0.013169464655220509,-0.999913215637207,-9.161699563264847e-05,-0.0018144790083169937,-0.00038201548159122467,-0.00031703338027000427,0.0004588942974805832,-0.0027112960815429688
282,-0.0003928663914976237,0.013199551530424156,-1.9868734981551746,-0.0003928321530111134,-0.013199168257415295,-0.9999127984046936,0.0017294380813837051,0.0008764853700995445,-3.443518653512001e-05,0.0002249856770504266,0.00022919848561286926,-0.002910017967224121
283,-0.0003561087206498851,0.013192830576773472,-1.9868844286804166,-0.00035607771133072674,-0.01319244783371687,-0.9999129176139832,0.0019769971258938313,0.003008970059454441,0.0026109409518539906,-0.00014746235683560371,-0.00014373380690813065,-0.0029099583625793457
284,-0.00035088529126874176,0.01313675093938318,-1.9868937579035892,-0.0003508549998514354,-0.013136372901499271,-0.9999136328697205,-0.002281983382999897,0.00016097398474812508,0.0017442635726183653,-0.00036630776594392955,0.000227438285946846,-0.0033059120178222656
285,-0.000346630176192528,0.013142050124801276,-1.9868382964852704,-0.00034660022356547415,-0.013141672126948833,-0.9999135732650757,0.0026284572668373585,0.0008123582229018211,-0.002263298723846674,-0.0005078921094536781,-0.00039287377148866653,-0.0024057626724243164
286,-0.00032788679361451416,0.013194169724045338,-1.9868097264902425,-0.0003278582589700818,-0.013193787075579166,-0.9999129176139832,0.002640015911310911,-0.0003244122490286827,-0.0001860263291746378,0.00054148118942976,0.0006663212552666664,-0.0030167698860168457
287,-0.0003175865398893562,0.013145441865848732,-1.986784760812395,-0.00031755908275954425,-0.013145063072443008,-0.9999135732650757,-0.0008316067978739738,-0.0013473532162606716,-0.00025333999656140804,0.0010194634087383747,6.828084588050842e-05,-0.0031076669692993164
288,-0.00026275280037301504,0.013111009550920715,-1.9867847906361873,-0.0002627302019391209,-0.013110633939504623,-0.9999139904975891,-5.2887946367263794e-05,-4.771631211042404e-06,0.0001031563151627779,0.0008730818517506123,9.488780051469803e-05,-0.0028172731399536133
289,-0.00023515140476220402,0.013116105046726369,-1.986754222262875,-0.00023513117048423737,-0.013115729205310345,-0.9999139308929443,0.0013816929422318935,-0.0007745660841464996,-0.0017941860714927316,0.0006776358932256699,0.0003441227599978447,-0.0027257800102233887
290,-0.0002606143240047956,0.013123551115626695,-1.9867748967729677,-0.00026059188530780375,-0.01312317419797182,-0.9999138712882996,0.002351276110857725,-0.0005650017410516739,-0.0015433747321367264,-0.0003345008008182049,-0.0015557799488306046,-0.0026496052742004395
291,-0.0002679081204809679,0.013178907522905084,-1.9867794039393412,-0.0002678848395589739,-0.013178526423871517,-0.9999130964279175,-0.0005196528509259224,-0.0004010247066617012,-0.0025621780660003424,0.0002526259340811521,0.0014140009880065918,-0.003993093967437744
292,-0.0002486167562173417,0.013181861906276916,-1.9868558549847875,-0.00024859514087438583,-0.013181480579078197,-0.9999130964279175,-0.0019041616469621658,0.00010343501344323158,-0.0009776423685252666,-0.00031598005443811417,0.0006082374602556229,-0.0031539201736450195
293,-0.0002043353550521786,0.013228046845223164,-1.9868368116897965,-0.00020431747543625534,-0.01322766114026308,-0.9999125003814697,0.0014007147401571274,-0.0007910928688943386,-0.0014839109499007463,-0.0014436319470405579,0.0003950195387005806,-0.0028951168060302734
294,-0.00024032068790478145,0.013260749505834089,-1.986845335005677,-0.0002402995596639812,-0.013260360807180405,-0.9999120235443115,0.0002563484013080597,-0.001786661334335804,0.0009647286497056484,0.000164005919941701,-0.0005183247849345207,-0.002819240093231201
295,-0.0002362723309510564,0.013270016477033223,-1.9868790754264811,-0.00023625152243766934,-0.013269627466797829,-0.999911904335022,0.00017996225506067276,-0.0013857735320925713,-0.0024587155785411596,-3.840633144136518e-05,0.0003759516403079033,-0.002559959888458252
296,-0.00026546840493697695,0.01323971749495659,-1.9868977655560118,-0.00026544512365944684,-0.013239330612123013,-0.9999123215675354,-0.0027150046080350876,-0.0011099213734269142,-0.0011361043434590101,-0.0004212004132568836,-0.00024943891912698746,-0.0030021071434020996
297,-0.0003170584417929431,0.013264889984659457,-1.9868882689088259,-0.0003170305280946195,-0.01326450053602457,-0.9999119639396667,0.00011176150292158127,-0.0003869137726724148,-0.0025003254413604736,-0.0007663434371352196,0.0005844477564096451,-0.003094017505645752
298,-0.00036212998670208857,0.013204367347227302,-1.9868803548137661,-0.00036209842073731124,-0.013203983195126057,-0.9999127388000488,0.0003022756427526474,0.000752003863453865,0.0007572630420327187,0.0005604629404842854,0.0001729782670736313,-0.0014299750328063965
299,-0.0003922309218336098,0.013215675507020132,-1.9869201595345527,-0.0003921966708730906,-0.013215290382504463,-0.9999126195907593,0.0005428274162113667,-0.0004705861210823059,0.0008171959780156612,-0.0008132476359605789,-9.03736799955368e-05,-0.0028492212295532227
300,-0.00041902206383171884,0.013205690589444345,-1.9869664529190096,-0.0004189855244476348,-0.013205306604504585,-0.9999127388000488,-0.0010016793385148048,-0.0021850215271115303,-0.001485580112785101,0.0006173495203256607,-0.0007259668782353401,-0.003016948699951172
301,-0.0004653703262840182,0.013179764653679697,-1.9869787484144783,-0.00046532988199032843,-0.013179383240640163,-0.9999130368232727,-0.0007988614961504936,-0.00030737463384866714,-0.001453664037398994,-0.0008164085447788239,-0.0005230102688074112,-0.002635180950164795
302,-0.00044805775631293375,0.013243254668281782,-1.9870142367779413,-0.0004480184579733759,-0.013242867775261402,-0.9999122023582458,-0.0020617330446839333,0.0004558637738227844,-0.0016167203430086374,0.00024965405464172363,0.0004407428205013275,-0.0028191208839416504
303,-0.00046154424750395736,0.01318727715490895,-1.9870430603177127,-0.0004615040961652994,-0.013186895288527012,-0.9999129176139832,-0.0035357018932700157,-0.0021572825498878956,0.0009748986922204494,-0.0004540234513115138,3.302469849586487e-06,-0.0031235218048095703
304,-0.0005178074599007808,0.013194608084591762,-1.9870520202093676,-0.0005177623825147748,-0.013194224797189236,-0.9999127984046936,-0.0014750752598047256,0.0010208413004875183,-2.6789028197526932e-05,0.0001668106415309012,-0.0004013543948531151,-0.004191756248474121
305,-0.0005028725569211851,0.01319463063737503,-1.9870516409755186,-0.0005028287414461374,-0.013194248080253601,-0.9999127984046936,-0.0005117356777191162,0.000612892210483551,0.0013272056821733713,0.000182394462171942,-5.037989467382431e-05,-0.002604842185974121
306,-0.0005154981605823237,0.013174642024083966,-1.9870442233545647,-0.0005154534010216594,-0.013174260966479778,-0.9999130964279175,0.001100076362490654,0.0006239097565412521,-0.0010151376482099295,0.0003628651611506939,-3.985036164522171e-05,-0.0031081438064575195
307,-0.0004604721828305702,0.013157804275294623,-1.9870383190254355,-0.00046043231850489974,-0.01315742451697588,-0.9999133348464966,0.0019579133950173855,-0.0007220394909381866,-0.00019498472101986408,-0.0005924245342612267,-1.0909512639045715e-05,-0.003214716911315918
308,-0.00046336181499681095,0.01312965386031214,-1.9870670608278904,-0.0004633218632079661,-0.013129276223480701,-0.9999136924743652,0.00041083432734012604,-0.00037415046244859695,-0.003686135169118643,0.0005090981721878052,-0.00022216327488422394,-0.0038094520568847656
309,-0.00039806292828318656,0.013137164098628551,-1.9871294754338815,-0.00039802855462767184,-0.0131367864087224,-0.9999136328697205,0.0010514170862734318,3.371387720108032e-05,0.0023155768867582083,0.0001386292278766632,-0.00019939523190259933,-0.002924501895904541
310,-0.000415893237133204,0.013144141492432145,-1.9871554090895573,-0.0004158572992309928,-0.013143762946128845,-0.9999135136604309,0.00026608165353536606,-0.0009191110730171204,0.0005945975426584482,0.0002937871322501451,0.0008299211040139198,-0.0034281015396118164
311,-0.0003486221715416995,0.013190408639656663,-1.9871741884667082,-0.0003485918277874589,-0.013190026395022869,-0.9999129176139832,4.014838486909866e-05,1.7091631889343262e-05,3.8522994145751e-05,-0.0004753828688990325,0.0006015263497829437,-0.0024216175079345703
312,-0.00033419842881915316,0.013162253670590422,-1.9871791281031492,-0.0003341694828122854,-0.013161873444914818,-0.9999133348464966,0.0002966132014989853,-0.0008126473985612392,-0.0008750343695282936,0.0004714988172054291,-0.0001285318285226822,-0.002604365348815918
313,-0.0003424457873799735,0.013187867595470363,-1.9871947346498258,-0.00034241599496454,-0.013187485747039318,-0.9999129772186279,-8.618459105491638e-05,-0.0017060334794223309,-0.001456884783692658,-0.00031371181830763817,0.001087266020476818,-0.0033066272735595703
314,-0.00034332768593626595,0.013178026144735424,-1.9871769510969428,-0.0003432978701312095,-0.013177644461393356,-0.9999130964279175,-0.0002637747675180435,-0.0014865808188915253,0.001954751554876566,0.00014493384514935315,3.982800990343094e-05,-0.003153860569000244
315,-0.00037852086700341256,0.013206032228970207,-1.9871281147345046,-0.0003784878645092249,-0.01320564839988947,-0.9999127388000488,9.445566684007645e-05,0.0006870971992611885,0.0015952978283166885,0.00030219415202736855,-0.00032889749854803085,-0.002330303192138672
316,-0.00039602096512790215,0.013207301653771042,-1.9870951393711893,-0.0003959864261560142,-0.01320691779255867,-0.999912679195404,-0.00035581737756729126,0.0002907784655690193,-9.454437531530857e-05,0.00039598674629814923,0.0010304050520062447,-0.003673076629638672
317,-0.0003846879030840503,0.013138837397884918,-1.9870886101972587,-0.00038465470424853265,-0.01313845906406641,-0.9999136328697205,-0.00027652736753225327,-0.0005147797055542469,0.0007993853650987148,-0.0007902719080448151,6.167776882648468e-05,-0.003168642520904541
318,-0.0003359301681000496,0.013161313330966288,-1.9871443830476918,-0.0003359010734129697,-0.01316093374043703,-0.9999133348464966,-0.0003590090200304985,0.0016464143991470337,0.0006268990691751242,-0.00045755598694086075,0.00020622089505195618,-0.002711176872253418
319,-0.000291877399772726,0.013126978551302834,-1.987168100196461,-0.0002918522513937205,-0.013126601465046406,-0.9999138116836548,-0.0011958684772253036,0.0007389802485704422,-0.0007980135269463062,0.000902203842997551,0.0009500877931714058,-0.002680182456970215
320,-0.00030907872183071896,0.013103689472410574,-1.9871581430791032,-0.0003090521786361933,-0.01310331467539072,-0.9999141097068787,0.00112250167876482,-0.0003952481783926487,-0.0030139321461319923,0.00027853483334183693,-0.00041597336530685425,-0.003412306308746338
321,-0.00033529945748253753,0.01309699177680016,-1.9872445997203565,-0.00033527068444527686,-0.01309661753475666,-0.9999141693115234,0.0009384341537952423,0.0010251384228467941,0.002455177018418908,0.0005031172186136246,1.983530819416046e-05,-0.0016269683837890625
322,-0.00032121074859116664,0.013075710464742532,-1.987217452568761,-0.00032118329545482993,-0.013075337745249271,-0.9999144673347473,-0.00047621410340070724,-0.0008707167580723763,-0.0009304489940404892,-0.0005790852010250092,0.000456320121884346,-0.0036866068840026855
323,-0.00031031129178284405,0.013109301097448543,-1.9872267172312046,-0.0003102846094407141,-0.013108925893902779,-0.9999140501022339,0.0010709990747272968,0.0004999460652470589,0.0012612729333341122,-0.0004984312690794468,3.2143667340278625e-05,-0.0031682252883911133
324,-0.0003752975362114349,0.013112615163956804,-1.9871774244785303,-0.0003752652555704117,-0.01311223953962326,-0.9999139308929443,0.0005804677493870258,-0.0009142528288066387,-0.0014032898470759392,-0.00047922690282575786,-0.0005443757399916649,-0.004038035869598389
325,-0.00038726602531416026,0.013111563816520193,-1.9871503102629084,-0.0003872327215503901,-0.01311118807643652,-0.9999139904975891,0.0026065572164952755,-0.0005993247032165527,0.0015593671705573797,6.679818034172058e-05,-0.000133441761136055,-0.0026800036430358887
326,-0.0003726992131397128,0.013119423217645133,-1.987156212611251,-0.0003726671275217086,-0.013119046576321125,-0.9999138712882996,-9.104888886213303e-05,0.0016112672165036201,-0.000937687698751688,-0.0006038951687514782,-0.0005528274923563004,-0.0030158162117004395
327,-0.00038073391003034146,0.013165688613702965,-1.9872365480465872,-0.00038070089067332447,-0.01316530816257,-0.9999132752418518,0.000245408620685339,0.00018358789384365082,-0.0022421309258788824,0.0002891481854021549,-3.026798367500305e-06,-0.0026807188987731934
328,-0.00042381033306344135,0.013126567377944974,-1.9872764533824552,-0.00042377380304969847,-0.013126190751791,-0.99991375207901,-0.0018276674672961235,-0.00014395173639059067,-0.0012867941986769438,2.704514190554619e-05,3.6312267184257507e-06,-0.0023598074913024902
329,-0.00043985367263409,0.013067988086101323,-1.9873219892339609,-0.0004398160963319242,-0.013067616149783134,-0.9999145269393921,-0.0008775051683187485,-0.002056024968624115,-0.0012583242496475577,-0.0001400178298354149,-0.00045167095959186554,-0.00341188907623291
330,-0.00048249572316917796,0.012963042799505988,-1.9873674047387857,-0.0004824551579076797,-0.012962679378688335,-0.9999158382415771,-0.0007369983941316605,0.0014252318069338799,-0.0014037375804036856,0.0010470305569469929,0.00023685116320848465,-0.003441035747528076
331,-0.00044191407414896476,0.012967435973182905,-1.9873257300453202,-0.00044187690946273506,-0.012967072427272797,-0.9999158382415771,-0.0031404979526996613,-0.0006204140372574329,-0.002144599799066782,-0.00030580395832657814,0.00011917203664779663,-0.0029070377349853516
332,-0.0004148016475268448,0.012901351549402805,-1.9873318727916187,-0.00041476712794974446,-0.01290099322795868,-0.999916672706604,0.0011649341322481632,-0.00033019063994288445,0.0014173223171383142,-0.00030239575426094234,0.0006939638406038284,-0.0023720860481262207
333,-0.00039759096957272947,0.01288945767815825,-1.9873156501167286,-0.00039755794568918645,-0.012889101170003414,-0.9999168515205383,0.0015741693787276745,0.0008041420951485634,0.0005049093160778284,0.0003365227021276951,8.697621524333954e-05,-0.00316542387008667
334,-0.0003835260081240237,0.012893075578758458,-1.9873232189176029,-0.0003834941308014095,-0.01289271842688322,-0.9999167919158936,-5.383603274822235e-05,-0.0011691665276885033,-0.000547630712389946,0.0002919412509072572,-0.0005960501730442047,-0.00217360258102417
335,-0.00032548246375945286,0.012921991579242037,-1.9873238304915202,-0.00032545527210459113,-0.012921632267534733,-0.9999164342880249,-0.00044293515384197235,-0.0006397441029548645,-7.965695112943649e-05,0.0003101965703535825,2.795550972223282e-05,-0.0027995705604553223
336,-0.00031275963136886975,0.012926595968938548,-1.9873873231794494,-0.00031273349304683506,-0.012926235795021057,-0.9999163746833801,-0.00020834151655435562,-0.0018273084424436092,-0.0007280188146978617,0.00032799228210933506,0.00044454727321863174,-0.0028606653213500977
337,-0.0003382036194428213,0.012972325690737486,-1.9874098064708656,-0.0003381751594133675,-0.012971961870789528,-0.9999157786369324,0.00029969681054353714,1.068413257598877e-05,-0.0011992895742878318,-0.00010432951967231929,0.0008107079192996025,-0.0028307437896728516
338,-0.0003818786449368888,0.012942566076726909,-1.9873820070745973,-0.00038184665027074516,-0.012942205183207989,-0.9999161958694458,-0.0024880236014723778,0.00023565534502267838,0.0012397801037877798,-0.000533680897206068,0.00018585659563541412,-0.0027693510055541992
339,-0.00030706354600051064,0.012879956716415035,-1.98737133766229,-0.0003070380771532655,-0.012879600748419762,-0.9999170303344727,0.0014481768012046814,0.002077162265777588,0.001582679571583867,-0.00018124328926205635,-5.985237658023834e-05,-0.004385948181152344
340,-0.0002955665313196652,0.012866436940604215,-1.9873742551216802,-0.00029554206412285566,-0.012866081669926643,-0.999917209148407,0.000304199755191803,-0.0005595209077000618,0.002070862799882889,6.665987893939018e-05,0.0007658619433641434,-0.0028904080390930176
341,-0.000287484719525934,0.01283444637175838,-1.9874187174484843,-0.00028746103635057807,-0.0128340944647789,-0.9999176263809204,0.0027863262221217155,-0.0005319868214428425,0.001427206676453352,1.2802425771951675e-05,-0.00025794655084609985,-0.00304257869720459
342,-0.0002846126309345747,0.012839377464557452,-1.9874062911651322,-0.00028458915767259896,-0.012839024886488914,-0.9999175071716309,0.0005229772068560123,0.002581504173576832,0.000645756721496582,-0.0002952450595330447,6.38328492641449e-06,-0.0027832388877868652
343,-0.0002573533384151293,0.012869557763974717,-1.9874213601754709,-0.0002573320234660059,-0.01286920253187418,-0.9999171495437622,0.00035661179572343826,0.002064672764390707,-0.0009490472730249166,-0.0007650069892406464,-5.499180406332016e-05,-0.002936244010925293
344,-0.0002817823153639554,0.012891669058824724,-1.9874019555469733,-0.000281758897472173,-0.012891312129795551,-0.9999168515205383,0.0004935502074658871,-6.305146962404251e-05,0.0023825853131711483,-0.00040488640661351383,-7.86585733294487e-05,-0.0031043291091918945
345,-0.0003222885566927067,0.012873291592815299,-1.9873084140034947,-0.000322261854307726,-0.012872936204075813,-0.9999170899391174,-0.00177804846316576,-7.463805377483368e-05,0.0009392602369189262,1.8272548913955688e-06,-0.0008599739521741867,-0.0028447508811950684
346,-0.00039199844006359045,0.01292733547998224,-1.9873105360626215,-0.00039196567377075553,-0.012926975265145302,-0.9999163746833801,0.0019206535071134567,-0.0002320706844329834,-0.0011707684025168419,-0.00020312704145908356,0.0003842506557703018,-0.001716315746307373
347,-0.0003807144699146619,0.012963544014339098,-1.987336748001376,-0.00038068246794864535,-0.012963181361556053,-0.9999158978462219,0.0015365979634225368,0.0014626914635300636,-0.0010468611726537347,-0.0003517391160130501,-0.00028144754469394684,-0.003563106060028076
348,-0.0003562345298145926,0.012923525926265934,-1.987322736824367,-0.00035620477865450084,-0.012923166155815125,-0.9999164342880249,0.001463248860090971,-0.0012080250307917595,0.0018368479795753956,-5.57824969291687e-05,-3.154575824737549e-05,-0.0027996301651000977
349,-0.00041483354217370386,0.01293586806346356,-1.9872995492509793,-0.00041479882202111185,-0.012935507111251354,-0.9999162554740906,-0.0007730675861239433,-0.00026016775518655777,0.00041685556061565876,0.00038428138941526413,-0.0004922272637486458,-0.002494633197784424
350,-0.0003850218944293899,0.012956544005749176,-1.9873355348855026,-0.00038498957292176783,-0.012956181541085243,-0.9999160170555115,0.0007416149601340294,0.0021520713344216347,0.001596452435478568,4.92963008582592e-05,6.250478327274323e-05,-0.0028000473976135254
351,-0.0003879758350855078,0.012948436686568813,-1.9872917395548797,-0.0003879432915709913,-0.01294807530939579,-0.9999160766601562,-0.0009555388242006302,0.0012922929599881172,5.24311326444149e-06,0.0005863076075911522,0.0004053516313433647,-0.0034255385398864746
352,-0.0003771655432252042,0.012941819605296407,-1.9873276058559806,-0.00037713395431637764,-0.012941458262503147,-0.9999161958694458,0.002545146271586418,0.003063598647713661,-0.00048380810767412186,0.00037713395431637764,-8.954759687185287e-05,-0.0031203031539916992
353,-0.00038023019837205425,0.012885652552864932,-1.9873125774765277,-0.00038019861676730216,-0.012885295785963535,-0.9999169111251831,0.00215652072802186,-0.0006874985992908478,-0.0013315572869032621,-0.0003979993052780628,-0.0008476143702864647,-0.0033942461013793945
354,-0.0004050057937005301,0.012899803257654104,-1.9872994808234565,-0.00040497208829037845,-0.012899445369839668,-0.9999167323112488,-0.001683737151324749,-0.0008267229422926903,0.0014807952102273703,-0.0002969321794807911,-0.0011844169348478317,-0.0031655430793762207
355,-0.0004604647447265307,0.012946070619677124,-1.9872913920847908,-0.0004604261484928429,-0.012945708818733692,-0.9999160766601562,0.0004334249533712864,-0.0012316671200096607,7.189810276031494e-06,-0.0004703597805928439,-0.0010160813108086586,-0.004203736782073975
356,-0.0004651031153592573,0.012900659554118576,-1.9872838773100012,-0.0004650643968489021,-0.01290030125528574,-0.999916672706604,-0.0009064283221960068,-0.0001446749083697796,0.0011874365154653788,-0.00038942787796258926,-0.0008783843368291855,-0.003470778465270996
357,-0.0004809607531350656,0.012936244613198342,-1.9872523692620345,-0.00048092048382386565,-0.012935883365571499,-0.9999161958694458,0.00046928320080041885,0.0015431377105414867,0.0015904786996543407,-0.00011417220230214298,1.1690892279148102e-05,-0.0018842816352844238
358,-0.0004530573259086116,0.012896053511917072,-1.9872541273343902,-0.0004530196310952306,-0.012895695865154266,-0.9999167323112488,-0.00015411712229251862,-0.0009556724689900875,0.0010745725594460964,0.0001936201297212392,0.0001240912824869156,-0.0021584033966064453
359,-0.00043327974329813816,0.012879229316048962,-1.9872740465166832,-0.0004332437820266932,-0.012878873385488987,-0.9999169707298279,-0.001170688308775425,0.005436055827885866,0.0010408628731966019,-0.00013133138418197632,-4.532095044851303e-05,-0.003317892551422119
360,-0.0004794513302114029,0.01288870209088148,-1.9872901503501368,-0.00047941147931851447,-0.012888344936072826,-0.9999168515205383,-0.000958343967795372,0.0009991140104830265,0.0005441927351057529,-0.00010042218491435051,0.000589761883020401,-0.00263136625289917
361,-0.00043778997646072527,0.012899131048442636,-1.9873491601901205,-0.00043775353697128594,-0.012898772954940796,-0.9999167323112488,-0.0017326520755887032,-0.0004067271947860718,-0.000658281845971942,1.0507181286811829e-05,-0.0005442192777991295,-0.0019753575325012207
362,-0.00041132173302719084,0.012893992737293893,-1.987383397259318,-0.0004112875321879983,-0.012893635779619217,-0.9999167919158936,-0.0018913131207227707,0.0040153805166482925,0.0009094439446926117,0.00019766483455896378,-0.0002594403922557831,-0.0030281543731689453
363,-0.0003848691369045129,0.012928803612504402,-1.9873721980005257,-0.0003848369524348527,-0.012928443029522896,-0.9999163746833801,0.0016023446805775166,0.004175200127065182,-0.0002895672805607319,-0.00030180858448147774,0.0003552008420228958,-0.003638923168182373
364,-0.0003787136546762579,0.012894088270863578,-1.98737499605775,-0.00037868216168135405,-0.012893730774521828,-0.9999167919158936,0.0022004633210599422,0.0001710960641503334,-0.0006159949116408825,-0.0004910691641271114,6.10891729593277e-05,-0.0026009082794189453
365,-0.0004095623525584783,0.012937654008027658,-1.987403196293122,-0.00040952806011773646,-0.012937293387949467,-0.9999162554740906,-8.208677172660828e-05,-0.00010808045044541359,0.0016743254382163286,-1.771794632077217e-05,-1.741945743560791e-05,-0.003501713275909424
366,-0.00045591554888447594,0.012912550021732345,-1.98735587152056,-0.00045587751083076,-0.012912191450595856,-0.9999165534973145,0.0012045209296047688,-0.0006490391679108143,0.00010654563084244728,0.00010492512956261635,-0.0003629550337791443,-0.003455638885498047
367,-0.00040753164721551196,0.012920482506587975,-1.9873578399161729,-0.00040749763138592243,-0.012920122593641281,-0.9999164342880249,0.0004165489226579666,-0.0008156616240739822,-0.0003723064437508583,0.0007279324345290661,-0.00024821050465106964,-0.004020273685455322
368,-0.0003910892382085018,0.012984962926462798,-1.9873181403697833,-0.00039105626638047397,-0.01298459805548191,-0.999915599822998,-0.0005091642960906029,0.0011651022359728813,0.0014185463078320026,-0.0009059407748281956,-1.588929444551468e-05,-0.0034870505332946777
369,-0.0004424185249308603,0.012991957252251283,-1.9872795377731332,-0.0004423811624292284,-0.012991591356694698,-0.9999154806137085,-0.0006607454270124435,-0.0019982499070465565,-0.0007955313194543123,0.0003203107335139066,0.00044886767864227295,-0.0030904412269592285
370,-0.00041136579218285595,0.013036614498290685,-1.987325219094646,-0.0004113308386877179,-0.013036245480179787,-0.9999149441719055,-0.0006412127986550331,-0.0017501325346529484,0.0013048280961811543,0.0002282252535223961,0.0005087796598672867,-0.0029231905937194824
371,-0.00044404167227777425,0.013011524498825394,-1.9873466127464978,-0.00044400407932698727,-0.013011157512664795,-0.9999152421951294,-0.0023791221901774406,-0.0018850136548280716,-0.0013385602505877614,0.00018460489809513092,-0.00015717744827270508,-0.0014275312423706055
372,-0.00046198597436701404,0.013003025400644365,-1.9873335448836371,-0.0004619469109456986,-0.013002659194171429,-0.999915361404419,-0.0007024863734841347,0.000622983556240797,0.0014657739084213972,0.00024832412600517273,0.0007040742784738541,-0.0027549266815185547
373,-0.0004116581010547553,0.012987562387215431,-1.9873454177881225,-0.00041162336128763855,-0.012987197376787663,-0.999915599822998,-0.0029596108943223953,0.001108597032725811,0.0006685771513730288,4.541222006082535e-05,1.967884600162506e-06,-0.002998828887939453
374,-0.00038860944185367425,0.012944521897023003,-1.9872986986182308,-0.00038857688196003437,-0.012944160029292107,-0.999916136264801,-0.0005025863647460938,-0.0018223500810563564,0.0013953091111034155,0.00012917723506689072,-0.00011736247688531876,-0.0019454360008239746
375,-0.00042358019776081836,0.012949151659740876,-1.98725951513541,-0.0004235446685925126,-0.01294878963381052,-0.9999160766601562,0.0009625540114939213,-0.0010921116918325424,0.0016139396466314793,0.0003319918178021908,2.4596229195594788e-05,-0.00193023681640625
376,-0.00044203623902957785,0.012986433629356238,-1.9872413817212509,-0.00044199894182384014,-0.012986068613827229,-0.999915599822998,-0.00030739791691303253,-4.731025546789169e-05,0.0009608922991901636,0.0002283756621181965,0.00029075611382722855,-0.003227710723876953
377,-0.0004346648938660347,0.012942072286109873,-1.9872636649396695,-0.0004346284840721637,-0.012941710650920868,-0.999916136264801,-0.0017437897622585297,-0.00101190572604537,-0.0012386062880977988,-0.0006792629137635231,-5.877576768398285e-05,-0.0025252103805541992
378,-0.0004948823933896742,0.01290203843805873,-1.9872409192390097,-0.0004948411951772869,-0.012901680544018745,-0.999916672706604,-0.0005637295544147491,0.00012131733819842339,-0.002697749063372612,0.0004032882861793041,-0.0006328653544187546,-0.002326369285583496
379,-0.0004980836954413747,0.012918634958382713,-1.9872672386967074,-0.0004980420926585793,-0.012918275780975819,-0.9999164342880249,0.0005008806474506855,0.0008494742214679718,0.0006741788238286972,-0.00015808548778295517,0.00011615175753831863,-0.0027538537979125977
380,-0.00043296034940654767,0.012943283740450394,-1.9872446191684503,-0.000432924076449126,-0.012942922301590443,-0.999916136264801,0.0014517707750201225,-0.0003966432996094227,-0.0012626242823898792,-0.00033001555129885674,0.00044597405940294266,-0.0026168227195739746
381,-0.0003894028069627932,0.01290778692946078,-1.987294218564781,-0.00038937036879360676,-0.012907428666949272,-0.9999166131019592,-0.0024755774065852165,-0.00010548252612352371,-0.0013290654169395566,-0.0001599462702870369,0.0005020331591367722,-0.0031046271324157715
382,-0.0004539123346848638,0.012862644146606934,-1.9872847563844658,-0.00045387475984171033,-0.01286228932440281,-0.9999171495437622,0.0007094629108905792,0.0001278943382203579,-0.00018852483481168747,0.0007132738828659058,-0.0011452781036496162,-0.0023258328437805176
383,-0.00044542543522240575,0.012885738243920369,-1.9872716405038302,-0.00044538843212649226,-0.0128853814676404,-0.9999168515205383,-0.0016906540840864182,-0.0008275420404970646,-0.0009528074879199266,0.00014021250535733998,-0.00016088131815195084,-0.0023566484451293945
384,-0.0004407173290460282,0.012934318779897485,-1.9872678830095212,-0.00044068045099265873,-0.012933958321809769,-0.9999162554740906,0.0013943319208920002,0.0010642912238836288,0.0004216497763991356,0.00018128100782632828,-9.704753756523132e-05,-0.003288090229034424
385,-0.0004714372592991883,0.012937217450841533,-1.987290046473864,-0.00047139779780991375,-0.012936856597661972,-0.9999161958694458,0.0010919836349785328,0.0002939356490969658,0.00238200300373137,-0.0006882702000439167,-0.00026199594140052795,-0.0026015043258666992
386,-0.000463373197547149,0.012926815095759141,-1.9873222045202708,-0.00046333446516655385,-0.012926454655826092,-0.9999163150787354,0.000826934352517128,-0.0003888416104018688,0.0005646939389407635,0.00038704092730768025,-4.351511597633362e-05,-0.003379523754119873
387,-0.0004612457003088471,0.01296822544360228,-1.9872808585692359,-0.00046120688784867525,-0.01296786218881607,-0.9999157786369324,0.00018577836453914642,0.0006882604211568832,0.0009534680284559727,-0.0004238029650878161,-0.0005972003564238548,-0.0028002262115478516
388,-0.0004676709074254724,0.012987782387201248,-1.9872909940624064,-0.0004676314420066774,-0.012987417168915272,-0.9999155402183533,-0.00024279486387968063,0.000791642814874649,0.0005769343115389347,0.0006659957580268383,0.00017003435641527176,-0.0036397576332092285
389,-0.00047452713981360463,0.01297434730583574,-1.9872849135453137,-0.00047448716941289604,-0.012973982840776443,-0.9999157190322876,0.0007790750823915005,-0.0013119950890541077,0.0008815145120024681,0.00018456997349858284,-0.0007894448935985565,-0.0029224157333374023
390,-0.0004327250527296579,0.013018589002083542,-1.9872586388401914,-0.0004326883645262569,-0.013018221594393253,-0.9999151825904846,-0.0006489865481853485,-0.0006651696749031544,0.0017763357609510422,-0.0006964621134102345,-0.0007757246494293213,-0.003243386745452881
391,-0.0004955496434306101,0.013057933860149338,-1.9872681386062583,-0.0004955073818564415,-0.01305756252259016,-0.9999146461486816,0.0003350209444761276,0.0008903332054615021,0.0010527835693210363,-0.0006183842197060585,-6.499607115983963e-05,-0.0025267601013183594
392,-0.0005159391953804374,0.01304579597788157,-1.9872880290174615,-0.0005158952553756535,-0.013045425526797771,-0.9999147653579712,0.00031572021543979645,0.001363334245979786,0.0005759147461503744,-0.00041489070281386375,0.00045692548155784607,-0.0027097463607788086
393,-0.00045329879936835925,0.01303252713958991,-1.9872419331198574,-0.0004532602906692773,-0.0130321579053998,-0.9999150037765503,-0.002436297945678234,0.0015746727585792542,0.0009503066539764404,-0.00041649071499705315,-0.00044135283678770065,-0.003228306770324707
394,-0.0004595217942675932,0.013082117004815621,-1.9872537469217846,-0.0004594824567902833,-0.013081744313240051,-0.9999143481254578,0.0008072112686932087,0.0017073070630431175,-0.00024544051848351955,-0.0005170800723135471,0.00034065451472997665,-0.0029085278511047363
395,-0.0004808069194215817,0.013097391432479144,-1.9872257992466507,-0.00048076565144583583,-0.01309701707214117,-0.9999141097068787,0.001150738913565874,9.245239198207855e-06,0.00026593776419758797,-0.0008009728044271469,0.0003406694158911705,-0.002710402011871338
396,-0.0005474614920010222,0.013155900807742692,-1.9872344807154685,-0.0005474140634760261,-0.013155520893633366,-0.9999133348464966,0.0016544517129659653,0.0005263304337859154,-0.0025289268232882023,0.0004100850783288479,-0.00010436587035655975,-0.003016352653503418
397,-0.0005577878211315447,0.01319539008355026,-1.987228293132625,-0.0005577392294071615,-0.013195007108151913,-0.9999127984046936,-0.0009447578340768814,-0.001240563578903675,-0.001061244634911418,0.0001762695610523224,-0.0003090202808380127,-0.0030779242515563965
398,-0.0005465219344386427,0.013208749663982514,-1.9872764357253943,-0.0005464742425829172,-0.013208365999162197,-0.9999126195907593,0.0015564225614070892,-0.0009000017307698727,-0.0018246322870254517,0.00011922791600227356,0.0002841707319021225,-0.004359841346740723
399,-0.0005268028884916258,0.01315349467348831,-1.9872815217257893,-0.0005267572705633938,-0.013153115287423134,-0.9999133348464966,-0.0021023862063884735,0.0007602600380778313,0.0002612834796309471,-0.00015988847007974982,-0.00030513573437929153,-0.0022838711738586426
400,-0.0005087512550362647,0.013169795558064457,-1.9872893517195145,-0.0005087071331217885,-0.013169415295124054,-0.9999131560325623,-0.00267703365534544,0.0022083595395088196,0.0007963371463119984,9.671971201896667e-05,1.0794028639793396e-06,-0.002787649631500244
401,-0.0004439880466613819,0.013130233600214428,-1.9872731917162223,-0.000443949771579355,-0.013129856437444687,-0.9999136924743652,-0.0007298141717910767,-3.637745976448059e-05,-0.00036227679811418056,0.0005049849860370159,0.0004955790936946869,-0.0026803016662597656
402,-0.0004694724511753354,0.013113208356992458,-1.9873116846572951,-0.00046943206689320505,-0.01311283279210329,-0.9999139308929443,-0.00053371861577034,-0.001413014717400074,-0.0013287692563608289,-3.5907141864299774e-06,-0.00029964372515678406,-0.002939462661743164
403,-0.0005470427125478625,0.013103282889424672,-1.9872867083023855,-0.000546995725017041,-0.013102907687425613,-0.9999139904975891,-0.0016733556985855103,0.0005600340664386749,-0.00043040397576987743,0.00045544287422671914,-0.000355343334376812,-0.0036870241165161133
404,-0.0005259477054658632,0.013099258018421444,-1.9872817255076738,-0.0005259025492705405,-0.0130988834425807,-0.9999140501022339,-0.0031527727842330933,5.183182656764984e-05,0.0006204093806445599,0.0004801261820830405,3.7360936403274536e-05,-0.003519117832183838
405,-0.0005577719360951631,0.013110583314660694,-1.9872777235060448,-0.0005577239790000021,-0.01311020739376545,-0.9999139308929443,0.0022525861859321594,-0.0018860367126762867,0.0014574129600077868,-0.00018995627760887146,0.0006285179406404495,-0.002954721450805664
406,-0.0005868668586668617,0.013001993590508926,-1.9872856351372523,-0.0005868172156624496,-0.013001627288758755,-0.9999153017997742,-0.002123362384736538,0.0008593425154685974,0.0004333364777266979,-0.00029819225892424583,-0.00012093130499124527,-0.00379258394241333
407,-0.0006015041210863017,0.01304571442059889,-1.9872592730013154,-0.0006014528917148709,-0.01304534450173378,-0.9999147057533264,-0.001875346526503563,0.0015549566596746445,-0.0010813134722411633,0.0005556769319809973,-7.721316069364548e-05,-0.0031522512435913086
408,-0.0005913513478797666,0.013009660604930983,-1.987274677697257,-0.0005913012428209186,-0.01300929393619299,-0.9999151825904846,0.0013943538069725037,0.000840325839817524,0.00033351476304233074,0.000438713061157614,0.00014613568782806396,-0.0037621259689331055
409,-0.0005833580160583118,0.01301190188546224,-1.9872550106913534,-0.0005833085742779076,-0.013011534698307514,-0.9999151825904846,0.0017656832933425903,0.0007059276103973389,0.001299307681620121,0.00021709734573960304,-0.0002025766298174858,-0.004067361354827881
410,-0.000620264396116214,0.013008704091004502,-1.9872589064649804,-0.0006202118820510805,-0.01300833746790886,-0.9999151825904846,0.00018859375268220901,-0.0003580697812139988,0.0005539108533412218,0.0004065889515914023,-0.0005109487101435661,-0.0025109052658081055
411,-0.0005779747308069619,0.012974503411448743,-1.987232963203177,-0.0005779260536655784,-0.012974139302968979,-0.9999156594276428,0.0017475001513957977,0.0007881773635745049,0.00045005232095718384,0.0003643031232059002,0.0004771910607814789,-0.0029072165489196777
412,-0.0005873861792846511,0.012959869690655202,-1.9872437543801558,-0.0005873368354514241,-0.012959507293999195,-0.9999158382415771,0.0002488577738404274,-0.0005722153000533581,-4.373886622488499e-05,0.0005568191409111023,0.00017264112830162048,-0.0027544498443603516
413,-0.0005261949825515125,0.012852251398844316,-1.987225206955422,-0.0005261515034362674,-0.01285189762711525,-0.9999172687530518,-0.0018257563933730125,0.00015109684318304062,0.000531297642737627,-7.905997335910797e-06,-0.00028591975569725037,-0.002249479293823242
414,-0.0005421755379300261,0.012839386316204869,-1.9872388853894756,-0.0005421308451332152,-0.012839033268392086,-0.9999174475669861,0.001044910866767168,-0.00035992544144392014,-0.0016899468610063195,-0.0002665850333869457,0.00012846291065216064,-0.003210604190826416
415,-0.0005575862551094698,0.012853039539102214,-1.9872371305078251,-0.0005575401592068374,-0.012852685526013374,-0.9999172687530518,-0.0038713933899998665,-0.001500643789768219,0.001371908001601696,-0.00015962310135364532,-0.00010202638804912567,-0.002936124801635742
416,-0.0005587935805339593,0.01281847309453544,-1.9872643562581591,-0.0005587476189248264,-0.012818122282624245,-0.9999176859855652,-0.0004851818084716797,0.0017554108053445816,0.0026029369328171015,-0.00038729701191186905,7.703341543674469e-05,-0.0032866597175598145
417,-0.0005088888544575125,0.012879576032049514,-1.9872986375778205,-0.0005088465986773372,-0.012879219837486744,-0.9999169111251831,-0.0010126875713467598,0.002148428000509739,-0.0019433132838457823,-0.0002083167782984674,-0.00039592478424310684,-0.003394186496734619
418,-0.00045400508454370017,0.012945405651820304,-1.9873064242686516,-0.0004539670189842582,-0.012945043854415417,-0.9999160766601562,0.001152760349214077,0.0027357973158359528,-0.0007753525860607624,-0.00012586681987158954,-0.00036061927676200867,-0.0024642348289489746
419,-0.0004253136676532701,0.012961758942158664,-1.9873260796061076,-0.0004252779181115329,-0.012961396016180515,-0.9999158978462219,-0.001412861980497837,0.0006369436159729958,-0.00017313542775809765,2.8549693524837494e-05,0.0003271186724305153,-0.002327144145965576
420,-0.00036982771770025793,0.0130310884188425,-1.9873221747807186,-0.00036979629658162594,-0.013030719943344593,-0.9999150037765503,0.0004341471940279007,0.00033250264823436737,-0.002415998373180628,0.00030876140226610005,0.00016756169497966766,-0.0030756592750549316
421,-0.0004109925223134306,0.013039862046042969,-1.9873300553643358,-0.0004109575820621103,-0.013039492070674896,-0.9999148845672607,-0.00025155209004879,-6.4820051193237305e-06,-0.0002936939708888531,4.4746819185093045e-05,-0.00017461832612752914,-0.0033962130546569824
422,-0.00045028990007381565,0.013055305770771741,-1.9873101251181222,-0.0004502515075728297,-0.01305493526160717,-0.9999147057533264,0.0005431957542896271,-0.00201644329354167,-0.0009590191766619682,0.00014507537707686424,-0.0001896936446428299,-0.002526700496673584
423,-0.0005425701838242527,0.013013593824785268,-1.9872913075519985,-0.0005425242125056684,-0.01301322691142559,-0.9999151825904846,-0.0018978817388415337,-0.000536829698830843,-0.0006899281870573759,0.00023734848946332932,-0.0007502017542719841,-0.003151834011077881
424,-0.0005428452714977996,0.01298555054537358,-1.9873204261338009,-0.0005427994765341282,-0.012985185720026493,-0.9999155402183533,-0.00196676142513752,-0.0009726807475090027,-0.001096378080546856,-0.0003727278672158718,6.099138408899307e-05,-0.0038076043128967285
425,-0.000571057577224659,0.01298185199290279,-1.9873028260521406,-0.0005710094119422138,-0.012981487438082695,-0.999915599822998,-0.00102260522544384,-0.0009660418145358562,0.00016937777400016785,-0.00032925931736826897,0.00011832825839519501,-0.003441333770751953
426,-0.0005979131201499835,0.012969095580129186,-1.9873729176296788,-0.000597862817812711,-0.012968732044100761,-0.9999157190322876,-0.0005647344514727592,-0.00028893863782286644,0.0004558805376291275,-0.0006838757544755936,-4.7015026211738586e-05,-0.0025256872177124023
427,-0.0006454880540808382,0.012990128705360201,-1.9873350110883208,-0.0006454335525631905,-0.012989763170480728,-0.9999154210090637,-0.000802328810095787,0.001145356334745884,-0.0003276742063462734,-2.595316618680954e-05,-0.00025486573576927185,-0.0035178065299987793
428,-0.0006521543635131989,0.013030039722134611,-1.9873104925241067,-0.0006520989700220525,-0.013029671274125576,-0.9999148845672607,0.0004121800884604454,0.0003600548952817917,-0.00043631321750581264,0.00030114693799987435,0.00025806576013565063,-0.004189670085906982
429,-0.0006537466826986096,0.013057235762575635,-1.987297729894596,-0.000653690891340375,-0.013056864961981773,-0.9999145269393921,0.003683629911392927,0.00033090589568018913,-0.00023704278282821178,-0.0001550251035951078,0.000315777026116848,-0.0026031136512756348
430,-0.0006447152004144488,0.013053922032083472,-1.9873150546259697,-0.0006446602055802941,-0.013053551316261292,-0.9999145865440369,-0.00022166408598423004,0.001192382536828518,0.00024381931871175766,0.0001411200501024723,0.0001751333475112915,-0.0029082894325256348
431,-0.0005847607843576767,0.013059358707599904,-1.9873234349198856,-0.0005847109132446349,-0.013058987446129322,-0.9999145865440369,-9.562913328409195e-05,0.0010961806401610374,-0.000719528878107667,-0.000513921957463026,0.00042471010237932205,-0.0026946663856506348
432,-0.0005788976064291338,0.012982726700636457,-1.9873286699546318,-0.0005788487615063787,-0.012982361949980259,-0.9999155402183533,-0.00302038062363863,-0.0027638650499284267,0.00011985562741756439,7.530866423621774e-05,-9.442027658224106e-05,-0.003059864044189453
433,-0.0005276398579293469,0.012959070627401445,-1.9873406969096712,-0.0005275955190882087,-0.012958708219230175,-0.9999158978462219,-0.0005325460806488991,-0.0006263446994125843,-0.0010531549341976643,-0.0001743086613714695,-0.001003083772957325,-0.002937495708465576
434,-0.0004986969431675292,0.012990366301823415,-1.9873180092581377,-0.0004986548447050154,-0.012990000657737255,-0.9999154806137085,0.0009732400067150593,0.002097663003951311,7.315329276025295e-05,-0.0007067894912324846,-0.00033092033118009567,-0.0031362175941467285
435,-0.0004716013743074631,0.013012445866108117,-1.987342462239462,-0.0004715614195447415,-0.01301207859069109,-0.9999152421951294,-0.0029839426279067993,-0.00022532371804118156,-0.0011867060093209147,1.3797543942928314e-05,0.00025573093444108963,-0.0021904706954956055
436,-0.00044778026921078176,0.012976121170709542,-1.9873555023738056,-0.0004477425536606461,-0.012975757010281086,-0.9999157190322876,0.00016077794134616852,-0.00013244524598121643,0.00025386642664670944,-0.00048304395750164986,5.786307156085968e-06,-0.0032733678817749023
437,-0.0004518725359909917,0.012929212940230132,-1.9873836214814127,-0.00045183475594967604,-0.012928852811455727,-0.9999163150787354,-0.00010487250983715057,0.0005578389391303062,-0.00045627704821527004,-0.00017377547919750214,-0.0006056930869817734,-0.0028913021087646484
438,-0.0004785695646513441,0.0129052288951548,-1.9873974061739919,-0.00047852969146333635,-0.012904870323836803,-0.9999166131019592,-0.0005874177441000938,-0.0005076699890196323,-0.0004335823468863964,-0.0005438090302050114,-0.000660192221403122,-0.0021585822105407715
439,-0.0004413907525928527,0.012916215652427754,-1.9874347248617334,-0.00044135391362942755,-0.012915856204926968,-0.9999164938926697,-0.0006551444530487061,0.0008903397247195244,-0.0009622038342058659,-9.270384907722473e-05,6.795581430196762e-05,-0.0026317238807678223
440,-0.0004197732901755165,0.012917159481305477,-1.9874256688045582,-0.0004197382659185678,-0.012916800566017628,-0.9999164938926697,0.0011986363679170609,-0.0003130394034087658,-0.002337200101464987,-0.0003432012163102627,-0.00017524044960737228,-0.0029674172401428223
441,-0.00044884085326592937,0.012988224034385909,-1.9874491870483966,-0.00044880298082716763,-0.01298785861581564,-0.9999155402183533,0.00026756059378385544,0.0007044728845357895,-0.0009277078788727522,-0.0004972419701516628,-0.0003025457262992859,-0.002785205841064453
442,-0.0004573332405716216,0.013038946155039942,-1.9874840411520174,-0.0004572943435050547,-0.01303857658058405,-0.9999148845672607,0.000212913379073143,-0.0006393850781023502,0.0007970847655087709,-0.0001530572772026062,0.00034326501190662384,-0.002755403518676758
443,-0.0004882610270374832,0.013018822742394789,-1.987531962897231,-0.0004882196371909231,-0.013018455356359482,-0.9999151229858398,0.0006445394828915596,-0.0013865837827324867,0.0004652561619877815,-0.00041204874287359416,-1.2550503015518188e-05,-0.003762185573577881
444,-0.00047440127527807426,0.013011375052789934,-1.9875457831733496,-0.00047436109161935747,-0.013011007569730282,-0.9999152421951294,-0.001919587142765522,0.0018435586243867874,-0.001437972649000585,-0.0006853071972727776,0.00025465991348028183,-0.0041741132736206055
445,-0.0004630216941614588,0.012981344040354293,-1.987556495709004,-0.00046298265806399286,-0.01298097986727953,-0.9999156594276428,0.0006684130057692528,0.000957561656832695,-0.0010896800085902214,-0.00045254500582814217,0.00039247889071702957,-0.0037464499473571777
446,-0.000420580608318247,0.013016278505436688,-1.9875558627576873,-0.0004205449658911675,-0.013015910983085632,-0.9999151825904846,-0.001512044109404087,-0.0013087945990264416,0.00107467919588089,0.0001306282647419721,0.00015275273472070694,-0.0039604902267456055
447,-0.0004589383688233733,0.013045782003347979,-1.9876347761062994,-0.00045889930333942175,-0.013045411556959152,-0.999914824962616,-0.0013207504525780678,-0.0025546825490891933,0.0012475666590034962,-0.0002582636661827564,0.00016699358820915222,-0.002816498279571533
448,-0.0005142817745198455,0.013012727997928287,-1.9876366415429219,-0.0005142381996847689,-0.013012360781431198,-0.9999151825904846,-0.0028444482013583183,-0.0009601493366062641,0.002454556990414858,0.0003616503090597689,-0.0005374429747462273,-0.0016258955001831055
