,attitude.roll,attitude.pitch,attitude.yaw,gravity.x,gravity.y,gravity.z,rotationRate.x,rotationRate.y,rotationRate.z,userAcceleration.x,userAcceleration.y,userAcceleration.z
0,-1.3885377275875832,0.7847215039188403,1.063173958569473,-0.6958651542663574,-0.706628143787384,-0.12825064361095428,-0.5100404024124146,-0.38583093881607056,0.49195894598960876,0.0625644326210022,-0.002371370792388916,-0.0545954555273056
1,-1.40163611012596,0.7494614373260973,1.002304892709645,-0.7216069102287292,-0.6812446117401123,-0.1232449859380722,-0.36325812339782715,-0.20015624165534973,0.025472581386566162,-0.013286948204040527,0.011414289474487305,-0.1870119571685791
2,-1.4593295381982128,0.7467354328230893,0.9983474243978719,-0.7293556332588196,-0.6792464852333069,-0.08163731545209885,0.15458738803863525,-0.9137364029884338,-0.2220015674829483,-0.02056807279586792,-0.03497159481048584,-0.16810327768325806
3,-1.6395871952254675,0.7749493438771092,1.084115166319371,-0.7127664685249329,-0.6996799111366272,0.049109309911727905,0.8463558554649353,-1.4046763181686401,-0.3762059509754181,0.04127305746078491,-0.03722792863845825,-0.143088236451149
4,-1.9154637661934129,0.788998432585841,1.2387528039702278,-0.6631197929382324,-0.7096479535102844,0.23805806040763855,1.041728138923645,-1.5398935079574585,-0.24585238099098206,0.0516849160194397,-0.052909910678863525,-0.06845667958259583
5,-2.1189620772349436,0.7737544571548373,1.369988074577539,-0.6104886531829834,-0.6988257169723511,0.3727547824382782,0.3371560871601105,-1.0182133913040161,-0.7096827626228333,-0.07440203428268433,0.024875521659851074,-0.12542513012886047
6,-2.2080316987819053,0.837600588275746,1.511343090694214,-0.537903368473053,-0.7430394887924194,0.3981858789920807,-0.07222718000411987,0.3299191892147064,-1.2238296270370483,0.008133530616760254,-0.052736759185791016,-0.033241450786590576
7,-2.1756474328786655,0.9317785923975108,1.5423903380826558,-0.49059662222862244,-0.8026819825172424,0.33914071321487427,-0.5323684811592102,0.10939141362905502,-0.9131024479866028,0.07247534394264221,0.06502646207809448,-0.01620367169380188
8,-2.217364010105946,1.0260325615062054,1.5722484073206584,-0.41361746191978455,-0.8552497625350952,0.31219953298568726,-0.7843163013458252,0.7152656316757202,-0.4592646658420563,0.13314566016197205,0.021723151206970215,0.06389912962913513
9,-2.2521048127361722,1.09853339528184,1.6363636780171664,-0.3533453643321991,-0.890541136264801,0.28650227189064026,0.7703701853752136,1.0017398595809937,-0.649743378162384,0.07571172714233398,-0.08870691061019897,-0.005359053611755371
10,-2.3413821501154373,1.1663322018473532,1.8124974480700253,-0.2823564410209656,-0.9193134307861328,0.2741132080554962,-0.27789291739463806,-0.03096664510667324,-1.5615547895431519,0.02889266610145569,0.21435725688934326,0.14858582615852356
11,-2.3652989429128524,1.2652096519148677,1.8514248649121268,-0.21078942716121674,-0.9536706209182739,0.2146630585193634,-0.7019140124320984,0.3222973942756653,0.14005252718925476,-0.18821263313293457,0.11057674884796143,0.030164241790771484
12,-2.3590102595974214,1.3630836274219347,1.9084957094232173,-0.14540980756282806,-0.9785051941871643,0.146231010556221,-0.4368988573551178,1.3307573795318604,-0.13447995483875275,-0.17496369779109955,-0.23714721202850342,-0.13225390017032623
13,-2.0032202018622103,1.3407174383516258,1.6720087850877843,-0.20706263184547424,-0.9736484289169312,0.09557141363620758,-0.010984714142978191,1.1806690692901611,0.4484671354293823,-0.10304172337055206,-0.04548609256744385,-0.12367808818817139
14,-1.990500922844894,1.3142059493636145,1.761250930586781,-0.23175840079784393,-0.9672608971595764,0.10341483354568481,0.34830549359321594,0.852591872215271,0.20280610024929047,0.028526559472084045,0.048559606075286865,0.005578771233558655
15,-2.0356685102857246,1.2819701086786226,1.8709429018812742,-0.25460097193717957,-0.958578884601593,0.12769044935703278,0.3971540927886963,0.3302910029888153,0.16900397837162018,0.026878833770751953,0.04143410921096802,0.029932841658592224
16,-2.0991556668548745,1.2570423933563437,1.9730756166145988,-0.2665451169013977,-0.9511817097663879,0.15558643639087677,0.2688993513584137,0.18556348979473114,0.03844006732106209,0.024098187685012817,0.0034125447273254395,0.0124891996383667
17,-2.149760891460037,1.253740988157732,2.0489664137720127,-0.2609604299068451,-0.9501575827598572,0.17058710753917694,0.29448485374450684,-0.00030893972143530846,-0.058337658643722534,0.04657447338104248,0.03717857599258423,0.020635947585105896
18,-2.256198249018273,1.2455627085141137,2.171590292562887,-0.24736890196800232,-0.947576105594635,0.20225748419761658,-0.008981126360595226,-0.12224242091178894,-0.04684530198574066,0.09342299401760101,-0.0005439519882202148,0.08292923867702484
19,-2.3170087492470177,1.2291546404114388,2.202140542541968,-0.24600383639335632,-0.9422059059143066,0.22744201123714447,0.8903616070747375,-0.6135942339897156,0.05564288794994354,0.1078660637140274,0.17189663648605347,0.1249292641878128
20,-2.645446607725437,1.109153358597646,2.3589716763008823,-0.21203765273094177,-0.8953219056129456,0.39171290397644043,3.1848106384277344,-3.568878173828125,0.41733601689338684,0.3123946785926819,0.4276551604270935,0.014582931995391846
21,-3.108761309743353,0.6988547514830962,2.5814939126394165,-0.025130486115813255,-0.6433413028717041,0.7651668787002563,3.3062469959259033,-2.837805986404419,0.8771213889122009,0.2656548023223877,-0.08416718244552612,0.11515843868255615
22,3.0095567094412807,0.3703336000629528,2.625653513362224,0.12272744625806808,-0.36192643642425537,0.9240925312042236,2.7899301052093506,-0.9494525194168091,-1.1409814357757568,0.020338937640190125,-0.30688151717185974,0.08639013767242432
23,2.959209916405872,0.23861282820363788,2.6641072381362196,0.1762344092130661,-0.2363549917936325,0.9555509686470032,0.3486591577529907,0.1702825427055359,-0.3510637581348419,-0.019862323999404907,-0.208576038479805,0.11265575885772705
24,2.9506348749174904,0.1957818648708836,2.735012199771679,0.18617336452007294,-0.19453352689743042,0.9630658626556396,0.4425449073314667,0.37378424406051636,-1.2344568967819214,-0.08982938528060913,-0.1952827274799347,0.005546629428863525
25,2.9850669916676886,0.19863408211821182,2.7240743528997866,0.1528221070766449,-0.19733045995235443,0.9683523774147034,0.16012033820152283,0.7042713761329651,0.31918686628341675,-0.0417533814907074,0.07971571385860443,-0.0794210433959961
26,3.050142091584257,0.1644861813157687,2.7220408041728725,0.09009052067995071,-0.1637454628944397,0.9823803305625916,0.1608653962612152,0.24060000479221344,0.5936963558197021,0.02283976972103119,-0.2013515830039978,0.023936748504638672
27,3.08261087157484,0.16395334458658523,2.6582931170009267,0.05815710499882698,-0.16321979463100433,0.984874427318573,0.4809792935848236,0.24591320753097534,-0.004085669293999672,-0.11221897602081299,0.013546288013458252,0.11160719394683838
28,3.1027734240711506,0.11397246220154768,2.6463474512188006,0.038557689636945724,-0.11372587829828262,0.9927635788917542,0.3913854956626892,0.29923367500305176,0.1532595008611679,-0.04652278125286102,-0.05761505663394928,0.0315282940864563
29,3.1216997032313594,0.09005277338786108,2.605967418277875,0.019811034202575684,-0.08993110805749893,0.9957507848739624,0.2626110911369324,0.015577618032693863,0.4220995306968689,0.003962153568863869,0.059505097568035126,0.0012583136558532715
30,3.1274955287646375,0.08847226569762158,2.5816827896171306,0.01404152438044548,-0.08835689723491669,0.9959899187088013,0.060352228581905365,0.12940222024917603,0.09440536051988602,-0.04239235445857048,-0.01546391099691391,0.0032624006271362305
31,3.1327151894434326,0.08783296376175322,2.5805498779451166,0.008843128569424152,-0.08772007375955582,0.9961060881614685,-0.005210648290812969,-0.011228280141949654,-0.0020495811477303505,0.0010445667430758476,-0.009157977998256683,-0.01737666130065918
32,3.1339114513716373,0.08938147249117404,2.580490113707301,0.007650467101484537,-0.08926250785589218,0.9959790706634521,-0.0021469024941325188,-0.0016822186298668385,-2.48616561293602e-05,-0.0038510262966156006,-0.01378011703491211,0.002983570098876953
33,3.134319861810447,0.09064923935638239,2.580487699258897,0.007242865860462189,-0.09052514284849167,0.9958676695823669,0.0007459567859768867,-0.0003872700035572052,-0.0015359614044427872,-0.004160593263804913,-0.009206295013427734,0.00028693675994873047
34,3.1346163094656703,0.09175357834430913,2.580506910004201,0.006946942303329706,-0.09162489324808121,0.9957693219184875,0.0026465430855751038,-0.0004928852431476116,-0.0009969789534807205,-0.0021099084988236427,-0.019718490540981293,0.018924832344055176
35,3.134691119095933,0.09294991613623524,2.5805204645594566,0.006871685851365328,-0.09281612932682037,0.9956592917442322,0.0017197513952851295,0.0018895836547017097,0.00031037628650665283,-0.003133284393697977,-0.003085322678089142,0.0034554004669189453
36,3.1350007788047773,0.09344052511640424,2.5804381829997918,0.00656307116150856,-0.09330461174249649,0.9956160187721252,-0.002096591517329216,-0.0017256219871342182,-0.0003129960969090462,-0.0050066751427948475,-0.008120551705360413,-0.004328787326812744
37,3.135229670992592,0.09441386014077029,2.580414954972986,0.00633460097014904,-0.0942736566066742,0.995526134967804,-0.0006661331281065941,-0.0022853268310427666,0.00035517942160367966,-0.0009024720638990402,-0.007975488901138306,-0.0024842023849487305
38,3.135439821155212,0.09513335847373908,2.580358389849397,0.006124971434473991,-0.09498992562294006,0.9954593181610107,-0.00012353342026472092,0.0020420930813997984,0.0006448561325669289,-0.004904268775135279,-0.00463470071554184,0.026253879070281982
39,3.135765308546489,0.09572444698869285,2.5803383167952707,0.005800635553896427,-0.09557832777500153,0.9954052567481995,0.0019178465008735657,-0.002668166533112526,0.0018946053460240364,-0.0040000989101827145,-0.013430476188659668,0.010744214057922363
40,3.135824077314752,0.09646000707900546,2.5803181209688995,0.005741728935390711,-0.09631048887968063,0.9953349232673645,-0.0019245455041527748,-0.0003341902047395706,-0.00018500536680221558,0.004115449730306864,-0.00545039027929306,-0.0073740482330322266
41,3.135901539239409,0.09686851561023897,2.5802566829320934,0.0056644040159881115,-0.09671708941459656,0.9952958822250366,-0.001853720284998417,1.0176096111536026e-05,-0.0010785283520817757,-0.006274756044149399,-0.0031516849994659424,0.0008131265640258789
42,3.1363069743669687,0.09738320212924037,2.5802465327384985,0.005260612815618515,-0.09722935408353806,0.9952483773231506,-0.0009698988869786263,-0.0015631946735084057,0.00032238569110631943,0.0003546229563653469,-0.011901527643203735,0.007361173629760742
43,3.1361580205282484,0.09805596198092731,2.580245090505088,0.005408501252532005,-0.09789890050888062,0.9951817989349365,0.0001993449404835701,-0.00037910137325525284,-0.00015379022806882858,0.002892280463129282,0.0019211098551750183,0.005138754844665527
44,3.1364231487558905,0.09809853686249413,2.5801868729893296,0.0051446291618049145,-0.09794127196073532,0.9951791167259216,-0.0027279099449515343,-0.001483867410570383,0.0019182059913873672,-0.008120089769363403,-0.0012408792972564697,0.005126237869262695
45,3.136684585641277,0.09881200779307182,2.580180093625928,0.00488410796970129,-0.09865128993988037,0.9951102137565613,-0.0008039781823754311,0.0004718999844044447,0.0017071235924959183,-0.002900463994592428,-0.009335175156593323,0.014960646629333496
46,3.136536592297737,0.09900938559861855,2.5802678443169236,0.005031278822571039,-0.09884770214557648,0.9950900077819824,-0.0007099518552422523,-0.0021114759147167206,-0.0018220888450741768,0.005924530792981386,0.0011151432991027832,0.003018021583557129
47,3.136561636079596,0.0993484395371944,2.5802835186773057,0.005006187129765749,-0.09918508678674698,0.99505615234375,-0.0014460952952504158,-0.0031381086446344852,-0.0018396787345409393,-0.004884117748588324,-0.006909236311912537,-0.002792656421661377
48,3.1367873976431677,0.09973739140511853,2.5802787071567117,0.004781357012689114,-0.09957211464643478,0.9950188398361206,-0.0013234559446573257,0.0004083039239048958,-0.0018692295998334885,-0.006322493311017752,0.00180903822183609,-0.0019921064376831055
49,3.1367263999970336,0.09984487143695295,2.5802529531667604,0.004841998685151339,-0.09967906028032303,0.9950078129768372,-0.00020551029592752457,0.0002445247955620289,-0.0005803881213068962,0.006434246897697449,-0.008612565696239471,0.014101624488830566
50,3.136606839360137,0.10027117179482585,2.580203632352411,0.004960750229656696,-0.1001032292842865,0.9949646592140198,-0.00046022795140743256,-0.0005575534887611866,-0.0005004992708563805,-0.002061579842120409,0.002645358443260193,0.0023039579391479492
51,3.136861259358164,0.10016761456710942,2.5801775789123567,0.004707659594714642,-0.10000019520521164,0.9949761033058167,-0.0002943752333521843,0.0003976828884333372,0.00032720062881708145,0.00038877641782164574,-0.005636394023895264,0.0034062862396240234
52,3.1368334011627574,0.10059758356167522,2.580207920811519,0.004735173191875219,-0.10042800009250641,0.9949330687522888,0.0007401080802083015,-0.0008439370431005955,-0.001771196722984314,0.004847345873713493,5.568563938140869e-05,0.008454322814941406
53,3.136827400483541,0.10043204072193819,2.5801853993305297,0.0047412230633199215,-0.10026329010725021,0.9949496984481812,0.0024272073060274124,0.0009252645540982485,-0.00015470199286937714,-0.0018267948180437088,-0.0034812167286872864,0.009841561317443848
54,3.1368881109856805,0.10077037344410054,2.5802301245104036,0.004680659156292677,-0.10059991478919983,0.9949159622192383,0.000898582860827446,-0.0014875270426273346,0.0004647858440876007,-0.0008964799344539642,-0.002213805913925171,0.0031919479370117188
55,3.1369627229684025,0.10077103918575984,2.580250535993913,0.004606425762176514,-0.10060057044029236,0.9949161410331726,-0.0003920970484614372,-0.003602570854127407,0.000797957181930542,0.002031147014349699,-0.0014502033591270447,0.002672851085662842
56,3.136874606196396,0.10091488876042339,2.580228730891533,0.0046940273605287075,-0.10074369609355927,0.9949015378952026,0.0002828221768140793,0.0016701288986951113,0.0016262233257293701,0.0016841464675962925,-0.0030160844326019287,0.006426095962524414
57,3.136918080608151,0.10102075910750065,2.5802411587043625,0.004650723189115524,-0.10084902495145798,0.9948906898498535,0.0006161313503980637,-0.0010687862522900105,-0.0015752632170915604,-0.002743375487625599,-0.0008202716708183289,0.005704224109649658
58,3.137054835466375,0.1010671735549549,2.58026256772278,0.00451464531943202,-0.10089520364999771,0.9948866367340088,0.0008226362988352776,-0.00011487305164337158,-0.001971261575818062,0.0016651628538966179,-0.001903243362903595,0.0027938485145568848
59,3.13702375742973,0.10121603737016067,2.5803150082984057,0.004545497242361307,-0.10104330629110336,0.9948717355728149,-0.0005508074536919594,-0.0013877004384994507,-0.0005442695692181587,0.0016495715826749802,-0.000656522810459137,0.006974577903747559
60,3.137057648478588,0.10125301315497967,2.5802972534850954,0.004511762876063585,-0.10108008980751038,0.9948680996894836,-0.0022009890526533127,0.0004669087938964367,-0.00022512488067150116,-0.0004071486182510853,-0.00309164822101593,0.005452334880828857
61,3.1370784695419043,0.1014210855310727,2.5802705029704156,0.004490971565246582,-0.10124730318784714,0.9948511123657227,8.587725460529327e-06,-0.0012522335164248943,0.00164738018065691,-0.0008136038668453693,-0.0029702186584472656,0.0013799071311950684
62,3.1371494039619505,0.10140330711534033,2.5802636713985194,0.004420411307364702,-0.10122961550951004,0.9948534965515137,-0.0007485551759600639,-0.0006780680269002914,0.0006997855380177498,4.6370550990104675e-06,0.0007504671812057495,0.00545191764831543
63,3.137166190881564,0.10145774172649849,2.580271532819992,0.0044036866165697575,-0.10128376632928848,0.9948480725288391,8.180644363164902e-05,-8.014962077140808e-05,-0.0008967434987425804,0.0008911145851016045,-0.002323426306247711,0.007089972496032715
64,3.137106719783901,0.10146719785196291,2.5803099645238645,0.004462845157831907,-0.1012931764125824,0.9948464632034302,0.00024386867880821228,-0.00012587616220116615,-0.001658950001001358,7.981434464454651e-06,-0.0006050169467926025,0.0050923824310302734
65,3.137105492752092,0.10160389939366984,2.5803405445572354,0.004464003723114729,-0.10142917186021805,0.9948325753211975,-0.0025675352662801743,-0.00029757851734757423,0.0005936091765761375,0.00014414964243769646,-0.002513684332370758,0.002908945083618164
66,3.137117044110938,0.10172318159161874,2.5803523326177125,0.00445245997980237,-0.10154783725738525,0.9948209524154663,-0.0008014393970370293,-0.001364768948405981,-0.0020203087478876114,0.0009338939562439919,0.002960778772830963,0.004843592643737793
67,3.137110816070618,0.10168593707835176,2.5803827686369605,0.004458672367036343,-0.10151078552007675,0.9948246479034424,0.001203569583594799,0.0028920923359692097,-0.0018870066851377487,-7.93985091149807e-05,-0.004293665289878845,0.007204890251159668
68,3.13715433143489,0.10185987150165038,2.5804031376498306,0.004415303468704224,-0.10168382525444031,0.9948071837425232,0.00017870496958494186,0.0006082130130380392,6.917770951986313e-05,-0.0007531950250267982,0.00160139799118042,0.005299806594848633
69,3.137245541855901,0.10169463235097081,2.5803743252370035,0.004324639681726694,-0.10151943564414978,0.9948242902755737,8.796527981758118e-05,-8.258689194917679e-05,0.0004756143316626549,0.0013516312465071678,0.0007503703236579895,0.0031158924102783203
70,3.137235525660622,0.10181065701378715,2.580422382105127,0.004334552679210901,-0.10163486003875732,0.9948124885559082,-0.0010160701349377632,-0.001482006162405014,-0.0005183443427085876,0.0017231875099241734,-0.0037728622555732727,0.0029140710830688477
71,3.1372524622228237,0.10179523364809828,2.5804368459251954,0.004317710641771555,-0.10161951929330826,0.9948140382766724,0.0001581115648150444,-0.0014208205975592136,-0.00026659388095140457,-0.0015863869339227676,0.001048848032951355,0.006376147270202637
72,3.137239893474458,0.10175487576848868,2.5804486668819804,0.00433023227378726,-0.10157936811447144,0.9948182106018066,0.000799485482275486,-0.000991919543594122,-0.0015119733288884163,0.00018636928871273994,-0.0027907565236091614,0.00478518009185791
73,3.137166254062593,0.1019552403427771,2.5804314021455093,0.004403399303555489,-0.10177869349718094,0.9947973489761353,0.001492590643465519,-2.6423949748277664e-05,-3.649480640888214e-05,-0.0009091366082429886,0.0011622458696365356,0.003112196922302246
74,3.137258459260185,0.10187842566090732,2.5804838960277534,0.004311707336455584,-0.10170228034257889,0.9948054552078247,-0.0011387467384338379,0.002402144018560648,-0.0009977016597986221,-0.0009395149536430836,3.297626972198486e-05,0.007620632648468018
75,3.1372152672240294,0.10199140886555755,2.5805212067134957,0.004354626405984163,-0.10181467980146408,0.9947941303253174,0.0016352124512195587,-0.0009095640853047371,-0.0007024919614195824,-0.0008298447355628014,-0.00046500563621520996,0.004153251647949219
76,3.1372398643390955,0.10197017916957067,2.5805776713854818,0.004330163821578026,-0.1017935574054718,0.9947957992553711,0.00045854877680540085,-0.0019554877653717995,0.00010334793478250504,-0.0006222794763743877,-0.0006691738963127136,-0.001006484031677246
77,3.1372070764422206,0.10206614776582729,2.5805655184566128,0.004362740088254213,-0.10188902914524078,0.9947863221168518,-0.001536305993795395,-0.001595634501427412,-0.0001170039176940918,0.0005505909211933613,6.079673767089844e-06,0.006571769714355469
78,3.1372176711286834,0.10205400842508953,2.5805765559957456,0.004352204501628876,-0.10187695175409317,0.9947872757911682,0.00288230087608099,0.0007821309845894575,-0.0009034741669893265,-0.0009800135158002377,-0.00031112879514694214,0.0075928568840026855
79,3.1372722362310124,0.10205813551019098,2.5805904119086063,0.0042979237623512745,-0.10188105702400208,0.9947874546051025,0.0007345676422119141,0.0020393035374581814,-0.0006366744637489319,0.00020341994240880013,-0.0005359500646591187,0.0019167661666870117
80,3.1372658974208525,0.10205582285039297,2.5806378282397606,0.004304230213165283,-0.10187875479459763,0.9947876334190369,0.000428544357419014,0.0004501619841903448,0.002040914259850979,4.45246696472168e-05,5.685538053512573e-05,0.00544130802154541
81,3.137283794407702,0.10209989883882588,2.5806636906767575,0.0042864070273935795,-0.10192260146141052,0.9947831630706787,0.0011810511350631714,0.0008803512901067734,-0.0011523626744747162,0.00042855972424149513,8.542835712432861e-05,0.006529092788696289
82,3.137376710193711,0.1021416755675936,2.580682616599245,0.004193959292024374,-0.10196416079998016,0.9947795867919922,0.0007208017632365227,-0.0016505150124430656,0.0006305472925305367,-0.0002877083607017994,-0.001566760241985321,0.004885077476501465
83,3.1373143991683246,0.10218057874032882,2.5806497376458775,0.004255928099155426,-0.10200285911560059,0.9947753548622131,-0.0020720669999718666,0.0023075006902217865,-0.0007092654705047607,0.002076472155749798,-0.0007193237543106079,0.004782438278198242
84,3.137300399514466,0.10216540068524958,2.5806785050080125,0.004269860684871674,-0.10198776423931122,0.9947767853736877,0.00047099869698286057,1.553306356072426e-05,-0.0012853443622589111,-0.0007145614363253117,0.0009898021817207336,0.005955934524536133
85,3.137377643430575,0.10215607063306077,2.5806910592524237,0.004193023778498173,-0.10197848081588745,0.9947779178619385,-0.0005651852115988731,-0.0006961971521377563,0.0006276564672589302,0.00102548161521554,0.0004159659147262573,0.006320834159851074
86,3.1373452298599362,0.10219836729862558,2.580735794753204,0.004225249867886305,-0.10202056169509888,0.9947735071182251,-0.0022746361792087555,-0.0013981345109641552,0.0014572786167263985,0.0003066128119826317,-0.0018765553832054138,0.004448413848876953
87,3.1373585914440434,0.10218446069757654,2.580683133440827,0.004211962688714266,-0.10200672596693039,0.994774580001831,0.0015743784606456757,0.0018993120174854994,0.0006786361336708069,0.00035041477531194687,0.0010393336415290833,0.005179405212402344
88,3.1373226058269403,0.10216278334629224,2.580674226806209,0.004247771576046944,-0.1019851565361023,0.9947770833969116,-3.3117830753326416e-05,0.001460733124986291,-0.00044676195830106735,-0.000677214004099369,-0.0016525611281394958,0.0053147077560424805
89,3.13736086241926,0.10223796734956492,2.580722683189652,0.004209680482745171,-0.10205995291471481,0.9947692155838013,0.00018194038420915604,0.0010767842177301645,-0.0026746131479740143,-0.0013715466484427452,-0.001303061842918396,0.0038573741912841797
90,3.137335810140339,0.10224472778697716,2.5808256010406034,0.00423459941521287,-0.10206667333841324,0.9947685599327087,0.000501774251461029,0.0003690554294735193,-0.0023085642606019974,0.0011212360113859177,-0.0009301528334617615,0.004132747650146484
91,3.137304986456922,0.10218195600018659,2.5809020709491843,0.0042652892880141735,-0.10200423002243042,0.9947747588157654,0.0008269296959042549,0.0021127192303538322,0.000986296683549881,0.0005412288010120392,0.0007926821708679199,0.004996299743652344
92,3.1372908585633903,0.10215231960246692,2.58089525318242,0.004279356449842453,-0.10197474807500839,0.9947777986526489,-0.0008035833016037941,-0.0034680794924497604,-0.0006902320310473442,-0.002127867192029953,-0.0016629397869110107,0.004413485527038574
93,3.1372826248034866,0.10217336047959424,2.5809357680013254,0.00428753811866045,-0.10199568420648575,0.9947755932807922,-0.0027841078117489815,0.000423934543505311,-0.0010720528662204742,-0.0007780180312693119,0.0018522515892982483,0.004598796367645264
94,3.1371257612685977,0.10207351029281929,2.5809747838259054,0.004443627782166004,-0.10189635306596756,0.9947851896286011,0.002343427389860153,-0.0015908856876194477,-0.000705985352396965,0.0014004893600940704,-0.002321183681488037,0.006389737129211426
95,3.1371164932822713,0.102117987939459,2.580958592267752,0.004452826455235481,-0.1019405946135521,0.994780421257019,-0.0021765315905213356,-0.0013844543136656284,-0.0019114511087536812,-0.0027133249677717686,-0.0007662922143936157,0.005539894104003906
96,3.137229184844946,0.10202912612315357,2.580941841823104,0.004340763203799725,-0.10185220092535019,0.9947901368141174,0.0028313761577010155,-0.0006554527208209038,0.0001680338755249977,-0.0003582197241485119,-0.00029014796018600464,0.004584312438964844
97,3.137059585751582,0.1020045419571596,2.580964906759819,0.0045094904489815235,-0.10182774066925049,0.9947919845581055,0.001201375387609005,-0.0027202642522752285,0.0008231997489929199,0.001243073958903551,-0.0014437586069107056,0.004963994026184082
98,3.1370691495373597,0.1019962653081875,2.580976594690336,0.0044999802485108376,-0.10181950777769089,0.9947929382324219,-0.0002805860713124275,0.0005728276446461678,0.0017871363088488579,0.0014051729813218117,0.0003485381603240967,0.0044901371002197266
99,3.1370275179618363,0.10202398777034868,2.5809913381090768,0.004541381262242794,-0.1018470898270607,0.9947896003723145,-0.0004993090406060219,0.00019332277588546276,0.0012245094403624535,-0.0020999759435653687,-0.0016685351729393005,0.004493117332458496
100,3.1370389052327328,0.10212568400495269,2.5810200747106937,0.0045300074853003025,-0.10194825381040573,0.994779646396637,-0.0009549781680107117,-0.0010508676059544086,0.0017410358414053917,0.0013598878867924213,-0.0007434114813804626,0.004488110542297363
101,3.1370231472440238,0.10205161094196163,2.5810004596712566,0.004545717500150204,-0.10187456756830215,0.9947870373725891,-1.451931893825531e-05,-0.00023328885436058044,0.0010449765250086784,0.0005354592576622963,0.0007850676774978638,0.005014777183532715
102,3.1370537152098477,0.10203371897800745,2.580981150530136,0.004515315871685743,-0.1018567681312561,0.9947887659072876,-0.0010029645636677742,0.0007654149085283279,0.0015893978998064995,-0.0012499354779720306,-0.0014910101890563965,0.0062181949615478516
103,3.137082339174333,0.10207430264365651,2.5810023463123986,0.004486823454499245,-0.10189714282751083,0.9947850108146667,-0.0010959738865494728,0.0019970799330621958,0.00011494476348161697,-0.0008399719372391701,-0.000901341438293457,0.005383014678955078
104,3.137057316738756,0.10203413759019493,2.58097605798552,0.004511732142418623,-0.10185718536376953,0.9947885870933533,-0.0009486433118581772,0.00031425338238477707,0.0008133891969919205,-0.000742811243981123,-5.6236982345581055e-05,0.004448235034942627
105,3.1370714206937462,0.10205755698234999,2.580969573286664,0.004497691057622433,-0.10188048332929611,0.994786262512207,-0.001014883629977703,0.0022774795070290565,-0.0009508365765213966,0.001148059032857418,-0.0018029659986495972,0.004252195358276367
106,3.1370866433212687,0.10213716918282195,2.581011175145326,0.004482513293623924,-0.10195967555046082,0.9947786927223206,0.0013690842315554619,0.0030827284790575504,-0.0007704803720116615,-0.0012171301059424877,0.0008091479539871216,0.0075560808181762695
107,3.1371124367526706,0.1020310011187328,2.5810168589107265,0.004456902854144573,-0.10185406357049942,0.9947896003723145,0.001253155991435051,-0.0002034064382314682,0.00047835521399974823,0.001005745492875576,-0.0015242472290992737,0.0052716732025146484
108,3.1370634260264567,0.10206966458337187,2.5810712865726533,0.004505638498812914,-0.10189252346754074,0.9947850704193115,-0.0004271967336535454,0.0001767489593476057,-0.0009321607649326324,-0.0003399895504117012,0.0002995207905769348,0.00449758768081665
109,3.1371406347965722,0.10206886388827664,2.581134779084191,0.004428834188729525,-0.10189172625541687,0.9947857856750488,-0.004223098047077656,0.0007557556964457035,-0.0002599591389298439,-0.00015637231990695,-0.0014865770936012268,0.005153298377990723
110,3.1370802583520185,0.10219405300516671,2.5811807683894097,0.004488839302212,-0.10201627016067505,0.9947729706764221,0.0002975156530737877,0.0014312095008790493,-4.5564956963062286e-05,-0.001040351577103138,0.0007283985614776611,0.006600618362426758
111,3.137017893193854,0.1020937673886078,2.581204508702713,0.004550923593342304,-0.10191650688648224,0.9947825074195862,0.0007071075960993767,0.0010457269381731749,0.0006888089701533318,0.001583110075443983,-0.0010955706238746643,0.004896998405456543
112,3.137129266218749,0.1020817139668014,2.581205301728048,0.00444013811647892,-0.10190451145172119,0.9947845339775085,0.00018473155796527863,0.0007711099460721016,-0.0006639230996370316,-0.0019224374555051327,0.0010896772146224976,0.004284858703613281
113,3.1371912656677208,0.10200468527452068,2.5812429244046595,0.004378495737910271,-0.10182788223028183,0.9947924613952637,-0.00011375453323125839,0.0006466221529990435,-0.00015006866306066513,0.0002143997699022293,-0.0012604966759681702,0.003498554229736328
114,3.1370814430109717,0.10211562490912955,2.5812995994444283,0.004487695172429085,-0.10193824768066406,0.9947806000709534,-0.0022443998605012894,-0.001826171763241291,-0.0006323857232928276,0.0007460690103471279,-0.0014400407671928406,0.00903409719467163
115,3.1370965379905544,0.10200251502154124,2.5813229905923833,0.004472731612622738,-0.10182572901248932,0.9947924017906189,0.0005829157307744026,-0.0015475735999643803,0.0009835781529545784,-0.002275466453284025,0.001148223876953125,0.00464320182800293
116,3.1371455425762096,0.10206106245077881,2.581321300504613,0.0044239540584385395,-0.10188397020101547,0.9947862029075623,-0.0017997827380895615,0.00054323417134583,-0.003388321027159691,0.0006724810227751732,-0.0020436272025108337,0.0026043057441711426
117,3.137095456632799,0.10211895963940114,2.581355439107149,0.004473753273487091,-0.1019415631890297,0.9947803616523743,-0.0020606843754649162,0.002640030812472105,-0.0008468413725495338,0.0021333019249141216,0.0013861581683158875,0.004014194011688232
118,3.13714228182338,0.10202400254120805,2.5813811530412614,0.004427215084433556,-0.1018471047282219,0.9947900772094727,-0.0016030725091695786,0.0005125347524881363,-0.0022834353148937225,-0.002260467503219843,-0.0026450827717781067,0.005347073078155518
119,3.1371587306180246,0.10212618587025506,2.581414752497596,0.0044108061119914055,-0.10194875299930573,0.9947798848152161,-2.971664071083069e-05,0.0012124311178922653,0.001092826947569847,0.0036763506941497326,-2.572685480117798e-05,0.0059830546379089355
120,3.1369924953740216,0.10201213756737422,2.5814566221945547,0.004576227627694607,-0.10183529555797577,0.99479079246521,-0.0009463084861636162,-0.00020403601229190826,0.00024879537522792816,-0.0008835997432470322,-0.000932641327381134,0.005331277847290039
121,3.1370836059956964,0.10218084721822748,2.5814612035884257,0.004485512617975473,-0.10200312733650208,0.994773805141449,-0.001443435437977314,-0.0001625153236091137,0.0011348864063620567,-0.0024103173054754734,-0.000871613621711731,0.004554629325866699
122,3.1371219853198427,0.10199548782970276,2.581491008017016,0.004447420593351126,-0.10181873291730881,0.9947932958602905,-0.0014644498005509377,-0.0013194987550377846,-0.0008575757965445518,0.0012441081926226616,0.0031706392765045166,0.007404208183288574
123,3.137041466337726,0.10203852727206297,2.5815593285210383,0.004527498502284288,-0.10186155140399933,0.9947881698608398,-0.00025677867233753204,-0.0003602677024900913,0.0007069464772939682,0.0005994546227157116,-0.0039581358432769775,0.0054711103439331055
124,3.1370652133633956,0.1021239932422269,2.581564021427967,0.004503836389631033,-0.10194656997919083,0.9947797060012817,-0.00016024429351091385,0.0012780963443219662,-0.0002409396693110466,-0.0012689735740423203,0.0016505494713783264,0.0036028623580932617
125,3.137022824513071,0.10203947395919533,2.5815928830355643,0.004546044394373894,-0.10186249017715454,0.9947883486747742,-0.0018520122393965721,0.00048768892884254456,5.8708712458610535e-05,0.0004130629822611809,-0.0033011063933372498,0.004097938537597656
126,3.1369739182608583,0.10213356250318514,2.5816035757676072,0.0045946515165269375,-0.1019560918211937,0.994778573513031,0.0013934243470430374,0.0007718196138739586,0.0008092382922768593,0.0016309330239892006,-0.0006898045539855957,0.006625533103942871
127,3.1370190800206434,0.10203621589108491,2.5816689888727278,0.00454977061599493,-0.10185924917459488,0.994788646697998,-0.00073983334004879,0.0014911023899912834,0.002660216763615608,-0.001909998245537281,0.0008002743124961853,0.004021406173706055
128,3.1371093620161394,0.10212114396289376,2.5817087205653872,0.004459920339286327,-0.101943738758564,0.9947803616523743,-0.00015433598309755325,0.004206829704344273,1.1027790606021881e-05,0.0013689370825886726,-0.0018465667963027954,0.005250334739685059
129,3.136971764339916,0.10210929836960839,2.581740646310412,0.004596803802996874,-0.10193195194005966,0.9947806596755981,0.0012887241318821907,0.0009998148307204247,-0.0009696139022707939,0.0017050779424607754,7.954984903335571e-05,0.006439924240112305
130,3.136942057720289,0.10204896270961433,2.581750293190755,0.004626383539289236,-0.10187193006277084,0.9947865605354309,0.0006269700825214386,-0.0009563760831952095,-0.0004368014633655548,-0.002062908373773098,0.00033996254205703735,0.00608295202255249
131,3.137039070371295,0.10206366223812327,2.581783231288432,0.004529871977865696,-0.1018865555524826,0.9947859644889832,-0.00021441839635372162,0.0006748565938323736,0.0015992093831300735,0.0019856328144669533,-0.0008051171898841858,0.005427837371826172
132,3.1369278427973626,0.1021364247120373,2.5817903192814424,0.004640483763068914,-0.10195893794298172,0.9947777986526489,-0.0009561153128743172,0.0019103081431239843,-9.864941239356995e-05,0.001997088547796011,-0.002090729773044586,0.0033301115036010742
133,3.1370448686909396,0.10206671037642961,2.5817760787966075,0.004524101037532091,-0.10188958793878555,0.9947854280471802,-0.0007147490978240967,0.0008689125534147024,0.001007257029414177,-0.0016554486937820911,0.0011663362383842468,0.004573702812194824
134,3.137041535625291,0.10204121853656253,2.5817897052441348,0.004527427721768618,-0.10186422616243362,0.9947877526283264,0.0006821826100349426,-0.002041903790086508,0.0004324633628129959,-0.00031600426882505417,-0.000918954610824585,0.006310641765594482
135,3.1369363865390634,0.10202552626519702,2.581840499257076,0.004632036667317152,-0.10184861719608307,0.9947889447212219,0.00034448783844709396,0.0007173425983637571,-0.001744251698255539,0.00031180959194898605,-0.0007209405303001404,0.00315093994140625
136,3.1369687888339337,0.10203006583489652,2.581803057381735,0.004599801264703274,-0.1018531322479248,0.9947887063026428,0.0012334147468209267,-0.0014586648903787136,0.00017654988914728165,-0.00012897420674562454,-0.0008537545800209045,0.006004631519317627
137,3.1369964813146254,0.10194087817279641,2.581805587478983,0.004572295118123293,-0.10176441073417664,0.994797945022583,-0.0016348715871572495,-0.0004007043316960335,-0.0007530199363827705,-0.0009559639729559422,-0.00019481778144836426,0.008467376232147217
138,3.137018778094684,0.1019051276119866,2.581839794247257,0.004550130572170019,-0.10172884166240692,0.9948017001152039,-0.0008073747158050537,0.00013702735304832458,-9.394902735948563e-05,0.0014770920388400555,-0.00036770105361938477,0.004603147506713867
139,3.137011562738237,0.10195551002445005,2.5818385714859686,0.00455728592351079,-0.10177896171808243,0.9947967529296875,0.0012912452220916748,-0.0016358597204089165,-0.001402026042342186,5.091074854135513e-06,-0.001507788896560669,0.004028439521789551
140,3.1370704178716142,0.1018893120309326,2.5818976744369873,0.004498767200857401,-0.10171311348676682,0.9948036074638367,0.0020797988399863243,0.0006829237099736929,-0.0002407291904091835,-0.0006840694695711136,0.0014323517680168152,0.005486249923706055
141,3.1370165934692427,0.10180799353531282,2.5819225083407282,0.004552349913865328,-0.10163221508264542,0.9948116540908813,0.0005298396572470665,-0.0007671033963561058,-2.1877698600292206e-05,0.0013070236891508102,-0.0035618841648101807,0.006302237510681152
142,3.136996001991814,0.1019835317233919,2.58189749128861,0.004572753328830004,-0.10180684179067612,0.9947939515113831,0.0006047580391168594,-0.001021682284772396,0.001391279511153698,-0.001871948130428791,0.0018007159233093262,0.00404667854309082
143,3.137083906108278,0.10185693026152769,2.581860484892838,0.004485363606363535,-0.10168089717626572,0.9948069453239441,0.00012804940342903137,0.00031271972693502903,-0.0009576547890901566,0.0011451276950538158,-0.0006597861647605896,0.004445314407348633
144,3.137086246596365,0.10199467155991725,2.5819167468492727,0.004482972901314497,-0.10181792080402374,0.9947931170463562,-0.0010317303240299225,-0.002038540318608284,-0.001963013783097267,0.002566587645560503,-0.00011080503463745117,0.006793975830078125
145,3.137141867872347,0.10189829651923868,2.5819324633740677,0.004427684936672449,-0.10172204673290253,0.9948031902313232,0.0018796436488628387,0.0017178039997816086,-0.00044682156294584274,-0.0012691165320575237,-0.000359266996383667,0.005257964134216309
146,3.13719739412288,0.10190492430314717,2.5819981637003204,0.004372443072497845,-0.1017286404967308,0.9948024749755859,-0.0009122202172875404,-0.0005995300598442554,-0.0008199978619813919,0.0013190838508307934,-0.0005662664771080017,0.0035189390182495117
147,3.137154688496166,0.10190983686843057,2.5819702023055413,0.00441492535173893,-0.10173352807760239,0.9948019981384277,-0.0010678134858608246,-0.00222617294639349,0.0005859341472387314,-5.134847015142441e-06,0.0004914477467536926,0.0036417245864868164
148,3.137184051117473,0.10186444351198325,2.582019431173596,0.004385734908282757,-0.10168837010860443,0.9948064684867859,0.0007168306037783623,0.0002121033612638712,-7.968395948410034e-06,-0.0005862978287041187,-0.002208709716796875,0.006307244300842285
149,3.1372105110664754,0.1019658471467173,2.581994797586676,0.004359367769211531,-0.10178925096988678,0.9947964549064636,-0.0005245525389909744,0.002260892651975155,0.0004194285720586777,0.0007828455418348312,-0.00018523633480072021,0.008011102676391602
150,3.137141090617958,0.1019113389257124,2.581978533577647,0.00442845094949007,-0.10173502564430237,0.9948015213012695,-0.0010179057717323303,-0.0013179383240640163,-0.0009062997996807098,-0.0007205670699477196,-0.000392034649848938,0.005808651447296143
151,3.1371422272639737,0.10190265622697253,2.5819961026245672,0.00442732498049736,-0.10172638297080994,0.9948025941848755,-0.0019779251888394356,-0.0021591377444565296,0.0004906905815005302,-0.0008720271289348602,-0.0014535412192344666,0.0034579038619995117
152,3.137063608578284,0.10189780764015773,2.582033004410642,0.004505537450313568,-0.10172156244516373,0.9948027729988098,-9.470991790294647e-05,-3.560911864042282e-05,-0.0005002105608582497,-0.0010723094455897808,0.000738881528377533,0.004007101058959961
153,3.137042240349933,0.10182353820290829,2.5820846227625935,0.0045268298126757145,-0.10164767503738403,0.9948104023933411,-0.00034981314092874527,0.0010152892209589481,-0.003888579085469246,0.0006916774436831474,5.463510751724243e-05,0.004762530326843262
154,3.137024534582019,0.10186764798633587,2.582108698118943,0.004544422030448914,-0.10169155895709991,0.9948055744171143,-0.00206077191978693,-0.0011925729922950268,-0.00120571069419384,-0.00016514956951141357,-0.0013357847929000854,0.002997159957885742
155,3.137022546846564,0.10191609026524333,2.5821867345386877,0.004546376410871744,-0.10173974931240082,0.9948005676269531,0.0006012506783008575,-0.0007968978025019169,-0.0021774936467409134,0.0012519634328782558,0.0008486509323120117,0.005275607109069824
156,3.136966802779841,0.1018793269552238,2.5821606425828065,0.004601848777383566,-0.10170317441225052,0.9948042631149292,0.0006776312366127968,4.008086398243904e-05,0.00043152645230293274,0.0006013982929289341,-0.001522548496723175,0.0071032047271728516
157,3.136920577138888,0.10201916559914397,2.5821871600112734,0.004647768102586269,-0.10184229165315628,0.9947898983955383,-0.0005696555599570274,0.0010313321836292744,-0.00044710468500852585,0.0012726420536637306,-0.0007730871438980103,0.005195021629333496
158,3.136903480331303,0.1019977381798627,2.582198492824445,0.004664786625653505,-0.10182097554206848,0.9947920441627502,-0.00015200674533843994,0.002236307831481099,-0.0004677996039390564,0.0007215649820864201,0.0001211315393447876,0.002888798713684082
159,3.136890630959482,0.10199730751417266,2.582225686872496,0.0046775671653449535,-0.10182054340839386,0.9947916269302368,0.0014644963666796684,-5.982443690299988e-05,0.0007356302812695503,-0.0001914864405989647,-0.0027631819248199463,0.006154239177703857
160,3.136858671411867,0.10207436337384469,2.5822132679687755,0.004709324799478054,-0.10189720243215561,0.9947839975357056,-0.0013906871899962425,-0.0003439350984990597,0.001046581193804741,-0.002481540199369192,0.0011281445622444153,0.006223201751708984
161,3.1369288738494845,0.10203772121596015,2.5822090518464185,0.004639504477381706,-0.10186074674129486,0.9947876930236816,0.0001499578356742859,-0.0005838521756231785,0.0030263662338256836,-0.0009011002257466316,-0.0006172657012939453,0.003838837146759033
162,3.136921345605192,0.10213491496988755,2.5821780250882442,0.004646949004381895,-0.10195744037628174,0.9947781562805176,0.0005129091441631317,0.002117966301739216,-0.00011735130101442337,0.00023586396127939224,0.0003644004464149475,0.0034062862396240234
163,3.1368496630347225,0.10212096111333935,2.5821869550947065,0.004718261770904064,-0.10194355249404907,0.9947787523269653,-0.0004353011026978493,0.00217811344191432,-0.0004667416214942932,0.0004697265103459358,-0.00038186460733413696,0.005129456520080566
164,3.136839658413411,0.10217215966545633,2.5821776170565207,0.004728189669549465,-0.10199448466300964,0.9947736263275146,0.0005289800465106964,-0.0005401200614869595,-0.0015850840136408806,-0.0007761646993458271,-0.0002393871545791626,0.007347226142883301
165,3.1369076513872476,0.10218603299454693,2.5821986896683535,0.004660546313971281,-0.10200829058885574,0.994772732257843,-0.0005376152694225311,0.0025601270608603954,0.0015600640326738358,0.0012140870094299316,-0.0008206963539123535,0.006234407424926758
166,3.136864309087339,0.10217203486309168,2.5822075318741655,0.004703667014837265,-0.10199436545372009,0.9947735667228699,-0.00015293806791305542,0.0010529106948524714,-1.9863247871398926e-05,-0.0008431961759924889,-0.0007430389523506165,0.00232696533203125
167,3.13689720715563,0.10226670562620244,2.5822439211743773,0.00467089656740427,-0.10208854079246521,0.9947642683982849,-0.003039281815290451,0.0006343971472233534,0.0026945360004901886,-0.0006578364409506321,0.0013652816414833069,0.005479753017425537
168,3.1369324064827424,0.1022535425199177,2.582236270113265,0.0046358872205019,-0.10207544267177582,0.99476557970047,-0.0010245880112051964,0.0007997883949428797,0.0015303511172533035,0.002261083573102951,-0.0023404136300086975,0.007156729698181152
169,3.1368758248494415,0.10233108568799677,2.5822700280577524,0.004692136775702238,-0.10215258598327637,0.9947577118873596,0.0007023941725492477,-0.0005924529395997524,0.0006074309349060059,0.00028222938999533653,0.0004680231213569641,0.006752908229827881
170,3.1369452777956615,0.10228293144620292,2.582256415149865,0.0046230703592300415,-0.10210467875003815,0.9947628974914551,-0.0015161214396357536,0.00010303221642971039,0.0006740270182490349,0.00047336285933852196,-0.001395680010318756,0.0012392401695251465
171,3.136946611075933,0.10239183439563544,2.5822750739048,0.004621692467480898,-0.10221301764249802,0.9947518110275269,-0.001666889525949955,0.001518900040537119,-0.0017341803759336472,0.0012071640230715275,-0.0012873634696006775,0.0055686235427856445
172,3.1369406806877334,0.1022338883195394,2.5823218667033103,0.004627666436135769,-0.10205589234828949,0.9947678446769714,0.0005167331546545029,-0.0001952769234776497,-6.072781980037689e-05,-0.0010418500751256943,0.0025991052389144897,0.002058267593383789
173,3.1368744928040964,0.10220729936807665,2.582357467570524,0.004693521652370691,-0.10202944278717041,0.9947704076766968,-0.0007848022505640984,6.524473428726196e-05,0.0003265123814344406,0.0026764743961393833,-0.0019744783639907837,0.0047109127044677734
174,3.136873260619565,0.1022327664076154,2.5823803143375703,0.004694733768701553,-0.10205477476119995,0.9947674870491028,0.001698637381196022,0.0009947679936885834,-0.0006629163399338722,0.00017281901091337204,0.000751689076423645,0.0009750723838806152
175,3.1369512982013865,0.10220227287528091,2.582409487795741,0.004617118742316961,-0.10202444344758987,0.9947710037231445,-0.0008486974984407425,-0.0022257831878960133,-0.0007411418482661247,-0.0018247617408633232,-0.0012317672371864319,0.013636410236358643
176,3.1369757551341078,0.1021819206736038,2.5824444815582295,0.0045928009785711765,-0.10200420022010803,0.9947735667228699,0.0007133316248655319,-0.0006888937205076218,0.0004788655787706375,0.0018769251182675362,-0.0038307905197143555,0.007027149200439453
177,3.1368778398546557,0.10228937726126755,2.5824685441285036,0.00469015259295702,-0.1021110936999321,0.9947620034217834,-0.00039317086338996887,-0.0028387820348143578,-0.0019672783091664314,-0.0008601970039308071,0.0026237741112709045,-0.0008959770202636719
178,3.136930081351785,0.10213236766287177,2.5825197489975618,0.004638257902115583,-0.10195489972829819,0.9947779774665833,0.0012247245758771896,0.0010059778578579426,-0.0026729730889201164,-0.0008693365380167961,-0.001392856240272522,0.0032839179039001465
179,3.136961906307878,0.1022013318401144,2.5825482691647443,0.004606566857546568,-0.10202350467443466,0.9947712421417236,0.0007417360320687294,-0.0015298118814826012,0.001068098470568657,0.0005509005859494209,-0.0020871981978416443,0.010004699230194092
180,3.136849999074507,0.10220413074899865,2.5825711994430507,0.004717889707535505,-0.10202629119157791,0.9947708249092102,-0.00030436180531978607,0.0007749216165393591,0.0001816311851143837,0.002118048258125782,3.6522746086120605e-05,0.005229473114013672
181,3.1369339082300627,0.10217164466142883,2.582580567371442,0.004634433891624212,-0.10199397802352905,0.994774341583252,-0.000926947221159935,0.0004004740621894598,-0.0009588152170181274,-0.0021777688525617123,0.001438535749912262,0.0023571252822875977
182,3.1370455489552422,0.1021877417367895,2.582594606514534,0.0045233676210045815,-0.10200998932123184,0.9947729110717773,0.0018071793019771576,0.001460088649764657,-0.0008250996470451355,0.00011530239135026932,-0.0018870905041694641,0.00777512788772583
183,3.1369353240784257,0.10214251500804043,2.5826397140118607,0.004633037839084864,-0.10196499526500702,0.9947770237922668,-0.00034219585359096527,-0.0007504303939640522,0.0016134921461343765,0.00037184450775384903,0.0013790801167488098,0.005726337432861328
184,3.136963439311834,0.10222210995278717,2.582650374177271,0.004605032503604889,-0.10204418003559113,0.9947692155838013,-0.0022004572674632072,0.0010681131388992071,0.0006669722497463226,-4.2654573917388916e-05,-0.0006932541728019714,0.0037049055099487305
185,3.1369992313377906,0.10231406642395412,2.5826862421473624,0.004569385666400194,-0.10213565081357956,0.9947601556777954,-0.001573764719069004,-0.0010054404847323895,-0.0012321146205067635,-0.0017465087585151196,0.00011537224054336548,0.006765842437744141
186,3.1370865401503223,0.1022681490364633,2.5826623611887243,0.004482554271817207,-0.10208997875452042,0.9947649836540222,-6.115343421697617e-05,-0.0012805401347577572,-0.002026285044848919,0.00018663424998521805,-0.0018681436777114868,0.007279574871063232
187,3.136957786467524,0.10233455578291786,2.582713122531592,0.004610602278262377,-0.10215603560209274,0.9947575926780701,0.0006875237450003624,0.0006250331643968821,0.0019033458083868027,0.0004858328029513359,0.0005935505032539368,0.003243386745452881
188,3.1369559146024377,0.10220724841230464,2.5827689939111473,0.004612524528056383,-0.10202939063310623,0.9947705864906311,0.0015430077910423279,0.0028006890788674355,-0.0021205637603998184,-0.0006299805827438831,0.0004058629274368286,0.0032914280891418457
189,3.13701811789523,0.1022160962222043,2.582762047264928,0.004550642799586058,-0.1020381972193718,0.9947700500488281,0.00031811371445655823,0.00169848813675344,-0.0003372104838490486,-0.0002934415824711323,-0.00010413676500320435,0.0056113600730896
190,3.1370156129871876,0.10220201774589627,2.582806325027543,0.004553141538053751,-0.10202419012784958,0.9947714805603027,0.0012909872457385063,-0.0005144705064594746,0.0015088506042957306,-0.0003417152911424637,-0.0011557415127754211,0.005609989166259766
191,3.136994342117878,0.10221326109295202,2.5828175760779923,0.004574296530336142,-0.10203537344932556,0.9947704076766968,-0.0007024137303233147,0.0028096744790673256,-0.0025235647335648537,-0.0006680465303361416,0.0004728585481643677,0.0059316158294677734
192,3.1370024678457957,0.10211576507060509,2.582812909973014,0.004566258750855923,-0.1019383892416954,0.994780421257019,-0.000280170701444149,0.0007505249232053757,0.0005432190373539925,0.00164406793192029,-0.0014551803469657898,0.007493257522583008
193,3.137111378196921,0.1021539387163421,2.5828456217685747,0.0044578989036381245,-0.10197636485099792,0.9947768449783325,-0.0024198899045586586,-0.002492298372089863,0.00040022656321525574,-0.0015282128006219864,0.0009479224681854248,-0.0040847063064575195
194,3.1372084305138785,0.10220129397291779,2.582826257916792,0.004361332859843969,-0.10202346742153168,0.9947725534439087,-0.00020644348114728928,-0.0005201678723096848,-0.0003750482574105263,-0.0013400926254689693,-0.0015532001852989197,0.006951808929443359
195,3.137309232687164,0.10211873455753713,2.582865407424336,0.004261094145476818,-0.10194133967161179,0.9947815537452698,0.001590612344443798,-0.0009225336834788322,0.0007361285388469696,0.004299088381230831,0.0014621913433074951,0.008041620254516602
196,3.137205965778755,0.10209993022635465,2.5829629689841407,0.004363828804343939,-0.10192263126373291,0.9947826266288757,-0.0012097209692001343,-0.0005080271512269974,1.798383891582489e-06,-0.0007627541199326515,-0.004217490553855896,0.003737151622772217
197,3.137242530074672,0.10223689028337624,2.582962289761541,0.004327395465224981,-0.10205888003110886,0.9947690367698669,-0.0006624460220336914,-0.0022479286417365074,8.77799466252327e-05,-0.0014892606995999813,0.0031056180596351624,0.003949284553527832
198,3.137139694168308,0.1021092859954067,2.5829909409928424,0.004429750610142946,-0.10193194448947906,0.9947814345359802,-0.0005950462073087692,-0.0007269843481481075,-0.0009685177356004715,0.0022078226320445538,-0.0014005601406097412,0.0062103271484375
199,3.137316613484235,0.10228643781856138,2.5830079767113325,0.004253678023815155,-0.10210816562175751,0.9947642683982849,0.0023417831398546696,0.0032242033630609512,0.0008086087182164192,-0.0016596815548837185,0.0013696253299713135,0.007234692573547363
200,3.137278689796685,0.10221077342847751,2.582979621757977,0.00429143663495779,-0.10203289985656738,0.9947718977928162,0.0008058371022343636,0.0008119691628962755,-0.002964395098388195,-0.000217340886592865,0.00011944770812988281,0.0021001100540161133
201,3.1372134758860644,0.10231705567070754,2.582975910525636,0.004356261808425188,-0.10213862359523773,0.9947606921195984,-0.0018976591527462006,0.004539174027740955,-0.0009513814002275467,0.0007859505712985992,-0.00046147406101226807,-0.006845593452453613
202,3.137257128533927,0.10223705610307862,2.5830234778869112,0.004312874283641577,-0.10205904394388199,0.994769275188446,0.0014490531757473946,-0.0053009940311312675,0.0009829550981521606,0.0035301437601447105,0.0006948858499526978,0.013028264045715332
203,3.1346075618619484,0.10324107474448169,2.582897228076891,0.006947844289243221,-0.10305777192115784,0.9946513772010803,-0.1702348291873932,-0.3936295807361603,0.003001205623149872,-0.0037892740219831467,0.002502329647541046,0.015618085861206055
204,-3.130649490835771,0.04814327819884959,2.420219822801295,-0.010930266231298447,-0.048124682158231735,0.9987816214561462,1.443902850151062,0.12414610385894775,1.512352705001831,0.005955899134278297,-0.04770052060484886,0.15456926822662354
205,3.0930237984227023,0.01829917110267495,2.3412513282917633,0.04854164645075798,-0.01829814910888672,0.998653769493103,-1.6005693674087524,0.03422287106513977,1.8745596408843994,-0.020419687032699585,-0.02283954806625843,0.07129275798797607
206,-3.104396261641228,0.21303727967343716,2.11013863279195,-0.036347124725580215,-0.21142949163913727,0.9767172932624817,-1.8690167665481567,0.4757046401500702,2.692589044570923,-0.04353263974189758,0.23089970648288727,-0.13112092018127441
207,-2.9425821538434294,0.22157346850467113,1.725822862856029,-0.19286631047725677,-0.21976490318775177,0.956298291683197,0.8121774792671204,0.5675719380378723,4.087050437927246,0.03412909805774689,0.09313216805458069,-0.0826714038848877
208,-2.8562287962061004,0.04632806240206812,1.4298521157002533,-0.28120461106300354,-0.04631149023771286,0.9585298895835876,0.44524502754211426,0.7674914002418518,3.0410444736480713,0.04980504512786865,-0.15785109996795654,0.02540278434753418
209,-2.7925085032727868,-0.018825854702577877,1.2649081405432356,-0.3419767916202545,0.01882474310696125,0.939520001411438,0.1264764368534088,0.42353692650794983,0.5277259945869446,0.09408247470855713,0.006001310423016548,-0.008138656616210938
210,-2.7807981799189663,-0.05266386635865545,1.1566332534512402,-0.35252824425697327,0.05263952538371086,0.9343194961547852,-0.19334575533866882,0.31056323647499084,1.513136863708496,0.08641496300697327,0.00755639374256134,0.06534481048583984
211,-2.8123854636773733,-0.0774301476371376,1.0638883956292098,-0.3223242163658142,0.07735279947519302,0.9434635639190674,-0.03584487736225128,-0.45201292634010315,0.32343530654907227,-0.010668307542800903,0.07846993952989578,0.09344732761383057
212,-2.8655119046579838,-0.08133599648493013,1.055556193947125,-0.27168580889701843,0.08124634623527527,0.9589505791664124,-0.021479586139321327,-0.46333393454551697,-0.1330556571483612,-0.03846439719200134,-0.0006036236882209778,-0.015621542930603027
213,-2.90146950256368,-0.07935359678799345,1.0291008505423587,-0.23707382380962372,0.07927034050226212,0.9682520031929016,-0.24574781954288483,-0.3624472916126251,0.14732325077056885,-0.1327381432056427,-0.008286476135253906,-0.06439781188964844
214,-2.9068908498896446,-0.051499651158555405,1.0108852790874732,-0.23224468529224396,0.05147688835859299,0.9712944030761719,-0.3389050364494324,-0.020159639418125153,0.13145655393600464,0.010275036096572876,-0.010339193046092987,0.008701443672180176
215,-2.910442020705794,-0.03701947232395028,1.0044324755179004,-0.2289406657218933,0.03701101616024971,0.9727362394332886,-0.02060154266655445,-0.01671091839671135,0.0014281095936894417,0.00233246386051178,0.001715775579214096,0.012126743793487549
216,-2.924572742280211,-0.030852641627846324,1.0030608586171967,-0.21521790325641632,0.03084774687886238,0.9760786294937134,-0.06150803714990616,-0.14527760446071625,-0.0010287696495652199,0.0026935189962387085,-0.002557951956987381,0.01447606086730957
217,-2.9776889876415003,-0.006353924730479388,0.9980622485247218,-0.16316752135753632,0.0063538821414113045,0.986578106880188,-0.060831133276224136,-0.05010867118835449,-0.00644735898822546,0.15753698348999023,-0.09581616520881653,0.16691017150878906
218,-2.9783984621221222,-0.005575956835011721,0.9978655003389238,-0.16246828436851501,0.005575927905738354,0.9866981506347656,-0.0015966705977916718,0.002046516863629222,0.0030092094093561172,-5.30928373336792e-05,0.0014736284501850605,0.003963589668273926
219,-2.9781444526311716,-0.0055979152938549276,0.9964469947515066,-0.16271890699863434,0.00559788616374135,0.9866568446159363,0.00015589967370033264,0.0025051566772162914,0.0008745109662413597,0.005049794912338257,0.0010396852158010006,0.004661083221435547
220,-2.978356860288093,-0.005576176163654094,0.991969443874205,-0.16250930726528168,0.005576147232204676,0.9866912364959717,7.962342351675034e-05,0.0012844768352806568,-0.00010743830353021622,0.0034974515438079834,-0.0007848814129829407,0.00686955451965332
221,-2.9784650772103616,-0.005496190924371701,0.9879805929255888,-0.16240261495113373,0.005496163386851549,0.9867093563079834,-0.0023914026096463203,0.0026215333491563797,-0.0010261982679367065,0.0011934787034988403,0.001522884238511324,0.005096793174743652
222,-2.9786166303734056,-0.005622495883998806,0.9843552237383795,-0.16225294768810272,0.005622466094791889,0.9867332577705383,-0.0031586363911628723,0.0015876619145274162,-0.0001764446496963501,0.002554461359977722,0.002235807478427887,0.004889726638793945
223,-2.978694088008348,-0.005631977633754555,0.9802103567025789,-0.16217651963233948,0.005631947889924049,0.9867458343505859,-0.0012429021298885345,0.002302336972206831,0.001414543017745018,0.0011657625436782837,-0.00039818836376070976,0.005212903022766113
224,-2.978762693305415,-0.00558584663623003,0.9771550446435673,-0.1621088832616806,0.0055858176201581955,0.986757218837738,0.0001321909949183464,0.00148175866343081,-0.0006942683830857277,0.002028927206993103,0.0017384067177772522,0.005125164985656738
225,-2.9790320429852435,-0.005650295564645556,0.9741859501443878,-0.1618429720401764,0.005650265607982874,0.9868001341819763,-0.0014540525153279305,0.0007867175154387951,0.000415729358792305,0.0013510584831237793,0.00046850647777318954,0.00413590669631958
226,-2.9790514794144247,-0.005574936453280375,0.9723364274280156,-0.16182386875152588,0.0055749076418578625,0.9868038296699524,-0.0012742485851049423,0.007052900735288858,0.000936984084546566,0.0007368624210357666,-0.0030114282853901386,0.003934025764465332
227,-2.9791119788414946,-0.00555180957121964,0.9694215765549484,-0.1617642492055893,0.005551781039685011,0.986814022064209,-0.0013759545981884003,0.004099495708942413,-0.002186276949942112,0.005270093679428101,0.0026727025397121906,0.004671692848205566
228,-2.979261221085281,-0.005810232774201376,0.9675344093085518,-0.161616712808609,0.005810200236737728,0.9868365526199341,0.00015419255942106247,0.0009175143204629421,-0.0005106721073389053,-0.003437608480453491,0.00011020898818969727,0.004572749137878418
229,-2.9791323986374865,-0.005635723763220175,0.9652164890867537,-0.16174395382404327,0.00563569413498044,0.9868164658546448,-0.0008578626438975334,-0.00034197140485048294,0.0011491458863019943,0.0027016401290893555,-0.002263503149151802,0.003829658031463623
230,-2.9794447127308463,-0.005632138172898942,0.9630716631445563,-0.16143584251403809,0.0056321085430681705,0.9868674874305725,-0.0003267638385295868,0.001991111785173416,-0.00022419355809688568,0.0015694648027420044,0.0034316121600568295,0.002802610397338867
231,-2.979343697090879,-0.005699366708236456,0.9612719402946793,-0.16153544187545776,0.005699336063116789,0.9868506193161011,-0.0011293599382042885,0.0010091993026435375,-0.0008636051788926125,-0.00229819118976593,0.0006330613978207111,0.0037653446197509766
232,-2.9793490928053257,-0.005587143804519235,0.9601420906974972,-0.16153022646903992,0.005587114952504635,0.9868521690368652,0.0004383344203233719,0.0010757425334304571,-0.0011078231036663055,0.0022284090518951416,-9.394995868206024e-05,0.005549192428588867
233,-2.9794902124359175,-0.005571085536350928,0.9593483165373191,-0.16139093041419983,0.0055710566230118275,0.9868748188018799,0.0011710897088050842,-0.0005857551004737616,-0.004153089597821236,-0.001878097653388977,0.000593497883528471,0.005602538585662842
234,-2.979411935401684,-0.005627142025204739,0.9584940629527275,-0.16146814823150635,0.005627112463116646,0.9868619441986084,0.00022732000797986984,0.0014119395054876804,-0.0007780296728014946,0.00021326541900634766,0.0016513243317604065,0.0053102970123291016
235,-2.979547688655399,-0.005596447762711373,0.957138981973156,-0.16133423149585724,0.005596418399363756,0.9868842363357544,-0.0009996574372053146,0.0008414487820118666,0.001516249030828476,0.0004607737064361572,0.0011021881364285946,0.004525303840637207
236,-2.9794384672815357,-0.005612876881578124,0.9558140744815014,-0.16144195199012756,0.0056128473952412605,0.9868661165237427,0.0010815830901265144,-0.003112665144726634,0.0007877489551901817,-0.0018881261348724365,-0.0013861586339771748,0.0052602291107177734
237,-2.9794943551867017,-0.005587661332688813,0.9550384233372529,-0.16138684749603271,0.005587632302194834,0.9868754744529724,-0.0008003730326890945,-0.0006949272938072681,-0.0015449197962880135,-3.5896897315979004e-05,-0.0004759351722896099,0.005083203315734863
238,-2.9794448947196175,-0.005586563001459412,0.9544054935050911,-0.16143569350242615,0.005586533807218075,0.9868677258491516,-0.0008474951609969139,0.0015790918841958046,-0.0006927391514182091,-0.001253560185432434,0.0018597557209432125,0.004328250885009766
239,-2.9794738375942282,-0.005617629651981962,0.9536923790995993,-0.16140705347061157,0.005617599934339523,0.9868719577789307,0.0001756567507982254,-0.0017320422921329737,-0.0007888525724411011,0.0007167458534240723,-0.00015495717525482178,0.004979848861694336
240,-2.9795497969939153,-0.005648534814165554,0.9528471687082051,-0.16133204102516174,0.005648504942655563,0.9868838787078857,0.0009470731019973755,-0.0006965636275708675,0.0008547818288207054,-0.0007620453834533691,-0.00027741584926843643,0.003991186618804932
241,-2.979551665591541,-0.0057451712681531614,0.9521358249706495,-0.16133008897304535,0.005745139438658953,0.9868835806846619,0.0007693544030189514,-0.005393973086029291,0.0017923815175890923,-6.207823753356934e-05,0.0009076874703168869,0.004235565662384033
242,-2.979595129375126,-0.005785834390052912,0.9518631446727056,-0.16128720343112946,0.005785801913589239,0.9868905544281006,-0.0021987827494740486,-0.0013821315951645374,0.00021019205451011658,-0.0007306188344955444,-0.0006588548421859741,0.005235910415649414
243,-2.9795665811019165,-0.0057541775709653116,0.9515510694238294,-0.1613154411315918,0.005754145793616772,0.9868863821029663,0.003959640860557556,0.0005540784914046526,-0.0005156304687261581,-0.0012364089488983154,0.000593503937125206,0.005469202995300293
244,-2.9795874602652064,-0.005837757581093467,0.9514044305875408,-0.16129477322101593,0.005837724544107914,0.9868893027305603,0.00020237546414136887,-0.0009024674072861671,0.0008300952613353729,3.984570503234863e-05,0.0004946752451360226,0.0032538175582885742
245,-2.9795872578831144,-0.005840972875624307,0.9509617970645893,-0.16129495203495026,0.005840939469635487,0.9868891835212708,-0.001988292671740055,0.002285485388711095,-0.0006546229124069214,-0.0022487789392471313,-0.0015684808604419231,0.0009649991989135742
246,-2.9794880366644776,-0.0057805155426867375,0.9501030817310235,-0.1613929122686386,0.00578048313036561,0.9868733882904053,-0.0023095346987247467,-0.0015465812757611275,-7.82189890742302e-05,0.002686232328414917,0.0025813281536102295,0.0056040287017822266
247,-2.979543544985962,-0.0058358348379118335,0.9491997726016863,-0.16133800148963928,0.00583580182865262,0.9868816137313843,0.0040256911888718605,-0.0007224059663712978,0.00019997544586658478,-0.0031364262104034424,0.0006339233368635178,0.0030624866485595703
248,-2.9794133830172993,-0.005784285102081831,0.9482790134049331,-0.1614665389060974,0.005784252658486366,0.9868611693382263,-0.0005246251821517944,0.003676481544971466,0.0009289970621466637,0.0012492537498474121,0.00030399858951568604,0.0028390884399414062
249,-2.9795126812401955,-0.005799453233547006,0.9473646058685312,-0.16136860847473145,0.005799420643597841,0.9868775010108948,-0.00037026219069957733,0.0004958582576364279,0.0008369879797101021,-0.00199204683303833,0.0009144488722085953,0.0052645206451416016
250,-2.979366744553683,-0.0057993017567483564,0.9464351431781644,-0.16151262819766998,0.005799269303679466,0.9868538975715637,0.00010129716247320175,0.0013387799263000488,-0.0017575416713953018,-0.0015580952167510986,0.00041105737909674644,0.005028724670410156
251,-2.9793697037404385,-0.005787431157641906,0.9456904001571483,-0.1615096479654312,0.005787398666143417,0.9868541359901428,-0.0010618986561894417,-0.00048435013741254807,0.001250346191227436,0.0008804053068161011,-0.0007977788336575031,0.0038989782333374023
252,-2.979385743753946,-0.00580898091427472,0.944920005657642,-0.16149383783340454,0.005808948073536158,0.9868568181991577,0.002736038528382778,0.0004980999510735273,0.0007530888542532921,-0.002355054020881653,-0.0019026990048587322,0.004293203353881836
253,-2.9793692464932984,-0.005817791698095094,0.9443702381514896,-0.16151008009910583,0.005817758850753307,0.9868538975715637,0.0010024094954133034,-0.0017969810869544744,0.00015047844499349594,-0.0013317018747329712,0.002406730782240629,0.004433274269104004
254,-2.979368995365995,-0.0058859427555607614,0.9436688688779488,-0.16151031851768494,0.005885908845812082,0.9868537783622742,-0.0006617642939090729,-0.0016264598816633224,-0.0007871417328715324,-0.0017435252666473389,-5.704676732420921e-05,0.001793980598449707
255,-2.979282103799582,-0.005780663203622799,0.9436858811257398,-0.1615961492061615,0.005780631210654974,0.9868402481079102,-0.0018697045743465424,-0.00013708672486245632,0.002094603143632412,-0.0003301352262496948,-0.00013487739488482475,0.0022650957107543945
256,-2.9792382995001327,-0.005792067519843108,0.9435743585791166,-0.16163933277130127,0.0057920352555811405,0.9868329167366028,-0.0011141607537865639,0.0017321615014225245,-0.00048036500811576843,-0.0023773610591888428,0.0017000283114612103,0.003752410411834717
257,-2.979140052825896,-0.005742531502755721,0.943478360197355,-0.16173633933067322,0.0057425000704824924,0.9868173599243164,0.0014563417062163353,0.0016772993840277195,0.0010008793324232101,0.0004051625728607178,-0.0008139088749885559,0.004179954528808594
258,-2.9792046002636527,-0.005699505932476979,0.9433011260952968,-0.1616727113723755,0.005699475295841694,0.9868282079696655,-0.0010905591771006584,0.0014759446494281292,0.0003612060099840164,-0.0007266253232955933,0.0004193051718175411,0.0037573575973510742
259,-2.979208833808971,-0.005650193873882533,0.943016264977951,-0.1616685539484024,0.0056501636281609535,0.9868290424346924,-2.71480530500412e-06,-0.0017236436251550913,2.7288682758808136e-05,-0.0014478862285614014,0.001994490157812834,0.0033290982246398926
260,-2.9791789844828513,-0.005671294079629484,0.9427611493055825,-0.16169799864292145,0.005671263672411442,0.9868241548538208,0.0007721250876784325,-0.0017612292431294918,0.0022169239819049835,-0.0007623285055160522,0.0005085472948849201,0.00585174560546875
261,-2.9792818786407205,-0.005661697955821228,0.9426172606093833,-0.16159646213054657,0.005661667790263891,0.9868407249450684,0.0005297129973769188,-0.0012486919295042753,0.0008478416129946709,-0.0012453347444534302,-0.0001379847526550293,0.004507541656494141
262,-2.9792685511940262,-0.00571144631135929,0.9426777760922959,-0.16160960495471954,0.005711415316909552,0.9868385195732117,-0.0018823826685547829,1.5576602891087532e-05,0.00020991265773773193,-0.001110166311264038,0.0007583140395581722,0.004113197326660156
263,-2.9792021061219507,-0.005748413361125552,0.9428441765067833,-0.16167506575584412,0.0057483818382024765,0.9868270754814148,0.0007362673059105873,0.003145866794511676,-0.00025901664048433304,-0.001273512840270996,-0.00013315025717020035,0.0044293999671936035
264,-2.979196516335196,-0.005762450360115705,0.9430496940034729,-0.16168063879013062,0.005762418266385794,0.9868265986442566,-0.0015621017664670944,-0.0007538285572081804,0.00032070837914943695,-0.0002914518117904663,-0.0005896822549402714,0.006154656410217285
265,-2.979177607120976,-0.005775924267327387,0.9432610620762382,-0.16169928014278412,0.005775892175734043,0.9868233799934387,0.0013518482446670532,0.0014737523160874844,0.001254994422197342,-0.0004406273365020752,-0.0001148800365626812,0.0035332441329956055
266,-2.9790999603800596,-0.005764698418108113,0.9431481945471957,-0.16177591681480408,0.0057646664790809155,0.9868109226226807,-0.0006251363083720207,0.0006516994908452034,-0.000529722310602665,-0.00044032931327819824,0.0004609166644513607,0.0025234222412109375
267,-2.979086336793599,-0.005838640655915452,0.9433836083006351,-0.16178926825523376,0.0058386074379086494,0.9868082404136658,-0.002154163084924221,-0.002998679643496871,0.0017137955874204636,-0.0012356340885162354,0.000356458593159914,0.005211591720581055
268,-2.97906903148141,-0.0058394087366686635,0.9438126867103593,-0.16180631518363953,0.005839375779032707,0.9868052005767822,-0.00020002014935016632,0.0018864108715206385,-0.0003344407305121422,-0.0019052177667617798,-0.0006208647973835468,0.006297767162322998
269,-2.9789564045666532,-0.005806028151782887,0.9440783701880848,-0.16191749274730682,0.005805995315313339,0.9867871999740601,-0.0012097721919417381,0.0007789281662553549,-0.0004051094874739647,-0.0012599676847457886,0.0003280332311987877,0.002195894718170166
270,-2.978855763519177,-0.005798188413862561,0.9442734274599054,-0.162016823887825,0.0057981559075415134,0.9867709875106812,-0.0021927636116743088,-0.002592037431895733,0.0010350355878472328,-0.0010538697242736816,0.0010835607536137104,0.005813241004943848
271,-2.9788984291799534,-0.005775141143483291,0.9442409709985389,-0.16197477281093597,0.0057751089334487915,0.986778199672699,-0.0011381423100829124,-4.0110666304826736e-05,0.0009717456996440887,-0.0020572543144226074,-0.0012432471849024296,0.0064318180084228516
272,-2.9788893971239285,-0.005714945651220546,0.9443508001859777,-0.1619836837053299,0.005714914761483669,0.9867767691612244,0.0017019817605614662,-0.00190794188529253,0.00023047160357236862,-0.00023248791694641113,-0.0005574454553425312,0.002389371395111084
273,-2.9789109686246658,-0.005719251173206589,0.9443250164224296,-0.1619623899459839,0.005719219800084829,0.9867802262306213,-0.0010714475065469742,-0.0002649093512445688,0.0007144352421164513,-0.0023900121450424194,-0.0016756360419094563,0.0035303235054016113
274,-2.9788796961047743,-0.005682897207770378,0.9443819133551812,-0.16199332475662231,0.005682866554707289,0.9867756366729736,0.0012964298948645592,0.0002575400285422802,-0.0016782693564891815,-0.0006196051836013794,-0.0003728116862475872,0.004999995231628418
275,-2.978867871548763,-0.005763404260472963,0.944495351032415,-0.16200485825538635,0.005763372406363487,0.986772894859314,-0.00012857746332883835,-0.00016385246999561787,0.0005191611126065254,0.00010915100574493408,0.0010573104955255985,0.005200743675231934
276,-2.978911628474613,-0.005745816075251238,0.9447074997155618,-0.16196171939373016,0.005745784379541874,0.9867801666259766,-0.0014122100546956062,-0.0007740242872387171,0.0005407063290476799,-0.0017345398664474487,-5.425605922937393e-05,0.0035608410835266113
277,-2.978870262663656,-0.005752953958677183,0.9445359269631346,-0.1620025634765625,0.005752922035753727,0.986773669719696,-0.001285085454583168,0.0028097243048250675,0.0009405054152011871,-0.0008850246667861938,0.001540773082524538,0.0052307844161987305
278,-2.978865321802036,-0.005793020862453846,0.9444061226920956,-0.1620074063539505,0.0057929884642362595,0.9867725968360901,-0.0015000775456428528,0.0003502592444419861,0.002100900746881962,-0.0008191615343093872,0.00029527442529797554,0.010297775268554688
279,-2.97894177635037,-0.0056653423190272416,0.9444112135374848,-0.1619320958852768,0.005665312055498362,0.9867858290672302,-0.0015563322231173515,-0.004838122520595789,0.0014937454834580421,-0.008172929286956787,0.003840917255729437,0.008514642715454102
280,-2.9787181351647667,-0.005662988472161642,0.94410220862922,-0.1621527373790741,0.005662958137691021,0.9867493510246277,-0.0014724340289831161,0.0006819786503911018,0.0006771283224225044,0.005139797925949097,-0.002809569239616394,0.003591775894165039
281,-2.9789415127404073,-0.005478246182706112,0.9440544996875609,-0.16193245351314545,0.005478218663483858,0.9867863655090332,0.0002915244549512863,0.0023377295583486557,-0.0020738812163472176,-0.005090206861495972,-0.00077851302921772,0.0004112124443054199
282,-2.9786382465427823,-0.005546104487091188,0.9441249946285241,-0.1622316837310791,0.005546076223254204,0.986737072467804,0.0015006698668003082,-0.0012863706797361374,0.0012840628623962402,0.0010225772857666016,0.002007022500038147,0.0054045915603637695
283,-2.978938651614118,-0.005531247801400004,0.9444650844440579,-0.1619352251291275,0.005531219765543938,0.9867855906486511,-0.0006185742095112801,0.001891228836029768,0.0004476672038435936,0.0005125254392623901,0.0008927346207201481,0.000244140625
284,-2.978770442470774,-0.005430854598437179,0.944458718173443,-0.1621013581752777,0.005430827848613262,0.9867593050003052,-0.0007917797192931175,-0.003184734843671322,0.0008575469255447388,-0.004372045397758484,-0.001387245487421751,0.004985809326171875
285,-2.9788556276563996,-0.005472112288948643,0.9445333589298756,-0.16201727092266083,0.005472084973007441,0.986772894859314,-0.00013934914022684097,-0.0010559316724538803,0.000130385160446167,0.00138796865940094,0.002035238314419985,0.001767873764038086
286,-2.9788209262931367,-0.00554394531367073,0.9444782207478671,-0.16205145418643951,0.005543916951864958,0.9867669343948364,-0.00042046792805194855,0.0005270696710795164,-5.747377872467041e-05,-0.0005919784307479858,-9.652972221374512e-05,0.003284454345703125
287,-2.9787598304215366,-0.005496635768526512,0.9442648819768535,-0.16211175918579102,0.005496608093380928,0.9867571592330933,0.0017071794718503952,-3.930879756808281e-05,-0.0009369822219014168,-0.0010962486267089844,0.0016139894723892212,0.004102826118469238
288,-2.978712443460352,-0.0055687688188114405,0.9445187304300208,-0.16215845942497253,0.0055687399581074715,0.9867491126060486,0.0001616012305021286,-0.002512002596631646,-0.0022435029968619347,-0.0007443875074386597,-0.000869035255163908,0.005850434303283691
289,-2.978629038940893,-0.0055202219476440766,0.9446791528800815,-0.16224080324172974,0.005520193837583065,0.9867358207702637,0.0035918233916163445,0.006123291328549385,-0.0009611295536160469,-0.004125773906707764,0.0017277300357818604,-0.007091045379638672
290,-2.9782915928103892,-0.005621687162573791,0.9445178319164089,-0.1625736802816391,0.005621657706797123,0.9866804480552673,0.0010104840621352196,-0.002987177111208439,0.0006977543234825134,-0.00010026991367340088,0.0019924785010516644,0.013227999210357666
291,-2.9789102420225038,-0.005464043700710882,0.9440992779527076,-0.16196337342262268,0.005464016459882259,0.9867817163467407,0.0003203311935067177,-0.0015322286635637283,-0.00012880470603704453,0.0006474554538726807,-0.003236226737499237,0.006122946739196777
292,-2.9783108750051115,-0.005413507048816771,0.9436101977171404,-0.1625547707080841,0.005413480568677187,0.9866843819618225,0.00014597084373235703,0.0023758471943438053,-0.003964771516621113,-0.007656976580619812,0.010211518034338951,-0.004064440727233887
293,-2.978356673201298,-0.005708253864656338,0.943481478886851,-0.16250935196876526,0.00570822274312377,0.9866904020309448,0.0003567272797226906,-0.0002988027408719063,-0.0021376432850956917,0.0010255873203277588,0.0037980005145072937,0.007312774658203125
294,-2.9785149092783647,-0.005454849235220647,0.9435828801168769,-0.1623534858226776,0.005454821977764368,0.986717700958252,-0.001577259972691536,3.70638445019722e-05,-0.0009830659255385399,0.0008544474840164185,-0.005637928377836943,0.009727120399475098
295,-2.978384619505864,-0.005466981093582561,0.9433583115637313,-0.16248197853565216,0.005466953851282597,0.986696183681488,0.0009226128458976746,-0.00042118970304727554,0.003781476989388466,-0.0006649643182754517,0.0012316550128161907,0.0037211179733276367
296,-2.978313388276738,-0.00552985138918288,0.9432952146982995,-0.16255220770835876,0.005529823247343302,0.986684262752533,0.002160488162189722,0.0012551213148981333,0.00034969765692949295,-0.0026699453592300415,-0.00026554660871624947,0.004862189292907715
297,-2.97827702418368,-0.005488955401950855,0.9431522623948829,-0.16258811950683594,0.0054889279417693615,0.9866785407066345,-0.0004894714802503586,0.00030866428278386593,-0.00028272997587919235,0.0002804100513458252,-0.00023990217596292496,0.005401909351348877
298,-2.9783980678848647,-0.005414638868846868,0.9430075520649521,-0.1624687761068344,0.005414612591266632,0.9866987466812134,0.0003702780231833458,-0.002338110003620386,-0.0005939919501543045,-0.0046454668045043945,-0.0014168103225529194,0.00439000129699707
299,-2.9782134566344163,-0.00541221402274878,0.9426740279989706,-0.1626509726047516,0.005412187427282333,0.9866690039634705,0.0009609702974557877,0.002018576953560114,-0.002072609029710293,0.0020063966512680054,0.0001877858303487301,0.005030393600463867
300,-2.978429019182608,-0.00549854805995063,0.9424597852119645,-0.16243822872638702,0.005498520564287901,0.9867037534713745,0.0005426201969385147,-0.0028075987938791513,-4.535168409347534e-05,-0.0027382224798202515,0.001978294923901558,0.005941867828369141
301,-2.9782885756306285,-0.005453952037660616,0.9420201282125472,-0.16257676482200623,0.005453925114125013,0.9866806864738464,-0.0013191811740398407,-0.0014629175420850515,-0.0020558424293994904,0.00014697015285491943,0.0002376060001552105,0.004972577095031738
302,-2.978371548115806,-0.0054059304033136435,0.9414692668241651,-0.16249500215053558,0.00540590425953269,0.9866947531700134,-0.0014575757086277008,-0.0029795991722494364,0.0026006875559687614,-0.0004078894853591919,0.0008959784172475338,0.0048825740814208984
303,-2.978372994176464,-0.005385896570002846,0.9412159028795745,-0.1624935418367386,0.0053858705796301365,0.986694872379303,-0.0012081312015652657,0.0015537897124886513,0.0021113399416208267,-0.0012332350015640259,0.00022935820743441582,0.002730727195739746
304,-2.978350198908616,-0.0054122563516429524,0.9409038849278202,-0.1625160425901413,0.005412229802459478,0.9866911768913269,0.00031915027648210526,-0.00037870416417717934,0.00013295654207468033,-0.0007835179567337036,-0.00045312196016311646,0.004474043846130371
305,-2.9783442441534684,-0.0054118141254266,0.9408470421575571,-0.1625218689441681,0.005411787889897823,0.9866899251937866,0.0006696842610836029,0.00031997147016227245,-0.0010068407282233238,-0.0016169100999832153,0.0022176052443683147,0.0037273764610290527
306,-2.9783271405668166,-0.005512892640567884,0.9408735914922657,-0.16253873705863953,0.0055128647945821285,0.9866870641708374,-0.0024910932406783104,0.0002160239964723587,-0.0018685832619667053,-0.002103641629219055,-0.0011793659068644047,0.005058169364929199
307,-2.978404605781358,-0.005398306870271501,0.9411602387761795,-0.16246233880519867,0.005398280452936888,0.9866998791694641,-0.0005645928904414177,-0.001898753922432661,-0.0015206076204776764,-0.0015543699264526367,-0.0018887603655457497,0.005258619785308838
308,-2.9783380965202033,-0.005417914195322238,0.9412664802755396,-0.16252796351909637,0.005417887587100267,0.9866890907287598,-0.0011316649615764618,-0.0012238423805683851,0.0008810199797153473,-0.0005274564027786255,0.0005482956767082214,0.0038199424743652344
309,-2.978311490875522,-0.005433903750328295,0.94128093471183,-0.16255420446395874,0.005433876998722553,0.9866846799850464,0.0005735009908676147,-0.00041244830936193466,-0.0007843673229217529,-0.00034862756729125977,0.0003797188401222229,0.005792737007141113
310,-2.9783015116769844,-0.005465141248369843,0.9413735410249544,-0.16256402432918549,0.005465114023536444,0.9866828918457031,-0.0022211186587810516,0.0001882975921034813,-0.0010124174878001213,-0.000811845064163208,0.0007757321000099182,0.004619598388671875
311,-2.978303641864195,-0.005505610740102652,0.941271915511333,-0.16256184875965118,0.00550558278337121,0.9866827726364136,0.0017387736588716507,-0.0015990096144378185,-0.0019562039524316788,-0.0007681846618652344,0.000933630857616663,0.004375338554382324
312,-2.978238414420959,-0.005593505721857909,0.941298125094022,-0.16262614727020264,0.005593476351350546,0.9866718649864197,0.0005289334803819656,0.002664863131940365,-0.0008622743189334869,-0.0004445314407348633,-2.4020671844482422e-05,0.003760814666748047
313,-2.978224107656876,-0.005634696326839991,0.9413014291250182,-0.16264019906520844,0.005634666420519352,0.9866691827774048,0.00022965110838413239,-0.0029285172931849957,0.0005610575899481773,-0.0007661283016204834,-0.00044667813926935196,0.004419505596160889
314,-2.978236051483189,-0.005585658018024571,0.9412241613736104,-0.16262847185134888,0.005585629027336836,0.9866714477539062,0.0003665238618850708,-0.0031600468792021275,0.0013198303058743477,-0.0006863325834274292,0.001067198347300291,0.0036848783493041992
315,-2.9783186660660883,-0.005621663797488646,0.9410144889557888,-0.16254697740077972,0.00562163395807147,0.9866849780082703,0.000935649499297142,0.00033205049112439156,0.0008652051910758018,-0.0013476908206939697,0.0010159392841160297,0.0047702789306640625
316,-2.9782835890899895,-0.005625028899395194,0.9410437315585188,-0.16258154809474945,0.005624999292194843,0.9866790175437927,-0.0003508375957608223,-0.0019474141299724579,-0.0005950052291154861,-0.0022591352462768555,0.0009667947888374329,0.0049591064453125
317,-2.9782268251640667,-0.005630302910818763,0.9411722684574301,-0.16263753175735474,0.005630273371934891,0.986669659614563,-0.00014471542090177536,0.0003220515791326761,-0.0012658452615141869,-0.001211315393447876,0.0003664335235953331,0.0031525492668151855
318,-2.978159498501104,-0.0056449215252665965,0.941153498041687,-0.1627039760351181,0.005644891411066055,0.9866588115692139,-0.0008701104670763016,0.0024094851687550545,0.0013546068221330643,-0.000702396035194397,0.00042810291051864624,0.003224611282348633
319,-2.978136122427262,-0.005658170065274531,0.9409911014489271,-0.16272705793380737,0.005658139940351248,0.9866551160812378,0.00015907268971204758,-0.0022673155181109905,-0.0030510323122143745,-0.0025104284286499023,0.001681337133049965,0.0029081106185913086
320,-2.9780137092836507,-0.005774867140732739,0.9406379317855753,-0.16284766793251038,0.0057748351246118546,0.9866341948509216,0.001756526529788971,-0.0016499189659953117,-0.0005507329478859901,-0.0015199929475784302,0.0010610963217914104,0.007140100002288818
321,-2.978122504368403,-0.005786357153143027,0.9407625883099752,-0.1627403348684311,0.005786324851214886,0.9866518974304199,-0.00013711489737033844,-0.00031893327832221985,-0.0005929013714194298,0.0008293390274047852,-0.00017108814790844917,0.004223287105560303
322,-2.978033171345423,-0.005733484877790054,0.9406022536990091,-0.16282854974269867,0.005733453668653965,0.9866377711296082,-0.0018256297335028648,-0.0002562417648732662,0.0009038727730512619,-0.004239931702613831,0.0013008490204811096,0.003505110740661621
323,-2.977999802647912,-0.005716047773628807,0.940851464988322,-0.16286145150661469,0.005716016516089439,0.986632227897644,-0.0018753483891487122,-4.189088940620422e-06,-0.00037934258580207825,0.001377701759338379,0.00017387373372912407,0.005448281764984131
324,-2.9780986786630264,-0.0057610570248942325,0.9406165637128867,-0.16276384890079498,0.005761025007814169,0.9866480827331543,-0.0016693947836756706,0.001397603191435337,-0.000604633241891861,-0.0029618293046951294,0.00218880083411932,0.005127251148223877
325,-2.9779236951895833,-0.005757524904382022,0.9407922508989603,-0.1629365086555481,0.00575749296694994,0.9866197109222412,-0.00034613441675901413,-0.0011713597923517227,0.000272613950073719,0.00024731457233428955,-0.001652874518185854,0.0035077929496765137
326,-2.9779540884305846,-0.005698464659717583,0.9410366912477248,-0.16290660202503204,0.0056984336115419865,0.9866251349449158,0.0008483240380883217,-0.0006295307539403439,0.00023566000163555145,-0.0025749653577804565,-0.0012886449694633484,0.004540085792541504
327,-2.9778160897849877,-0.005733119976683543,0.9414407395513334,-0.16304269433021545,0.005733088590204716,0.986602246761322,-0.0004255296662449837,-0.0006789378821849823,0.002011489123106003,-0.001675918698310852,0.00017206277698278427,0.004288136959075928
328,-2.9778131025550563,-0.005735407830615079,0.9414373106049473,-0.16304564476013184,0.005735376384109259,0.9866017699241638,-0.0005313288420438766,0.0006713899783790112,0.0009060073643922806,-0.00011657178401947021,-0.00047109322622418404,0.005204141139984131
329,-2.977758294624781,-0.005802745231663443,0.9414733640217675,-0.16309964656829834,0.005802712868899107,0.9865924715995789,-0.0004952065646648407,-0.001589041668921709,-0.0007135514169931412,-0.0008560270071029663,-0.0003095497377216816,0.004572629928588867
330,-2.9777925826907823,-0.005793822467965642,0.9414408913841136,-0.1630658209323883,0.005793789867311716,0.9865980744361877,0.00021543167531490326,0.0013803355395793915,0.0025803279131650925,-0.0012102872133255005,6.557954475283623e-05,0.002995312213897705
331,-2.9778254979313363,-0.005756619570892532,0.941106902815179,-0.1630333960056305,0.0057565877214074135,0.9866037368774414,0.000337076373398304,0.0008582186419516802,0.00033987220376729965,-0.0015936791896820068,0.00046899914741516113,0.005202293395996094
332,-2.977837825721058,-0.005758587429721902,0.9407697036258653,-0.16302119195461273,0.005758555606007576,0.9866054654121399,0.00020938832312822342,0.0005606166087090969,-0.00012745242565870285,-0.0008428841829299927,-0.00014332076534628868,0.0054138898849487305
333,-2.9778424135835593,-0.005733997589478667,0.9406630386276176,-0.16301673650741577,0.005733966361731291,0.9866066575050354,-0.00084717757999897,-0.0011318642646074295,0.003077195957303047,-0.0007863491773605347,0.0003085206262767315,0.0047873854637146
334,-2.977875914064523,-0.005797028459229659,0.9401353146150219,-0.16298358142375946,0.00579699594527483,0.9866114854812622,-0.00022265221923589706,0.00046446570195257664,-0.0009754421189427376,-0.001261979341506958,0.0005506556481122971,0.004599153995513916
335,-2.9778678652049386,-0.005767774683652857,0.9398306802066724,-0.16299162805080414,0.00576774263754487,0.9866107702255249,0.0008875671774148941,-0.000936705619096756,0.0008134776726365089,-0.0006741881370544434,-0.001159584615379572,0.0045545101165771484
336,-2.9778553311576554,-0.005734003858119408,0.9394022482560126,-0.16300398111343384,0.005733972415328026,0.986608624458313,0.0017800945788621902,-0.0003155902959406376,-0.0009952317923307419,-0.0010585039854049683,0.0006136815063655376,0.004434347152709961
337,-2.977886179365439,-0.005743152169369293,0.9392685288168909,-0.1629735380411148,0.005743120796978474,0.9866136312484741,-0.0017975643277168274,-0.0031831087544560432,-0.00029509514570236206,-0.000646442174911499,-0.0005703871138393879,0.003681659698486328
338,-2.977853835820791,-0.005753040957356066,0.9391544552407237,-0.16300544142723083,0.0057530091144144535,0.9866083264350891,-0.0010063769295811653,0.0025891256518661976,-0.0024469811469316483,-0.001148611307144165,-6.148219108581543e-05,0.004678845405578613
339,-2.9778765914805247,-0.005717926562158921,0.9394230866905526,-0.1629830002784729,0.005717895459383726,0.9866121411323547,-0.0006536878645420074,0.0013602629769593477,0.0026696790009737015,-0.00024020671844482422,0.0007213116623461246,0.0044460296630859375
340,-2.977904899586873,-0.005714451560404121,0.9399763471698237,-0.16295506060123444,0.0057144202291965485,0.9866166114807129,-0.0007004588842391968,0.0015045665204524994,-0.00042630545794963837,-0.0007716864347457886,0.00031279586255550385,0.004319310188293457
341,-2.9778434983371525,-0.00567828116249607,0.9402980838137236,-0.163015678524971,0.005678250454366207,0.9866068363189697,-0.0002876473590731621,0.0005909248720854521,-0.0006418433040380478,-0.00034487247467041016,0.00027267448604106903,0.006160140037536621
342,-2.9778624314130457,-0.005619283067814859,0.9406370367784399,-0.1629970520734787,0.005619253497570753,0.9866102933883667,-0.000893719494342804,0.0005132725927978754,-0.0031046057119965553,-0.0008517950773239136,-0.0015146378427743912,0.0016248822212219238
343,-2.977791517110343,-0.005565222071592745,0.940886512908392,-0.1630670726299286,0.005565193481743336,0.9865990877151489,-0.0009817779064178467,0.0014900292735546827,-0.0018075024709105492,-0.0001866668462753296,0.0029034302569925785,0.006229043006896973
344,-2.9777276931296486,-0.005634846289150048,0.9409139584879028,-0.163129985332489,0.005634816363453865,0.9865882992744446,0.003288261592388153,0.0016064029186964035,0.0019312910735607147,-0.0006273090839385986,0.0011858553625643253,0.0027151107788085938
345,-2.977764898043763,-0.005554529704299844,0.9407349986626752,-0.16309335827827454,0.005554500967264175,0.9865948557853699,0.0004907902330160141,-0.001394110731780529,0.0008171619847416878,0.00017529726028442383,-0.0007785051129758358,0.00012981891632080078
346,-2.9778011332691663,-0.00561057937712223,0.9406740414006824,-0.16305752098560333,0.005610549822449684,0.9866002798080444,-0.0011121081188321114,0.0029667725320905447,0.0005262698978185654,-0.001035451889038086,0.005131637677550316,0.004259347915649414
347,-2.977668579816357,-0.005606124316687271,0.9409386981456964,-0.16318835318088531,0.005606094840914011,0.9865789413452148,-0.001965343952178955,-0.0016712658107280731,0.00016207806766033173,-0.0018354356288909912,-0.0017456267960369587,0.004891335964202881
348,-2.977722244465082,-0.005481407585073056,0.9412703450642796,-0.16313552856445312,0.00548138003796339,0.9865884780883789,-0.0008548349142074585,-0.0023271064274013042,-0.0031203050166368484,-0.000667572021484375,0.0004695504903793335,0.0025777816772460938
349,-2.9776992069895627,-0.005551106505333042,0.9413006921170879,-0.16315820813179016,0.005551077891141176,0.9865844249725342,-0.00035691075026988983,0.0022174734622240067,0.0029547102749347687,-0.00035497546195983887,0.0005524386651813984,0.004763960838317871
350,-2.9777349619646984,-0.005613541258804118,0.9415222388940772,-0.16312287747859955,0.005613511893898249,0.9865899085998535,0.0017727157101035118,0.0007907669059932232,0.0008384473621845245,-0.0012753307819366455,-0.0014631222002208233,0.004850029945373535
351,-2.9776544144041193,-0.00566329575393482,0.9418516279403654,-0.16320225596427917,0.005663265474140644,0.9865762591362,0.0004400331526994705,-0.0015188944526016712,-9.560491889715195e-05,-0.0014553219079971313,0.0013557816855609417,0.005214393138885498
352,-2.9775937585599137,-0.0057694103743388325,0.9417112379200541,-0.1632620096206665,0.0057693785056471825,0.9865658283233643,0.0005470970645546913,0.0005768996197730303,0.00023095961660146713,-0.0011514127254486084,-0.0002151806838810444,0.005057036876678467
353,-2.977551333874726,-0.0056854189910058375,0.9417364865529597,-0.16330400109291077,0.0056853885762393475,0.9865596890449524,0.0011411551386117935,-0.0017051859758794308,-0.0010656509548425674,-0.00037707388401031494,-0.0017028436996042728,0.004743099212646484
354,-2.9775307047876924,-0.00569809244210501,0.9420560963360146,-0.1633242964744568,0.005698061548173428,0.9865559935569763,-0.0016471371054649353,-0.0009510144591331482,-0.0019483380019664764,-0.000707671046257019,0.0018092612735927105,0.004288733005523682
355,-2.9775243901780497,-0.005668218964811869,0.9424121472326082,-0.16333052515983582,0.0056681884452700615,0.9865549206733704,-0.002192441374063492,-0.00013086944818496704,0.001232115551829338,0.00032092630863189697,0.0011219736188650131,0.003145158290863037
356,-2.977570758809504,-0.005629475656218634,0.9424915156957427,-0.1632847934961319,0.005629445891827345,0.9865626096725464,0.0007110154256224632,0.0020097768865525723,-0.0009497730061411858,-0.00028936564922332764,-0.00013628043234348297,0.0024812817573547363
357,-2.9775544361821753,-0.005645494394761925,0.9427800689530852,-0.16330091655254364,0.005645464174449444,0.986560046672821,-0.00014673732221126556,-0.00038431258872151375,-0.0016733985394239426,-0.0012040883302688599,0.0003512348048388958,0.005444228649139404
358,-2.9775853940366477,-0.005639609149708896,0.9428720284973968,-0.16327038407325745,0.005639579147100449,0.9865651726722717,-0.0009654238820075989,0.00040666782297194004,-0.0009024403989315033,9.290874004364014e-05,0.0003113443963229656,0.004798293113708496
359,-2.9775088655395168,-0.005707652764292237,0.9433186083609469,-0.1633458286523819,0.0057076215744018555,0.986552357673645,0.0007316228002309799,-0.0013039838522672653,-0.0019923867657780647,-0.0013270080089569092,0.0014945268630981445,0.0040024518966674805
360,-2.9774887172985687,-0.00574420706219175,0.9437750374340923,-0.1633656769990921,0.005744175519794226,0.9865488409996033,0.0004772227257490158,-0.0004983628168702126,-0.00022906716912984848,-0.0017649531364440918,-0.0030738860368728638,0.006203174591064453
361,-2.977473042304625,-0.005699372698870263,0.944221061355093,-0.16338114440441132,0.0056993416510522366,0.9865463376045227,-0.00186255294829607,-0.0012113722041249275,0.0009256750345230103,-0.00033035874366760254,0.0026319539174437523,0.0030011534690856934
362,-2.97752883373311,-0.005789033921896949,0.9444583971052929,-0.16332603991031647,0.005789001472294331,0.9865550398826599,0.00026504136621952057,-0.0009260158985853195,-0.002917555160820484,-0.0009500682353973389,0.0006044353358447552,0.005525529384613037
363,-2.977502846287361,-0.005721396744403976,0.9446194741627746,-0.16335178911685944,0.005721365567296743,0.9865514636039734,-0.0006829099729657173,0.000213144114241004,-0.0005311416462063789,-0.0017025768756866455,0.001190864946693182,0.0039730072021484375
364,-2.9774723796202913,-0.005781845210785968,0.9447218262750618,-0.16338175535202026,0.005781813059002161,0.986545979976654,0.00024793297052383423,0.001369553618133068,0.00027703680098056793,-0.0006197094917297363,0.001756027340888977,0.003718852996826172
365,-2.9775249698559705,-0.005779569994358761,0.9448862556774665,-0.16332991421222687,0.005779537837952375,0.9865548014640808,-0.0003315908834338188,-0.0004892880097031593,-0.0001627020537853241,0.00021342933177947998,0.000934333074837923,0.0038781166076660156
366,-2.97747987283822,-0.005757042370072243,0.9449362996487431,-0.16337436437606812,0.005757010541856289,0.9865471720695496,0.0021545328199863434,-0.001327995676547289,-0.0018650693818926811,-0.001618906855583191,0.0007737497799098492,0.004144787788391113
367,-2.977497038847787,-0.005792717792636776,0.9451832876954005,-0.1633574515581131,0.005792685318738222,0.9865500926971436,0.0007028700783848763,0.00028540357016026974,0.000421084463596344,-0.0012848973274230957,-0.0004826257936656475,0.004691481590270996
368,-2.9774482860509917,-0.0057582761951621335,0.9452826115540666,-0.16340552270412445,0.005758244544267654,0.9865419864654541,-0.0003373464569449425,-0.0033866632729768753,2.375710755586624e-05,-0.0002449601888656616,0.00017742719501256943,0.004638254642486572
369,-2.977399744063767,-0.005773912661878342,0.9451473511095645,-0.16345340013504028,0.005773880518972874,0.9865339994430542,-0.0027382811531424522,-0.0025429059751331806,0.0012774160131812096,-0.001448303461074829,8.548609912395477e-05,0.004325807094573975
370,-2.9773828864499823,-0.005823984125833949,0.9450019834140613,-0.16347002983093262,0.005823951214551926,0.9865312576293945,-0.0015735561028122902,0.0023352638818323612,-0.0015030642971396446,0.0004908889532089233,0.0015307818539440632,0.0043441057205200195
371,-2.977361487935481,-0.0058599462910733716,0.9448977391795799,-0.16349107027053833,0.0058599128387868404,0.9865273237228394,-0.000447872094810009,-0.0016255411319434643,-0.001814202405512333,-0.001227542757987976,-0.0008245119825005531,0.004515647888183594
372,-2.9773875851236604,-0.0056717051765495805,0.9446204000029021,-0.16346552968025208,0.0056716748513281345,0.9865328073501587,-0.0006398167461156845,-0.0012232610024511814,-0.0002546999603509903,-0.0012683570384979248,0.000370807945728302,0.005944609642028809
373,-2.977265944112242,-0.005859936725396309,0.9444115244473008,-0.163585364818573,0.005859903059899807,0.9865118861198425,-0.0017174603417515755,0.0005105610471218824,-0.0009972332045435905,-0.0004771500825881958,0.001830526627600193,0.004699110984802246
374,-2.9772404477389216,-0.005821710905551157,0.9443335574239075,-0.16361059248447418,0.005821677856147289,0.9865081906318665,0.002106865867972374,-0.00013724667951464653,-0.0013790763914585114,-0.0020846575498580933,-0.0028919936157763004,0.005389690399169922
375,-2.9772357580739017,-0.005853220323786297,0.9440973146012785,-0.1636151224374771,0.0058531868271529675,0.9865068197250366,-0.0006485693156719208,0.0013637025840580463,0.0010831821709871292,-0.0004321187734603882,0.0020661274902522564,0.0035291314125061035
376,-2.977303402085309,-0.005955475768341198,0.9440306776467975,-0.1635482907295227,0.005955440457910299,0.9865173697471619,0.0007248520851135254,-0.0012816479429602623,-0.000212828628718853,0.0005539357662200928,0.0009262706153094769,0.0018401741981506348
377,-2.9772474874347767,-0.00596114551449169,0.944051957272431,-0.16360348463058472,0.005961110349744558,0.9865083694458008,0.00041218101978302,-0.0021745325066149235,5.108863115310669e-05,-0.000718429684638977,-7.121916860342026e-05,0.0022917985916137695
378,-2.9772312812427444,-0.005971462082389668,0.9443722950976438,-0.16361939907073975,0.005971426609903574,0.9865052700042725,0.002298785373568535,0.004475554451346397,0.0005592135712504387,-0.00030572712421417236,0.0019631446339190006,0.0052394866943359375
379,-2.977232149558814,-0.0060192018881779635,0.9449615069390195,-0.16361850500106812,0.006019165739417076,0.9865052700042725,-0.000696045346558094,0.0012679179199039936,0.0021407362073659897,-0.0007949173450469971,0.0004505659453570843,0.0034696459770202637
380,-2.9771605953058913,-0.006054279329107198,0.9453749202252344,-0.1636890470981598,0.006054242141544819,0.9864932298660278,0.0005636308342218399,-5.078595131635666e-05,0.001887081190943718,-0.0008311867713928223,-0.00024064723402261734,0.005663573741912842
381,-2.977278820138636,-0.005977550627847675,0.94562478587797,-0.1635725200176239,0.005977515131235123,0.9865131974220276,-0.0014742463827133179,0.00017915409989655018,0.000991261564195156,-0.0005967766046524048,-0.0003927950747311115,0.003477036952972412
382,-2.9772625991164974,-0.005980364783963146,0.9457710915091116,-0.16358856856822968,0.005980329122394323,0.9865108132362366,-0.0012924475595355034,0.0012427875772118568,0.0017578741535544395,-9.685754776000977e-07,-0.0003040558658540249,0.004318952560424805
383,-2.97727306605064,-0.005976962612810459,0.9456845041945039,-0.16357819736003876,0.005976927001029253,0.9865122437477112,0.00019631069153547287,-0.0012042466551065445,0.0009157601743936539,-0.00036221742630004883,-0.0011551538482308388,0.004637598991394043
384,-2.9772435048227917,-0.0060167521646011905,0.9455209106525008,-0.16360729932785034,0.00601671589538455,0.9865071177482605,-0.0007612165063619614,-0.0030272738076746464,0.0011452725157141685,3.311038017272949e-05,0.001750006340444088,0.003894984722137451
385,-2.977280215628847,-0.006018203235875605,0.9455062301307681,-0.16357110440731049,0.006018166895955801,0.9865131974220276,0.002889338880777359,0.0027957274578511715,0.0041998401284217834,-0.0004303455352783203,-0.001028538215905428,-9.351968765258789e-05
386,-2.9772529352507986,-0.005988747177111057,0.9454272240435954,-0.16359806060791016,0.00598871149122715,0.9865089654922485,0.0012668427079916,0.0006156053859740496,0.0016380762681365013,0.00017642974853515625,0.004722952842712402,0.004198431968688965
387,-2.9773099118777133,-0.006158822570183752,0.9452225053397298,-0.16354167461395264,0.006158783566206694,0.9865171909332275,-0.0002727378159761429,-0.00030977698042988777,8.195359259843826e-05,-0.0023366212844848633,-0.001932099461555481,0.004174947738647461
388,-2.9773225541474715,-0.005956289470213284,0.9454444410353007,-0.1635293811559677,0.005956254433840513,0.9865204095840454,-0.0017021475359797478,-0.0012927362695336342,0.00017366092652082443,-0.0012197345495224,-0.0029044905677437782,0.005712747573852539
389,-2.977367783470368,-0.006048317688959247,0.945514593863765,-0.16348467767238617,0.006048280745744705,0.9865272641181946,0.0013957507908344269,-0.0005254866555333138,0.0009859567508101463,-0.0010355561971664429,0.0023287972435355186,0.004012167453765869
390,-2.9773626213786297,-0.006109787716633436,0.9451793563687345,-0.16348972916603088,0.006109749898314476,0.9865261912345886,0.0001987256109714508,0.000313193304464221,0.0003717821091413498,-0.002220720052719116,-0.0034394636750221252,0.004349112510681152
391,-2.9773103284770537,-0.006095566971202928,0.9449175265823604,-0.16354133188724518,0.006095529068261385,0.9865176677703857,0.0013609984889626503,0.00022934610024094582,0.0017944220453500748,0.0010962486267089844,0.0021442174911499023,0.003716707229614258
392,-2.9773832459228324,-0.006248077981237283,0.9446658367212957,-0.16346921026706696,0.006248037330806255,0.9865284562110901,-0.0006825849413871765,-0.0005977903492748737,0.0007409807294607162,-0.0029278844594955444,0.0007099723443388939,0.005964040756225586
393,-2.977273730776084,-0.006200288468404668,0.9443370651233844,-0.1635773479938507,0.006200248841196299,0.98651123046875,0.0015423363074660301,-1.037493348121643e-06,-0.000471663661301136,0.0007812827825546265,-0.0011343271471560001,0.0039980411529541016
394,-2.9774139153249783,-0.0061596971223745745,0.9440234500349393,-0.16343903541564941,0.006159658078104258,0.9865339994430542,-0.000496499240398407,0.000981360673904419,-3.6084093153476715e-05,-0.0008370429277420044,0.001393443439155817,0.005164980888366699
395,-2.9773278526304434,-0.006159649421386657,0.9440056332533123,-0.16352400183677673,0.006159610580652952,0.9865202903747559,-0.0010398728772997856,5.141226574778557e-05,0.00012712739408016205,-0.0025221556425094604,-0.0006054108962416649,0.003988862037658691
396,-2.977283447907776,-0.00613824284231469,0.9437558909341418,-0.16356782615184784,0.006138204131275415,0.9865131974220276,0.0015499955043196678,0.00022644829005002975,0.0022255340591073036,0.0015499889850616455,0.0013386020436882973,0.0005780458450317383
397,-2.9773645064246272,-0.00620273864621515,0.9434356600030455,-0.1634877771139145,0.006202698685228825,0.9865259528160095,0.00164747703820467,0.0012136432342231274,0.0008318042382597923,-0.0005289614200592041,-0.0025558462366461754,0.002457261085510254
398,-2.9772492737009353,-0.00616870576690976,0.9432437864483129,-0.16360148787498474,0.006168666761368513,0.98650723695755,-0.0019750073552131653,0.0017434272449463606,0.001951330341398716,-0.001178160309791565,0.0017506475560367107,0.009281337261199951
399,-2.977274705790082,-0.0062788315157526016,0.9431685123765909,-0.16357629001140594,0.006278790067881346,0.9865107536315918,-0.0001378040760755539,0.0023378957994282246,0.0006529306992888451,-0.002271503210067749,-0.003165997564792633,0.002655506134033203
400,-2.9772098213759457,-0.006101012100648331,0.9430514386646942,-0.16364045441150665,0.006100974045693874,0.9865010380744934,0.001812770962715149,0.0003936260472983122,-0.0016932431608438492,-0.0005135685205459595,0.003283178899437189,0.004038333892822266
401,-2.9771812293617046,-0.006263387358763605,0.942791969256776,-0.16366855800151825,0.006263346411287785,0.986495852470398,0.0010601487010717392,-0.0016441880725324154,0.0007200725376605988,-0.002423420548439026,0.0013355338014662266,0.003021717071533203
402,-2.97714840223816,-0.0061919912001858314,0.9423990529368014,-0.16370095312595367,0.006191951688379049,0.9864904880523682,0.0034953104332089424,0.0007880583871155977,2.6395544409751892e-05,-0.0005904138088226318,-0.0011718133464455605,0.006505608558654785
403,-2.97723310094584,-0.006153957410410584,0.9422126149839611,-0.16361746191978455,0.006153918337076902,0.9865047335624695,0.0003442605957388878,-0.00045979348942637444,-0.001070372760295868,-0.002825409173965454,-0.0003708377480506897,0.004477381706237793
404,-2.9771900822866777,-0.006263982259762129,0.9419297697286744,-0.16365984082221985,0.006263941526412964,0.9864972829818726,0.0008982792496681213,-0.0016817566938698292,0.0021606311202049255,-0.00046369433403015137,-0.0003130082041025162,0.0038289427757263184
405,-2.977201332669146,-0.006265210306920082,0.9421071521945905,-0.16364867985248566,0.006265169475227594,0.9864988327026367,0.0006457259878516197,-0.0014104791916906834,-0.003000703640282154,-0.0011309832334518433,-0.0010161399841308594,0.0035066604614257812
406,-2.977174513842653,-0.006181019610086829,0.9422294164553032,-0.16367517411708832,0.006180980242788792,0.9864946603775024,-0.0013685571029782295,0.000282038701698184,-0.0013746479526162148,0.0002841055393218994,-0.0030376706272363663,0.0029154419898986816
407,-2.9771759449616946,-0.006096056290358652,0.9422200733922769,-0.16367392241954803,0.006096018478274345,0.9864957928657532,-0.0010527353733778,0.0021194489672780037,-0.0003422042354941368,-0.0015024840831756592,0.00261674914509058,0.0064394474029541016
408,-2.9771379818817114,-0.006152285436124893,0.9420788751020426,-0.16371124982833862,0.006152246613055468,0.9864888787269592,0.0013339631259441376,-0.0012657400220632553,0.0007699495181441307,0.0014645755290985107,0.0007599880918860435,0.00383681058883667
409,-2.977136662266883,-0.006075971160562357,0.9419846246725975,-0.16371271014213562,0.006075933575630188,0.9864896535873413,0.00037289131432771683,-0.0007128678262233734,-0.0011496171355247498,-0.0030353814363479614,-0.001589848194271326,0.003989100456237793
410,-2.9771297208925596,-0.006131161199596315,0.9416707393308421,-0.16371947526931763,0.006131122820079327,0.9864879846572876,0.00016035698354244232,0.0004464418161660433,0.001949354074895382,0.002037331461906433,0.0010710293427109718,0.007347583770751953
411,-2.977170873495511,-0.006157574193779299,0.9414354484186228,-0.163678839802742,0.006157535128295422,0.9864945411682129,-0.0009499434381723404,-0.0015937560237944126,-0.0008418736979365349,-0.0027487725019454956,-0.0012136921286582947,0.007508754730224609
412,-2.9771267044676173,-0.006122978559802657,0.9412864193991349,-0.163722425699234,0.006122940219938755,0.9864873290061951,-0.0006828326731920242,-0.0011789281852543354,0.00047830957919359207,-6.540119647979736e-05,0.007228500209748745,0.0005273222923278809
413,-2.977177549188214,-0.006301099787595053,0.9415258805969681,-0.1636720895767212,0.006301057990640402,0.9864946007728577,-0.0007236301898956299,0.0017166819889098406,0.00040930137038230896,-0.003075927495956421,-0.001570836640894413,0.004960358142852783
414,-2.9771541078920576,-0.006137092450326235,0.9420319646497683,-0.16369540989398956,0.006137053947895765,0.9864919781684875,0.0006227660924196243,0.00019210949540138245,-7.52108171582222e-05,9.065866470336914e-05,-7.931049913167953e-05,0.0053446292877197266
415,-2.977228145983804,-0.0061775936271874325,0.9424464985218444,-0.16362233459949493,0.006177554372698069,0.9865038394927979,-0.001196136698126793,-1.339474692940712e-05,0.0020481226965785027,-0.0031562447547912598,-0.006665839813649654,0.0023878812789916992
416,-2.9770513013954623,-0.0060050142038738305,0.9427312156085234,-0.16379699110984802,0.006004977971315384,0.9864760637283325,-0.00011687818914651871,-0.00024442002177238464,0.000982780009508133,0.0002532750368118286,0.0011208737269043922,0.003666996955871582
417,-2.977172055536717,-0.006283977615211741,0.9428460671540265,-0.16367752850055695,0.006283936090767384,0.9864938259124756,-0.0003756405785679817,-2.912711352109909e-05,1.7313286662101746e-05,-0.0020329058170318604,0.002001590561121702,0.011079967021942139
418,-2.977100494757392,-0.006128555405246214,0.9432010769443114,-0.16374829411506653,0.0061285169795155525,0.9864831566810608,3.191456198692322e-05,-0.002296866849064827,0.0018103718757629395,-0.0023131221532821655,-0.0031835725530982018,0.006009578704833984
419,-2.97708951519488,-0.006143716812154961,0.943639800847211,-0.16375911235809326,0.006143677979707718,0.9864813089370728,0.002079692669212818,-0.0008450564928352833,-0.0004918212071061134,0.0009478479623794556,-0.0012608696706593037,0.0026544928550720215
420,-2.9772209260553097,-0.006184289337717405,0.9434574914039717,-0.1636294275522232,0.006184250116348267,0.9865025281906128,0.004384479485452175,-0.002528292592614889,0.0015087909996509552,0.0007418543100357056,-0.0008436739444732666,0.003228306770324707
421,-2.9772107012019298,-0.006169572502518528,0.9432834347457142,-0.1636395901441574,0.006169533357024193,0.9865012168884277,0.0019851792603731155,0.0018542709294706583,0.0018545947968959808,-0.0022845417261123657,-0.0005085230804979801,0.0019328594207763672
422,-2.9770809962290894,-0.006223551749892245,0.9427560882565345,-0.163767471909523,0.006223511416465044,0.986479640007019,-8.800998330116272e-07,-0.0010083029046654701,8.109584450721741e-05,-0.0009053796529769897,0.0011922577396035194,0.006638884544372559
423,-2.977119916529451,-0.006222939874228957,0.9426648347048535,-0.16372904181480408,0.006222899537533522,0.9864857196807861,-2.1628104150295258e-05,-0.00019970256835222244,-5.674082785844803e-05,-0.0012032091617584229,1.7948448657989502e-05,0.002100706100463867
424,-2.97710577659835,-0.006178211616617254,0.9428960227124281,-0.1637430191040039,0.006178172305226326,0.986483633518219,-0.0017119022086262703,-0.0015336847864091396,-0.001307908445596695,-0.0008382648229598999,-0.0016920873895287514,0.0045288801193237305
425,-2.9771197027796665,-0.006168292172462309,0.9429507387120257,-0.16372935473918915,0.006168253254145384,0.9864863753318787,0.0009867511689662933,-0.001705074217170477,0.0009525585919618607,0.0009486079216003418,0.0010949280112981796,0.00026935338973999023
426,-2.9771286126238663,-0.006142281070159968,0.9426416304191623,-0.16372054815292358,0.006142242345958948,0.986487627029419,7.173791527748108e-05,-0.0006505027413368225,0.0009330976754426956,-0.000692903995513916,-0.00042019831016659737,0.006813704967498779
427,-2.977123351771045,-0.006163286272736768,0.9425697463884919,-0.16372571885585785,0.006163247395306826,0.9864867329597473,0.000552658922970295,-0.00014938600361347198,0.0004032040014863014,-0.000809788703918457,-0.004637368023395538,0.007241964340209961
428,-2.9771087544757955,-0.0060704765481407776,0.942634353479464,-0.16374020278453827,0.006070439238101244,0.9864848852157593,-0.00026214122772216797,-0.00045998161658644676,0.0011961134150624275,-0.0019854754209518433,0.0004603262059390545,0.003734290599822998
429,-2.977078725016284,-0.006163241803834052,0.942657334514076,-0.16376975178718567,0.006163202691823244,0.9864794611930847,-0.0010511670261621475,0.000583928544074297,0.001190180890262127,0.001690879464149475,0.0012067938223481178,0.005311369895935059
430,-2.9772465708010087,-0.006096281511582414,0.9427082328424219,-0.1636042296886444,0.006096243858337402,0.98650723695755,-4.030391573905945e-05,-0.002816668711602688,-0.0006758114323019981,-0.001282230019569397,0.0018688435666263103,0.004825770854949951
431,-2.9771660065270793,-0.006129277248116452,0.9426302998317109,-0.1636837124824524,0.0061292387545108795,0.9864940643310547,-0.002002534456551075,0.0006998376920819283,0.00020041409879922867,-0.0004703998565673828,-0.0007276297546923161,0.004244089126586914
432,-2.9771933751276385,-0.006087345900078407,0.9429992011369315,-0.16365666687488556,0.006087308283895254,0.9864983558654785,0.0010926835238933563,-0.0014795283786952496,-0.0019233403727412224,-0.0006041377782821655,0.0034189135767519474,0.004636049270629883
433,-2.9771126684805105,-0.006100133062153943,0.9432566004504814,-0.16373631358146667,0.006100095342844725,0.9864852428436279,0.0011053839698433876,-0.0003972053527832031,-0.00018111523240804672,-0.002050429582595825,0.00014075590297579765,0.005381762981414795
434,-2.9771297402297208,-0.005947826278338201,0.9437303992513599,-0.16371959447860718,0.005947791039943695,0.9864888191223145,-0.0021721171215176582,-0.0007662810385227203,-0.001436854712665081,-0.0014415085315704346,-0.0005614394322037697,0.004844009876251221
435,-2.9770913710299314,-0.0059263744576937396,0.9441201286295923,-0.16375751793384552,0.005926339887082577,0.9864830374717712,0.0013809604570269585,0.0003804911393672228,-0.0006741909310221672,-0.0016783177852630615,0.0010469271801412106,0.003110647201538086
436,-2.9770501996558503,-0.006023739226337915,0.9446523004350362,-0.16379804909229279,0.006023702677339315,0.9864757061004639,-0.00024261511862277985,0.0012315784115344286,-0.0004339609295129776,0.0002848207950592041,-0.00025588134303689003,0.006047725677490234
437,-2.9771044327010743,-0.005951443221298911,0.9448747375927165,-0.16374455392360687,0.005951408296823502,0.986484706401825,-0.0014168573543429375,0.0005638354923576117,-0.0006785839796066284,-0.0003636777400970459,-0.0030217180028557777,0.003749549388885498
438,-2.976984092747873,-0.005938676347281649,0.9449282765878089,-0.16386331617832184,0.005938641261309385,0.9864652156829834,1.2475065886974335e-05,0.0013286604080349207,0.0008506393060088158,0.0006400495767593384,0.0011261776089668274,0.0045015811920166016
439,-2.9769568033289038,-0.006114326865306084,0.944950853189297,-0.1638900637626648,0.0061142886988818645,0.9864597320556641,-0.0004063183441758156,0.0003576928284019232,-0.00013572163879871368,0.00013273954391479492,-0.00046853721141815186,0.0041255950927734375
440,-2.9769304469179,-0.005992429451319757,0.9449709818005853,-0.16391614079475403,0.005992393475025892,0.9864559173583984,0.0004926370456814766,0.0009657780174165964,0.00023024529218673706,-0.003182828426361084,0.0011182045564055443,0.006250202655792236
441,-2.976928671677447,-0.006075848412598146,0.9448096871167964,-0.16391785442829132,0.006075811106711626,0.9864553809165955,0.0007463600486516953,-0.0015108142979443073,0.0009677289053797722,-0.0007092207670211792,-0.0013913577422499657,0.004953980445861816
442,-2.9769256186661956,-0.005910077698865655,0.9447885374030128,-0.16392099857330322,0.005910043139010668,0.9864556193351746,0.0017614811658859253,-0.001823329832404852,-0.0014264918863773346,-0.0019572824239730835,-0.0016070688143372536,0.0028935670852661133
443,-2.9769895086215574,-0.005982364362843315,0.9445350214110803,-0.16385792195796967,0.005982328671962023,0.9864658117294312,0.00041294656693935394,-0.00108621409162879,0.0013632085174322128,0.0009551048278808594,0.0008383458480238914,0.0023800134658813477
444,-2.9769943936065797,-0.006054247643848954,0.9445787951809027,-0.16385304927825928,0.006054210476577282,0.9864662885665894,0.0003548581153154373,0.0004918749909847975,0.0014108261093497276,-0.0036884546279907227,0.001956649124622345,0.006682634353637695
445,-2.976856825507353,-0.006056366215372009,0.9446127389700495,-0.16398869454860687,0.006056329235434532,0.9864434003829956,0.0005272272974252701,0.005524632055312395,0.0019963253289461136,0.0001703798770904541,-0.0028367280028760433,0.003744959831237793
446,-2.9770134100226593,-0.005886673297183951,0.9446414369155424,-0.16383446753025055,0.005886639468371868,0.9864704608917236,-0.0012883385643363,-0.0014306064695119858,-3.871321678161621e-05,-0.0003196150064468384,0.0014680931344628334,0.005762934684753418
447,-2.976886795698936,-0.006106918734823415,0.9448091617592013,-0.16395914554595947,0.006106880959123373,0.9864484071731567,-0.0006560711190104485,-0.0008647758513689041,-0.001643698662519455,-0.0015529394149780273,0.0027584806084632874,0.0042285919189453125
448,-2.976995984868362,-0.006069627532657183,0.944907848403599,-0.16385145485401154,0.006069590337574482,0.9864663481712341,-0.0019446657970547676,-0.0006810510531067848,0.0010323859751224518,0.0009181201457977295,-0.003475599456578493,0.006423056125640869
449,-2.9770632026929764,-0.005879049124796468,0.9449651345474394,-0.16378529369831085,0.0058790151961147785,0.9864782691001892,-5.310308188199997e-05,-0.0029008546844124794,-0.0008456669747829437,-0.0037256628274917603,0.002284436486661434,0.0057547688484191895
450,-2.9769511681870475,-0.006059309267252192,0.9444356429033774,-0.16389566659927368,0.006059272214770317,0.9864590764045715,-0.0004225363954901695,0.0012266591656953096,-0.0003051441162824631,0.004441320896148682,-0.004167184233665466,-0.005608916282653809
451,-2.977122189916752,-0.005831284216214205,0.9442046451711014,-0.16372716426849365,0.005831251386553049,0.9864882826805115,-0.002643548883497715,0.0001729186624288559,0.0004944335669279099,-0.0018764287233352661,0.0020117596723139286,0.006568789482116699
452,-2.9769591308658043,-0.006053951812272859,0.9439671582586243,-0.16388779878616333,0.0060539147816598415,0.9864603281021118,0.000692758709192276,0.00022299331612884998,0.0032658297568559647,-0.0016242563724517822,0.0010261675342917442,0.004521667957305908
453,-2.976934086146823,-0.005976232271639845,0.94397161727168,-0.1639125645160675,0.0059761968441307545,0.986456573009491,0.00110592320561409,0.0008317683823406696,-0.0006834995001554489,0.0020931363105773926,-0.0020241746678948402,0.0026789307594299316
454,-2.976960714060025,-0.005978992620503041,0.9438064882890774,-0.16388629376888275,0.0059789568185806274,0.9864609241485596,-0.0005311034619808197,0.0019792316015809774,-0.0013226643204689026,-0.002907484769821167,0.004290206823498011,0.005619525909423828
455,-2.976841746400526,-0.006098105326872197,0.943923035006807,-0.16400359570980072,0.0060980673879384995,0.9864410161972046,0.0006500789895653725,0.0003523295745253563,0.00022125244140625,-0.0009134262800216675,-0.002268112264573574,0.008233785629272461
456,-2.97707474202407,-0.005939196620977699,0.9436033522439893,-0.16377389430999756,0.005939161870628595,0.9864800572395325,-5.411822348833084e-05,0.0023458467330783606,0.0017234086990356445,-0.000990539789199829,-0.0005985861644148827,0.0030372142791748047
457,-2.9768284348253453,-0.0061003320485315815,0.9433524153078839,-0.1640166938304901,0.006100294180214405,0.9864386916160583,-0.0011910013854503632,0.0012183175422251225,0.0005743354558944702,-0.0003204643726348877,-0.0006071329116821289,-0.001926422119140625
458,-2.9770908677565053,-0.00611382455734365,0.9431099660799792,-0.163757786154747,0.0061137862503528595,0.9864815473556519,-0.001605185680091381,0.0004626780282706022,-0.0005622170865535736,0.0015874207019805908,-0.003504530992358923,0.006163597106933594
459,-2.9769537627782734,-0.006080966901559125,0.9428593549059364,-0.16389310359954834,0.006080929655581713,0.9864594340324402,-0.0016322480514645576,-0.0026500020176172256,-0.0005298089236021042,-0.006517067551612854,-0.0021899407729506493,0.00450742244720459
460,-2.9767353916851746,-0.006083370311350355,0.9426865879083229,-0.1641085147857666,0.006083332933485508,0.9864237308502197,-0.0019380049780011177,-0.0015448140911757946,0.002960246056318283,0.006241068243980408,-0.0016277646645903587,0.005184054374694824
461,-2.9768899222192116,-0.006017569902235969,0.9425068654032785,-0.16395612061023712,0.0060175335966050625,0.9864492416381836,0.0009414190426468849,0.002006914932280779,-0.0011017508804798126,-0.009612590074539185,-0.006231159437447786,0.007645547389984131
462,-2.9317082989245375,-0.02703706327331549,0.9465712839600712,-0.2082706093788147,0.027033768594264984,0.9776973724365234,-0.28402844071388245,-0.596986711025238,0.007458624430000782,-0.030910879373550415,0.017735512927174568,-0.046987712383270264
463,-2.976319601993785,-0.006817920938595162,0.9426008613327201,-0.1645178347826004,0.0068178679794073105,0.9863504767417908,-0.004537773318588734,-0.005115889944136143,0.001292521134018898,0.013745740056037903,0.0026730969548225403,-0.008780956268310547
464,-2.976335979156296,-0.006910769049359845,0.9431060568743104,-0.16450156271457672,0.006910713855177164,0.9863524436950684,0.0017911624163389206,-0.0026025925762951374,0.0007238155230879784,-0.0008579045534133911,-0.0076126172207295895,0.009985268115997314
465,-2.977010333120969,-0.006835104813883194,0.9435163420933786,-0.1638365238904953,0.006835051812231541,0.9864640831947327,0.004571258556097746,0.007780800107866526,0.0020979885011911392,-0.0048494040966033936,0.0034646326676011086,0.00523531436920166
466,-2.977818227779669,-0.006930772828951909,0.9436151216902103,-0.16303934156894684,0.006930717267096043,0.986595094203949,-0.0014166701585054398,-0.04688476398587227,0.0057157790288329124,0.0003959387540817261,0.0028043831698596478,0.0012435317039489746
467,-2.9695917046420877,-0.0019612437593248605,0.9329581901055859,-0.17115381360054016,0.0019612424075603485,0.9852426052093506,-0.1983298510313034,0.2720307409763336,-0.18488699197769165,0.03017781674861908,-0.06281329691410065,0.07452630996704102
