,attitude.roll,attitude.pitch,attitude.yaw,gravity.x,gravity.y,gravity.z,rotationRate.x,rotationRate.y,rotationRate.z,userAcceleration.x,userAcceleration.y,userAcceleration.z
0,0.026756096934197494,-0.12342198343838465,-2.2716448480205287,0.02654940076172352,0.123108871281147,-0.9920379519462585,-0.03918854147195816,-0.01800766959786415,-0.07373543083667755,0.014893470332026482,0.0122518390417099,-0.043545544147491455
1,0.05738516641414876,0.2512074941175772,-2.880562989878104,0.05555351451039314,-0.24857373535633087,-0.9670185446739197,-0.19477349519729614,0.4639202356338501,0.23711346089839935,0.057636186480522156,-0.06413988769054413,0.021431386470794678
2,0.048349414042569476,0.23729521529148298,-2.850918831712084,0.046976227313280106,-0.2350745052099228,-0.9708415269851685,-0.1153804361820221,-0.09009496122598648,0.5505425930023193,0.11327157914638519,-0.0833306610584259,0.013093113899230957
3,0.055913520849245744,0.2008575376160496,-2.8040363157552397,0.0547608844935894,-0.19950969517230988,-0.9783645272254944,-0.44430458545684814,-0.05263581871986389,0.07576917111873627,-0.003537125885486603,-0.06306353211402893,-0.023558080196380615
4,0.038632061959107185,0.18577105828534157,-2.794617903919085,0.037957921624183655,-0.18470437824726105,-0.9820608496665955,-0.16355133056640625,-0.35940098762512207,0.2380996197462082,0.061010584235191345,-0.09605734050273895,0.09410613775253296
5,-0.007421316789409271,0.1724491263617501,-2.778006845449384,-0.007311172783374786,-0.17159566283226013,-0.985140323638916,-0.21174576878547668,-0.6237069368362427,0.06776649504899979,0.09564430266618729,-0.10202494263648987,0.09614801406860352
6,-0.04110165842289925,0.13516427928547092,-2.7928252515616823,-0.04071531444787979,-0.13475309312343597,-0.9900423288345337,-0.3973737359046936,0.19139377772808075,-0.08918940275907516,0.05502805858850479,-0.005032673478126526,-0.02636086940765381
7,-0.0043723532201024725,0.1044128586116285,-2.773320593627771,-0.0043485271744430065,-0.10422324389219284,-0.9945444464683533,-0.14519447088241577,0.3077826201915741,0.5732483863830566,-0.005020368844270706,0.07800863683223724,-0.08434349298477173
8,0.010754792047161885,0.11173914926155754,-2.720952640841446,0.010687516070902348,-0.11150677502155304,-0.993706226348877,0.1843044012784958,0.2565457224845886,0.5592994689941406,-0.06638209521770477,0.10984356701374054,-0.04280805587768555
9,0.020367750484706806,0.1416360509528423,-2.672213156748842,0.020162401720881462,-0.14116297662258148,-0.9897810220718384,0.23608392477035522,-0.06340213119983673,0.39281609654426575,-0.05408268794417381,0.10344325006008148,0.012028336524963379
10,0.007652445360412425,0.16673543436411364,-2.6134946401295815,0.00754624605178833,-0.16596394777297974,-0.9861029386520386,0.3064967095851898,-0.07514461129903793,0.7722774744033813,-0.02944260835647583,0.050622761249542236,0.061328768730163574
11,-0.033672644920492954,0.19614304221218493,-2.5311057550160334,-0.0330207496881485,-0.19488778710365295,-0.9802695512771606,0.05585331842303276,-0.0935189425945282,1.018094778060913,0.0482185035943985,-0.011456817388534546,0.10389626026153564
12,-0.043765022016112966,0.15440109575041866,-2.4329251103026452,-0.043230582028627396,-0.15378834307193756,-0.9871576428413391,-0.5274034142494202,0.26101523637771606,0.7221424579620361,-0.1016821339726448,-0.02621956169605255,0.026525378227233887
13,-0.09995315362838701,0.09890477019961559,-2.394343827385938,-0.09929914027452469,-0.09874359518289566,-0.9901461601257324,-0.37678736448287964,-0.08278047293424606,-0.3537260890007019,-0.1990101933479309,-0.0036886483430862427,0.08874845504760742
14,-0.09932348565286336,0.09103973484227355,-2.441825907470906,-0.09874960780143738,-0.09091402590274811,-0.9909506440162659,-0.19065023958683014,-0.6047763824462891,0.46203306317329407,0.19062277674674988,0.06875826418399811,-0.04829496145248413
15,-0.17070239496390494,0.1400740426469778,-2.408562817488961,-0.16821077466011047,-0.13961642980575562,-0.9758136868476868,1.4900860786437988,-0.7737136483192444,0.6686082482337952,0.19781284034252167,-0.1865096539258957,-0.15586960315704346
16,-0.2288029726575081,0.17602660398661366,-2.3857799539177793,-0.22330699861049652,-0.17511896789073944,-0.958888590335846,0.5594378709793091,-0.017909344285726547,0.670407235622406,-0.05246509611606598,0.04026179015636444,0.06399112939834595
17,-0.25951748614113707,0.17025897932728867,-2.318225668134906,-0.2529038190841675,-0.16943758726119995,-0.9525390267372131,-0.435974657535553,-0.21602420508861542,0.4239422082901001,-0.07696068286895752,0.11267489194869995,0.035348474979400635
18,-0.2784961578964101,0.1501362491090276,-2.293129416977431,-0.27181750535964966,-0.14957284927368164,-0.9506540894508362,-0.023529553785920143,-0.10026499629020691,-0.0592789463698864,-0.06334176659584045,0.11055612564086914,0.04026895761489868
19,-0.28418617256405004,0.13710790704273648,-2.3171314344103746,-0.27774515748023987,-0.13667874038219452,-0.9508820176124573,0.10103780776262283,0.06537650525569916,-0.15397009253501892,0.0049484968185424805,-0.002160981297492981,0.0028229355812072754
20,-0.25745995943252536,0.1456426030897604,-2.3232335153809314,-0.25192931294441223,-0.1451282650232315,-0.9568016529083252,-0.2770932614803314,0.15969529747962952,-0.02204933762550354,0.014365196228027344,-0.024839401245117188,-0.1511390209197998
21,-0.28192741102182445,0.12764670458397356,-2.371065888909452,-0.2759440541267395,-0.12730035185813904,-0.9527063965797424,-0.27397051453590393,-0.08851117640733719,-0.057109683752059937,-0.03306165337562561,-0.17311467230319977,0.018273472785949707
22,-0.28527508934827095,0.1203854599673122,-2.3838393500024844,-0.2793846130371094,-0.12009488791227341,-0.9526392221450806,-0.1693161278963089,-0.35110026597976685,-0.18011066317558289,-0.007678985595703125,-0.03232516348361969,-0.031690001487731934
23,-0.31788150433754175,0.0830519169617714,-2.4010109304434764,-0.31147757172584534,-0.0829564705491066,-0.9466255307197571,0.07707934826612473,0.18005827069282532,0.015492228791117668,0.007446199655532837,-0.023717716336250305,0.00528031587600708
24,-0.32122657731530335,0.08653057042523978,-2.3893805586892385,-0.31454935669898987,-0.0864226296544075,-0.9452987909317017,-0.2581248879432678,-0.622819185256958,0.14801518619060516,0.054509103298187256,-0.010180756449699402,-0.06712180376052856
25,-0.3660985831031967,0.051409087019871916,-2.3913994857258123,-0.3575023412704468,-0.05138644576072693,-0.9324974417686462,-0.004697553813457489,0.08245500177145004,0.3215874433517456,0.007480978965759277,0.007456392049789429,0.06009143590927124
26,-0.34388545829336087,0.06408968105718782,-2.367775684288196,-0.33645543456077576,-0.06404581665992737,-0.9395189881324768,0.014344833791255951,0.058821164071559906,-0.09776053577661514,-0.02060025930404663,0.04280557483434677,-0.022318780422210693
27,-0.30077943844356336,0.08810740710409429,-2.3691433704244345,-0.29511556029319763,-0.08799345791339874,-0.9514010548591614,-0.3850916922092438,0.3073544204235077,0.12944865226745605,0.027491658926010132,-0.039844684302806854,-0.21626251935958862
28,-0.34980555767003196,0.015378750370857687,-2.3783231482651384,-0.3426746129989624,-0.015378144569694996,-0.9393282532691956,-0.8553032279014587,-0.772092878818512,0.16375815868377686,-0.01578482985496521,0.0007449686527252197,-0.07104772329330444
29,-0.3548230797027367,-0.000592147639514768,-2.3702461148119482,-0.3474244177341461,0.0005921475822106004,-0.9377078413963318,0.4090678095817566,0.6542984247207642,0.05181470885872841,-0.07881459593772888,0.026782125234603882,0.1862277388572693
30,-0.30261758902764213,0.028036679426058274,-2.3633070407690546,-0.29790276288986206,-0.028033006936311722,-0.9541845321655273,-0.16723135113716125,0.19973565638065338,-0.04405399039387703,-0.05268317461013794,-0.03213240206241608,0.08588314056396484
31,-0.2810829210597175,0.0018164885147757476,-2.372702902830051,-0.2773957848548889,-0.0018164875218644738,-0.9607540369033813,-0.24235667288303375,0.29170575737953186,0.08332539349794388,-0.032174527645111084,0.004013746976852417,0.023177742958068848
32,-0.2614695038670197,-0.02340754652304548,-2.3636838412216328,-0.2584295868873596,0.0234054084867239,-0.9657465219497681,-0.2977854311466217,-0.10133370757102966,0.0731390044093132,-0.02372071146965027,0.05349888652563095,-0.14515435695648193
33,-0.27572438746424704,-0.06790450194711087,-2.3608609945389043,-0.2716166079044342,0.06785232573747635,-0.9600106477737427,-0.3797186017036438,0.12839259207248688,0.09328445047140121,-0.08400470018386841,0.08331648260354996,-0.13517361879348755
34,-0.24419969453480417,-0.08631044681958001,-2.382003607274178,-0.2408798336982727,0.08620332181453705,-0.9667191505432129,-0.1724884957075119,0.49604472517967224,-0.38866502046585083,-0.052455127239227295,0.045632608234882355,-0.1333937644958496
35,-0.17105929686508622,-0.07845724950821698,-2.4473074000332904,-0.16970263421535492,0.07837678492069244,-0.9823737144470215,0.17580503225326538,0.7996686697006226,-0.9661030769348145,0.07599839568138123,0.004524216055870056,0.018048763275146484
36,-0.12774410151079618,-0.04268187402100667,-2.5503196697238435,-0.12728092074394226,0.042668916285037994,-0.990948498249054,-0.19277454912662506,0.4821794331073761,-0.6326392889022827,-0.03476741909980774,-0.1617332398891449,0.14851075410842896
37,-0.04060357976117448,-0.05843408718216714,-2.528893689394594,-0.040523141622543335,0.05840083956718445,-0.9974704384803772,0.03255804628133774,0.9113790988922119,0.7480760216712952,-0.08192864060401917,0.011759072542190552,0.0679050087928772
38,-0.013732447044688055,-0.05310613019383658,-2.49657087618515,-0.013712655752897263,0.053081169724464417,-0.9984960556030273,0.22279290854930878,0.185072124004364,0.0757068395614624,-0.21899913251399994,0.059727057814598083,0.11487483978271484
39,-0.008579591111306708,-0.05217537288510353,-2.5165939287765258,-0.008567810989916325,0.05215170234441757,-0.9986023902893066,-0.2556022107601166,-0.24708083271980286,-0.7358568906784058,-0.11350250244140625,0.17750832438468933,-0.06708663702011108
40,-0.012460358929404135,-0.0342110007722162,-2.617505322813733,-0.0124527458101511,0.03420432657003403,-0.9993372559547424,0.46223196387290955,0.8114199042320251,-0.9850656986236572,0.004335070960223675,0.06940284371376038,0.05825150012969971
41,0.00935282906709678,0.00034383679766681154,-2.696236859760185,0.009352692402899265,-0.00034383678575977683,-0.9999561905860901,0.4324895143508911,-0.25758543610572815,-0.6075604557991028,0.11073397845029831,-0.09583231061697006,-0.002210557460784912
42,0.04165432681229083,0.07967791800472139,-2.7010707920349395,0.041510168462991714,-0.07959363609552383,-0.9959627389907837,0.7006586790084839,0.4369456171989441,0.45140886306762695,0.000573575496673584,0.02376173436641693,0.06757223606109619
43,0.04060524830159584,0.0900304304647256,-2.675792494427335,0.04042968526482582,-0.08990885317325592,-0.9951290488243103,0.36909741163253784,-0.22915713489055634,0.12182009220123291,0.13908997178077698,0.05775859206914902,0.0644649863243103
44,0.04333033981014343,0.1297988729686354,-2.655192845662526,0.04295239970088005,-0.1294347047805786,-0.9906572103500366,-0.40872690081596375,0.4421670734882355,0.5655514597892761,0.08723558485507965,-0.1536310762166977,0.1564897894859314
45,0.04620692533018735,0.04367544916745762,-2.6115153889880203,0.04614643752574921,-0.04366156458854675,-0.9979800581932068,-0.4640960991382599,-0.10476572811603546,0.05137071758508682,0.05567546188831329,-0.07348015904426575,-0.07642179727554321
46,0.05008638740864858,0.06103999185431385,-2.5923871880640723,0.049972210079431534,-0.06100209429860115,-0.9968858957290649,0.26471221446990967,0.3499504029750824,0.33518537878990173,0.07098421454429626,-0.19522348046302795,0.12992727756500244
47,0.059958101945094044,0.04429856832731836,-2.556971065336589,0.05986339971423149,-0.04428408294916153,-0.9972237944602966,-0.5850798487663269,0.09422215819358826,0.46330082416534424,0.06344287842512131,-0.17232969403266907,0.10873502492904663
48,0.05836504329077202,0.0010815198768115474,-2.4962877296366117,0.05833187699317932,-0.0010815196437761188,-0.9982966780662537,0.08735169470310211,-0.2137524038553238,0.6122762560844421,0.12127932906150818,-0.09294313937425613,-0.003305494785308838
49,0.027849478477638575,0.048851298876693386,-2.4690993116711324,0.027812659740447998,-0.04883187264204025,-0.9984197020530701,0.0790150836110115,-0.7406347393989563,-1.1147841215133667,0.1306803822517395,0.16966621577739716,-0.004952490329742432
50,-0.003972333449031632,-0.03091113872838896,-2.4554561145752736,-0.003970425575971603,0.03090621717274189,-0.9995144009590149,-0.4874345362186432,-0.21507620811462402,0.7567500472068787,0.0335572175681591,0.03427933156490326,-0.1567203402519226
51,-0.026532953576266848,-0.06838959063346331,-2.416944728428634,-0.02646782249212265,0.06833629310131073,-0.9973111748695374,-0.30968520045280457,0.00916023924946785,0.3105529546737671,-0.19435736536979675,0.14637011289596558,0.03104841709136963
52,-0.04722038071418578,-0.09211762634081533,-2.4005874341267974,-0.047002702951431274,0.09198740124702454,-0.9946502447128296,-0.4784795939922333,-0.5942424535751343,-0.18811124563217163,-0.15697678923606873,0.15230581164360046,0.00440061092376709
53,-0.116678735846714,-0.16387824155455433,-2.4332698271668076,-0.11485445499420166,0.16314570605754852,-0.9798938632011414,-0.6837050318717957,-0.14113792777061462,-0.35037457942962646,-0.13932645320892334,0.08342106640338898,0.10028570890426636
54,-0.12175322910494348,-0.20456787899495912,-2.4717385043211664,-0.1189202144742012,0.20314407348632812,-0.971900463104248,-0.29094570875167847,-0.2472407966852188,-0.33038529753685,0.0816735103726387,0.032833099365234375,-0.08892107009887695
55,-0.14847838366329713,-0.2309635963968111,-2.50537639256129,-0.14400523900985718,0.22891563177108765,-0.9627357721328735,-0.150264173746109,-0.16969001293182373,-0.3072768747806549,0.09445996582508087,0.030407488346099854,-0.055971503257751465
56,-0.15523438790958397,-0.2297157864330271,-2.5304313660853044,-0.15055020153522491,0.22770078480243683,-0.9620223641395569,0.13245633244514465,0.05303642153739929,-0.23921538889408112,0.04239591956138611,0.035452306270599365,0.031388819217681885
57,-0.1507861813582889,-0.23256601059788992,-2.5658940517826836,-0.14617137610912323,0.23047520220279694,-0.9620369672775269,-0.40713319182395935,0.1639941781759262,-0.3305731415748596,-0.005439966917037964,-0.01592138409614563,0.041016459465026855
58,-0.1339167539312893,-0.2640144790946594,-2.575872763256764,-0.1288904994726181,0.2609580159187317,-0.9567069411277771,-0.013140405528247356,0.33003589510917664,0.09578708559274673,-0.0416569858789444,0.0046822428703308105,-0.0438271164894104
59,-0.11234053595463096,-0.26690826774893306,-2.573620766106015,-0.10813488066196442,0.26375043392181396,-0.9585105776786804,-0.3654589354991913,-0.0377710722386837,-0.0636676698923111,-0.019337043166160583,-0.026033759117126465,-0.05938798189163208
60,-0.12250453209357358,-0.29856694112292814,-2.582175648737287,-0.11679217219352722,0.29415085911750793,-0.9485962390899658,-0.1831173449754715,-0.015326512977480888,-0.06747834384441376,-0.03506328910589218,0.0028004050254821777,-0.034710586071014404
61,-0.12938783396292355,-0.3045351572524386,-2.6010787863989946,-0.12309011816978455,0.2998497486114502,-0.9460121393203735,-0.03377291560173035,-0.0048044235445559025,-0.13609634339809418,0.01832326501607895,-0.029830217361450195,-0.038317084312438965
62,-0.13771271371785615,-0.3051510781425067,-2.606025141796342,-0.13093581795692444,0.3004372715950012,-0.9447715282440186,0.010425396263599396,-0.02623147889971733,0.010199833661317825,0.01593032479286194,-0.01642543077468872,-0.0004189014434814453
63,-0.13132523760110013,-0.30317393327867975,-2.604555913381549,-0.1249760314822197,0.29855087399482727,-0.9461756348609924,-0.019142309203743935,0.06492407619953156,-0.026203811168670654,0.008551470935344696,0.006350219249725342,-0.005347192287445068
64,-0.1239768329501328,-0.30439692500825805,-2.6061046478314625,-0.11797459423542023,0.29971787333488464,-0.9467054605484009,-0.03140569105744362,0.08394759893417358,-0.04091591387987137,0.001641593873500824,-0.0029802024364471436,0.01849806308746338
65,-0.11924030503930705,-0.31241421386095597,-2.605597742521482,-0.11319970339536667,0.30735689401626587,-0.9448373317718506,-0.09605889022350311,0.009011066518723965,0.051731519401073456,0.005747303366661072,-0.006529867649078369,0.002057790756225586
66,-0.11648858970816467,-0.3239445050153544,-2.6089561078779715,-0.11018011718988419,0.31830835342407227,-0.9415625929832458,-0.136911079287529,0.07988576591014862,-0.06675219535827637,-0.02095392346382141,-0.0018868446350097656,0.02353280782699585
67,-0.1096814136061185,-0.34283007231824036,-2.6179917609350323,-0.10309174656867981,0.3361538052558899,-0.9361478090286255,-0.16909854114055634,0.18934357166290283,-0.08019361644983292,-0.00480315089225769,-0.0014827847480773926,0.01595127582550049
68,-0.10025351562627038,-0.3565381940836004,-2.62770643709712,-0.09379135072231293,0.3490322232246399,-0.9324052929878235,-0.15372709929943085,0.01911010965704918,-0.0958840474486351,0.017131194472312927,-0.0031460225582122803,-0.08650028705596924
69,-0.09955638369288264,-0.3579807455486133,-2.6361782991068567,-0.09309117496013641,0.3503836989402771,-0.9319685101509094,-0.04651184007525444,0.06680537760257721,-0.0397588312625885,0.0037357062101364136,-0.0145835280418396,-0.008506953716278076
70,-0.10191233579591696,-0.36241833065086504,-2.6378125299526864,-0.09512746334075928,0.3545365035533905,-0.9301906228065491,0.02005884423851967,-0.03643428534269333,-0.05018845573067665,-0.010615929961204529,0.01725912094116211,-0.010147452354431152
71,-0.10203331857342292,-0.3595877718982695,-2.638936320472318,-0.09534183889627457,0.35188838839530945,-0.9311737418174744,-0.05327094346284866,-0.09056451916694641,7.79121182858944e-05,0.027791187167167664,0.019556283950805664,-0.034997522830963135
72,-0.10537713852151455,-0.3617022532556476,-2.6392693458106504,-0.09837649017572403,0.353866845369339,-0.9301077127456665,0.02798382379114628,0.010415798053145409,-0.03944563865661621,0.0077545493841171265,0.01519748568534851,0.008659958839416504
73,-0.10610300657570661,-0.3644420726727947,-2.6416601288564783,-0.09894855320453644,0.3564280569553375,-0.9290684461593628,-0.008085500448942184,-0.020316265523433685,-0.04994264245033264,-0.001301690936088562,0.006914198398590088,-0.01625925302505493
74,-0.11092184274655047,-0.36186663402553376,-2.6417137722691146,-0.10352568328380585,0.3540205955505371,-0.9294900894165039,0.08305467665195465,-0.10758484899997711,0.03632768243551254,-0.007085271179676056,0.016569584608078003,-0.05709737539291382
75,-0.11186034418411255,-0.34787721253817394,-2.628792449396016,-0.10494057089090347,0.3409029543399811,-0.9342229962348938,0.23368757963180542,-0.08282534778118134,0.2181316316127777,0.002325214445590973,0.05349096655845642,-0.21804440021514893
76,-0.13459244594966085,-0.2981921517485242,-2.6111502969794222,-0.12826469540596008,0.29379263520240784,-0.9472243785858154,0.7809095978736877,-0.3182346522808075,0.07176518440246582,-0.001572340726852417,0.08422860503196716,-0.09643101692199707
77,-0.14728825449153365,-0.21894739282705447,-2.599004836511947,-0.14325271546840668,0.21720226109027863,-0.9655578136444092,0.8763071298599243,-0.11859649419784546,-0.01671438105404377,-0.013775467872619629,0.07515613734722137,-0.01304936408996582
78,-0.1667423346847297,-0.15165887125699307,-2.5967681271073086,-0.16406570374965668,0.15107816457748413,-0.9748116731643677,0.7271460890769958,-0.11946738511323929,-0.06883203238248825,-0.04900801181793213,0.08209137618541718,0.012226283550262451
79,-0.17030646235412542,-0.09380530154836698,-2.5859778086169904,-0.16873924434185028,0.09366779029369354,-0.9811999797821045,0.17342300713062286,-0.055263906717300415,0.09081824868917465,-0.049247801303863525,0.07694073021411896,0.11128115653991699
80,-0.17091671055701493,-0.09301049704496403,-2.5945010661570165,-0.16935060918331146,0.09287644922733307,-0.9811698794364929,-0.12241878360509872,0.06884738057851791,-0.218755841255188,-0.03633786737918854,0.06911085546016693,0.08525007963180542
81,-0.15949265680405306,-0.11630786672539697,-2.628321318701474,-0.15774433314800262,0.11604581773281097,-0.9806376099586487,-0.47600463032722473,0.328605055809021,-0.28718721866607666,-0.08606059849262238,-0.007632121443748474,0.09983927011489868
82,-0.14659966588624113,-0.15880650615361525,-2.6878654558902983,-0.14423702657222748,0.15813983976840973,-0.9768251776695251,-0.5014458298683167,0.02400122955441475,-0.8735572099685669,-0.09628726541996002,0.08468852937221527,-0.041378557682037354
83,-0.16518236576911002,-0.17265972368274218,-2.8091380870127436,-0.1619873195886612,0.17180313169956207,-0.9717220664024353,-0.2639505863189697,0.22232890129089355,-1.2721956968307495,-0.05610653758049011,0.03226791322231293,0.0617184042930603
84,-0.1851040928836861,-0.16932454518859288,-2.965029005231274,-0.18141673505306244,0.1685165911912918,-0.9688602089881897,-0.24153409898281097,-0.025765320286154747,-1.5292820930480957,0.05478404462337494,-0.004728749394416809,0.025622904300689697
85,-0.21475186460136017,-0.15139875423127938,-3.1144443390054883,-0.21066731214523315,0.1508210301399231,-0.9658531546592712,0.05842455476522446,-0.0351293683052063,-1.3240398168563843,0.09575337171554565,-0.060962021350860596,0.10563892126083374
86,-0.2115542538719878,-0.15810080475870325,3.050896212044453,-0.2073609083890915,0.15744298696517944,-0.9655118584632874,-0.7297594547271729,0.3820376694202423,-1.1935889720916748,0.08159796893596649,0.020199835300445557,0.032665789127349854
87,-0.181945345619469,-0.19171886349577558,2.909076959734943,-0.17762793600559235,0.19054654240608215,-0.9654741287231445,-0.2188783884048462,0.659398078918457,-1.3105928897857666,0.08667030930519104,0.00035615265369415283,-0.06194585561752319
88,-0.15144358767260296,-0.1826187126396487,2.78310991070753,-0.14835669100284576,0.18160535395145416,-0.9721161127090454,-0.1293579488992691,0.27583637833595276,-1.315962553024292,0.11121681332588196,0.07196517288684845,-0.060201942920684814
89,-0.1520228684298354,-0.16596848840350895,2.672139231334503,-0.14935703575611115,0.16520759463310242,-0.974884033203125,-0.08905118703842163,0.20925933122634888,-0.7190401554107666,0.12234900891780853,-0.06762763857841492,0.053726255893707275
90,-0.15360173870526145,-0.19116169139399114,2.6139598911619655,-0.15021145343780518,0.1899995505809784,-0.9702250957489014,-0.37105274200439453,0.07467398047447205,-0.5112357139587402,0.15304958820343018,0.033083945512771606,-0.017689943313598633
91,-0.15633583936258288,-0.19790133190144146,2.562577405050982,-0.15266074240207672,0.19661206007003784,-0.9685238003730774,0.09651883691549301,-0.0009189569391310215,-0.5511078834533691,0.17406883835792542,-0.06581373512744904,-0.03782379627227783
92,-0.14908784606905806,-0.17746511752416996,2.537895790854492,-0.14620330929756165,0.17653506994247437,-0.9733755588531494,0.07516476511955261,0.07133468985557556,-0.06703203171491623,0.07198455929756165,-0.004278615117073059,-0.020581960678100586
93,-0.1535306191093977,-0.15550944950229803,2.526636998502036,-0.15108273923397064,0.15488341450691223,-0.976311981678009,0.32937270402908325,-0.15515431761741638,-0.2836010754108429,0.027623891830444336,0.08554930984973907,0.11683022975921631
94,-0.16919510746869745,-0.1557772922206904,2.509092780811412,-0.16635002195835114,0.15514802932739258,-0.9737847447395325,-0.17458216845989227,-0.04351381957530975,0.1594839096069336,-0.013505309820175171,-0.11454439163208008,0.046752333641052246
95,-0.16778760612706908,-0.2160536046118011,2.6006933119655407,-0.16311882436275482,0.21437665820121765,-0.9630342125892639,-0.9317609071731567,-0.14573417603969574,1.228262186050415,-0.036099910736083984,0.02607133984565735,-0.06437057256698608
96,-0.17658415353082973,-0.28257945503081033,2.6842947667673553,-0.16870078444480896,0.2788337171077728,-0.9454056024551392,-0.05328194797039032,-0.3964149057865143,0.6545584201812744,-0.06648291647434235,0.0479331910610199,-0.10594016313552856
97,-0.1783723698017796,-0.2676296875477954,2.741931448538818,-0.17111164331436157,0.2644462585449219,-0.949099063873291,0.4168176054954529,-0.0033637145534157753,0.4580994248390198,-0.07238811254501343,-0.029537200927734375,-0.041196346282958984
98,-0.17603970280298073,-0.2305419409090093,2.7959138609589704,-0.17049835622310638,0.22850516438484192,-0.9584965705871582,0.47541117668151855,-0.23954999446868896,0.42564716935157776,-0.058673396706581116,-0.04451470077037811,-0.02300971746444702
99,-0.18870429085203952,-0.21469899284102723,2.868130493613876,-0.18327946960926056,0.21305334568023682,-0.9596962332725525,0.1827201396226883,-0.3719902038574219,0.6908099055290222,-0.021127253770828247,0.01044212281703949,0.0031228065490722656
100,-0.20062757957392535,-0.21012132299017286,2.9508958263908505,-0.1949012279510498,0.20857855677604675,-0.9583885073661804,0.1718388944864273,-0.2175501585006714,0.8942788243293762,-0.008086442947387695,-0.021429508924484253,0.01763838529586792
101,-0.20007569427489333,-0.2121716078574855,3.0499779279669874,-0.19428686797618866,0.21058329939842224,-0.9580747485160828,0.045831404626369476,-0.10202743858098984,1.0816704034805298,0.0063291192054748535,-0.03529033064842224,0.012777566909790039
102,-0.20290508178148028,-0.22228784568553622,-3.130942900532266,-0.19655749201774597,0.22046175599098206,-0.955385684967041,0.08630813658237457,-0.1768517941236496,1.0591663122177124,-0.02347424626350403,-0.04390229284763336,0.032808780670166016
103,-0.18307262661305357,-0.24098767103798457,-3.0278430949786457,-0.17679090797901154,0.23866187036037445,-0.954874575138092,0.026385284960269928,-0.021793413907289505,1.0685242414474487,0.07286329567432404,-0.0065757036209106445,-0.09831756353378296
104,-0.1707366925672409,-0.2540442240707245,-2.9153734571075027,-0.16445498168468475,0.25132042169570923,-0.9538304805755615,0.07737012952566147,-0.16038383543491364,0.9993141293525696,0.11440615355968475,0.014609754085540771,-0.03158211708068848
105,-0.14224709253741058,-0.25778644983116894,-2.835356562100878,-0.13708338141441345,0.25494077801704407,-0.9571903347969055,0.3398909866809845,0.036090485751628876,0.4789685606956482,0.17223963141441345,-0.10145261883735657,-0.07647055387496948
106,-0.12702336264009406,-0.19474785159794808,-2.7680834308736455,-0.12428731471300125,0.19351916015148163,-0.9731921553611755,0.5084792375564575,-0.05739297717809677,0.7564041614532471,0.014408789575099945,-0.15915638208389282,0.11792182922363281
107,-0.14723983937852494,-0.23584784789958865,-2.690158614594979,-0.14264701306819916,0.23366744816303253,-0.9617959260940552,-0.5526816248893738,-0.6490543484687805,0.7698754668235779,0.07390615344047546,-0.11358077824115753,-0.047878146171569824
108,-0.17982347630479276,-0.2520915771407602,-2.642207772972975,-0.1732027679681778,0.24942997097969055,-0.9527777433395386,0.16397766768932343,-0.14969024062156677,0.28068307042121887,0.05502346158027649,-0.08414678275585175,0.01343148946762085
109,-0.18357883806867933,-0.22766066466214813,-2.6287777312137024,-0.17783911526203156,0.22569917142391205,-0.9578272700309753,0.3557438254356384,0.05155327916145325,-0.046820610761642456,0.06031595170497894,-0.04930756986141205,0.03537249565124512
110,-0.15314567050764555,-0.1866732656907694,-2.6052807310430937,-0.1498975306749344,0.1855909824371338,-0.9711264967918396,0.5528243780136108,0.36292657256126404,0.37485042214393616,0.009882897138595581,0.002153143286705017,-0.011432647705078125
111,-0.08478305334784329,-0.12451727270188913,-2.5340090451116506,-0.08402588963508606,0.12419575452804565,-0.9886935949325562,0.7103182673454285,0.6291226148605347,0.760013222694397,-0.07701537013053894,0.14705973863601685,-1.4901161193847656e-05
112,-0.019371721531334176,-0.11639980104676406,-2.4509964777548436,-0.019239433109760284,0.11613713204860687,-0.9930468201637268,-0.3402469754219055,0.3760642409324646,0.6657864451408386,-0.12535284459590912,0.21427667140960693,-0.06350219249725342
113,-0.01599045366493092,-0.1655884748499047,-2.423512672320485,-0.015771057456731796,0.16483278572559357,-0.98619544506073,-0.44591113924980164,-0.16885894536972046,0.14431212842464447,-0.0731113851070404,0.14583615958690643,-0.07888329029083252
114,-0.024862565285531445,-0.19388305601360678,-2.4124577654049584,-0.024394214153289795,0.19267064332962036,-0.9809601902961731,-0.2034512162208557,-0.018858887255191803,0.08442628383636475,-0.0804336667060852,0.12034814059734344,-0.004727005958557129
115,-0.031749258347941775,-0.21161351694531194,-2.4199951423567407,-0.03103582188487053,0.2100376933813095,-0.9772005677223206,-0.1488092541694641,-0.03308960050344467,-0.12683843076229095,-0.06494195759296417,0.06358291208744049,-0.021288812160491943
116,-0.04051894043155715,-0.23371680937032757,-2.430295601763435,-0.039406538009643555,0.23159487545490265,-0.9720138311386108,-0.129210963845253,-0.12878422439098358,-0.030586441978812218,0.025353197008371353,0.013812214136123657,-0.10330349206924438
117,-0.06074221582308874,-0.2129807782631239,-2.4545415278240372,-0.059333257377147675,0.21137426793575287,-0.9756026268005371,0.42933112382888794,-0.15067175030708313,-0.2630448341369629,0.026420045644044876,0.015737563371658325,-0.03857278823852539
118,-0.07545072284973543,-0.16303347949708247,-2.4580193421394956,-0.0743795856833458,0.16231220960617065,-0.9839321374893188,0.5070079565048218,-0.1132671982049942,0.0950847864151001,0.02735200524330139,0.026347458362579346,0.0036922693252563477
119,-0.0922928411993977,-0.1042617040812475,-2.432659940686153,-0.09166140109300613,0.10407291352748871,-0.9903368353843689,0.6134708523750305,-0.17264902591705322,0.36859655380249023,0.006212182343006134,0.015037193894386292,0.042125165462493896
120,-0.08675460760214766,-0.06149060007670743,-2.3928808244759456,-0.08648207038640976,0.061451856046915054,-0.9943563342094421,0.19854488968849182,0.2645449936389923,0.6232649087905884,-0.05359362065792084,-0.032612744718790054,0.10974329710006714
121,-0.07752126835676003,-0.0739411778107732,-2.3446969813499114,-0.07723204046487808,0.07387381792068481,-0.9942725300788879,-0.34083154797554016,-0.13950029015541077,0.19422747194766998,-0.07128175348043442,0.041665732860565186,0.04920417070388794
122,-0.10474813894005582,-0.11998438937157956,-2.331872603791694,-0.10380498319864273,0.119696706533432,-0.9873688220977783,-0.5213135480880737,-0.35005971789360046,0.11669424176216125,-0.029907777905464172,0.017128854990005493,0.00419926643371582
123,-0.11223377854763704,-0.14507775957623392,-2.3337003882890324,-0.11082172393798828,0.14456936717033386,-0.9832691550254822,0.11215643584728241,0.06351843476295471,-0.14545652270317078,0.01775836944580078,0.03296664357185364,-0.05033069849014282
124,-0.10042351546664932,-0.11890097093878517,-2.3415283639711553,-0.09954696893692017,0.11862100660800934,-0.9879369735717773,0.11605804413557053,0.05178599804639816,0.022502515465021133,0.05889756232500076,-0.02938760817050934,0.0028448104858398438
125,-0.08824222593948242,-0.11295305454691967,-2.329160845892441,-0.08756616711616516,0.11271302402019501,-0.9897615313529968,0.10825566947460175,0.13179905712604523,0.11172055453062057,0.021983899176120758,-4.213303327560425e-05,0.0275270938873291
126,-0.06638113606072024,-0.10373423126728107,-2.3165357096670283,-0.06597582250833511,0.10354828834533691,-0.9924338459968567,0.026011455804109573,0.09433278441429138,0.10768149793148041,0.020962394773960114,-0.010668046772480011,-0.028394341468811035
127,-0.06364756516761978,-0.09740824675387494,-2.312318438765024,-0.06330309063196182,0.09725427627563477,-0.9932443499565125,0.2001054883003235,0.04705927520990372,0.06587226688861847,-0.005559831857681274,-0.023584842681884766,0.05069369077682495
128,-0.06572448431668239,-0.09550663660049696,-2.3015750270344264,-0.0653778687119484,0.09536150842905045,-0.9932934641838074,-0.18265464901924133,-0.11849880963563919,0.13780872523784637,-0.005132995545864105,-0.014398373663425446,-0.03128844499588013
129,-0.0770742441442275,-0.1031286051712125,-2.28740805602601,-0.07658886164426804,0.10294590145349503,-0.991733968257904,0.2260419726371765,-0.20123767852783203,-0.09110675752162933,-0.01723741739988327,0.060719870030879974,-0.0013232231140136719
130,-0.08098110632546118,-0.07863486803837354,-2.2764258656978025,-0.08064265549182892,0.07855385541915894,-0.9936428070068359,0.15998655557632446,-0.15629224479198456,0.08391677588224411,-0.03190617263317108,0.016462624073028564,-0.08576393127441406
131,-0.08807511747417292,-0.058636902191756955,-2.264992846878801,-0.08781011402606964,0.058603305369615555,-0.9944118857383728,0.3079422414302826,-0.03778381645679474,-0.014337744563817978,-0.010212339460849762,0.010427452623844147,-0.15957975387573242
132,-0.10426827629400934,0.012134257893044096,-2.270509502302142,-0.10407178848981857,-0.01213395968079567,-0.9944957494735718,0.7470211982727051,-0.11199603974819183,0.09436336904764175,0.02979201078414917,-0.03268110379576683,0.11194270849227905
133,-0.11888919900610613,0.07445213948491275,-2.2503604074073245,-0.11828073859214783,-0.07438337802886963,-0.9901902675628662,0.4286714196205139,-0.18212749063968658,0.2719040811061859,-0.017888687551021576,0.005779869854450226,0.12129384279251099
134,-0.1281032490185415,0.0786161324268891,-2.221297682561287,-0.1273585855960846,-0.07853517681360245,-0.9887426495552063,-0.15720754861831665,-0.024567916989326477,0.397268682718277,-0.038702815771102905,0.014371968805789948,-0.0507928729057312
135,-0.15009170086294552,0.0489346268425902,-2.1957958051888076,-0.14934980869293213,-0.04891509935259819,-0.9875737428665161,-0.08961915224790573,-0.1484484225511551,0.08283446729183197,0.014568924903869629,0.07978363335132599,-0.013021349906921387
136,-0.14327107271943948,0.09963750126522383,-2.189478412672335,-0.14207327365875244,-0.09947272390127182,-0.9848453402519226,0.36518821120262146,0.10221899300813675,0.14449763298034668,-0.004121184349060059,-0.04881219565868378,0.1873905062675476
137,-0.15345806691027755,0.07755586066818482,-2.170914984053414,-0.15239699184894562,-0.07747813314199448,-0.9852777719497681,-0.38693395256996155,-0.02416098676621914,0.2783452272415161,-0.04599778354167938,-0.020025528967380524,0.07686102390289307
138,-0.15980074962995508,0.013961853942056708,-2.143739501232218,-0.15910598635673523,-0.013961399905383587,-0.9871627688407898,-0.6380778551101685,-0.16038180887699127,0.21791981160640717,0.0049616992473602295,0.06324728578329086,-0.0873458981513977
139,-0.1498031503374054,-0.00956025069042213,-2.140170779377862,-0.14923666417598724,0.00956010539084673,-0.9887552857398987,0.1748688668012619,0.30464258790016174,-0.16225065290927887,0.020910263061523438,0.04093122482299805,0.03836160898208618
140,-0.11144505352710155,-0.012827596191190265,-2.1516022493063383,-0.11120535433292389,0.012827244587242603,-0.9937146902084351,-0.170903742313385,0.3286896049976349,-0.09601461887359619,0.01838614046573639,-0.010980930179357529,0.05557382106781006
141,-0.07501702644707384,-0.03608514660410435,-2.1453172299088354,-0.0748978927731514,0.03607731685042381,-0.9965384006500244,-0.2457137554883957,0.28989148139953613,0.17433765530586243,-0.018073908984661102,0.0038244202733039856,-0.020200490951538086
142,-0.059666060976630485,-0.06201495210042077,-2.1305685114244226,-0.05951603502035141,0.06197521090507507,-0.9963015913963318,-0.1960095465183258,0.07854577153921127,0.08641478419303894,-0.01847163215279579,0.03269031271338463,0.013818740844726562
143,-0.04806749378447483,-0.09398077110055268,-2.12223415539646,-0.047836948186159134,0.09384248405694962,-0.9944371581077576,-0.5342031717300415,0.09181299805641174,0.05522692948579788,-0.033889129757881165,0.03523160517215729,0.02300161123275757
144,-0.028696920703271615,-0.14474267427389306,-2.126253618757682,-0.028392940759658813,0.14423780143260956,-0.9891356229782104,-0.5227773189544678,0.21806126832962036,-0.031153714284300804,-0.028552858158946037,0.020358741283416748,-0.029724180698394775
145,-0.014095319328417628,-0.18390742822727815,-2.1290188062688222,-0.013857166282832623,0.1828724890947342,-0.9830389618873596,-0.31331169605255127,0.09178204834461212,0.07140876352787018,-0.0247323140501976,-0.015987128019332886,-0.049279093742370605
146,-0.018842719156081066,-0.21367628158167076,-2.1262662386548916,-0.018413107842206955,0.21205399930477142,-0.9770844578742981,-0.23082897067070007,-0.07423210889101028,-0.044330496340990067,-0.03346677124500275,0.018475785851478577,-0.03123152256011963
147,-0.02810148597075082,-0.22051223176557558,-2.1396688778279183,-0.027417413890361786,0.21872948110103607,-0.9754002690315247,-0.04347085580229759,-0.09665312618017197,-0.18090713024139404,-0.009264715015888214,0.006062999367713928,-0.03344982862472534
148,-0.038551470460161,-0.2313252975498526,-2.1530679619895854,-0.037515297532081604,0.22926771640777588,-0.9726401567459106,-0.05727070942521095,0.049101147800683975,-0.06397143751382828,-0.002539016306400299,-0.02632582187652588,0.018111348152160645
149,-0.03345167557627396,-0.23550297659047378,-2.155989001865391,-0.03252224624156952,0.23333211243152618,-0.9718530774116516,-0.016074003651738167,0.023331869393587112,-0.02191426232457161,-0.001138642430305481,-0.00879901647567749,-0.02071589231491089
150,-0.03451040830424787,-0.2371020492130448,-2.154618527942055,-0.03353824466466904,0.23488673567771912,-0.9714439511299133,-0.033297374844551086,-0.025699567049741745,-0.023617064580321312,-0.021256063133478165,0.01599825918674469,-0.0067969560623168945
151,-0.03522769549522754,-0.23892557673470313,-2.157378874319317,-0.0342198982834816,0.23665885627269745,-0.970990002155304,-0.019341330975294113,0.057208169251680374,-0.0007963682292029262,-0.010412067174911499,0.01654548943042755,-0.017565906047821045
152,-0.036392096005254115,-0.23791243740913082,-2.164696398965602,-0.03535920009016991,0.23567438125610352,-0.9711886048316956,0.07232338190078735,0.07648561894893646,-0.09234955906867981,-0.003367602825164795,0.005658626556396484,0.008023321628570557
153,-0.030913636471625976,-0.23825795692371002,-2.170389618634911,-0.030035560950636864,0.23601014912128448,-0.9712862968444824,0.00036574993282556534,-0.012173892930150032,-0.006219690665602684,0.015890665352344513,-0.01816043257713318,-0.05074739456176758
154,-0.02863396521938264,-0.23003787670273784,-2.1717490013947494,-0.02787587232887745,0.22801440954208374,-0.9732586145401001,0.16220887005329132,0.04059451073408127,-0.01386269461363554,-0.000673314556479454,0.014264628291130066,-0.016853630542755127
155,-0.03287518233770836,-0.22378735771612196,-2.1725213547268236,-0.03204962983727455,0.22192412614822388,-0.9745370745658875,-0.011063511483371258,-0.10233484208583832,0.004336648620665073,-0.009866267442703247,0.005645468831062317,0.005237758159637451
156,-0.05353672216726751,-0.218660231039872,-2.176257311656274,-0.052236996591091156,0.21692195534706116,-0.9747903347015381,0.20485971868038177,-0.23719152808189392,-0.07433371990919113,0.005194157361984253,0.017117351293563843,0.005002737045288086
157,-0.08756874662468636,-0.20766437571834678,-2.183893035423493,-0.08557787537574768,0.20617501437664032,-0.9747657775878906,-0.0025279102846980095,-0.41335389018058777,-0.060343991965055466,0.01183214783668518,0.00316031277179718,0.013813018798828125
158,-0.11271540294822689,-0.20344517225907255,-2.189988748604627,-0.11015719920396805,0.20204463601112366,-0.973161518573761,0.08905555307865143,-0.0514795258641243,-0.017388002946972847,0.001362033188343048,-0.016772419214248657,0.004152119159698486
159,-0.1229000335052073,-0.1928041989196933,-2.1901917481411544,-0.12031936645507812,0.1916118860244751,-0.9740678071975708,0.07817932218313217,-0.19008806347846985,0.01340184360742569,-0.0008811876177787781,0.009193763136863708,-0.019401371479034424
160,-0.1372071116457016,-0.18478777556097614,-2.191069003745188,-0.13444842398166656,0.18373793363571167,-0.9737371206283569,0.030651453882455826,-0.13699813187122345,0.02974490448832512,-0.022915467619895935,-0.01267164945602417,0.025754332542419434
161,-0.14996621320269543,-0.18877861525016598,-2.1955887046446216,-0.14675042033195496,0.187659353017807,-0.971209704875946,0.009151218459010124,-0.051625512540340424,-0.09873561561107635,-0.022484809160232544,0.020638376474380493,-0.007092297077178955
162,-0.16547347524333,-0.17751366707320626,-2.220981511178833,-0.1621309220790863,0.17658285796642303,-0.9708409309387207,0.11767499148845673,-0.2202112227678299,-0.3092096745967865,0.010153383016586304,0.0015635043382644653,-0.0314021110534668
163,-0.18529643261133227,-0.1796905676476118,-2.239153402423105,-0.181271493434906,0.17872513830661774,-0.9670563340187073,-0.08737395703792572,-0.029276544228196144,-0.004982755519449711,-0.002978384494781494,-0.031096339225769043,0.021942198276519775
164,-0.18433182570393689,-0.18168715332248755,-2.242048600132867,-0.18027281761169434,0.18068921566009521,-0.9668780565261841,0.021819736808538437,0.031741827726364136,-0.02578148990869522,0.001027822494506836,0.003072381019592285,-0.003092646598815918
165,-0.18651393650656756,-0.19524821888552885,-2.241575965365249,-0.18191108107566833,0.19401004910469055,-0.9639857411384583,-0.2583458721637726,-0.05122523009777069,0.12408923357725143,-0.008289709687232971,-0.013330727815628052,0.012050926685333252
166,-0.16970207347437744,-0.21062466071035515,-2.2295191961982535,-0.16515634953975677,0.20907080173492432,-0.9638530611991882,0.21404169499874115,0.36387452483177185,0.2204115092754364,0.039622291922569275,-0.042505860328674316,-0.018904447555541992
167,-0.1572788828492856,-0.2225839018370708,-2.203616408288975,-0.15276721119880676,0.22075051069259644,-0.9632919430732727,-0.23355822265148163,-0.1052890196442604,0.0493941605091095,-0.022525757551193237,0.023741066455841064,-0.009440600872039795
168,-0.1540241767371519,-0.2219837207248873,-2.1967828538094043,-0.14965148270130157,0.22016510367393494,-0.9639148116111755,0.04611220955848694,0.015960684046149254,0.06229476258158684,-0.016501471400260925,-0.0044668614864349365,-0.012006819248199463
169,-0.15692020455698621,-0.21961587934027524,-2.1922327753032675,-0.15252341330051422,0.21785473823547363,-0.9639896154403687,0.0477386936545372,-0.03652620315551758,-0.002009908203035593,-0.021106332540512085,0.008707761764526367,-0.006713509559631348
170,-0.163917319958437,-0.21362439039980963,-2.1916623783038327,-0.1594749093055725,0.21200329065322876,-0.9641692638397217,0.07063118368387222,-0.08100797981023788,0.020386412739753723,0.00957256555557251,0.00714343786239624,-0.00551152229309082
171,-0.1679008157638936,-0.203235299574224,-2.1942700028568103,-0.16367365419864655,0.20183908939361572,-0.9656458497047424,0.11089298874139786,0.012110501527786255,-0.06267867982387543,-0.008826956152915955,4.9948692321777344e-05,0.013482153415679932
172,-0.17536608761139238,-0.19140030307492686,-2.196186133282524,-0.17128261923789978,0.19023381173610687,-0.9666815996170044,0.2541981339454651,-0.05790086090564728,-0.01944182813167572,-0.01798740029335022,-0.0073114484548568726,-0.019631266593933105
173,-0.17907215865529016,-0.1596220530352427,-2.1866459248468315,-0.17585232853889465,0.15894506871700287,-0.9715000987052917,0.21897919476032257,-0.1490136682987213,0.09826365858316422,0.03275538980960846,-0.029779434204101562,-0.014599144458770752
174,-0.1916552572003026,-0.17508852607097122,-2.1567226140951856,-0.18757182359695435,0.1741953045129776,-0.9666813611984253,-0.253987193107605,-0.17251743376255035,0.38697415590286255,0.03290872275829315,0.0137166827917099,-0.003152012825012207
175,-0.19379293881978185,-0.18266519520218374,-2.1335029083177344,-0.18937823176383972,0.1816510707139969,-0.9649553298950195,0.034867726266384125,0.030650096014142036,0.13211636245250702,-0.03451398015022278,0.05188469588756561,0.005009651184082031
176,-0.19907442834174793,-0.18960395778325906,-2.1309367267943897,-0.19421802461147308,0.18846996128559113,-0.9626829624176025,-0.035419926047325134,0.005017098039388657,0.044521696865558624,-0.0056263357400894165,-0.013909414410591125,0.03682541847229004
177,-0.19869139825349505,-0.19658327324583635,-2.124415032660875,-0.19358490407466888,0.19531956315040588,-0.9614443182945251,-0.04988311231136322,0.020286671817302704,0.11183932423591614,-0.005435481667518616,-0.020636945962905884,-0.0032773613929748535
178,-0.20196687192821375,-0.20029238802066818,-2.116915216620919,-0.19658637046813965,0.19895587861537933,-0.9600887298583984,0.02033436857163906,-0.061394378542900085,0.05157806724309921,-0.012657403945922852,-0.0014308542013168335,-0.018198013305664062
179,-0.2038227462083565,-0.1953297617281929,-2.1146170610243926,-0.19856524467468262,0.19409003853797913,-0.9606773257255554,0.02681543678045273,0.0011782599613070488,0.011316156014800072,0.004488706588745117,-0.009855419397354126,0.00886458158493042
180,-0.20478253998492496,-0.19974375313530357,-2.113416291744993,-0.1993110477924347,0.19841818511486053,-0.9596381187438965,-0.007620478980243206,0.024969730526208878,0.008077881298959255,-0.014403536915779114,0.0031809210777282715,-0.0032066702842712402
181,-0.20710704369063734,-0.19832699118683414,-2.1152077590849667,-0.20159879326820374,0.19702939689159393,-0.959446370601654,-0.015287854708731174,-0.004739444702863693,-0.014888737350702286,-0.010040611028671265,-0.011757180094718933,0.006718099117279053
182,-0.20970267693018968,-0.19841610476912008,-2.116669330736086,-0.2040848284959793,0.19711676239967346,-0.9589027166366577,-0.04306373745203018,-0.036934543401002884,0.028885768726468086,0.010267689824104309,-0.004138857126235962,-0.006642937660217285
183,-0.21386661669289783,-0.20348610635122344,-2.1171393514718444,-0.20786108076572418,0.2020847350358963,-0.9570556879043579,-0.021517517045140266,0.03289185091853142,0.009100847877562046,-0.012277469038963318,-0.0181552916765213,0.00426638126373291
184,-0.21818427303173718,-0.2091582745967563,-2.116570376696681,-0.21173983812332153,0.20763659477233887,-0.9550148248672485,-0.03415017947554588,-0.04203329607844353,0.009088542312383652,-0.006064116954803467,0.0014088153839111328,-0.023012518882751465
185,-0.22287813530965916,-0.20193535439579952,-2.1187507014616838,-0.21654605865478516,0.20056574046611786,-0.9554481506347656,0.02500932477414608,-0.030256468802690506,-0.014720586128532887,0.003991127014160156,-0.009128972887992859,0.027774810791015625
186,-0.22554503180985672,-0.21121372622276935,-2.1199861017456527,-0.21866776049137115,0.2096468061208725,-0.9530124068260193,-0.09286946058273315,0.02315320074558258,0.03057631105184555,-0.006994470953941345,0.005776792764663696,-0.005056440830230713
187,-0.2253225391122699,-0.21526131346590088,-2.124031266146893,-0.21826434135437012,0.2136027216911316,-0.9522261023521423,0.05376031994819641,0.04879198968410492,-0.09282004088163376,-0.006924867630004883,-0.004206359386444092,-0.042418062686920166
188,-0.22499855246149503,-0.20880295456185693,-2.1297571060881557,-0.2182590514421463,0.20728901028633118,-0.9536216259002686,0.019686909392476082,0.006877726875245571,-0.004808695521205664,0.0181705504655838,-0.00863485038280487,0.01963120698928833
189,-0.21910797623345582,-0.21020449548606454,-2.129944542553533,-0.2125745564699173,0.20865990221500397,-0.9546062350273132,-0.13803867995738983,0.029047582298517227,0.038998447358608246,-0.009913831949234009,0.010135874152183533,-0.007063686847686768
190,-0.21952671260198103,-0.21505650025534692,-2.135049309940229,-0.21275129914283752,0.2134026288986206,-0.9535177946090698,0.07882857322692871,0.07225792855024338,-0.10965726524591446,-0.006013959646224976,0.012229084968566895,-0.026065945625305176
191,-0.2169979025504382,-0.2050732652754832,-2.1452519313572687,-0.2107875496149063,0.20363889634609222,-0.9560856819152832,0.14866618812084198,0.03610445186495781,-0.08397909998893738,0.013750791549682617,-0.027308329939842224,-0.006194591522216797
192,-0.21813775737563784,-0.20169315217334527,-2.1442315709560225,-0.21202495694160461,0.20032845437526703,-0.9565113186836243,0.005982411094009876,-0.075349822640419,-0.04882742837071419,-0.004848212003707886,0.03773917257785797,-0.019288241863250732
193,-0.22217225339080593,-0.19247184740501141,-2.1471334991623725,-0.21628013253211975,0.19128568470478058,-0.9574093818664551,0.058003269135951996,-0.1066654622554779,-0.04012184962630272,0.02115073800086975,0.006178304553031921,-0.006549358367919922
194,-0.22937558939568667,-0.19165274785713907,-2.1503991383426837,-0.2232065498828888,0.19048164784908295,-0.9559788703918457,0.05048307776451111,-0.041253529489040375,-0.039415985345840454,0.015259772539138794,0.005105525255203247,0.014984607696533203
195,-0.23089954987974218,-0.1907829681201397,-2.1485760929949467,-0.22470098733901978,0.1896277219057083,-0.9557985067367554,0.05446867644786835,-0.10222619771957397,0.04265052452683449,0.0012818127870559692,-0.01412111520767212,-0.04937422275543213
196,-0.23803020703850883,-0.17362471808764016,-2.144964015499441,-0.23224376142024994,0.1727536916732788,-0.9571933150291443,0.18264523148536682,-0.04100801795721054,-0.0320848748087883,-0.003763929009437561,0.0031801462173461914,-0.002874433994293213
197,-0.24920923424246638,-0.16692781073078483,-2.1425775378801015,-0.24320940673351288,0.1661536544561386,-0.9556370377540588,0.01975627988576889,-0.1087808609008789,0.08240610361099243,0.0009608566761016846,-0.01684640347957611,0.016870558261871338
198,-0.25482215747216,-0.1691985014367486,-2.1376954735647735,-0.24847371876239777,0.1683923453092575,-0.9538893103599548,-0.059178926050662994,-0.0600358322262764,0.044071897864341736,0.00334128737449646,0.025104358792304993,-0.005980074405670166
199,-0.252660238019988,-0.1711115421291029,-2.137976306018326,-0.24632993340492249,0.17027775943279266,-0.9541106224060059,-0.024805724620819092,0.024260517209768295,0.00919497199356556,0.01714290678501129,-0.011861011385917664,0.02324819564819336
200,-0.25167367516559364,-0.1884891069411074,-2.1329050884990095,-0.2446146309375763,0.18737497925758362,-0.9513434171676636,-0.19129256904125214,-0.056241218000650406,0.12313516438007355,-0.021407082676887512,0.0006285607814788818,-0.038509488105773926
201,-0.2550368902912823,-0.1888420796615764,-2.1302161857124564,-0.24779611825942993,0.18772168457508087,-0.9504513144493103,0.07100779563188553,-0.010773273184895515,-0.0019955281168222427,-0.013968408107757568,-0.004997700452804565,-0.019656717777252197
202,-0.25980245510150307,-0.1862100816328525,-2.1320957026407683,-0.25244876742362976,0.1851358264684677,-0.9497338533401489,0.03014509566128254,0.005181833170354366,-0.020402664318680763,0.005195349454879761,-0.0005960315465927124,0.023998379707336426
203,-0.2591237605353903,-0.19016535669658274,-2.1299739367254737,-0.2516145408153534,0.1890212744474411,-0.9491897225379944,-0.08742161840200424,-0.004724936559796333,0.03533428907394409,-0.0065641701221466064,0.0163925439119339,-0.006590306758880615
204,-0.2604389286031799,-0.19232519876651555,-2.1320379017945417,-0.2527569532394409,0.191141739487648,-0.9484612345695496,0.008089334703981876,-0.009666557423770428,0.01348055712878704,-0.008381932973861694,-0.020945221185684204,-0.018564462661743164
205,-0.26499484505368964,-0.18841294036799885,-2.131162410975525,-0.2572692930698395,0.1873001605272293,-0.9480143189430237,0.05348331108689308,-0.02387409284710884,0.005804135929793119,-0.010064691305160522,0.0019698739051818848,0.010376989841461182
206,-0.26975002998587905,-0.189428310186533,-2.130069104521501,-0.2617235481739044,0.18829746544361115,-0.9465964436531067,0.006418950855731964,-0.02473428100347519,-0.006128941662609577,-0.001444786787033081,0.01676541566848755,-0.00021141767501831055
207,-0.269034019298696,-0.18736501841936962,-2.1299665775012424,-0.2611484229564667,0.18627068400382996,-0.9471561312675476,0.004923852160573006,-0.010278376750648022,0.015018688514828682,0.004175156354904175,-0.012350991368293762,-0.0013149380683898926
208,-0.2684426317960777,-0.18768127958251912,-2.1253494591508373,-0.2605725824832916,0.18658140301704407,-0.9472535848617554,-0.0027588792145252228,-0.0029671485535800457,0.0773758590221405,-0.0029008984565734863,-0.009197980165481567,0.010516524314880371
209,-0.2684265140186448,-0.19089128049770027,-2.1182899602731453,-0.26039713621139526,0.1897340565919876,-0.9466754198074341,-0.02633761614561081,-0.04028373584151268,0.044583454728126526,-0.021219074726104736,0.01656477153301239,-0.006617426872253418
210,-0.2715811377967261,-0.19366788286500525,-2.117224880046268,-0.26323992013931274,0.19245949387550354,-0.9453380703926086,-0.04566995054483414,-0.045467719435691833,-0.035679031163454056,-0.017018258571624756,0.01242026686668396,-0.009175479412078857
211,-0.27359795787398145,-0.19297380177874981,-2.120015331524738,-0.2651819884777069,0.19177834689617157,-0.9449336528778076,-0.04535582661628723,-0.015017857775092125,0.0016953153535723686,-0.005020648241043091,-0.02428261935710907,-0.010617494583129883
212,-0.28001916734241034,-0.19480606722008717,-2.1220488756549556,-0.2711465060710907,0.19357627630233765,-0.9428721070289612,0.032887041568756104,-0.03106077015399933,-0.04258457571268082,-0.0343649685382843,0.008480608463287354,0.015519201755523682
213,-0.2861492963983461,-0.1936609135139608,-2.127544172029771,-0.27698370814323425,0.19245265424251556,-0.9414042830467224,-0.04886440560221672,-0.03400091826915741,-0.06941723823547363,0.04103705286979675,0.043204084038734436,-0.04161268472671509
214,-0.28684130977687256,-0.18968751127147077,-2.132672630775633,-0.2778492569923401,0.18855202198028564,-0.9419384002685547,0.031015917658805847,0.021491846069693565,0.022870853543281555,0.03288465738296509,-0.057494282722473145,0.04514884948730469
215,-0.2813240912924329,-0.1982894693435104,-2.12349677796864,-0.2721877992153168,0.19699260592460632,-0.9418639540672302,-0.12674584984779358,-0.02866615355014801,0.17704731225967407,-0.03639069199562073,-0.015931814908981323,-0.018600523471832275
216,-0.2922903100175402,-0.1992911590208392,-2.118976446536821,-0.28244292736053467,0.1979745626449585,-0.9386330842971802,0.13985425233840942,-0.0674995630979538,-0.0837981253862381,-0.01766696572303772,0.04358731210231781,-0.019939303398132324
217,-0.30170319226404047,-0.19418480855465897,-2.123295825481391,-0.29156211018562317,0.19296672940254211,-0.9368860125541687,-0.0026486245915293694,-0.11615043133497238,-0.03747802600264549,0.010052710771560669,-0.0011942684650421143,0.008327662944793701
218,-0.3040193997606165,-0.19219509524185802,-2.1216347001310805,-0.2938457131385803,0.19101403653621674,-0.9365726709365845,-0.04203454405069351,-0.05642405152320862,0.036531493067741394,-0.007744252681732178,-0.014134153723716736,0.004138588905334473
219,-0.3081875955461717,-0.19000507150243998,-2.1199322016748745,-0.2978731393814087,0.1888638734817505,-0.9357360601425171,0.08924904465675354,-0.04072890803217888,0.0185437873005867,0.002249389886856079,0.006021365523338318,-0.014596521854400635
220,-0.3134456477291664,-0.1892093146504815,-2.1158740272569867,-0.3028354048728943,0.18808238208293915,-0.9342995882034302,0.013173265382647514,0.04229085147380829,0.04935353994369507,0.004556596279144287,-0.003359481692314148,0.033863186836242676
221,-0.3105222579481598,-0.19243004370025638,-2.109262008713492,-0.2999161183834076,0.19124464690685272,-0.9345992803573608,-0.028616569936275482,-0.04749848693609238,0.0590127632021904,0.0025680959224700928,0.005212262272834778,-0.02565157413482666
222,-0.307998470640537,-0.1915109033338095,-2.101984265388254,-0.2976095974445343,0.19034239649772644,-0.935520350933075,-0.018709518015384674,-0.05152903497219086,0.06332166492938995,-0.01098412275314331,0.00466492772102356,-0.011546909809112549
223,-0.309959340945115,-0.1921139128805069,-2.0994623332365796,-0.2994084060192108,0.19093434512615204,-0.9348254799842834,0.03477772697806358,-0.004013371653854847,-0.020198404788970947,-0.006286174058914185,0.02104075253009796,-0.022556722164154053
224,-0.3141037867459756,-0.1897021035313729,-2.093724761067039,-0.3034215569496155,0.18856635689735413,-0.9340118169784546,0.026499416679143906,-0.03906290978193283,0.05756831914186478,0.011475175619125366,-0.013441234827041626,0.010565221309661865
225,-0.3090076321913041,-0.18693545000556394,-2.087870180814577,-0.2988152801990509,0.18584860861301422,-0.936039388179779,0.03606557846069336,0.036514271050691605,-0.004942873492836952,-0.0029883086681365967,0.032657235860824585,-0.012843668460845947
226,-0.30687209665310305,-0.18372358187250534,-2.0836793108263083,-0.2969944477081299,0.182691752910614,-0.9372395873069763,-0.02408590167760849,-0.021880455315113068,0.13782882690429688,-0.007769376039505005,-0.050337016582489014,0.005278527736663818
227,-0.31845813531961137,-0.18496990545292152,-2.0761974494839546,-0.30776160955429077,0.18391695618629456,-0.9335187673568726,0.15359145402908325,-0.14163555204868317,-0.04292891547083855,0.003882855176925659,0.03649623692035675,-0.052916109561920166
228,-0.3314075760134745,-0.17038496001690395,-2.0741147631459382,-0.3206627666950226,0.1695617437362671,-0.9318928122520447,0.04032198339700699,-0.16902856528759003,0.01606757938861847,0.03491145372390747,0.00739443302154541,0.04174083471298218
229,-0.33727880508615554,-0.1688109060290263,-2.0639006480238358,-0.3262164890766144,0.16801027953624725,-0.9302448034286499,0.08451306074857712,-0.06438097357749939,0.13983963429927826,0.01722601056098938,-0.009486719965934753,0.0365680456161499
230,-0.3362338836784681,-0.17242126561756896,-2.0497223585040882,-0.3250420391559601,0.17156821489334106,-0.9300064444541931,0.14311352372169495,-0.04580755531787872,0.17751936614513397,0.0036767125129699707,-0.01942284405231476,-0.06280660629272461
231,-0.3324236694170263,-0.15258464698801727,-2.0263493903100285,-0.3225434422492981,0.1519932597875595,-0.9342718124389648,0.2988136410713196,-0.060781996697187424,0.17453011870384216,-0.013012588024139404,3.0055642127990723e-05,-0.023369789123535156
232,-0.3453361104064169,-0.14543014913909552,-2.007276205167032,-0.33493950963020325,0.1449180543422699,-0.9310286045074463,0.0028696460649371147,-0.09686335176229477,0.142652690410614,-0.030340641736984253,0.014658361673355103,0.05914139747619629
233,-0.3440371232163505,-0.14988889384465934,-2.003965762593562,-0.33350858092308044,0.14932827651500702,-0.9308453798294067,-0.08410830795764923,0.1477365493774414,-0.024617306888103485,-0.026858240365982056,0.02068515121936798,0.04186832904815674
234,-0.3446002832220455,-0.16309638486842457,-2.0078122746016884,-0.33333733677864075,0.16237427294254303,-0.9287199974060059,-0.10140016674995422,-0.023576684296131134,0.008181345649063587,-0.024572789669036865,-0.00824524462223053,-0.02489328384399414
235,-0.3441434383523779,-0.16537518236470458,-2.0124989219858183,-0.33278733491897583,0.16462241113185883,-0.928521454334259,0.021854303777217865,-0.005157197825610638,-0.07073952257633209,-0.014548450708389282,-0.019190892577171326,-0.05760830640792847
236,-0.34886118294460533,-0.15110254179604504,-2.0214169966747475,-0.33793291449546814,0.1505282074213028,-0.9290546774864197,0.12487614899873734,0.015707405284047127,-0.20801907777786255,-0.025897622108459473,0.017120108008384705,0.013145864009857178
237,-0.34976460651765745,-0.14031178184298146,-2.0422384417820942,-0.3393090069293976,0.13985183835029602,-0.9302208423614502,-0.044280022382736206,0.06172656640410423,-0.26514729857444763,-0.014588087797164917,0.023890212178230286,0.01715022325515747
238,-0.34853271766681504,-0.14097823447357077,-2.0716134869203984,-0.338130921125412,0.14051170647144318,-0.9305503368377686,-0.12200912833213806,0.06181783601641655,-0.3062852621078491,0.015651673078536987,0.00800207257270813,-0.021170854568481445
239,-0.3416336238418976,-0.1363155307218637,-2.0978908476859397,-0.3319188356399536,0.13589376211166382,-0.9334681630134583,-0.036465056240558624,0.042245395481586456,-0.12044771015644073,0.050790935754776,-0.04064841568470001,-0.017810523509979248
240,-0.3394690908268233,-0.13719233137467216,-2.1016025602955617,-0.329857736825943,0.1367623656988144,-0.9340716600418091,-0.04007355868816376,0.03197825700044632,0.09007097035646439,0.04181760549545288,-0.02399994432926178,0.016942203044891357
241,-0.33443482980643524,-0.14977194103431418,-2.094916182833944,-0.32456082105636597,0.14921262860298157,-0.9340213537216187,-0.15585102140903473,0.037203773856163025,0.11995259672403336,-0.0014432072639465332,0.015414446592330933,0.008270621299743652
242,-0.33390604671837254,-0.16811107279661408,-2.0889908515062503,-0.32311561703681946,0.1673203557729721,-0.931450605392456,-0.14532975852489471,-0.036592282354831696,0.0881662517786026,-0.02530360221862793,0.006996050477027893,-0.042762041091918945
243,-0.3405665555168568,-0.16989090389280764,-2.086341466013154,-0.32921233773231506,0.16907481849193573,-0.928995668888092,0.03764188289642334,-0.09713613241910934,0.02709731087088585,9.551644325256348e-05,-0.01134471595287323,-0.01750701665878296
244,-0.3475449344808399,-0.17143414988587047,-2.082537581736994,-0.3355978727340698,0.17059564590454102,-0.926429271697998,-0.008978447876870632,-0.05764956772327423,0.045081716030836105,0.004711061716079712,0.023862361907958984,0.003669261932373047
245,-0.353879888919119,-0.17707192727537857,-2.0776086901991984,-0.34112128615379333,0.17614804208278656,-0.9233678579330444,-0.061879560351371765,-0.12643343210220337,0.09309642761945724,0.006724894046783447,-0.00100766122341156,-0.005282044410705566
246,-0.35965013815746005,-0.18308386293859089,-2.066067043272569,-0.34606465697288513,0.1820627599954605,-0.9203762412071228,-0.013404219411313534,-0.077336385846138,0.14503955841064453,-0.002720743417739868,-0.007502198219299316,-0.021686136722564697
247,-0.3632801596502475,-0.1821690784309938,-2.0533718952686937,-0.3494623899459839,0.18116319179534912,-0.9192692637443542,0.07239701598882675,-0.07849812507629395,0.08649657666683197,-0.012659162282943726,0.010822892189025879,0.002734839916229248
248,-0.3682603710293693,-0.18446695524472842,-2.0423144426308477,-0.3538854122161865,0.18342256546020508,-0.9171266555786133,-0.03161868453025818,-0.04461539164185524,0.10558279603719711,-0.015621453523635864,0.031222820281982422,0.0025300979614257812
249,-0.37339944089093113,-0.18264231105020348,-2.0362133109400773,-0.35871538519859314,0.18162856996059418,-0.9156060218811035,0.1354801058769226,-0.02884122170507908,0.01585632935166359,0.01113542914390564,0.0009733587503433228,0.020388126373291016
250,-0.3709772568379955,-0.19190695362559443,-2.0258906063523785,-0.3558712303638458,0.19073118269443512,-0.9148645997047424,-0.17378102242946625,0.009438179433345795,0.16430255770683289,-0.013482987880706787,-0.021923214197158813,0.018303990364074707
251,-0.36669042751971676,-0.19914910600778285,-2.020432383384304,-0.3514416515827179,0.19783532619476318,-0.9150682687759399,-0.01671043038368225,-0.01484186016023159,-0.0026211822405457497,-0.044081419706344604,0.017771363258361816,-0.05975472927093506
252,-0.373452272043684,-0.1927157574300471,-2.0226833729856697,-0.3580780327320099,0.19152508676052094,-0.9138370752334595,0.05891011282801628,-0.012417182326316833,-0.014964812435209751,-0.008422791957855225,0.013858228921890259,0.008563637733459473
253,-0.37537707920920965,-0.18751960786839467,-2.0252731651678704,-0.3601963520050049,0.18642255663871765,-0.9140597581863403,0.10346627235412598,0.1231943666934967,-0.04474668577313423,0.03231549263000488,-6.696581840515137e-05,0.04658234119415283
254,-0.3661742392271577,-0.19726045060852118,-2.0261185897914817,-0.35110241174697876,0.1959836483001709,-0.9155968427658081,-0.11235816776752472,0.10790302604436874,0.04875077307224274,-0.00477832555770874,-0.0060727596282958984,0.009453654289245605
255,-0.35957164497447575,-0.20187308408138016,-2.023230891903406,-0.3447277247905731,0.20050473511219025,-0.9170390963554382,0.0009619561024010181,-0.031270112842321396,-9.53911803662777e-05,-0.013960659503936768,0.004207193851470947,-0.04560738801956177
256,-0.35699168334197023,-0.19564192283981033,-2.021215644672029,-0.3427906036376953,0.1943962574005127,-0.9190781712532043,-0.03639695793390274,-0.011070562526583672,0.015986615791916847,0.0038166046142578125,-0.0017693042755126953,-0.0025832056999206543
257,-0.35409912090932266,-0.19512138133083426,-2.0239399078826947,-0.34016573429107666,0.19388560950756073,-0.9201606512069702,-0.0058308131992816925,0.03124934807419777,-0.05932481586933136,0.00642549991607666,0.022422954440116882,-0.00888592004776001
258,-0.35250084566825923,-0.20163591453979612,-2.0296211318866635,-0.33825135231018066,0.2002723664045334,-0.9194982051849365,-0.07465574145317078,0.0410086065530777,-0.032585930079221725,-0.011785238981246948,0.00538557767868042,-0.013958156108856201
259,-0.3534248194244451,-0.20086637467860471,-2.0367046963017135,-0.33915406465530396,0.1995183676481247,-0.9193296432495117,0.03842473030090332,-0.005750234238803387,-0.09539569169282913,0.0031097233295440674,0.005391910672187805,-0.03085041046142578
260,-0.35507759215088625,-0.19778070712888038,-2.045227841265008,-0.3408854603767395,0.19649378955364227,-0.9193406701087952,-0.06394069641828537,-0.040739916265010834,-0.07045489549636841,0.00484117865562439,-0.002310454845428467,-0.013154387474060059
261,-0.361318140243709,-0.19378766111757223,-2.059297098482982,-0.34689056873321533,0.1925770342350006,-0.9179221391677856,0.09820074588060379,-0.10594761371612549,-0.24738888442516327,-0.024752497673034668,0.03885301947593689,-0.14987266063690186
262,-0.3820275877232142,-0.15169686534733068,-2.0803073702947232,-0.36852142214775085,0.15111573040485382,-0.917254626750946,0.39658164978027344,-0.19532296061515808,-0.2999418079853058,-0.0048001110553741455,-0.006859123706817627,-0.027523815631866455
263,-0.41602990269650436,-0.1146522401482946,-2.099219992227845,-0.40147891640663147,0.11440122127532959,-0.9086952209472656,0.26000118255615234,-0.335940420627594,-0.31610485911369324,-0.011988461017608643,0.04833375662565231,-0.0450858473777771
264,-0.4535281319792717,-0.08220032158249967,-2.1255537736985946,-0.4366603195667267,0.0821077823638916,-0.8958716988563538,0.09401151537895203,-0.17619700729846954,-0.34948891401290894,-0.002319812774658203,-0.013107538223266602,0.07986217737197876
265,-0.4580040287753609,-0.03133257783422272,-2.1555728934935945,-0.4419417083263397,0.03132745251059532,-0.896496593952179,0.6709797978401184,-0.05446167290210724,-0.4054046869277954,0.08102548122406006,-0.00703546404838562,0.02662360668182373
266,-0.46589096225814497,0.012820706734463198,-2.162775481488554,-0.44918206334114075,-0.012820355594158173,-0.8933482766151428,-0.02131219021975994,0.13872772455215454,-0.08572293817996979,-0.026358067989349365,0.028781041502952576,-0.007179677486419678
267,-0.462140876412857,0.05129894240793936,-2.173562531454506,-0.4452788829803467,-0.051276445388793945,-0.8939225077629089,0.6734067797660828,0.0822320356965065,-0.2064829021692276,0.08594965934753418,-0.009453535079956055,0.029771506786346436
268,-0.45642462653661525,0.0610008666204735,-2.1495079627578173,-0.4399217665195465,-0.060963042080402374,-0.8959644436836243,-0.12059947848320007,-0.067435123026371,0.34433412551879883,0.10874506831169128,-0.041804905980825424,0.022124171257019043
269,-0.45485216694086544,0.03335120397069567,-2.105807078826945,-0.4390852153301239,-0.033345021307468414,-0.8978264331817627,-0.0324971042573452,0.24596016108989716,0.5322129726409912,-0.00047475099563598633,-0.0032303035259246826,0.038024187088012695
270,-0.43740574510628594,0.026407747602178188,-2.078244386863927,-0.4234431982040405,-0.02640467882156372,-0.9055377840995789,-0.037224180996418,-0.05118902027606964,0.041207753121852875,-0.014758706092834473,0.01262599229812622,0.021382510662078857
271,-0.4349798317001398,-0.000581608419836859,-2.088569921508972,-0.4213920533657074,0.0005816083867102861,-0.9068784117698669,-0.3195687234401703,0.0990055650472641,-0.23417752981185913,-0.08831256628036499,0.05709661543369293,0.03599828481674194
272,-0.4054743168818657,-0.023681854909916717,-2.1421826477815795,-0.3943440616130829,0.023679642006754875,-0.9186577200889587,-0.5498380661010742,0.23479504883289337,-0.6130149960517883,0.029323279857635498,0.10919389128684998,-0.05483776330947876
273,-0.3834596926834826,-0.05889303912470999,-2.215663992787265,-0.37348252534866333,0.058859001845121384,-0.9257680177688599,-0.6673287749290466,0.21327053010463715,-0.5100142359733582,0.06330186128616333,0.04920373857021332,0.020723462104797363
274,-0.3765729005394962,-0.09186718059494235,-2.2915009605162147,-0.3661850094795227,0.0917380154132843,-0.9260089993476868,-0.38674405217170715,0.15240411460399628,-0.4709867537021637,0.04246976971626282,-0.021990083158016205,-0.031052768230438232
275,-0.37505934560180654,-0.08812966313840728,-2.328479967269992,-0.36490607261657715,0.08801562339067459,-0.9268747568130493,0.008246037177741528,-0.013446091674268246,-0.09885876625776291,0.0060346126556396484,-0.0704527497291565,-0.020879149436950684
276,-0.3769723792198235,-0.09708066808250791,-2.336429636533919,-0.36637383699417114,0.09692824631929398,-0.9254053831100464,-0.2839242219924927,0.0020094644278287888,0.02536734938621521,-0.05632513761520386,-0.053257592022418976,0.027410387992858887
277,-0.39232986164186734,-0.11280715555244744,-2.3492293816013308,-0.3799121379852295,0.11256805062294006,-0.9181476831436157,-0.307670533657074,-0.17450733482837677,-0.11299801617860794,-0.04957696795463562,-0.02165619283914566,0.073039710521698
278,-0.3852994602966719,-0.15321183995749976,-2.359877875256177,-0.37143412232398987,0.15261313319206238,-0.9158307313919067,-0.5386641025543213,0.1416740119457245,0.11086298525333405,-0.10470113158226013,0.012288600206375122,-0.0021380186080932617
279,-0.3614585137575282,-0.23353023669531361,-2.3581240755204433,-0.34403952956199646,0.2314133644104004,-0.9099915623664856,-0.6063565015792847,0.10250288993120193,0.21938735246658325,-0.03439369797706604,0.07354879379272461,-0.0993468165397644
280,-0.3760059812571949,-0.2504748369339075,-2.367471046275545,-0.35574960708618164,0.2478640079498291,-0.9011135697364807,-0.10011283308267593,0.11671615391969681,0.14490118622779846,0.0038056373596191406,-0.0683901309967041,-0.020318925380706787
281,-0.35103650256464697,-0.2295407505229591,-2.3540289080586256,-0.3348518908023834,0.2275303453207016,-0.9143873453140259,0.3185209035873413,0.40945547819137573,0.025413503870368004,0.08472979068756104,0.001641392707824707,-0.07099473476409912
282,-0.30006910205886045,-0.1711769174361029,-2.31508615922079,-0.29126620292663574,0.17034217715263367,-0.9413540959358215,1.058919906616211,0.6623954176902771,0.4001983404159546,0.02532079815864563,-0.09586402773857117,-0.09056729078292847
283,-0.26344909896707763,-0.11310053111152235,-2.2572476225350804,-0.2587484121322632,0.1128595620393753,-0.9593288898468018,0.6884819269180298,0.43477174639701843,0.4444041848182678,-0.06319674849510193,-0.0715692862868309,-0.13046902418136597
284,-0.23838094213220923,-0.02259568042807804,-2.1802538703367844,-0.23606938123703003,0.022593757137656212,-0.9714735150337219,1.2458081245422363,-0.04911516234278679,0.2767692506313324,-0.02944880723953247,-0.12914589047431946,-0.20929735898971558
285,-0.20732550217635748,0.06619399967655162,-2.1190830123505964,-0.20539261400699615,-0.06614567339420319,-0.9764418005943298,0.6778269410133362,-0.10790322721004486,0.6875949501991272,0.06731586158275604,-0.22415278851985931,-0.3081498146057129
286,-0.22183891595643843,0.20664279910890132,-1.9614705347784338,-0.21534289419651031,-0.2051752805709839,-0.9547410607337952,2.4659101963043213,0.6467083692550659,1.7089589834213257,0.0365404337644577,-0.17896471917629242,0.16393911838531494
287,-0.2021915416391219,0.2652394856941538,-1.8218732931446253,-0.1937941014766693,-0.2621403932571411,-0.9453709721565247,-0.04245956987142563,0.029213346540927887,0.6274828910827637,0.01663956046104431,0.11777698993682861,-0.0012690424919128418
288,-0.2093157368393108,0.2773548929535451,-1.7285353381785542,-0.19984950125217438,-0.27381259202957153,-0.9407905340194702,0.4287126660346985,1.0106834173202515,1.0379512310028076,0.03127039968967438,0.25017672777175903,0.2939704656600952
289,-0.12526628954276534,0.27105216941060983,-1.7098089312297762,-0.12037738412618637,-0.26774534583091736,-0.9559402465820312,-0.8228133916854858,0.6419083476066589,0.14495064318180084,0.16438373923301697,0.40026792883872986,0.10961151123046875
290,-0.06424781486773042,0.26381259446644695,-1.7316863272067442,-0.06198235973715782,-0.26076313853263855,-0.9634110331535339,0.2036406546831131,-0.0956384465098381,-0.7168084979057312,0.004822932183742523,0.11014363169670105,-0.07617026567459106
291,-0.024725362822910716,0.2786662651220645,-1.760062637407434,-0.023769114166498184,-0.2750736176967621,-0.9611293077468872,0.27994659543037415,0.4967748820781708,-0.05460992455482483,0.00036212801933288574,0.028216928243637085,-0.05023849010467529
292,0.012076367153902604,0.30250816593729174,-1.767018834584106,0.01152772642672062,-0.29791542887687683,-0.9545226693153381,0.2322860211133957,0.14747294783592224,-0.22369129955768585,0.08139830827713013,0.16275307536125183,-0.032034337520599365
293,-0.016990637446207973,0.3128626511003788,-1.7981726016881978,-0.016165072098374367,-0.3077835738658905,-0.9513190388679504,0.29763102531433105,-0.07041160762310028,-0.1436402052640915,0.09543448686599731,0.1869339942932129,0.14243543148040771
294,-0.047429971856687056,0.3703230011856635,-1.800018994143183,-0.04419814050197601,-0.36191654205322266,-0.9311621189117432,0.4787629246711731,-0.8806109428405762,-0.4970038831233978,0.193642720580101,0.5871820449829102,0.25942450761795044
295,-0.10907562910585869,0.40558606802473834,-1.922334250102018,-0.10002784430980682,-0.3945573568344116,-0.9134106040000916,-0.3298768699169159,-1.454696536064148,-2.1043903827667236,0.15003089606761932,0.3438676595687866,0.32042354345321655
296,-0.14309158344143705,0.28725515179799416,-2.131380597788762,-0.13676060736179352,-0.28332090377807617,-0.9492237567901611,-1.8993257284164429,-0.7079516053199768,-1.7312932014465332,0.1678580343723297,-0.08543819189071655,-0.06522625684738159
297,-0.16962996180792994,0.0011706842819643318,-2.267756657123641,-0.16881752014160156,-0.0011706840014085174,-0.9856466054916382,-3.023261785507202,-0.474191278219223,0.050074052065610886,0.11921119689941406,-0.20836301147937775,-0.5049996972084045
298,-0.2008030034803624,-0.23997540989015753,-2.2904895275052852,-0.1937406063079834,0.23767873644828796,-0.9518263339996338,-1.872327446937561,0.051114581525325775,0.4508669674396515,-0.0860292911529541,-0.29975149035453796,-0.3782517910003662
299,-0.1573698259980604,-0.3479366804100476,-2.2414419943507573,-0.14733007550239563,0.3409588634967804,-0.9284615516662598,0.045540701597929,0.30970752239227295,0.28722476959228516,-0.13379783928394318,-0.0656597912311554,-0.36081451177597046
300,-0.16504027993082956,-0.3070584275767825,-2.2341904015692147,-0.15660759806632996,0.3022559583187103,-0.9402741193771362,0.45395317673683167,-0.4590722620487213,-0.02521505393087864,-0.10695746541023254,-0.028375953435897827,-0.15317070484161377
301,-0.22493096674108243,-0.24665426715934965,-2.252450398282199,-0.2162887305021286,0.24416086077690125,-0.945306658744812,0.7340690493583679,-0.5155215859413147,-0.36519575119018555,-0.023777782917022705,-0.012120455503463745,0.03020656108856201
302,-0.2606180533849855,-0.1882163124993024,-2.23635206784672,-0.2531270682811737,0.18710701167583466,-0.9491668343544006,0.06153379753232002,-0.5952860116958618,0.17628341913223267,0.042433738708496094,0.06969842314720154,0.004495203495025635
303,-0.30168773304257684,-0.19993545847250024,-2.2452918788664964,-0.29121309518814087,0.19860607385635376,-0.9358154535293579,0.17862242460250854,-0.12435859441757202,-0.00961389672011137,0.11582857370376587,-0.013486459851264954,0.049142539501190186
304,-0.28056192604883873,-0.20043365389563034,-2.228684099810807,-0.27135229110717773,0.19909432530403137,-0.9416630864143372,-0.024453505873680115,0.07815849035978317,0.08374369144439697,0.12851476669311523,0.04669424891471863,-0.05331677198410034
305,-0.22767479109752667,-0.16119300068699607,-2.1986208467351007,-0.22278690338134766,0.16049586236476898,-0.9615648984909058,1.0695754289627075,1.1795203685760498,0.11396923661231995,0.02422429621219635,-0.006275281310081482,0.06852906942367554
306,-0.14133202092156918,-0.0840008566514039,-2.1572239642652904,-0.14036530256271362,0.08390210568904877,-0.9865384101867676,0.41238492727279663,0.33285677433013916,0.341325581073761,0.03678864240646362,0.010977044701576233,-0.05870389938354492
307,-0.09048576407495781,-0.04184326320748044,-2.140841999623738,-0.09028324484825134,0.04183105379343033,-0.9950372576713562,0.7708211541175842,0.6430343985557556,0.12486473470926285,0.006832927465438843,0.02225586026906967,-0.009509861469268799
308,-0.07885444731764364,-0.058366428329840986,-2.1299285182420764,-0.07863861322402954,0.058333296328783035,-0.9951950311660767,-0.801371693611145,-0.4600622355937958,0.07535407692193985,0.002985551953315735,0.015427689999341965,-0.035139381885528564
309,-0.1053902551588468,-0.11540415751652057,-2.1289148047554067,-0.10449554026126862,0.115148164331913,-0.9878368377685547,-0.17167766392230988,0.08264513313770294,-0.013110984116792679,-0.06925628334283829,0.04535903036594391,0.05940055847167969
310,-0.07802721606076293,-0.10738901164172425,-2.1427170039776002,-0.07749903202056885,0.10718271881341934,-0.9912142753601074,0.04243876785039902,0.2680796980857849,-0.29062363505363464,0.026656746864318848,0.05559803545475006,-0.008968830108642578
311,-0.08186420824646373,-0.11288496558150611,-2.1693072880668054,-0.0812523365020752,0.11264537274837494,-0.9903075695037842,-0.19230522215366364,-0.12928315997123718,-0.20884273946285248,0.054061174392700195,0.015391126275062561,0.0001800060272216797
312,-0.082909196631232,-0.12798224271643252,-2.186957256150377,-0.08213694393634796,0.12763315439224243,-0.9884145259857178,-0.16924375295639038,0.027004152536392212,0.009365002624690533,0.01963694393634796,-0.02398020029067993,-0.05255532264709473
313,-0.08158899857739232,-0.13580904491815438,-2.1876214153968494,-0.08074808120727539,0.1353919506072998,-0.9874961972236633,0.014689333736896515,0.001833127811551094,0.05231691524386406,0.04311990737915039,0.011824846267700195,-0.07663649320602417
314,-0.08863182713594424,-0.12215785690952242,-2.1888683212739686,-0.08785621076822281,0.121854268014431,-0.9886520504951477,0.19005650281906128,-0.05391328036785126,0.004761553835123777,0.019924074411392212,9.398162364959717e-05,0.055393993854522705
315,-0.08616478943754599,-0.1149647273242627,-2.1853356307781198,-0.08549012243747711,0.11471164971590042,-0.9897134304046631,-0.060010433197021484,-0.055404894053936005,0.0454476997256279,0.008936777710914612,0.003940701484680176,0.014447927474975586
316,-0.08554454147888228,-0.12435175144288317,-2.1816427569070966,-0.0847804993391037,0.12403151392936707,-0.9886497855186462,-0.09686238318681717,0.06853214651346207,0.0896034687757492,-0.021283335983753204,0.014228366315364838,0.039980411529541016
317,-0.07522403496515336,-0.13879824260127305,-2.172495662259535,-0.07443036139011383,0.13835301995277405,-0.9875822067260742,-0.20942628383636475,0.04931613802909851,0.062394287437200546,0.02108563482761383,0.025938361883163452,-0.07172870635986328
318,-0.06391529507759466,-0.15239431262665593,-2.1749891510746275,-0.06313154101371765,0.15180513262748718,-0.9863921999931335,0.04182169586420059,0.21181675791740417,-0.12972858548164368,-0.04694536328315735,0.011051923036575317,0.009219348430633545
319,-0.03019766485573449,-0.14166976828510766,-2.1930478136360283,-0.02989058941602707,0.1411963552236557,-0.9895302653312683,0.13433478772640228,0.08330369740724564,-0.35049620270729065,-0.08461135625839233,0.0680321604013443,-0.1555503010749817
320,-0.060754270019010966,-0.11610439757596504,-2.233959574868693,-0.060308121144771576,0.11584372073411942,-0.9914348721504211,0.3043701946735382,-0.39405328035354614,-0.3705463111400604,-0.061655376106500626,0.033936552703380585,0.020655512809753418
321,-0.09993313559385468,-0.07781124007698619,-2.28823617272253,-0.099465012550354,0.07773274183273315,-0.992000162601471,0.177956685423851,-0.30515018105506897,-0.6544481515884399,0.008156418800354004,0.051814377307891846,0.07888370752334595
322,-0.11519793631955565,-0.05520675377978509,-2.358969814630261,-0.11476819962263107,0.05517871677875519,-0.9918586611747742,0.0733412653207779,0.165817990899086,-0.6383842825889587,-0.029976673424243927,-0.012164190411567688,0.04852980375289917
323,-0.11733967157560729,-0.04575602117400244,-2.4209074748468953,-0.11694806069135666,0.04574005678296089,-0.9920841455459595,0.18076109886169434,-0.1106080636382103,-0.6174126267433167,0.022221505641937256,0.02132231742143631,-0.09984999895095825
324,-0.12865055616634255,-0.006979666150011176,-2.480465965837628,-0.12829284369945526,0.006979609373956919,-0.9917117953300476,0.2589253783226013,-0.07808507233858109,-0.5940362811088562,0.04777221381664276,-0.01851525530219078,0.03362768888473511
325,-0.13050569568906575,0.018418746498576055,-2.526237740812118,-0.13011348247528076,-0.018417704850435257,-0.9913280606269836,0.17032113671302795,0.07148405909538269,-0.44340237975120544,0.010774493217468262,-0.023910176008939743,0.03635674715042114
326,-0.12975521103770074,0.03280041508023379,-2.5658576348653326,-0.12932181358337402,-0.0327945351600647,-0.9910602569580078,0.03845863789319992,-0.05274514853954315,-0.4462200105190277,0.028278112411499023,0.0511355958878994,0.008867263793945312
327,-0.13727111126157526,0.03178048202093768,-2.6081978206140564,-0.1367713063955307,-0.031775131821632385,-0.9900928735733032,-0.10563026368618011,-0.0982585921883583,-0.39432162046432495,0.043677449226379395,0.020590446889400482,0.015651404857635498
328,-0.1496696098634912,0.028739094901330642,-2.657652043645756,-0.14904986321926117,-0.028735138475894928,-0.988412082195282,-0.25229817628860474,-0.19776304066181183,-0.4911816716194153,0.04536640644073486,0.03750894218683243,0.007653415203094482
329,-0.1650667450578524,0.019222874620971348,-2.7184013463441223,-0.16428780555725098,-0.01922169141471386,-0.9862251281738281,-0.11769158393144608,-0.10906948149204254,-0.712418258190155,0.01650644838809967,0.03164234757423401,-0.0099753737449646
330,-0.17804531379725788,0.02366518610971853,-2.786384219510174,-0.17705653607845306,-0.023662976920604706,-0.983916163444519,-0.08591357618570328,-0.2748730778694153,-0.5102565288543701,0.022164583206176758,0.003994399681687355,-0.01741129159927368
331,-0.2195091124967787,0.016495793752320013,-2.8414491630171725,-0.2177209109067917,-0.01649504527449608,-0.9758716821670532,-0.1439691036939621,-0.4084521532058716,-0.5102646350860596,-0.030341222882270813,-0.012405101209878922,0.07180368900299072
332,-0.2688774155961251,0.005517126486271718,-2.888487295459265,-0.2656453251838684,-0.0055170985870063305,-0.964055061340332,-0.3494420349597931,-0.6634297966957092,-0.4501793682575226,-0.04686993360519409,-0.002737905830144882,0.01784229278564453
333,-0.3195204984575489,-0.030207396180642523,-2.9402665076793584,-0.31396806240081787,0.030202802270650864,-0.9489530324935913,-0.5523645281791687,-0.18738406896591187,-0.35584497451782227,-0.12998640537261963,-0.035314492881298065,0.03225076198577881
334,-0.32991937099886526,-0.0488629018188723,-3.0035077213392425,-0.3235800862312317,0.04884345829486847,-0.9449393153190613,-0.12736809253692627,-0.14249873161315918,-0.7540296316146851,-0.0460488498210907,0.03352348506450653,-0.11011439561843872
335,-0.35098238035335116,-0.04189420844564507,-3.075696245975203,-0.34351879358291626,0.04188195616006851,-0.9382114410400391,-0.2067687213420868,-0.2716595232486725,-0.7153185606002808,-0.05131760239601135,-0.01900903508067131,-0.025884568691253662
336,-0.38025942710331606,-0.034144323637169224,3.1354775080593056,-0.3709450364112854,0.03413768857717514,-0.9280271530151367,-0.18752697110176086,-0.3284744918346405,-0.6696537733078003,-0.0372123122215271,-0.01095958799123764,-0.02070331573486328
337,-0.41159894637355243,-0.01936079163795784,3.06987030010684,-0.40000027418136597,0.019359583035111427,-0.9163105487823486,-0.0735485851764679,-0.19085001945495605,-0.5840058326721191,-0.007546752691268921,-0.005260460078716278,0.03220105171203613
338,-0.42923747018605246,-0.0075760288770984055,3.024568055355022,-0.41616562008857727,0.0075759561732411385,-0.9092572331428528,-0.07223494350910187,-0.19671332836151123,-0.37093374133110046,0.04916122555732727,0.011924775317311287,0.004289031028747559
339,-0.4273503235197935,-0.0032454263686605067,2.9938286005187074,-0.414458692073822,0.003245420753955841,-0.910062313079834,-0.09959923475980759,0.16951502859592438,-0.23944082856178284,0.01051279902458191,0.005955630913376808,0.04920727014541626
340,-0.40928843373532026,-0.0088387550171483,2.973618916783417,-0.39794108271598816,0.008838639594614506,-0.9173684120178223,-0.11198581010103226,0.18940182030200958,-0.0746026411652565,-0.021507740020751953,0.01925279200077057,0.031885623931884766
341,-0.39018092322975556,-0.02090405144181357,2.9713124789035343,-0.38027262687683105,0.02090252935886383,-0.9246382117271423,-0.12581850588321686,0.2755981981754303,0.1595924198627472,-0.015662401914596558,0.007661923766136169,0.06373733282089233
342,-0.3572015107248901,-0.03776406273580362,2.9895207360324343,-0.3494044542312622,0.037755087018013,-0.9362109899520874,-0.0683428943157196,0.45915719866752625,0.31638824939727783,-0.041891902685165405,0.017832674086093903,0.005424916744232178
343,-0.31042818145579226,-0.053721183739933454,3.031845759611915,-0.30502569675445557,0.05369534716010094,-0.9508292078971863,0.1237865462899208,0.34434035420417786,0.3677261173725128,-0.04644519090652466,0.019852016121149063,-0.02774745225906372
344,-0.2716869550193141,-0.05727099300858217,3.081838195297476,-0.2679169178009033,0.05723968893289566,-0.9617401957511902,-0.026372388005256653,0.28253841400146484,0.5021032094955444,-0.00439143180847168,0.02950652688741684,-0.056265175342559814
345,-0.23681549769123897,-0.04865773378288321,3.1172384171999,-0.23433053493499756,0.048638537526130676,-0.9709395170211792,0.46169519424438477,0.44870972633361816,0.2961459159851074,0.030351027846336365,-0.019356921315193176,-0.0148698091506958
346,-0.21066391861198236,-0.03416061372581856,-3.127024122002037,-0.20898719131946564,0.03415397182106972,-0.9773218035697937,0.07335816323757172,0.1498580276966095,0.3235726058483124,0.10042090713977814,-0.03864005208015442,-0.0382574200630188
347,-0.1882145692846328,-0.012931934185172729,-3.084832850703569,-0.18708965182304382,0.012931574136018753,-0.9822577238082886,0.3766675591468811,0.22291025519371033,0.24183590710163116,0.10354778170585632,-0.025123346596956253,-0.045086026191711426
348,-0.17313883145511474,0.004449532156435777,-3.047958500356782,-0.17227338254451752,-0.0044495174661278725,-0.9850391149520874,0.36548638343811035,-0.0457453615963459,0.24026647210121155,0.06508040428161621,-0.0009826109744608402,-0.11806446313858032
349,-0.18828938839625017,0.043574601307145445,-3.018390433396566,-0.18700112402439117,-0.04356081411242485,-0.9813933968544006,0.24960574507713318,-0.32524755597114563,0.15702639520168304,-0.028819188475608826,-0.0011779554188251495,0.04308474063873291
350,-0.21861154349518072,0.061412252894691474,-3.0100773319529064,-0.21646557748317719,-0.06137365847826004,-0.9743592143058777,0.19097082316875458,-0.18285587430000305,-0.03859551623463631,-0.015223860740661621,0.0006284229457378387,0.06310439109802246
351,-0.24394920602249118,0.05888249242738213,-3.011333734769232,-0.2411181777715683,-0.05884847417473793,-0.9687098860740662,-0.06813901662826538,-0.26195234060287476,-0.00958266295492649,0.004927396774291992,-0.013569734990596771,-0.0033969879150390625
352,-0.265598383785621,0.06682690463697273,-3.009469532885753,-0.26190081238746643,-0.06677717715501785,-0.9627817869186401,-0.03626895323395729,-0.19031348824501038,0.07213155925273895,0.03123372793197632,-0.030940108001232147,0.012586474418640137
353,-0.28388044245209737,0.06654693887586327,-3.0062692306402035,-0.27946293354034424,-0.06649783253669739,-0.957850992679596,0.15095879137516022,-0.1023775115609169,-0.09426123648881912,0.005216717720031738,0.04626467823982239,-0.010151326656341553
354,-0.28947507278965223,0.07063205722887254,-3.0077947991695573,-0.2847374379634857,-0.0705733448266983,-0.9560042023658752,-0.09885130077600479,-0.08919960260391235,-0.005188331939280033,-0.00556105375289917,-0.009153828024864197,0.004466116428375244
355,-0.2965521496012373,0.060563392761772306,-3.006471736727772,-0.29168882966041565,-0.060526374727487564,-0.9545963406562805,0.0015700627118349075,-0.06611815840005875,-0.009844314306974411,0.03915590047836304,-0.014104358851909637,-0.0016567111015319824
356,-0.3001300675620945,0.05707824195715967,-2.9974100483444968,-0.29516300559043884,-0.05704725533723831,-0.9537423253059387,-0.04910087212920189,-0.1095508262515068,0.20145979523658752,0.017010539770126343,-0.05006944760680199,-0.02990025281906128
357,-0.31525329272910496,0.06696270772464524,-2.9676511807082395,-0.30936241149902344,-0.06691267341375351,-0.94858717918396,0.15969358384609222,-0.16653499007225037,0.3265795111656189,0.03954124450683594,-0.01795671135187149,0.014764547348022461
358,-0.32539494470212643,0.06444201107314555,-2.9303665249461295,-0.31901946663856506,-0.0643974170088768,-0.9455577731132507,0.13561603426933289,0.10578029602766037,0.2904919385910034,-0.005153477191925049,0.011876679956912994,0.03886532783508301
359,-0.3204846444562783,0.06457114310794429,-2.893676769851959,-0.3143700659275055,-0.0645262822508812,-0.9471049904823303,0.10099903494119644,0.059047069400548935,0.3170355260372162,0.023812174797058105,-0.005420006811618805,0.009040415287017822
360,-0.2847455435029232,0.07551148221382141,-2.8530346474140895,-0.28011274337768555,-0.07543974369764328,-0.9569982886314392,0.24431031942367554,0.7157562375068665,0.22013187408447266,0.05359601974487305,0.001602455973625183,0.07401794195175171
361,-0.17558259532556122,0.10739397305031823,-2.8443414415951085,-0.17367543280124664,-0.1071876510977745,-0.9789523482322693,0.3010924756526947,1.2464263439178467,-0.18862390518188477,0.08323659002780914,0.1171058714389801,0.010522782802581787
362,-0.05636738578911657,0.1003358377015866,-2.863644350070985,-0.05605419725179672,-0.10016757249832153,-0.9933903217315674,-0.4802423417568207,0.8838792443275452,-0.1658371388912201,-0.08179369568824768,0.11582309752702713,-0.06798046827316284
363,-0.02234582784182213,0.026211441619987962,-2.831213103419111,-0.022336293011903763,-0.026208439841866493,-0.9994069337844849,-1.1820435523986816,-0.16947409510612488,1.062629222869873,-0.10936231911182404,-0.10838934034109116,-0.08570659160614014
364,-0.07288649889007533,-0.06264797052910216,-2.6982941288819235,-0.07267912477254868,0.06260699778795242,-0.9953884482383728,-0.3104354739189148,-1.0329052209854126,1.452411413192749,-0.11402742564678192,-0.08731097728013992,-0.0458407998085022
365,-0.18607347159957285,-0.14455745621613916,-2.5248713884176976,-0.18307197093963623,0.14405451714992523,-0.9724880456924438,-1.2346981763839722,-1.2451590299606323,1.962065577507019,-0.12507927417755127,-0.03286372125148773,0.020949959754943848
366,-0.24611818788334322,-0.23623435800968268,-2.473172119525863,-0.23687413334846497,0.23404324054718018,-0.9429286122322083,0.16858536005020142,0.12301072478294373,-0.41846445202827454,0.15702489018440247,0.10811984539031982,-0.18622177839279175
367,-0.23242274053042342,-0.15986056484592187,-2.5033501429096208,-0.22739890217781067,0.15918055176734924,-0.9607035517692566,0.26993560791015625,-0.03337450325489044,0.0005577204283326864,-0.01857277750968933,-0.07798853516578674,0.04722088575363159
368,-0.2681937105796719,-0.17256704686126959,-2.492607930710189,-0.26105430722236633,0.17171183228492737,-0.9499292969703674,-0.06366606056690216,-0.36163467168807983,-0.10197851061820984,-0.013558119535446167,0.003672689199447632,0.05529123544692993
369,-0.26612220859680435,-0.14275289724692,-2.4977680527149353,-0.26031699776649475,0.14226853847503662,-0.9549841284751892,0.3791624903678894,0.26605045795440674,-0.12439345568418503,-0.014921039342880249,0.03400099277496338,0.05158752202987671
370,-0.2527848255020114,-0.12627332701333593,-2.513638478065074,-0.24810996651649475,0.1259380280971527,-0.9605108499526978,0.022867590188980103,-0.06831680238246918,-0.3368130922317505,-0.05029091238975525,0.09853401780128479,-0.004226088523864746
371,-0.2762915639727011,-0.10767037630064889,-2.570471581228123,-0.27121004462242126,0.10746245831251144,-0.9565024375915527,0.04402420297265053,-0.1321864128112793,-0.598773717880249,-0.011001259088516235,0.020009465515613556,0.005849361419677734
372,-0.3020324612514569,-0.0892325340198831,-2.631483594800915,-0.296277791261673,0.08911415934562683,-0.950935423374176,0.008417204022407532,-0.2345108985900879,-0.5811335444450378,0.001828998327255249,-0.020007118582725525,-0.012748658657073975
373,-0.33006006726143616,-0.08381558543276288,-2.6792280985684362,-0.32296210527420044,0.08371748775243759,-0.9427018761634827,-0.07343977689743042,-0.19418853521347046,-0.2960176467895508,0.00852423906326294,-0.04433455318212509,-0.003327786922454834
374,-0.3428970050201701,-0.07510749872482134,-2.700071199189267,-0.3352689743041992,0.0750369057059288,-0.9391294717788696,-0.1471339464187622,-0.013778836466372013,-0.14223992824554443,0.02069377899169922,-0.004770174622535706,0.06860029697418213
375,-0.34025279915309575,-0.09452477913498827,-2.7152043221423954,-0.3322356045246124,0.0943840816617012,-0.9384621381759644,-0.14749638736248016,0.04004223272204399,-0.032343942672014236,0.016592293977737427,-0.017022021114826202,-0.033751606941223145
376,-0.33589495511106193,-0.0957054657683378,-2.7132087646160596,-0.3281058371067047,0.09555943310260773,-0.939795196056366,-0.011464079841971397,-0.0768495574593544,0.09653472155332565,-0.018421262502670288,-0.00225193053483963,-0.025567352771759033
377,-0.34051972138453507,-0.0984711104569107,-2.709230240430902,-0.33235910534858704,0.09831205010414124,-0.9380150437355042,-0.0010565966367721558,-0.03604445606470108,0.029272209852933884,0.009071141481399536,0.029999107122421265,0.0028343796730041504
378,-0.3454102394442091,-0.10072524953764278,-2.7069801501011863,-0.3368666172027588,0.10055501759052277,-0.9361674785614014,0.023790758103132248,0.0019899969920516014,0.059797272086143494,0.02699112892150879,-0.022109590470790863,0.006861507892608643
379,-0.33541532957373893,-0.09588349984276605,-2.695441741793238,-0.32764944434165955,0.09573664516210556,-0.9399363398551941,0.008807963691651821,0.1931973546743393,0.19850172102451324,-0.024782806634902954,-0.02220454066991806,0.04981487989425659
380,-0.3206264506150382,-0.10770751371892016,-2.684910045919377,-0.3133348226547241,0.1074993833899498,-0.9435386657714844,-0.16915346682071686,0.1556677222251892,0.08229520916938782,-0.02457106113433838,0.0634448230266571,0.028041839599609375
381,-0.29958949478121094,-0.12656791660053038,-2.6764106693235714,-0.2927672863006592,0.12623026967048645,-0.9478150010108948,-0.04030986502766609,0.21441727876663208,0.04494375362992287,0.00408625602722168,0.03880879282951355,-0.015609681606292725
382,-0.2825154953529136,-0.12353183005199507,-2.6691412803742995,-0.2766479551792145,0.12321788817644119,-0.9530389904975891,0.10369522124528885,0.07522407174110413,0.11973736435174942,-0.013986170291900635,-0.05238659679889679,-0.04532831907272339
383,-0.2782555188716951,-0.11400895001712595,-2.642925556115034,-0.272895485162735,0.11376212537288666,-0.9552937746047974,0.1893559992313385,-0.07865770161151886,0.23065756261348724,-0.019813865423202515,0.015846021473407745,-0.03462010622024536
384,-0.2879970612566164,-0.10036764577535451,-2.6232136962296537,-0.2826029360294342,0.10019922256469727,-0.9539893865585327,0.06012094393372536,-0.069350466132164,0.05908452719449997,-0.043156951665878296,0.04163122922182083,0.07039868831634521
385,-0.29329636484092075,-0.10574662000747939,-2.6171420380516244,-0.287494421005249,0.1055496484041214,-0.9519486427307129,-0.06726296246051788,-0.00048684002831578255,0.08019428700208664,-0.012630671262741089,0.023478664457798004,0.032393038272857666
386,-0.29577280893617974,-0.1166256889890468,-2.616395507517448,-0.2894991636276245,0.11636148393154144,-0.950079083442688,-0.0821976512670517,0.0400887094438076,0.06993025541305542,0.01702296733856201,-0.012708529829978943,0.011678814888000488
387,-0.2715773998986474,-0.12431664228615201,-2.613806178667132,-0.26618117094039917,0.12399667501449585,-0.9559144377708435,-0.1768936663866043,0.4002256393432617,0.11245916783809662,-0.05497056245803833,-0.01248544454574585,-0.006060659885406494
388,-0.25212968870936925,-0.12966086805499796,-2.6156076107779938,-0.2473728060722351,0.1292978674173355,-0.9602545499801636,0.10821731388568878,0.04719703644514084,-0.0964105874300003,-0.019701778888702393,0.04530845582485199,-0.058712124824523926
389,-0.2599028607773951,-0.10609158556708412,-2.628354740683994,-0.25554177165031433,0.10589268058538437,-0.9609813690185547,0.23464727401733398,-0.1497662365436554,-0.20535945892333984,0.02588176727294922,-0.009502910077571869,-0.020875930786132812
390,-0.27979359358701983,-0.08095668619795235,-2.6286418181825213,-0.2752528190612793,0.08086828142404556,-0.9579645991325378,0.3631460666656494,-0.19792360067367554,0.08003713190555573,0.027617931365966797,0.01262231171131134,-0.03191876411437988
391,-0.30360375967133124,-0.04971128570218555,-2.6146886500815443,-0.2985917627811432,0.049690812826156616,-0.9530864357948303,0.1498630791902542,-0.2237328290939331,0.16913318634033203,0.02820602059364319,-0.026421159505844116,0.06005054712295532
392,-0.30714207671510896,-0.059844330568084136,-2.582621119239369,-0.30179446935653687,0.05980861559510231,-0.9514951705932617,0.028962384909391403,0.06452766060829163,0.33604419231414795,0.0012878775596618652,0.00960361585021019,0.02025127410888672
393,-0.29467876187452813,-0.06389967050668686,-2.5502855233044714,-0.2898397445678711,0.06385619193315506,-0.9549425840377808,0.04258466884493828,0.2209027260541916,0.23505491018295288,-0.032761573791503906,0.03891174495220184,0.06016719341278076
394,-0.2717154434280789,-0.07351569444124446,-2.532266194009056,-0.26765942573547363,0.07344949245452881,-0.9607099294662476,-0.06381450593471527,0.1000618040561676,0.10445655882358551,-0.01343795657157898,0.032019250094890594,-0.024229586124420166
395,-0.260773359785377,-0.08137580967639742,-2.5202021898924376,-0.25697463750839233,0.08128602802753448,-0.9629935622215271,-0.07572462409734726,0.13600921630859375,0.16927888989448547,-0.017607271671295166,-0.013475969433784485,-0.0204353928565979
396,-0.2544705292192389,-0.08624797333567319,-2.512136939765488,-0.2507973313331604,0.08614108711481094,-0.9641993641853333,0.0021993201225996017,0.025626391172409058,0.03408774733543396,-0.03460308909416199,0.028208285570144653,-0.006961524486541748
397,-0.2521554198200113,-0.09319931261318933,-2.5203756731934317,-0.24840901792049408,0.09306444972753525,-0.9641742706298828,-0.08927235007286072,0.08052472770214081,-0.10483863204717636,-0.018345147371292114,0.012511111795902252,-0.009672164916992188
398,-0.2533672008921144,-0.09412978648190642,-2.538733087983874,-0.24955539405345917,0.09399084001779556,-0.9637882709503174,-0.03569953143596649,0.038494497537612915,-0.2194981873035431,0.008329197764396667,0.004703007638454437,0.005246400833129883
399,-0.2488020606659693,-0.09738477563433061,-2.557276573089315,-0.24507634341716766,0.09723091870546341,-0.9646158218383789,-0.06745502352714539,0.07683557271957397,-0.15225552022457123,0.011784732341766357,0.0026683732867240906,0.012986242771148682
400,-0.24037288141590066,-0.1034455412532031,-2.571742426863202,-0.2367921769618988,0.10326114296913147,-0.9660572409629822,-0.10540758818387985,0.049786679446697235,-0.09878022223711014,0.019796937704086304,-0.00719180703163147,-0.04744678735733032
401,-0.23796732228615905,-0.09908261840488791,-2.5816647917832705,-0.23457156121730804,0.09892057627439499,-0.967052698135376,0.06865032017230988,-0.017858438193798065,-0.1123446524143219,-0.00024594366550445557,0.001299150288105011,-0.008624792098999023
402,-0.2403406271773417,-0.10468522396337263,-2.59271970285973,-0.23673036694526672,0.1044941246509552,-0.9659398198127747,-0.09538425505161285,0.09744475036859512,-0.1317586749792099,-0.02985595166683197,0.030759789049625397,0.024472534656524658
403,-0.23190257854828455,-0.10717242530282152,-2.618536741941214,-0.22851094603538513,0.10696738213300705,-0.9676470160484314,-0.1302891969680786,0.1383064091205597,-0.3336602449417114,-0.018315225839614868,0.03825051337480545,-0.0034833550453186035
404,-0.2279242210919943,-0.10993818393909596,-2.6481113616216256,-0.22459179162979126,0.10971685498952866,-0.9682565331459045,-0.12252382934093475,0.04766754060983658,-0.20922580361366272,0.00710827112197876,-0.023031681776046753,0.003412783145904541
405,-0.2237442727545315,-0.1086703637952005,-2.6683793670468283,-0.22057326138019562,0.10845660418272018,-0.9693217277526855,0.09544454514980316,0.1040213406085968,-0.17686721682548523,0.02799209952354431,0.0009031370282173157,-0.010475635528564453
406,-0.21514051417470956,-0.10894564083673701,-2.680781170391579,-0.2122190147638321,0.1087302565574646,-0.9711543917655945,-0.0032973764464259148,0.06421928107738495,-0.14143389463424683,0.024413838982582092,0.0098610520362854,-0.012900173664093018
407,-0.2053565419207807,-0.10567017686422715,-2.68965984133053,-0.20277880132198334,0.10547363013029099,-0.9735276699066162,-0.07169181853532791,-0.03503327816724777,-0.0619065947830677,0.008854851126670837,-0.004506222903728485,-0.04209733009338379
408,-0.20732706699372044,-0.09725528596928638,-2.694003532986228,-0.2048722207546234,0.09710203856229782,-0.973960280418396,0.04118010401725769,-0.059419840574264526,-0.03855691850185394,0.0005417764186859131,-0.009547114372253418,0.001212477684020996
409,-0.2115287480489063,-0.09511377826199098,-2.700012839903314,-0.20900584757328033,0.09497043490409851,-0.9732919335365295,0.00829134602099657,-0.08091489970684052,-0.08927574753761292,0.0053467899560928345,0.01463344693183899,-0.005162656307220459
410,-0.21701715102427563,-0.09807521083418871,-2.709399267463334,-0.21428298950195312,0.0979180559515953,-0.9718512296676636,-0.07426396012306213,-0.04118757322430611,-0.09619104117155075,-0.001125335693359375,0.0156073197722435,0.0031470656394958496
411,-0.22376271315552362,-0.10130099609656476,-2.7204473447561566,-0.22076250612735748,0.10112782567739487,-0.9700706601142883,-0.0634656548500061,-0.0880448967218399,-0.05679749697446823,0.03574968874454498,-0.004829615354537964,-0.00841444730758667
412,-0.22663841033402315,-0.10704707855385748,-2.720265804008454,-0.22341695427894592,0.10684274882078171,-0.9688495993614197,-0.061224743723869324,-0.05488991737365723,0.14695073664188385,0.03831258416175842,-0.041214704513549805,-0.019797861576080322
413,-0.23278174311383817,-0.10903135738418887,-2.703638397228013,-0.22931531071662903,0.10881546139717102,-0.9672505855560303,0.03196707367897034,-0.1893368363380432,0.2745729386806488,0.02521374821662903,0.01900741457939148,-0.017429590225219727
414,-0.24312853764336498,-0.11889283293962885,-2.679691624565421,-0.23904083669185638,0.11861293017864227,-0.9637377262115479,-0.01170602161437273,-0.06408018618822098,0.23104000091552734,0.012539386749267578,0.06293613463640213,0.008720695972442627
415,-0.24178997847894973,-0.1279232013370038,-2.6624028460691127,-0.23748444020748138,0.1275745928287506,-0.9629775881767273,-0.008935502730309963,-0.006885904353111982,0.15567420423030853,-0.014117732644081116,0.01088365912437439,-0.005696117877960205
416,-0.23529471820971154,-0.12957254349617792,-2.649097214309231,-0.23117531836032867,0.12921027839183807,-0.964293897151947,0.028304819017648697,0.048778265714645386,0.11213737726211548,-0.06318199634552002,0.011780932545661926,-0.013474047183990479
417,-0.2426338137769949,-0.12123051920264476,-2.63806324744313,-0.23849675059318542,0.12093378603458405,-0.9635841250419617,0.21279853582382202,-0.13440988957881927,0.05480298027396202,0.012575134634971619,0.034278616309165955,-0.07088547945022583
418,-0.2542310303073616,-0.09944408627396754,-2.6210081156496683,-0.2502586841583252,0.09928026795387268,-0.9630752801895142,0.2753388285636902,-0.16560585796833038,0.14489805698394775,0.03291252255439758,-0.00885668396949768,0.01635897159576416
419,-0.259840268502536,-0.08226351514429352,-2.595694612132814,-0.2560573220252991,0.0821707621216774,-0.9631628394126892,0.04785660654306412,-0.0802823156118393,0.30994507670402527,0.0036311745643615723,-0.011278428137302399,0.05271667242050171
420,-0.25662052142062053,-0.09899825808750658,-2.5718779123969258,-0.2525704503059387,0.09883663058280945,-0.962517261505127,-0.1340288519859314,0.17274826765060425,0.2834576368331909,-0.02697056531906128,-0.015065886080265045,0.05278831720352173
421,-0.23583627669500518,-0.1150280009777461,-2.556783589170144,-0.2321120947599411,0.11477450281381607,-0.9658937454223633,-0.07526180893182755,0.09196150302886963,0.17320293188095093,-0.025227367877960205,-0.008146092295646667,-0.06338781118392944
422,-0.23732828730826228,-0.11042094502682022,-2.543587721717928,-0.2336747944355011,0.11019669473171234,-0.9660500884056091,0.1727011799812317,-0.0647340714931488,0.06472121179103851,-0.009397715330123901,0.0012382417917251587,-0.01002413034439087
423,-0.24289161131105436,-0.10725337675027335,-2.530237141456641,-0.23912835121154785,0.10704787075519562,-0.9650691151618958,0.04384109377861023,-0.05245308578014374,0.1096428781747818,-0.010886892676353455,0.0037461966276168823,0.029629051685333252
424,-0.24026666783935896,-0.1130240274483568,-2.518995690140129,-0.23644335567951202,0.11278354376554489,-0.9650774002075195,-0.16363300383090973,0.04538467898964882,0.09828770905733109,-0.022681385278701782,0.030023448169231415,0.025975286960601807
425,-0.2379890205347645,-0.12289620087279872,-2.5172261657605044,-0.2339707314968109,0.12258707731962204,-0.9644843935966492,-0.028556659817695618,0.009203696623444557,-0.013064464554190636,0.004432767629623413,0.02328694611787796,-0.02715378999710083
426,-0.23668803531087024,-0.12889559674724216,-2.512217328859516,-0.2325391173362732,0.12853898108005524,-0.9640556573867798,-0.028808122500777245,-0.011523153632879257,0.09994200617074966,0.018870294094085693,-0.018217936158180237,-0.019770026206970215
427,-0.2385963572714035,-0.11750969034499921,-2.5003683856394208,-0.23470911383628845,0.11723943799734116,-0.9649696946144104,0.28472062945365906,-0.14939983189105988,-0.04162774235010147,0.004667595028877258,0.05317071080207825,-0.0237388014793396
428,-0.24038232056589184,-0.11397251747954423,-2.4902723629111776,-0.2365293800830841,0.1137259304523468,-0.9649457335472107,-0.13129450380802155,0.06891503930091858,0.18804128468036652,-0.0014466941356658936,-0.004991799592971802,-0.0022020936012268066
429,-0.23744533327773826,-0.1102468868874955,-2.476351303779709,-0.23379237949848175,0.11002369225025177,-0.9660413861274719,0.06369606405496597,-0.06200002133846283,0.1186782568693161,0.00860317051410675,-0.02391834557056427,-0.008827388286590576
430,-0.23768893183917272,-0.11365771617815743,-2.4563220951258766,-0.23393797874450684,0.11341316998004913,-0.9656140208244324,-0.03614309802651405,0.0360310897231102,0.1934998780488968,-0.04471801221370697,0.00588003545999527,0.009895086288452148
431,-0.2382454101465791,-0.1130330781145544,-2.4463975626246732,-0.2344919592142105,0.11279253661632538,-0.9655523300170898,0.10829664021730423,0.034686725586652756,0.06872279196977615,-0.015187591314315796,0.008987851440906525,-0.03212827444076538
432,-0.2411134525529615,-0.09786895539457606,-2.439289052797112,-0.2376413494348526,0.09771279245615005,-0.9664257764816284,0.4195200502872467,-0.04679687321186066,-0.07337396591901779,0.0362253338098526,0.029881201684474945,-0.06758606433868408
433,-0.23838687517307133,-0.04978317165388335,-2.4263580374077787,-0.23584286868572235,0.04976261034607887,-0.9705162644386292,0.28245383501052856,0.01829066500067711,0.12111295759677887,0.02142636477947235,-0.0032538212835788727,0.08295828104019165
434,-0.2241001701927425,-0.052704254099610895,-2.406668513027402,-0.22192054986953735,0.05267985910177231,-0.9736406207084656,-0.08706668764352798,0.21181657910346985,0.23165583610534668,-0.028659269213676453,0.015816841274499893,-0.0072095394134521484
435,-0.22030310218776003,-0.05118687112672302,-2.4002862690491003,-0.2182391881942749,0.051164522767066956,-0.9745531678199768,0.08911895751953125,0.05368712171912193,0.0006499309092760086,-0.055595025420188904,-0.020158659666776657,0.0723314881324768
436,-0.21139124352711136,-0.06977775057050056,-2.399821006344334,-0.20930978655815125,0.06972113996744156,-0.975360631942749,-0.33451250195503235,0.1333657056093216,-0.0033963280729949474,-0.05846668779850006,0.026912763714790344,-0.0547906756401062
437,-0.21762653856151495,-0.06492952029525541,-2.415383160053435,-0.21545778214931488,0.06488391011953354,-0.974355161190033,0.012610936537384987,-0.16278743743896484,-0.2545009255409241,-0.01842893660068512,0.05672863870859146,-0.01731353998184204
438,-0.22890069341946037,-0.06805141254932036,-2.43954579214953,-0.2263818234205246,0.06799890100955963,-0.971662163734436,-0.03502228856086731,0.03325219079852104,-0.2059212476015091,0.04941040277481079,-0.03645899146795273,0.01856774091720581
439,-0.21932661414089297,-0.07072371437896256,-2.448758008602333,-0.21702851355075836,0.07066477090120316,-0.9736042022705078,-0.046757668256759644,0.14228123426437378,-0.0998278558254242,0.03508271276950836,0.012312524020671844,-0.03751945495605469
440,-0.2078196768364693,-0.05766323291625847,-2.460550861004983,-0.20598405599594116,0.05763128399848938,-0.9768567681312561,0.1691972017288208,-0.005610176827758551,-0.23575206100940704,0.012929871678352356,0.04881402850151062,-0.010386824607849121
441,-0.21127320681969786,-0.06234757487058797,-2.4623603400953673,-0.20929750800132751,0.06230719015002251,-0.9758649468421936,-0.10328242182731628,-0.04549630731344223,0.17122073471546173,0.053963035345077515,-0.0736292153596878,0.0008283257484436035
442,-0.19817508821987498,-0.059703766806426486,-2.4400057787612788,-0.19652967154979706,0.05966830253601074,-0.9786806106567383,0.08616235107183456,0.09741351008415222,0.11507352441549301,-0.03151293098926544,0.09560513496398926,-0.05192852020263672
443,-0.18824678228671618,-0.05666325660859644,-2.4342908966966474,-0.1868366003036499,0.05663293972611427,-0.9807572364807129,0.050819821655750275,-0.01970638334751129,-0.06751339882612228,0.034874334931373596,0.03171544894576073,0.038282930850982666
444,-0.18509718289633292,-0.07929369527288248,-2.4340936729398135,-0.18346378207206726,0.07921063154935837,-0.9798299670219421,-0.38294506072998047,0.15740685164928436,0.2330029308795929,0.00836917757987976,-0.06781230866909027,0.01915186643600464
445,-0.16143777900928857,-0.10299606914197579,-2.4265305184007553,-0.15988564491271973,0.10281406342983246,-0.9817667007446289,-0.03955885022878647,0.1705167442560196,-0.06970096379518509,-0.03977560997009277,0.08891262114048004,-0.0789175033569336
446,-0.160848059155741,-0.10296363786309004,-2.437874401661069,-0.15930718183517456,0.10278180241584778,-0.9818640947341919,-0.03701164945960045,-0.10739453136920929,-0.08991807699203491,0.010122016072273254,-0.022566355764865875,-0.03252488374710083
447,-0.16153250732097546,-0.10074248912086882,-2.4450399776166445,-0.1600155085325241,0.10057216882705688,-0.9819777607917786,-0.0028504272922873497,0.1739336997270584,-0.06326410174369812,-0.045932382345199585,0.020155370235443115,0.06913596391677856
448,-0.15525444362007162,-0.10459589798738049,-2.461987737237831,-0.15378640592098236,0.10440528392791748,-0.9825727939605713,-0.06910324841737747,0.051238130778074265,-0.23137547075748444,-0.003257051110267639,0.05802452564239502,0.02259659767150879
449,-0.1511342060460615,-0.13260888730352596,-2.4825423461954075,-0.14923764765262604,0.1322205662727356,-0.9799213409423828,-0.3528301417827606,0.07652748376131058,-0.11694767326116562,0.026267051696777344,-0.037417709827423096,-0.06777763366699219
450,-0.1457669791135624,-0.12891511742302955,-2.492303692609925,-0.14404600858688354,0.12855833768844604,-0.981184720993042,0.18185684084892273,-0.13996323943138123,-0.14406441152095795,0.006747439503669739,0.03886108100414276,-0.07542532682418823
451,-0.17949706351668548,-0.12135503729636714,-2.509920845008429,-0.17722170054912567,0.12105739116668701,-0.9766972661018372,-0.13321281969547272,-0.28962644934654236,-0.1048567146062851,-0.012826487421989441,-0.08703029900789261,0.14487969875335693
452,-0.1804140872304082,-0.15182873697668423,-2.5255962696611896,-0.1773727387189865,0.1512460857629776,-0.9724523425102234,-0.2709887623786926,0.08386962860822678,-0.341132789850235,-0.04148407280445099,0.0863180011510849,-0.09982854127883911
453,-0.1888100989291239,-0.14966045465378552,-2.5771688410308076,-0.18559221923351288,0.14910238981246948,-0.9712486863136292,-0.07449592649936676,-0.18540059030056,-0.6020025610923767,0.05265766382217407,-0.008065402507781982,-0.05168527364730835
454,-0.22213531868774364,-0.14667798897516932,-2.6536709230190114,-0.21794727444648743,0.14615260064601898,-0.9649551510810852,0.06668539345264435,-0.010778522118926048,-0.7198677062988281,0.16380909085273743,-0.06831751763820648,-0.012522876262664795
455,-0.21385559885439395,-0.11916542690079096,-2.717755819961679,-0.2107241451740265,0.11888359487056732,-0.9702896475791931,0.11647006869316101,0.15206295251846313,-0.6039652228355408,0.12081937491893768,-0.08844231814146042,-0.08534383773803711
456,-0.21222847437612072,-0.09571801495632046,-2.750813525976434,-0.20967470109462738,0.09557192027568817,-0.9730891585350037,0.20338685810565948,-0.09425309300422668,-0.26343026757240295,-0.015346646308898926,0.06020505726337433,0.026464402675628662
457,-0.22060753543813455,-0.09320023132781212,-2.7740225239212197,-0.21787278354167938,0.09306536614894867,-0.9715298414230347,-0.30258628726005554,0.02086244896054268,-0.35042041540145874,-0.07294446229934692,0.10563457757234573,0.08487218618392944
458,-0.23202178690060196,-0.09960295422650714,-2.8056162063703387,-0.22880592942237854,0.09943834692239761,-0.9683800339698792,0.15445499122142792,-0.431499719619751,-0.2791910767555237,0.13708534836769104,0.025622688233852386,-0.16547006368637085
459,-0.26390284018868887,-0.0960117254328247,-2.7871347332725245,-0.2596488893032074,0.09586428105831146,-0.9609331488609314,-0.3666846454143524,-0.02604549378156662,0.6272314190864563,-0.04731220006942749,-0.08178041875362396,0.1628527045249939
460,-0.25850013466303357,-0.13768985661325006,-2.75112340178598,-0.25321143865585327,0.1372552067041397,-0.9576246738433838,0.005617608781903982,-0.015088627114892006,0.21631091833114624,-0.04798179864883423,0.11910770833492279,-0.09085249900817871
461,-0.27109842892386515,-0.13405524999250956,-2.7318843653535185,-0.26538729667663574,0.13365410268306732,-0.9548330307006836,-0.016032753512263298,-0.10857187956571579,0.23817670345306396,-0.03194543719291687,-0.07315300405025482,0.01203829050064087
462,-0.2741104702730299,-0.13212501061734488,-2.7026280130062648,-0.2683314383029938,0.13174092769622803,-0.9542759656906128,0.3754322826862335,-0.08626097440719604,0.2468869835138321,-0.0005589425563812256,0.020618081092834473,-0.03620254993438721
463,-0.29550943488735326,-0.11812356342794009,-2.676036839957526,-0.2891978323459625,0.11784905195236206,-0.9499874711036682,-0.08494560420513153,-0.18175923824310303,0.2516472041606903,-0.06668290495872498,-0.01015251874923706,0.1455441117286682
464,-0.2912462982369347,-0.14154635889779665,-2.666743586766184,-0.28427451848983765,0.14107418060302734,-0.9483069777488708,0.1506834775209427,0.032235488295555115,-0.09853161126375198,0.019397199153900146,0.10822391510009766,-0.11379629373550415
465,-0.2906277613057637,-0.12210236415358802,-2.6695266394738417,-0.2844202518463135,0.12179918587207794,-0.950931191444397,-0.020525716245174408,-0.026908835396170616,-0.01881781965494156,-0.033420294523239136,-0.03473253548145294,0.012790322303771973
466,-0.29225247835597556,-0.12091328320353559,-2.6646352397818838,-0.2860063910484314,0.12061887234449387,-0.9506058096885681,0.19966135919094086,0.028146592900156975,-0.01309366337954998,-0.012669146060943604,0.055772729218006134,-0.033753931522369385
467,-0.29229026246648626,-0.10908199119932399,-2.6671415575441277,-0.28643348813056946,0.10886579751968384,-0.951894998550415,-0.09015974402427673,0.0018720580264925957,-0.05199425667524338,-0.03741905093193054,-0.009210646152496338,0.06453537940979004
468,-0.2939730507765198,-0.11466560049304736,-2.6803578730417263,-0.28785431385040283,0.11441449075937271,-0.9508150219917297,0.020608991384506226,0.04076356440782547,-0.1884625256061554,0.019040226936340332,0.03184100240468979,-0.0011350512504577637
469,-0.2901479127961121,-0.11995422735727361,-2.6917865959008633,-0.28403812646865845,0.11966676265001297,-0.9513160586357117,-0.0435156375169754,0.013784688897430897,-0.04834844172000885,0.005672037601470947,0.011299416422843933,-0.03237229585647583
470,-0.2824391043753157,-0.1159416430393698,-2.6780756765352822,-0.2768278419971466,0.11568205803632736,-0.9539308547973633,0.26774388551712036,0.026484012603759766,0.5485143661499023,0.1554899513721466,-0.22026580572128296,-0.19493389129638672
471,-0.22948711623673698,-0.029158067260593352,-2.484543437735213,-0.22738142311573029,0.029153935611248016,-0.9733692407608032,3.6348562240600586,1.3797051906585693,1.6164735555648804,0.05164596438407898,-0.006967654451727867,-0.581867516040802
472,-0.1377486909749128,0.4532321137727804,-2.1200264224699654,-0.12344983965158463,-0.43787360191345215,-0.8905205130577087,5.06369161605835,1.1232906579971313,3.209310531616211,0.18535473942756653,0.15216806530952454,-0.397916316986084
473,-0.3048002722279319,0.71162264379468,-1.6685803954167637,-0.22726869583129883,-0.6530634760856628,-0.722396731376648,2.316555976867676,0.6566781997680664,2.7640151977539062,-0.055003657937049866,0.20031994581222534,-0.11940014362335205
474,-0.3894150561950976,0.9881099624842005,-1.476317480862757,-0.20890815556049347,-0.834987461566925,-0.5090710520744324,3.909151792526245,1.963942050933838,-0.6371017694473267,-0.09422296285629272,0.20995694398880005,0.33837103843688965
475,-0.846022291627132,1.3164069707193602,-0.47064374023838756,-0.18840083479881287,-0.9678171277046204,-0.16683834791183472,4.526870250701904,5.831879615783691,3.3160037994384766,0.48667967319488525,-0.33523762226104736,0.08663815259933472
476,-1.580046439564126,1.2333468139248738,1.02061902346967,-0.3310675024986267,-0.9436021447181702,0.0030624992214143276,5.417291641235352,7.2065629959106445,-0.26896578073501587,0.4893164038658142,0.27586227655410767,0.18309473991394043
477,-1.5817202660688814,1.2570014432547623,1.3264856241327727,-0.3086518347263336,-0.9511690735816956,0.0033718280028551817,-0.7920350432395935,1.2261388301849365,-0.23711061477661133,0.1911744475364685,-0.04428374767303467,-0.03491175174713135
478,-1.2884633546523734,1.2504592212680368,1.164090378550127,-0.30241966247558594,-0.9491293430328369,-0.08772647380828857,-1.024267315864563,0.19956739246845245,-0.26068681478500366,0.05115318298339844,0.21226710081100464,-0.2614861726760864
479,-1.0983338941404175,1.3247860846217805,0.795293449052007,-0.21685700118541718,-0.9698917865753174,-0.11082858592271805,-0.7723416686058044,-3.313667058944702,-2.136845111846924,-0.09311003983020782,0.18681073188781738,-0.22423917055130005
