,attitude.roll,attitude.pitch,attitude.yaw,gravity.x,gravity.y,gravity.z,rotationRate.x,rotationRate.y,rotationRate.z,userAcceleration.x,userAcceleration.y,userAcceleration.z
0,-1.2084091768249028,0.0013052258728823431,-2.2018557160178767,-0.9350523948669434,-0.0013052255380898714,-0.3545070290565491,0.012191200628876686,-0.01185724139213562,-0.020700158551335335,-0.30316781997680664,-0.03710111975669861,-0.13011211156845093
1,-0.016846313917920852,0.002170237679972112,-2.4761541097144173,-0.016845477744936943,-0.0021702360827475786,-0.9998557567596436,-0.005329115316271782,-0.004149050917476416,-0.000977273448370397,-0.004272686317563057,0.008960396982729435,0.015877485275268555
2,-0.01701031605882278,0.002095963950482033,-2.4761609175402914,-0.01700945757329464,-0.0020959624089300632,-0.9998531341552734,0.004186881706118584,0.002606786787509918,-0.0010483406949788332,-0.0015910044312477112,-0.006098007317632437,-0.010812759399414062
3,-0.01682166223490622,0.0024168349846396,-2.476159202797977,-0.016820820048451424,-0.0024168326053768396,-0.9998555779457092,-0.0006338125094771385,-8.471962064504623e-05,9.786139708012342e-05,0.003240499645471573,-0.0011232064571231604,-0.0009530782699584961
4,-0.01693934224413735,0.0022213552814614357,-2.476161331716514,-0.01693849079310894,-0.0022213533520698547,-0.9998540878295898,-0.00019968673586845398,-1.6600824892520905e-05,0.0012514034751802683,-0.00527830608189106,0.005120523273944855,0.0026769638061523438
5,-0.017044106485561736,0.002243330845963995,-2.4761359737573887,-0.017043238505721092,-0.0022433290723711252,-0.9998522400856018,0.000977078452706337,-0.0014589442871510983,-0.0003314296482130885,0.003951197490096092,-0.005401324480772018,-0.009730279445648193
6,-0.016872485504132017,0.0025239552892218076,-2.4761870193932887,-0.016871631145477295,-0.002523952629417181,-0.9998545050621033,0.002759127877652645,0.0021714186295866966,-0.0022738345433026552,-0.0003708004951477051,0.001318508293479681,-0.0008168816566467285
7,-0.01702456042605407,0.0022079046495907134,-2.476232771178665,-0.01702369563281536,-0.0022079029586166143,-0.9998526573181152,-0.0026478497311472893,0.00139564648270607,0.0022130711004137993,-0.002110825851559639,0.006693986710160971,0.0013327598571777344
8,-0.016919419958773857,0.0022298356355761207,-2.4761802942508058,-0.016918569803237915,-0.0022298337426036596,-0.9998543858528137,0.000554421916604042,-0.0004683248698711395,-0.000953217560891062,0.0022701341658830643,-0.007154321763664484,-0.007698714733123779
9,-0.01685295894396947,0.00244672776794222,-2.4761970869028045,-0.016852110624313354,-0.0024467252660542727,-0.9998549818992615,-0.0024256492033600807,-0.0015585580840706825,6.531435064971447e-05,-0.0033505242317914963,-0.00017778645269572735,0.00022125244140625
10,-0.017006735729436014,0.0020379164733952617,-2.4762247349798865,-0.017005881294608116,-0.0020379151683300734,-0.9998533129692078,0.0016607698053121567,0.0002800021320581436,0.0016822090838104486,-0.002296488732099533,0.006188306026160717,-0.0016725659370422363
11,-0.016996225516677548,0.0020483525417743518,-2.4762768658411387,-0.016995372250676155,-0.002048351103439927,-0.9998534917831421,-0.0007065339013934135,0.0022760406136512756,-0.0021148319356143475,0.003384532406926155,-0.0078088268637657166,-0.0018097162246704102
12,-0.016810638139797024,0.0023544948209200263,-2.4762912086165443,-0.016809800639748573,-0.0023544926661998034,-0.9998559355735779,-0.0013855742290616035,-0.000802080612629652,-0.0006985688814893365,-0.003194473683834076,0.0016373293474316597,-0.004263937473297119
13,-0.017059637158147272,0.0020235920940296463,-2.4762552922445655,-0.017058774828910828,-0.0020235907286405563,-0.9998524188995361,-0.001751909963786602,0.0007139323279261589,-0.0003523018676787615,-0.0012670289725065231,0.004922760650515556,-0.002833068370819092
14,-0.016943472675036084,0.0022389077918187126,-2.476248920908383,-0.016942620277404785,-0.0022389059886336327,-0.9998539686203003,0.003292613197118044,-9.828619658946991e-05,-0.0014586977194994688,0.001439688727259636,-0.006077134050428867,-0.001626133918762207
15,-0.017052349586826318,0.002347993240605025,-2.476273879155373,-0.01705147698521614,-0.0023479911033064127,-0.9998518824577332,-0.00018100440502166748,-0.0008544703014194965,-0.001081164926290512,-0.0027849487960338593,0.003812834620475769,-0.0036271214485168457
16,-0.017115387543597864,0.0021207424491335738,-2.47623201863793,-0.017114512622356415,-0.002120740944519639,-0.9998512864112854,0.0003465060144662857,-0.0013888459652662277,0.0015097663272172213,0.002557627856731415,0.0021970351226627827,-0.0040702223777771
17,-0.0169961813818713,0.002299360942409857,-2.4762411675216653,-0.016995318233966827,-0.0022993588354438543,-0.9998528957366943,0.00011166371405124664,-0.00021083001047372818,-0.002440336626023054,-0.0014678146690130234,-0.006016680970788002,-0.0019933581352233887
18,-0.01708412392255547,0.002462058606388581,-2.4762611914727866,-0.017083240672945976,-0.0024620562326163054,-0.9998510479927063,0.0035224352031946182,0.001133582554757595,-1.6580568626523018e-05,0.00023753754794597626,0.005315449554473162,-0.002941310405731201
19,-0.016927506052043666,0.0023616116648074574,-2.4762628365825288,-0.01692664995789528,-0.0023616093676537275,-0.9998539686203003,-0.0007626740261912346,0.002054021693766117,-0.0004692665534093976,-0.0006819926202297211,0.0012934939004480839,0.001837611198425293
20,-0.016971847358322464,0.0025438538991276296,-2.4762696326946725,-0.016970977187156677,-0.0025438512675464153,-0.99985271692276,0.003124422859400511,0.0019292142242193222,-0.0021749946754425764,0.0007814038544893265,-0.005314425565302372,-0.012812018394470215
21,-0.016929193970182613,0.002968714121247071,-2.4762762940828655,-0.016928311437368393,-0.002968709683045745,-0.9998522996902466,0.0013301121070981026,0.00036080554127693176,-0.0003490258241072297,-0.001519564539194107,-0.0011053862981498241,-0.000925898551940918
22,-0.01688342093862067,0.00297914526706258,-2.4763092710918184,-0.01688254438340664,-0.0029791409615427256,-0.9998530149459839,0.008704841136932373,0.004450139589607716,-0.0014132136711850762,-0.0016568824648857117,0.0023687893990427256,-0.016748487949371338
23,-0.016767011637679383,0.0033887789810608977,-2.4763181797231772,-0.016766129061579704,-0.0033887724857777357,-0.9998536705970764,0.010866998694837093,0.005556910298764706,-0.00015368731692433357,0.009914936497807503,-0.00848256517201662,-0.014108061790466309
24,-0.016583401466117573,0.0036043559570978073,-2.476274616829966,-0.016582533717155457,-0.003604348050430417,-0.9998559951782227,-0.000749640166759491,-7.996894419193268e-05,0.00012190896086394787,-0.013187361881136894,-0.00014931359328329563,0.02883249521255493
25,-0.017124747077926956,0.003332522507631686,-2.476252127407443,-0.017123814672231674,-0.003332516411319375,-0.9998478293418884,7.07944855093956e-05,-0.0010645147413015366,9.331014007329941e-05,0.009402867406606674,0.0038970918394625187,0.00033611059188842773
26,-0.016448296269472504,0.003515361451827713,-2.476276284862969,-0.01644745282828808,-0.003515354124829173,-0.999858558177948,0.0017246538773179054,-0.0007469183765351772,0.0005615579430013895,-0.004136653617024422,-0.007135279942303896,-0.005131065845489502
27,-0.017022744439723715,0.003716554861183966,-2.4762077711041885,-0.01702180504798889,-0.003716546343639493,-0.9998481869697571,-0.0005012163892388344,0.0033522192388772964,0.0012704951222985983,-0.0008309762924909592,0.0018244569655507803,-0.0039511919021606445
28,-0.01683461107414716,0.0034529316610252014,-2.4762394892778388,-0.01683371514081955,-0.0034529247786849737,-0.9998523592948914,0.0001866137608885765,0.00012117158621549606,-0.001262367470189929,-0.00034768134355545044,0.00232377415522933,-0.0013530850410461426
29,-0.016965483892383615,0.003564594275449807,-2.47621405647765,-0.016964562237262726,-0.003564586630091071,-0.9998497366905212,0.0003916667774319649,-0.002091719303280115,-0.0013219848042353988,-0.00026261061429977417,-0.0029661753214895725,-0.0012336373329162598
30,-0.01685946918182685,0.003555710305333318,-2.4762337603439972,-0.01685856468975544,-0.003555702744051814,-0.9998515844345093,0.0002827998250722885,-0.0007138517685234547,-0.0016659938264638186,-0.00013972818851470947,0.0012668846175074577,-0.00016367435455322266
31,-0.016898099639402944,0.0033924429160252286,-2.476259321913019,-0.01689719781279564,-0.003392436308786273,-0.9998514652252197,-0.0017397692427039146,0.0015460969880223274,-0.0011410616571083665,-0.0008487720042467117,0.000401713652536273,-0.002498328685760498
32,-0.016892031623737543,0.0035187974109634657,-2.476249627954431,-0.016891123726963997,-0.003518790239468217,-0.9998511672019958,-0.002424275502562523,-0.0003290134482085705,-0.0011273373384028673,0.001968028023838997,-0.0009672944433987141,-0.00457388162612915
33,-0.016855577853484148,0.0034621832362174655,-2.476254756811212,-0.016854679211974144,-0.0034621763043105602,-0.9998519420623779,-0.0014557577669620514,0.002109506167471409,-0.002369377762079239,-0.003195367753505707,0.0003341252449899912,-0.002253711223602295
34,-0.017019228618827556,0.0033641183037378102,-2.4761922588318304,-0.017018310725688934,-0.0033641119953244925,-0.9998494982719421,-0.0016242144629359245,-0.0011926484294235706,-0.0021124992053955793,0.0047655049711465836,-0.0025410389062017202,-0.003278493881225586
35,-0.0167475479009151,0.0035275104542337,-2.4762393394356437,-0.016746660694479942,-0.003527503227815032,-0.9998535513877869,3.9404258131980896e-05,0.0007278481498360634,-0.0032653938978910446,-0.0028456244617700577,0.0013760137371718884,-0.0030456185340881348
36,-0.016977335429764453,0.0034183381448486907,-2.476286372682014,-0.01697641983628273,-0.0034183315001428127,-0.9998500347137451,-0.0013419920578598976,-0.0010327189229428768,-0.00036810804158449173,0.0007868465036153793,-0.0006557649467140436,-0.0016910433769226074
37,-0.016898784025762593,0.0034621349233319894,-2.4762799743127046,-0.01689787767827511,-0.003462128108367324,-0.9998512268066406,0.002000404056161642,0.0005211047828197479,0.0006668185815215111,-6.989575922489166e-05,0.0006850282661616802,-0.004100799560546875
38,-0.0170268120885421,0.0035250393148999887,-2.4762905862570297,-0.017025884240865707,-0.00352503196336329,-0.9998488426208496,0.00028069503605365753,-0.001001447904855013,0.0001120987581089139,0.00014966167509555817,0.0006106034852564335,-0.0019669532775878906
39,-0.016807656937820516,0.0035426340497061353,-2.47631050684547,-0.01680676080286503,-0.003542626742273569,-0.9998524785041809,-0.0005824267864227295,0.003025582991540432,-0.0010598251828923821,-0.0011375751346349716,0.001085961703211069,-0.002939879894256592
40,-0.016895775509041543,0.0034184043212145032,-2.4763251009694973,-0.0168948732316494,-0.0034183976240456104,-0.999851405620575,-0.002712508663535118,0.000534585677087307,-0.00041670340579003096,-0.000530662015080452,-0.0004268169868737459,-0.0038564205169677734
41,-0.016958141938961235,0.003453440636907845,-2.4763274888422466,-0.016957227140665054,-0.003453433746472001,-0.9998502731323242,-0.001496882177889347,0.001078493893146515,0.00012461887672543526,-0.00019364990293979645,-0.0003460049629211426,-0.0020875930786132812
42,-0.016968709937657298,0.003543734379010953,-2.476346244068208,-0.016967788338661194,-0.0035437268670648336,-0.9998497366905212,-0.0017451010644435883,0.0017391648143529892,-0.0005356818437576294,-0.003646833822131157,-0.000835545128211379,-0.009335994720458984
43,-0.01706209658621577,0.0035547124310364242,-2.4763334159177552,-0.017061160877346992,-0.0035547048319131136,-0.9998481273651123,-0.0018417797982692719,-0.001277063973248005,0.001886781770735979,0.0062579382210969925,-0.0017553535290062428,-0.008071184158325195
44,-0.016973422603141892,0.0031575822554016746,-2.47632827368,-0.01697252318263054,-0.003157577011734247,-0.9998509883880615,-0.0024795355275273323,0.00032572168856859207,0.0013428835663944483,-0.008692760020494461,0.0002584070898592472,0.011920690536499023
45,-0.017006246245479605,0.0026850188371400664,-2.4763046724513122,-0.01700536534190178,-0.002685015555471182,-0.9998518228530884,-0.00048261508345603943,0.00027540791779756546,0.0008976415265351534,0.0008157901465892792,0.00802559219300747,-0.002391219139099121
46,-0.017032638381240826,0.0027271908185164126,-2.476336012662994,-0.017031751573085785,-0.0027271874714642763,-0.9998512268066406,-0.002140727825462818,0.0009666327387094498,-0.002636424032971263,-0.001355089247226715,-0.008747421205043793,-0.009426116943359375
47,-0.017015787499439407,0.002905138570526579,-2.476325891760686,-0.017014894634485245,-0.002905134577304125,-0.9998509883880615,-0.00030145421624183655,0.0017887428402900696,0.000715858768671751,-0.002836788073182106,0.0027678057085722685,-0.00014895200729370117
48,-0.017066622756639276,0.0025239247391223344,-2.476331108161116,-0.017065739259123802,-0.0025239221286028624,-0.9998511672019958,-0.0032910965383052826,-0.0006179823540151119,0.0005590764340013266,0.012289740145206451,0.0008759729098528624,-0.000453948974609375
49,-0.016710003195946305,0.0028185734509565507,-2.476318855579471,-0.016709160059690475,-0.0028185697738081217,-0.9998564124107361,0.0037116832099854946,0.004073426127433777,-0.001944224233739078,-0.018767522647976875,-0.011631503701210022,-0.02933359146118164
50,-0.017562857900993618,0.002856872353822652,-2.4762578617821736,-0.017561882734298706,-0.002856868552044034,-0.9998416900634766,-0.0010013226419687271,0.00030572526156902313,-0.0006906690541654825,0.024458857253193855,0.01544536929577589,0.006128370761871338
51,-0.01630875185257847,0.0023013223259310887,-2.476297235046351,-0.01630798541009426,-0.0023013202007859945,-0.9998643398284912,0.001712503843009472,-0.00017842743545770645,-0.0005789382848888636,-0.02203734964132309,-0.013369455933570862,0.006364643573760986
52,-0.017718620187099503,0.003050861379465502,-2.47627440952081,-0.01771761104464531,-0.0030508567579090595,-0.9998383522033691,0.00037807971239089966,0.001871858723461628,0.001895472058095038,0.01671053282916546,0.006804519332945347,-0.011056363582611084
53,-0.016310107804868895,0.0023038568682536152,-2.476261744119686,-0.0163093414157629,-0.0023038547951728106,-0.9998643398284912,-0.00214261282235384,-0.0005198102444410324,2.4045351892709732e-05,-0.0002311859279870987,-0.0005342797376215458,-0.005354166030883789
54,-0.017416341283992436,0.0027693708774586866,-2.4762305748254914,-0.017415393143892288,-0.002769367303699255,-0.999844491481781,0.0001615649089217186,-0.001435400452464819,0.00010381382890045643,-0.015925059095025063,-0.007209881208837032,0.007763862609863281
55,-0.017167432268340155,0.002749402915557642,-2.476251952183241,-0.01716652326285839,-0.0027493995148688555,-0.9998488426208496,0.00033042021095752716,0.0035108961164951324,0.0012618069304153323,0.01818886399269104,0.010729745961725712,-0.010954320430755615
56,-0.016567363487122882,0.002405369924835559,-2.476285075463685,-0.016566557809710503,-0.002405367558822036,-0.9998598694801331,-0.0004743579775094986,0.001858496107161045,-0.0003559866454452276,-0.009556489065289497,-0.0063684359192848206,-0.007113397121429443
57,-0.017432184131842013,0.002885764688815933,-2.476268044970958,-0.01743122935295105,-0.0028857607394456863,-0.9998438954353333,-0.0018954193219542503,0.00034678447991609573,0.000765678589232266,-0.001535443589091301,-0.0028057668823748827,0.0030330419540405273
58,-0.016887627266312773,0.0025974975215989804,-2.4762597164818705,-0.016886766999959946,-0.0025974945165216923,-0.9998540282249451,0.0006779329851269722,0.0028555337339639664,-0.0015191140118986368,0.005869923159480095,0.00610701646655798,-0.0029230117797851562
59,-0.016943141381510752,0.0025841613357036356,-2.4762632138901495,-0.016942273825407028,-0.002584158442914486,-0.9998531341552734,-0.0008898330852389336,0.0001742010936141014,8.196220733225346e-06,-0.005030382424592972,-0.006418527103960514,-0.0054874420166015625
60,-0.017002335288410057,0.0028749595925004895,-2.476244015267362,-0.017001446336507797,-0.0028749555349349976,-0.9998513460159302,-0.003316391259431839,-4.0267594158649445e-05,-0.0003067270154133439,-4.262104630470276e-05,0.0018373578786849976,-0.0022696256637573242
61,-0.016966338437009263,0.0025894548756348126,-2.476240453792255,-0.016965467482805252,-0.0025894520804286003,-0.99985271692276,0.0006554005667567253,-0.0015681600198149681,0.004733667708933353,0.0013252105563879013,0.0041153309866786,0.0010429620742797852
62,-0.01688581236049108,0.0027156378929940697,-2.4762195921550547,-0.016884947195649147,-0.002715634647756815,-0.9998537302017212,0.0015847515314817429,0.0012589925900101662,-0.0008135838434100151,0.00039019808173179626,-0.004455995745956898,-0.003548920154571533
63,-0.01708391531624046,0.002771450161580408,-2.4761965931057235,-0.017083019018173218,-0.0027714467141777277,-0.9998502135276794,0.002338594291359186,0.0016993805766105652,0.00013991864398121834,-0.001547960564494133,0.005319664254784584,-0.006436347961425781
64,-0.01701082947101171,0.002533423849957256,-2.4762327450736787,-0.017009954899549484,-0.002533421153202653,-0.9998521208763123,-0.0036939987912774086,-0.0008816211484372616,0.0015828774776309729,0.0019953064620494843,-0.0010676532983779907,-0.0005293488502502441
65,-0.01700606075631207,0.0026596258678805657,-2.476269541955893,-0.017005180940032005,-0.002659622812643647,-0.9998518824577332,-0.0021837791427969933,-0.0005906671285629272,0.0007371961837634444,-0.0011070016771554947,-0.0011855922639369965,0.0005843043327331543
66,-0.01708403344225975,0.0025903137804047798,-2.4762545837630663,-0.017083145678043365,-0.0025903109926730394,-0.9998506903648376,-0.0018014982342720032,0.0003190021961927414,0.00022499868646264076,0.0016107354313135147,0.0025445346254855394,-0.010677814483642578
67,-0.017035873883722213,0.0026487967530618665,-2.4762446206998447,-0.017034990713000298,-0.002648793626576662,-0.999851405620575,0.0004338463768362999,0.0009308597072958946,-0.000960601435508579,0.0014405082911252975,-0.004843271803110838,-0.006023228168487549
68,-0.016877284514408394,0.0027429456522468643,-2.476248838040799,-0.016876420006155968,-0.002742942189797759,-0.9998538494110107,-0.0030549131333827972,0.0012912871316075325,0.0008597275009378791,0.0006868448108434677,0.0001336890272796154,0.0008151531219482422
69,-0.017134656085228454,0.00254532478698096,-2.476232324518275,-0.017133763059973717,-0.002545322058722377,-0.9998499751091003,0.003530854359269142,0.00017381273210048676,0.0011007384164258838,-0.006532618775963783,0.004559481982141733,-0.006268799304962158
70,-0.017061394290782468,0.002637318479164757,-2.4762226347399823,-0.017060507088899612,-0.00263731530867517,-0.9998509883880615,-0.0010263286530971527,0.0005630766972899437,0.0015321944374591112,0.006852377206087112,-0.007708143442869186,-0.0077936649322509766
71,-0.01697965346700687,0.0028002934523744657,-2.4761627501068113,-0.01697877049446106,-0.002800289774313569,-0.9998519420623779,-0.0006245961412787437,0.0004326310008764267,-0.00022127653937786818,-0.00717589259147644,-0.00015991553664207458,0.0019729137420654297
72,-0.01741976076632945,0.0024706178401944574,-2.476150142870503,-0.01741882599890232,-0.0024706153199076653,-0.9998452067375183,-0.0008039828389883041,0.0007703481242060661,-0.0008552724029868841,0.00483032688498497,0.001890781568363309,-0.007829904556274414
73,-0.016936465328118454,0.0025659240138666186,-2.4761575179825295,-0.016935599967837334,-0.0025659212842583656,-0.9998533129692078,-0.0010082032531499863,0.000938810408115387,5.421508103609085e-05,0.0015699993818998337,-0.007642208598554134,-0.005914509296417236
74,-0.017033183043405484,0.0026304926102441923,-2.476202820406179,-0.017032301053404808,-0.002630489645525813,-0.9998514652252197,-0.0027761831879615784,0.0017471862956881523,0.0011784856906160712,-0.0022853240370750427,0.0004942591767758131,0.002476036548614502
75,-0.017156400722551462,0.002429793391991633,-2.4762078139063606,-0.01715550757944584,-0.0024297910276800394,-0.9998498558998108,-0.002346031367778778,0.00018889643251895905,0.0011787600815296173,-0.0006057210266590118,0.005481548607349396,-0.009702086448669434
76,-0.0171016284040928,0.0024093525868553595,-2.4761856795047636,-0.01710074581205845,-0.002409350359812379,-0.999850869178772,0.0005270726978778839,-0.0008817226625978947,0.0016271346248686314,0.0017961803823709488,-0.009217847138643265,-0.0018275976181030273
77,-0.01700659951355883,0.002606852076642478,-2.4761409707582356,-0.017005721107125282,-0.0026068491861224174,-0.9998520016670227,-0.001107795163989067,-0.002040295396000147,-0.0021562371402978897,-0.0007097311317920685,0.0024084849283099174,-0.007258594036102295
78,-0.017137455742513106,0.0022010384170802646,-2.4761755056082877,-0.017136575654149055,-0.002201036550104618,-0.9998507499694824,-0.0013088183477520943,0.0003028661012649536,-0.0020305931102484465,-0.0014944057911634445,9.532365947961807e-05,-0.002819538116455078
79,-0.01708563938702783,0.0024618820849827976,-2.4761619072848866,-0.01708475686609745,-0.002461879514157772,-0.9998509883880615,9.527057409286499e-05,0.00015911925584077835,0.0011454999912530184,-0.0032552070915699005,-0.008249789476394653,-0.0010187029838562012
80,-0.01718651785129361,0.0027385580167635436,-2.4762102094352425,-0.01718560792505741,-0.002738554496318102,-0.9998485445976257,-0.0010732626542448997,0.00015559513121843338,-0.0002962476573884487,0.01207391545176506,0.01187856961041689,0.0007946491241455078
81,-0.016618675541038748,0.0018267818432497055,-2.476264442552807,-0.01661788299679756,-0.0018267808482050896,-0.9998602271080017,-0.0011833254247903824,5.204230546951294e-06,-0.0020613407250493765,-0.014387974515557289,-0.0004925549728795886,0.009076595306396484
82,-0.017448632813651145,0.0022600872155155395,-2.476301228681829,-0.01744770258665085,-0.0022600851953029633,-0.9998452067375183,-0.0019705304875969887,0.0005515078082680702,0.0017915087519213557,0.011634105816483498,-0.009992722421884537,-0.007768869400024414
83,-0.016691898616097288,0.0023092401962340604,-2.476334692274695,-0.01669107936322689,-0.0023092380724847317,-0.999858021736145,-0.0007380610331892967,0.0014903899282217026,-0.0009323762496933341,-0.00398457795381546,0.005544101819396019,5.644559860229492e-05
84,-0.017371962822970825,0.001928367159894917,-2.4762751929609723,-0.017371056601405144,-0.0019283660221844912,-0.9998472332954407,-0.0016379542648792267,0.0007595531642436981,0.0016059596091508865,-0.007210850715637207,0.002584494184702635,-0.0032197237014770508
85,-0.016998967809393552,0.0021997062529014273,-2.4762809764932565,-0.016998108476400375,-0.0021997045259922743,-0.9998530745506287,-0.001581035554409027,-0.0010650022886693478,0.0015109380474314094,0.012298403307795525,-0.007031862623989582,-0.0057773590087890625
86,-0.016858613524527895,0.002338037821774616,-2.476307081676471,-0.016857769340276718,-0.0023380357306450605,-0.9998551607131958,0.0022380254231393337,0.0007192213088274002,0.0002605067566037178,-0.013980243355035782,0.003100974950939417,0.0029984712600708008
87,-0.01736956365575147,0.0020209516605755045,-2.476330940112569,-0.017368655651807785,-0.002020950196310878,-0.9998471140861511,0.00010671466588973999,0.0016788654029369354,0.0006128516979515553,0.008930545300245285,0.0046607209369540215,-0.005935966968536377
88,-0.016696995411961495,0.0021772242707971965,-2.4763146466571673,-0.016696179285645485,-0.0021772226318717003,-0.9998582601547241,-0.0009354390203952789,-0.0003935699351131916,0.0009425703901797533,-0.0004241820424795151,-0.0085497060790658,-0.004261612892150879
89,-0.017260032635652633,0.0022775832606601798,-2.476339161717128,-0.017259130254387856,-0.0022775812540203333,-0.999848484992981,-0.001110524870455265,-0.00196007639169693,0.00032669410575181246,-0.0034623052924871445,0.00824376754462719,-0.00021255016326904297
90,-0.016996735308807652,0.001900293169975884,-2.4763478192916915,-0.016995886340737343,-0.0019002920016646385,-0.9998537302017212,-0.004060585983097553,-0.0002309754490852356,-0.0012254591565579176,0.006833534687757492,-0.00026645592879503965,-0.004067718982696533
91,-0.01698668815718498,0.0022940404259608805,-2.4763839140957353,-0.016985826194286346,-0.0022940384224057198,-0.9998530745506287,0.0008633388206362724,-0.0010100002400577068,0.0016027366509661078,-0.008999889716506004,-0.00789883267134428,-0.0024967193603515625
92,-0.017243074964031158,0.002285694721931463,-2.4763667698840375,-0.017242174595594406,-0.0022856928408145905,-0.9998487234115601,-0.0020939186215400696,-0.000359412282705307,0.0018328740261495113,0.006484730169177055,0.00889274850487709,-0.001509249210357666
93,-0.01690170521873432,0.00190130597863786,-2.4762876037385766,-0.016900869086384773,-0.0019013048149645329,-0.9998553395271301,-0.0017961980774998665,-0.00208662124350667,-0.0009700009832158685,-0.0036984942853450775,-0.003179871942847967,-0.0031963586807250977
94,-0.017279223861074396,0.002344315531162691,-2.4763031512675546,-0.017278317362070084,-0.002344313310459256,-0.999847948551178,5.575176328420639e-05,-0.0010789241641759872,-0.00021862797439098358,-0.0017951671034097672,-0.004964645951986313,-0.001937270164489746
95,-0.017032621660465486,0.0022167365986773932,-2.4763268360784667,-0.017031757161021233,-0.002216734690591693,-0.9998524785041809,0.0011780783534049988,0.0027930745854973793,0.0016174219781532884,0.005480855703353882,0.008213439024984837,-0.0009256601333618164
96,-0.01704025191389581,0.0019741846837445184,-2.476294728665543,-0.01703939400613308,-0.0019741833675652742,-0.9998528957366943,0.0024953684769570827,0.00030917301774024963,0.000414003967307508,-0.00905313529074192,-0.004663390107452869,-0.003534555435180664
97,-0.01724246539638048,0.00229800729584819,-2.4763123416482142,-0.017241565510630608,-0.0022980051580816507,-0.9998487234115601,0.000988764688372612,-0.001218508929014206,0.0010122556705027819,0.007613269612193108,-0.003012053668498993,-0.0018297433853149414
98,-0.01683772636468686,0.0021125136326047554,-2.4762675097534697,-0.016836892813444138,-0.0021125120110809803,-0.9998559951782227,0.0009315144270658493,-0.0006131520494818687,-0.0016909119440242648,-0.004143940284848213,0.006003503687679768,-0.0019902586936950684
99,-0.01724101896398708,0.001986730493172326,-2.4763042159897117,-0.0172401312738657,-0.0019867292139679193,-0.9998493790626526,-0.00187664944678545,-0.0006683557294309139,0.0009018834680318832,-0.0032066460698843002,-0.0034453992266207933,-0.0033854246139526367
100,-0.01702790453810694,0.0022474995487016414,-2.476329063846053,-0.01702703908085823,-0.002247497672215104,-0.9998524785041809,-0.0003087492659687996,0.0013340432196855545,-0.000752960448153317,0.00729193352162838,-0.002055480843409896,-0.0030618906021118164
101,-0.01701003682832302,0.0021859316705905283,-2.476316144788508,-0.017009176313877106,-0.0021859300322830677,-0.9998529553413391,0.000687318854033947,-0.001650400459766388,0.00015037995763123035,-0.008549295365810394,0.0033608563244342804,-0.0022527575492858887
102,-0.017276009599361243,0.0021311236451621225,-2.476322662741385,-0.017275111749768257,-0.0021311219315975904,-0.999848484992981,-0.0010185623541474342,-0.001274449285119772,-0.002007217612117529,0.005769984796643257,-0.0009206354152411222,-0.0031879544258117676
103,-0.01685238914587564,0.002222760184993297,-2.47634135073821,-0.016851549968123436,-0.002222758252173662,-0.9998555183410645,-0.0031139524653553963,-0.0008632414974272251,-0.0013430913677439094,-0.0008791610598564148,-0.002812641905620694,-0.0029672980308532715
104,-0.017140015448880462,0.002155490107154197,-2.4763311952185325,-0.017139136791229248,-0.002155488356947899,-0.9998508095741272,-7.466413080692291e-05,-0.00031239213421940804,0.00019765319302678108,-0.004085838794708252,0.003635591361671686,-0.0021480917930603027
105,-0.017069447819632308,0.001993104895338323,-2.476383721302637,-0.017068585380911827,-0.001993103651329875,-0.9998523592948914,-0.0008654473349452019,-0.0009099193848669529,0.0016459774924442172,0.006784161552786827,-0.0018978877924382687,-0.0029247403144836426
106,-0.016935292137318866,0.0021513593139793953,-2.476362318752003,-0.01693444326519966,-0.0021513577084988356,-0.9998542666435242,0.00030827615410089493,-0.0015965783968567848,0.002226486336439848,-0.0061063263565301895,-0.0037690524477511644,-0.0029685497283935547
107,-0.017181971549779722,0.0020713406955502086,-2.4763204129753245,-0.017181089147925377,-0.0020713391713798046,-0.9998502731323242,-0.0017756139859557152,-0.0016253283247351646,0.0011042484547942877,0.004394223913550377,0.005046803038567305,-0.0024995803833007812
108,-0.01692377922369271,0.0020210895103092716,-2.476335319879614,-0.01692293770611286,-0.002021088032051921,-0.9998547434806824,-0.0016866959631443024,0.0021612681448459625,3.8005528040230274e-05,-0.0017538182437419891,-0.0041892388835549355,-0.0026476383209228516
109,-0.017231114752854593,0.00221552127644968,-2.4763352316329557,-0.017230220139026642,-0.0022155195474624634,-0.9998490810394287,-0.0009285509586334229,-0.0002179727889597416,-0.0010647019371390343,-0.001766970381140709,-0.00014959252439439297,-0.0023023486137390137
110,-0.017105920991179652,0.0020090074502633047,-2.4763580571399477,-0.01710505224764347,-0.0020090059842914343,-0.9998517036437988,0.0002679238095879555,0.0004726750776171684,0.0017196731641888618,0.0037383530288934708,0.004328342154622078,-0.002604961395263672
111,-0.017088224675436095,0.0019977858172858898,-2.4763052355078554,-0.017087358981370926,-0.0019977844785898924,-0.9998520016670227,-0.0020872168242931366,-0.00039570871740579605,-2.62019457295537e-05,-0.004458051174879074,-0.004136248957365751,-0.002848803997039795
112,-0.01723931547414867,0.0022190990700063744,-2.476363803513463,-0.017238419502973557,-0.0022190972231328487,-0.9998489618301392,-0.0008720317855477333,0.0004623020067811012,0.001066557946614921,0.0035970620810985565,0.0011509819887578487,-0.00243985652923584
113,-0.01697290533907406,0.0020067171325023917,-2.4763723794244745,-0.016972055658698082,-0.002006715862080455,-0.9998539686203003,0.0030952165834605694,-0.00031546270474791527,0.0005798345664516091,-0.001735219731926918,0.0038377707824110985,-0.001458287239074707
114,-0.01715226821737711,0.0020728955950338286,-2.4763183132074342,-0.01715139113366604,-0.002072894014418125,-0.9998507499694824,0.00043553393334150314,0.0007706200703978539,-0.0006432572845369577,-0.0025934819132089615,-0.004122174344956875,-0.0017055869102478027
115,-0.017036024869857717,0.0022371053587743866,-2.476290025496723,-0.01703515835106373,-0.0022371034137904644,-0.9998523592948914,0.00013922154903411865,0.0007590306922793388,0.0004052439471706748,0.0050570107996463776,0.0008638126309961081,-0.002726316452026367
116,-0.01704313356474505,0.0020625302828318373,-2.4762708133796014,-0.01704227179288864,-0.002062528859823942,-0.9998526573181152,-0.0025562867522239685,-0.0012925369665026665,0.0008475645445287228,-0.005235560238361359,0.002123564016073942,-0.0016579627990722656
117,-0.017193058059870217,0.0020341554741248376,-2.4762638325056514,-0.0171921756118536,-0.0020341540221124887,-0.9998501539230347,-0.0018426747992634773,-0.00010882504284381866,-0.001547478255815804,0.0038865115493535995,-0.002284083515405655,-0.002179265022277832
118,-0.016928439078302968,0.002096125431939499,-2.476312069065203,-0.01692759245634079,-0.002096123993396759,-0.9998545050621033,-0.0008327951654791832,-0.0012004906311631203,-0.0009581514168530703,0.000768536701798439,-0.00010114139877259731,-0.003166675567626953
119,-0.017113913679511605,0.0019089122523248806,-2.4763073774620565,-0.01711304672062397,-0.0019089110428467393,-0.9998517632484436,-0.0036463290452957153,0.0004235580563545227,0.00025714572984725237,-0.00269286148250103,0.0011001951061189175,-0.0011095404624938965
120,-0.01700963230117217,0.001945193529431127,-2.4762630892733415,-0.01700877957046032,-0.0019451923435553908,-0.9998534321784973,-0.0022267745807766914,-0.000770951621234417,0.0014605348696932197,0.004588127136230469,-0.0022051986306905746,-0.00371706485748291
121,-0.016930341774240066,0.0020326243190194096,-2.476266459791883,-0.016929497942328453,-0.002032622927799821,-0.9998546242713928,0.0007050791755318642,0.0019774343818426132,0.001682710601016879,-0.003456244245171547,-0.0012480169534683228,-0.0028766989707946777
122,-0.017100300403502154,0.0019798649077642626,-2.476242362168611,-0.01709943264722824,-0.001979863503947854,-0.9998518228530884,-0.00027054641395807266,-0.0020835846662521362,0.0013663142453879118,0.0011539999395608902,0.002681767800822854,-0.0017808079719543457
123,-0.01689957109196581,0.001999918539916319,-2.4762300502820316,-0.016898732632398605,-0.001999917207285762,-0.9998552203178406,-0.0012841159477829933,-0.0018638712354004383,0.00036734621971845627,0.00040398165583610535,-0.0021504731848835945,-0.004081547260284424
124,-0.017052491573621292,0.0021045622517801292,-2.4762371137376133,-0.01705162785947323,-0.002104560611769557,-0.9998524188995361,-0.0008640429005026817,0.0009728297591209412,-0.0020213350653648376,-0.0037155840545892715,-0.00015374040231108665,-0.0017650127410888672
125,-0.017070623852461112,0.0020405896577936405,-2.476221446922579,-0.017069758847355843,-0.0020405882969498634,-0.9998522400856018,-0.0004894006997346878,-0.0008212383836507797,0.0017003926914185286,0.0035199541598558426,0.0024983519688248634,-0.0021161437034606934
126,-0.016957160867953635,0.0020362435035484235,-2.476200704205226,-0.016956312581896782,-0.0020362420473247766,-0.9998541474342346,-8.041411638259888e-05,0.002093919552862644,-0.0009979153983294964,-0.003078475594520569,-0.0034721808042377234,-0.0025566816329956055
127,-0.01712897756468922,0.0021399305396047367,-2.4762203218681917,-0.017128100618720055,-0.0021399289835244417,-0.9998509883880615,-0.0017856452614068985,-0.001739167608320713,5.221925675868988e-06,0.0017930194735527039,0.0021094114053994417,-0.003261744976043701
128,-0.01702552859892578,0.0020168809821642622,-2.476199657455437,-0.017024671658873558,-0.002016879618167877,-0.9998530149459839,-0.0017070407047867775,0.0005721878260374069,0.0031132223084568977,0.0006672516465187073,0.0005520361009985209,-0.002237379550933838
129,-0.01711060785496756,0.0021463670663624933,-2.4762288450412253,-0.017109733074903488,-0.0021463653538376093,-0.9998512864112854,0.0016858875751495361,0.000398511067032814,0.0023893360048532486,-0.0028182435780763626,-0.0025686000008136034,-0.0024832487106323242
130,-0.017074639430285237,0.00214239883680548,-2.4762835546741697,-0.017073770985007286,-0.0021423972211778164,-0.9998519420623779,-0.002361624501645565,-0.0018002567812800407,3.658153582364321e-05,0.003523966297507286,0.0021423972211778164,-0.0037643909454345703
131,-0.016992416053202255,0.0020285226051776958,-2.4763107838102796,-0.016991563141345978,-0.0020285211503505707,-0.9998535513877869,-0.000563756562769413,0.0018209991976618767,0.0012950627133250237,-0.003226330503821373,0.0006552303675562143,-0.0014281272888183594
132,-0.017111276233600346,0.002082871650376625,-2.4762879724850255,-0.01711040362715721,-0.0020828701090067625,-0.9998514652252197,0.0012937849387526512,0.0013142749667167664,0.0008820340735837817,0.0022330842912197113,-0.0018233796581625938,-0.0019185543060302734
133,-0.016985620196611765,0.0021082658523497453,-2.476248426137056,-0.016984766349196434,-0.002108264248818159,-0.9998535513877869,9.25455242395401e-05,-0.0004865559749305248,0.00012117007281631231,0.000902002677321434,0.001375842373818159,-0.0022521615028381348
134,-0.01710386888986362,0.0020867762246294047,-2.4762527384977795,-0.01710299775004387,-0.002086774678900838,-0.9998515844345093,-0.00047842878848314285,0.001790616661310196,0.0016622598050162196,-0.003435332328081131,-0.00040040817111730576,-0.0011554956436157227
135,-0.01713742443375645,0.002160896251320159,-2.4762654481496593,-0.017136545851826668,-0.0021608946844935417,-0.9998508095741272,-0.0003086058422923088,0.00039096735417842865,-0.0009230413124896586,0.003388378769159317,-0.001562250079587102,-0.004192709922790527
136,-0.017007130130254844,0.0021339156491291256,-2.4762698987170286,-0.017006272450089455,-0.0021339140366762877,-0.9998531341552734,6.58966600894928e-05,-0.0009407922625541687,0.0006774755893275142,-0.0022960975766181946,0.0009132111445069313,-0.0019321441650390625
137,-0.017184447855617267,0.002111410007601774,-2.4762685561542583,-0.017183564603328705,-0.002111408393830061,-0.9998500943183899,0.001351124607026577,-0.00037365173920989037,0.0017548974137753248,0.0007803682237863541,0.0010890697594732046,-0.003140568733215332
138,-0.016990324635792746,0.0021275242312185937,-2.476234357133639,-0.016989469528198242,-0.0021275226026773453,-0.9998534321784973,0.0005534915253520012,0.0030792132019996643,0.0014196266420185566,0.001593349501490593,-0.0016261395066976547,-0.0024506449699401855
139,-0.017020723461571585,0.0021815256455994126,-2.476238642402538,-0.017019860446453094,-0.002181523945182562,-0.9998527765274048,3.687385469675064e-05,-0.001847029197961092,-0.0027415771037340164,-0.0027250126004219055,0.0008692680858075619,-0.0017951726913452148
140,-0.017092906080191525,0.0021287003008593304,-2.47623141777083,-0.017092034220695496,-0.002128698630258441,-0.999851644039154,0.003140952903777361,-0.0003261640667915344,0.0005983266746625304,0.002275753766298294,0.0021744754631072283,-0.003459453582763672
141,-0.016971293794853935,0.0021938761080923107,-2.476194976502662,-0.01697043888270855,-0.0021938744466751814,-0.9998536109924316,0.00022792164236307144,0.0007123658433556557,0.0051367999985814095,-0.0012027807533740997,-0.0014377175830304623,-0.0019469261169433594
142,-0.017113997106983973,0.0022482890605409933,-2.4761746809643643,-0.01711311936378479,-0.0022482872009277344,-0.9998510479927063,0.001377760898321867,-0.001954402308911085,-0.001108625903725624,-0.00051078200340271,0.0012717247009277344,-0.002025783061981201
143,-0.017021180974489302,0.0022115436699791276,-2.476138502446261,-0.017020316794514656,-0.0022115418687462807,-0.99985271692276,0.0004899948835372925,0.0009119724854826927,0.0010017429012805223,0.0012122131884098053,0.0015401551499962807,-0.0021461844444274902
144,-0.01704026147794505,0.0022769471703566247,-2.4761317093035116,-0.01703939214348793,-0.002276945160701871,-0.9998522400856018,0.0003509093075990677,0.0016788588836789131,0.0006919227307662368,-0.0017441771924495697,-0.0014309408143162727,-0.0023450255393981934
145,-0.017160057549846865,0.0022635130289698595,-2.4761217772304924,-0.017159171402454376,-0.0022635110653936863,-0.9998502135276794,-0.0007423823699355125,-0.0003675343468785286,-0.0008066106820479035,0.0018240883946418762,0.0008444436825811863,-0.0029116272926330566
146,-0.017067587176574403,0.002161966592957239,-2.4761094912655004,-0.017066719010472298,-0.0021619650069624186,-0.9998520016670227,-0.0016627693548798561,0.0018330961465835571,0.0020016978960484266,-5.36404550075531e-05,-0.00029470003210008144,-0.0026808977127075195
147,-0.017128240237443446,0.002212801334180218,-2.4761101914052306,-0.01712736114859581,-0.002212799619883299,-0.999850869178772,-0.001495438627898693,0.0011750021949410439,-8.574151434004307e-05,0.00141080841422081,-0.0008389581926167011,-0.0024684667587280273
148,-0.017038867419406443,0.0021888863363793407,-2.4760308987980775,-0.017038002610206604,-0.0021888846531510353,-0.9998524188995361,0.0009584520012140274,-0.0007074903696775436,0.0020858002826571465,0.0015808511525392532,0.001868450315669179,-0.003153502941131592
149,-0.017047153262734937,0.0022084670681662218,-2.4760427803754728,-0.017046285793185234,-0.0022084652446210384,-0.9998522400856018,0.0005812738090753555,2.6823952794075012e-05,-0.00046080059837549925,-0.0015999525785446167,-0.0004313045646995306,-0.003260493278503418
150,-0.017034397606562723,0.0022043014255061274,-2.475974564809474,-0.01703353226184845,-0.002204299671575427,-0.9998524785041809,0.0001444648951292038,0.002607072703540325,0.0007996892090886831,0.001408534124493599,-0.00028288247995078564,-0.0024973154067993164
151,-0.016940422303071537,0.0021405621512062887,-2.475922475290213,-0.016939572989940643,-0.002140560420230031,-0.9998542070388794,0.0019551021978259087,0.0023599080741405487,0.0008774368325248361,-0.0012641604989767075,0.000416317256167531,-0.00281602144241333
152,-0.017016576878405687,0.00209153332999297,-2.4759100836769945,-0.017015717923641205,-0.0020915318746119738,-0.9998530149459839,0.001319647766649723,-0.00010474491864442825,-0.00011459225788712502,-0.001050686463713646,-0.00038039148785173893,-0.0018559098243713379
153,-0.016977188486053268,0.0020551730809460806,-2.4759101547326754,-0.016976337879896164,-0.0020551716443151236,-0.999853789806366,-0.002040698193013668,-0.0001219380646944046,-0.0010119798826053739,0.001625996083021164,-0.0002641640603542328,-0.002785980701446533
154,-0.0170414319225923,0.002057463170141321,-2.475905481349107,-0.017040571197867393,-0.002057461766526103,-0.9998526573181152,0.0018529999069869518,0.0023676427081227303,-0.0018818315584212542,-0.0019871369004249573,0.0008062415290623903,-0.0018715262413024902
155,-0.017175093677915233,0.0020355164911550466,-2.4759003409668896,-0.017174214124679565,-0.0020355151500552893,-0.9998504519462585,-0.0018937690183520317,-0.0010624947026371956,-0.0018360810354351997,0.0014118850231170654,-0.0006042555905878544,-0.003063976764678955
156,-0.017110639295533296,0.002052302067492472,-2.475871322095574,-0.017109768465161324,-0.0020523006096482277,-0.9998515248298645,0.00010696053504943848,0.0004937974736094475,0.0003430851502344012,-0.0007582735270261765,-0.0015182560309767723,-0.001567542552947998
157,-0.017177587067199917,0.002054387832166491,-2.475845728250784,-0.017176706343889236,-0.002054386306554079,-0.999850332736969,-0.001735856756567955,0.0017588799819350243,0.0003968444652855396,-0.0013779792934656143,0.0001622966956347227,-0.0029419660568237305
158,-0.017142281982252195,0.0020124589307776407,-2.47579345398267,-0.01714140735566616,-0.0020124574657529593,-0.9998510479927063,0.002087164204567671,0.0005501704290509224,-0.0015133349224925041,0.0018521007150411606,-0.0003221370279788971,-0.002697169780731201
159,-0.01707452038677602,0.0020691509910035193,-2.4758233810819195,-0.017073653638362885,-0.00206914939917624,-0.9998521208763123,0.001571820117533207,0.0008929278701543808,-0.0011314710136502981,-0.0006723180413246155,-0.0004943273961544037,-0.0013838410377502441
160,-0.017146347666836186,0.0020732506840006344,-2.4758373372840823,-0.017145469784736633,-0.002073249313980341,-0.999850869178772,0.000799267552793026,0.001595115289092064,-0.0013445568038150668,0.0006659775972366333,0.001371345017105341,-0.0028194189071655273
161,-0.017027587955627334,0.002014027723747711,-2.4757935145239895,-0.017026729881763458,-0.002014026278629899,-0.9998530149459839,-0.0003927387297153473,0.0024885088205337524,-0.0006269308505579829,0.00039464980363845825,-0.0002900506369769573,-0.0024052858352661133
162,-0.017032182110353036,0.002058573093768964,-2.4758146503187723,-0.017031323164701462,-0.002058571670204401,-0.9998528361320496,0.0017647156491875648,-0.0005893800407648087,-0.0009273249306716025,-0.0012029297649860382,-0.000291281845420599,-0.0012152791023254395
163,-0.016975810156934407,0.0020706964319756197,-2.4757650333483086,-0.016974957659840584,-0.0020706949289888144,-0.999853789806366,0.0015373635105788708,0.001465090550482273,0.002360101556405425,0.0011973697692155838,0.000315934419631958,-0.0014432072639465332
164,-0.016965598686903567,0.0021311345160275642,-2.4757225926278537,-0.0169647466391325,-0.002131132874637842,-0.999853789806366,-0.001110536977648735,-0.00011285301297903061,-0.0005860320525243878,-0.001055881381034851,-0.0007375192362815142,-0.002816438674926758
165,-0.01699638548300968,0.002175550104332725,-2.4756863351595806,-0.01699552685022354,-0.0021755483467131853,-0.9998531937599182,-0.0006207916885614395,0.0015874477103352547,-0.003097968176007271,0.0004855189472436905,0.0001613881904631853,-0.0022066831588745117
166,-0.016981788146419402,0.0021494100554731548,-2.475653560085953,-0.016980933025479317,-0.0021494084503501654,-0.9998534917831421,0.0031117205508053303,-0.0008749142289161682,0.0014612087979912758,-0.00036830827593803406,5.895434878766537e-05,-0.0034118294715881348
167,-0.017065622671975207,0.002167540104652474,-2.475661046854971,-0.01706475391983986,-0.002167538506910205,-0.9998520612716675,0.0008082324638962746,-1.214630901813507e-05,-0.0007114197942428291,-0.000406559556722641,-0.0008384431712329388,-0.0026656389236450195
168,-0.017075877943763505,0.0021538592219478556,-2.4756459819307564,-0.017075007781386375,-0.002153857611119747,-0.9998518824577332,-0.0003086160868406296,2.472568303346634e-05,-8.370238356292248e-05,0.0005497429519891739,-0.0002875484060496092,-0.0029251575469970703
169,-0.017096509161462364,0.0020897629563181234,-2.475661878673948,-0.017095638439059258,-0.0020897614303976297,-0.9998517036437988,-0.0028570955619215965,-0.0014372444711625576,-0.0008718825993128121,-0.0008944738656282425,0.00010611908510327339,-0.002559185028076172
170,-0.017140192866869186,0.002065566768408737,-2.4756851158355886,-0.017139317467808723,-0.0020655652042478323,-0.9998509883880615,-0.0005980972200632095,-0.0004119141958653927,0.0002711520064622164,-0.00040828995406627655,-0.000681016594171524,-0.0028040409088134766
171,-0.017108455665630354,0.002092368276699842,-2.4756335066153903,-0.017107583582401276,-0.0020923668053001165,-0.9998514652252197,0.0010720109567046165,0.0003908509388566017,0.0011818534694612026,0.0005365386605262756,1.912470906972885e-06,-0.0030629634857177734
172,-0.017110712921695775,0.002050886339426689,-2.475599477489115,-0.017109841108322144,-0.002050884999334812,-0.9998515248298645,0.001166047528386116,0.0007189307361841202,-0.00021765392739325762,-0.0017500221729278564,-0.00010060425847768784,-0.002895057201385498
173,-0.01709787733702121,0.002070660092743861,-2.4756199840172486,-0.017097007483243942,-0.0020706586074084044,-0.9998517036437988,-9.665545076131821e-05,-0.0009390809573233128,-7.641373667865992e-05,0.0009989850223064423,-0.0003554890863597393,-0.002604961395263672
174,-0.017051991661213527,0.002082614403182381,-2.475575788219403,-0.017051128670573235,-0.002082612831145525,-0.9998524785041809,-0.00090792216360569,-0.0021931552328169346,0.00023504206910729408,-0.00025233812630176544,-0.000419828575104475,-0.002390563488006592
175,-0.017110920560343957,0.0020628125173228836,-2.475540290762609,-0.017110049724578857,-0.0020628110505640507,-0.9998514652252197,-8.553918451070786e-05,0.00033936649560928345,-0.0020445813424885273,-0.00013238005340099335,0.0010252136271446943,-0.002177894115447998
176,-0.017073916519377206,0.0021485204619198462,-2.475579922093511,-0.017073048278689384,-0.002148518804460764,-0.9998519420623779,-0.0018165195360779762,-9.757373481988907e-05,0.0005868248408660293,0.0011886488646268845,-0.00039969896897673607,-0.0028793811798095703
177,-0.017080931020277638,0.0021600756694982433,-2.475582702444247,-0.01708006113767624,-0.002160073956474662,-0.9998517632484436,-0.0017161434516310692,-0.0004136771894991398,0.0012541073374450207,-0.0006811674684286118,-2.1932413801550865e-05,-0.002940535545349121
178,-0.01704192050560054,0.0021746820125484604,-2.4755389121071603,-0.017041055485606194,-0.0021746803540736437,-0.9998524188995361,-6.753671914339066e-05,-0.00034402450546622276,-0.002272214274853468,0.0004089772701263428,0.000740354647859931,-0.0014140009880065918
179,-0.01705269089039069,0.0021250414419957276,-2.475545159661942,-0.017051825299859047,-0.002125039929524064,-0.9998523592948914,0.0009346036240458488,-0.0018365965224802494,-0.0003475332632660866,-0.0008314754813909531,-0.0007436126470565796,-0.0027874112129211426
180,-0.01709127813614206,0.002159111362309323,-2.4755631147966697,-0.017090406268835068,-0.0021591095719486475,-0.999851644039154,0.001386759802699089,-0.0009794831275939941,-0.00036685122177004814,-0.0005945302546024323,7.620546966791153e-06,-0.0015369057655334473
181,-0.01708491382386768,0.0021546390560456224,-2.475585821011037,-0.017084043473005295,-0.002154637360945344,-0.9998517632484436,0.000450892373919487,-4.560127854347229e-05,0.0014029144076630473,-0.0002804584801197052,0.00021677091717720032,-0.0013841986656188965
182,-0.017030037578979338,0.0022018781199541508,-2.475590831351818,-0.01702917367219925,-0.0022018763702362776,-0.9998525977134705,0.0016109072603285313,-0.0018467637710273266,-0.00021074304822832346,-0.0005489513278007507,0.0002945275045931339,-0.001383364200592041
183,-0.017018103993065657,0.00220460415811278,-2.4755755451702606,-0.017017241567373276,-0.002204602351412177,-0.9998527765274048,0.0021119555458426476,-0.0016259020194411278,-0.0012809133622795343,0.00046145543456077576,-0.0006640497595071793,-0.0019325017929077148
184,-0.01696572224071625,0.0022410250451964913,-2.4755849211537693,-0.01696486584842205,-0.0022410231176763773,-0.9998535513877869,0.00011396780610084534,-0.0014034355990588665,-0.0005926702870056033,-0.0007048100233078003,0.0005778155755251646,-0.0022215843200683594
185,-0.016944551407654142,0.002247858298177954,-2.4756080745169586,-0.01694369688630104,-0.0022478564642369747,-0.9998539090156555,0.0010909372940659523,-0.0015413500368595123,0.0005315539892762899,-5.459226667881012e-05,-0.0006513132248073816,-0.002526402473449707
186,-0.016938299621049382,0.002287750035686169,-2.47562709210195,-0.01693744584918022,-0.002287748036906123,-0.9998539090156555,-0.00035993289202451706,-0.0006797397509217262,-0.0009732957696542144,0.0003664027899503708,0.0007313520181924105,-0.001076817512512207
187,-0.016918553398823078,0.0022957344450251706,-2.475682783641441,-0.016917701810598373,-0.0022957324981689453,-0.9998542666435242,0.0015775826759636402,0.002427714876830578,0.0013336299452930689,-0.0005688704550266266,-0.0005424022674560547,-0.00264817476272583
188,-0.016967722538726797,0.0023322793225927225,-2.4757244958460363,-0.016966862604022026,-0.0023322771303355694,-0.9998533129692078,-0.000386224128305912,-0.0016970797441899776,-0.001278973650187254,0.0004873722791671753,-0.000597410136833787,-0.003412008285522461
189,-0.016897322302862203,0.002366893046299766,-2.4757121556699184,-0.01689647138118744,-0.002366890897974372,-0.9998544454574585,-0.0003864215686917305,0.0008046645671129227,-0.0005403063260018826,-0.000712171196937561,0.0004900600761175156,-0.001564621925354004
190,-0.016968571278283214,0.0023064400700860406,-2.4757129619493616,-0.016967711970210075,-0.0023064380511641502,-0.9998533725738525,-0.0002805441617965698,-0.0001913607120513916,0.0004192967899143696,-0.0006104111671447754,0.0001549490261822939,-0.0021759867668151855
191,-0.017031885024644422,0.0022380317451215046,-2.4757529797739335,-0.017031019553542137,-0.002238029846921563,-0.9998524785041809,-0.00033443979918956757,2.2075138986110687e-05,-0.0024885027669370174,0.0005210097879171371,-0.0003254464827477932,-0.002878844738006592
192,-0.017029773008495026,0.0022936789480912777,-2.475803002701248,-0.01702890545129776,-0.0022936768364161253,-0.9998523592948914,-0.0005621481686830521,-0.000711632426828146,0.0020251250825822353,-0.00042714737355709076,0.0003100342582911253,-0.002848386764526367
193,-0.017043862266554886,0.002241079694261163,-2.4757973935634117,-0.017042994499206543,-0.002241077832877636,-0.9998522400856018,0.0006484063342213631,-0.00031535420566797256,0.0017794944578781724,0.0005177278071641922,-0.0002155869733542204,-0.002314448356628418
194,-0.017063400052069706,0.0021805931025300333,-2.4757713735989153,-0.017062531784176826,-0.002180591458454728,-0.9998520612716675,0.0014701676554977894,0.0004072263836860657,-0.003335133660584688,0.0007661450654268265,-0.0006117671728134155,-0.0031844377517700195
195,-0.01712411733813906,0.0021831663846998235,-2.475784497831855,-0.017123239114880562,-0.0021831647027283907,-0.9998509883880615,0.0013831285759806633,-0.0012804269790649414,-0.0012851941864937544,-4.289485514163971e-05,-0.0004260882269591093,-0.003215968608856201
196,-0.01712247560780593,0.0021732568418570547,-2.475782608666372,-0.01712159812450409,-0.0021732551977038383,-0.9998510479927063,0.0007364340126514435,0.0012843860313296318,0.0028701466508209705,0.00018434412777423859,-0.000237633241340518,-0.0024529695510864258
197,-0.017111345974153726,0.002170672127775255,-2.4757622136274153,-0.017110470682382584,-0.002170670311897993,-0.9998512268066406,0.0006287647411227226,-0.000598512589931488,0.0009936434216797352,-0.00029980577528476715,-0.000697981333360076,-0.0033378005027770996
198,-0.01711988118885398,0.002226431081837625,-2.475790060394805,-0.01711900159716606,-0.0022264292929321527,-0.9998509883880615,0.0005467133596539497,0.0026490380987524986,0.0014382736990228295,0.0003343336284160614,4.44226898252964e-05,-0.0031092166900634766
199,-0.01700053355124863,0.0022080510397796413,-2.475760188477446,-0.01699967309832573,-0.002208049176260829,-0.9998530745506287,-0.0007581785321235657,0.00025973282754421234,0.0009294218616560102,-0.00033431127667427063,0.0004075122997164726,-0.0018864274024963379
200,-0.016996544325069425,0.002213255230832682,-2.4757612986638264,-0.016995685175061226,-0.0022132534068077803,-0.9998531341552734,0.001869776751846075,0.0011398461647331715,-0.00033185246866196394,-0.0004298519343137741,-0.0004722932353615761,-0.0028629302978515625
201,-0.01694865502136914,0.0021844954831167457,-2.475729282409989,-0.016947804018855095,-0.002184493700042367,-0.9998539686203003,-0.0003518667072057724,-0.0013724928721785545,0.001845890423282981,0.00039201974868774414,0.0008569795172661543,-0.0033503174781799316
202,-0.016977929432841505,0.0021307940574218755,-2.475696470383408,-0.01697707548737526,-0.0021307924762368202,-0.9998536109924316,-0.0015766648575663567,0.00012292899191379547,0.0018243036465719342,-0.0009520016610622406,-0.0003716489300131798,-0.0022368431091308594
203,-0.017001478683303914,0.002121338979979901,-2.4756566400786832,-0.017000621184706688,-0.0021213374566286802,-0.999853253364563,-0.005309663712978363,-0.00015150709077715874,0.0015063678147271276,-0.00028758682310581207,0.0003055413253605366,-0.0015505552291870117
204,-0.016976430227378745,0.002068011576192246,-2.4756276011276683,-0.016975577920675278,-0.0020680101588368416,-0.999853789806366,-0.0006713606417179108,0.00011405348777770996,-0.000728971092030406,-0.0002058185636997223,0.00014540273696184158,-0.003381073474884033
205,-0.016951219960570342,0.00209168155612136,-2.475652692545871,-0.016950370743870735,-0.0020916799549013376,-0.9998541474342346,0.00021972320973873138,0.0007451595738530159,0.0004594286438077688,-0.0010092239826917648,-0.00010558543726801872,-0.002449929714202881
206,-0.01701140546691421,0.002091362764071744,-2.475641858857219,-0.01701054722070694,-0.0020913612097501755,-0.9998531341552734,-0.00031686946749687195,0.00018577976152300835,0.0010866293450817466,8.85501503944397e-05,0.00012297742068767548,-0.0029850006103515625
207,-0.01703809999851878,0.0020970481100110196,-2.4756250408699594,-0.01703723892569542,-0.0020970464684069157,-0.9998526573181152,-0.001179615966975689,-0.0011284048669040203,0.00019639416132122278,8.472427725791931e-05,0.00032702693715691566,-0.0015664100646972656
208,-0.017009619124306718,0.0020676108351353863,-2.475586091803257,-0.017008762806653976,-0.0020676094572991133,-0.9998531937599182,-0.00033708568662405014,0.00038714706897735596,0.0018067965283989906,-0.0008287597447633743,0.0002975903917104006,-0.0030306577682495117
209,-0.01697435653408662,0.0020650965118108942,-2.4755711420403888,-0.016973504796624184,-0.002065095119178295,-0.999853789806366,-0.001870378851890564,-0.00026614638045430183,-0.0003627445548772812,-0.0006503947079181671,-0.0015054612886160612,-0.002251863479614258
210,-0.016922543262778703,0.0020649616699099575,-2.4756088340431033,-0.016921699047088623,-0.0020649603102356195,-0.9998546838760376,-0.0010911673307418823,-0.0011522267013788223,-0.0004693918162956834,-0.001007378101348877,-5.60111366212368e-05,-0.0027240514755249023
211,-0.01688270934533319,0.0020951420133779523,-2.4755780855529426,-0.016881870105862617,-0.002095140516757965,-0.9998552799224854,0.00032436009496450424,0.0008598677814006805,-0.002136372961103916,0.0004481561481952667,0.00015727407298982143,-0.002692878246307373
212,-0.01678176684379514,0.0020952350249423012,-2.475583489357158,-0.016780942678451538,-0.002095233416184783,-0.9998570084571838,0.0009570419788360596,7.090996950864792e-05,-0.0005526229506358504,0.0003930032253265381,-0.00023936107754707336,-0.002660691738128662
213,-0.016795633182776652,0.0020866415623516576,-2.47555224159139,-0.016794806346297264,-0.002086640102788806,-0.9998567700386047,0.0010599121451377869,0.0020363247022032738,-0.0015686374390497804,-5.089491605758667e-05,1.1444790288805962e-05,-0.0023709535598754883
214,-0.016780621396254667,0.0021454042942339454,-2.4755565225804412,-0.016779795289039612,-0.0021454025991261005,-0.9998568892478943,0.0033166329376399517,0.00029851775616407394,0.0014230208471417427,0.00013245828449726105,-0.0005554028321057558,-0.0027980804443359375
215,-0.016741970809274444,0.002162451210466679,-2.4755648580602982,-0.016741149127483368,-0.0021624495275318623,-0.9998575448989868,0.000615839846432209,0.0007693730294704437,0.001009335508570075,-0.0003486946225166321,-0.00021792156621813774,-0.0030874013900756836
216,-0.01673911252015472,0.002202655642592444,-2.4755249742607335,-0.0167382899671793,-0.002202653791755438,-0.999857485294342,0.0013289367780089378,-0.0007304190658032894,-0.0006250551668927073,-0.0002905186265707016,0.0007835864089429379,-0.002690732479095459
217,-0.016732178222516814,0.0022048200088956847,-2.4755332734048605,-0.01673135720193386,-0.0022048181854188442,-0.9998576045036316,0.0003835093230009079,0.0006014732643961906,-0.00020190596114844084,-0.0005568526685237885,0.0004653162322938442,-0.002843201160430908
218,-0.01676944444042805,0.002203558317547349,-2.4755956354847797,-0.016768617555499077,-0.002203556476160884,-0.9998569488525391,-0.0005640676245093346,-0.004202570766210556,0.0009385206503793597,-0.00015337765216827393,0.0007844890933483839,-0.002721726894378662
219,-0.016798629529874005,0.0021615794671904745,-2.475595157407467,-0.016797799617052078,-0.002161577809602022,-0.9998565912246704,0.0015156217850744724,0.0010093813762068748,-0.0011472405167296529,-0.0007345490157604218,-6.620539352297783e-05,-0.00205075740814209
220,-0.01675508132765874,0.0021636586714902316,-2.4755919636672465,-0.016754258424043655,-0.0021636569872498512,-0.9998573064804077,0.0017506037838757038,-0.00042214198037981987,-0.0005959293339401484,-0.0010069720447063446,-0.0004303371533751488,-0.0018821954727172852
221,-0.01684715088853926,0.0021669975586137316,-2.475552057221942,-0.016846314072608948,-0.0021669957786798477,-0.9998557567596436,0.0003089355304837227,0.0015146378427743912,0.0018041811417788267,-0.00010620057582855225,-0.000533809419721365,-0.0023415088653564453
222,-0.016933717005704865,0.0021407115381107344,-2.475543491796418,-0.01693286933004856,-0.002140709897503257,-0.999854326248169,0.002054853830486536,-0.001613969448953867,-0.0010036756284534931,0.0005296729505062103,-0.0003006958868354559,-0.0030295252799987793
223,-0.016979354671077907,0.0021670868374711974,-2.4756017158578127,-0.016978498548269272,-0.002167085185647011,-0.9998534917831421,0.0012530386447906494,-0.0005214647389948368,-0.001849766238592565,-0.0009048003703355789,0.0005954301450401545,-0.0026488900184631348
224,-0.01704940575905779,0.002198881987314245,-2.475582192672096,-0.017048537731170654,-0.0021988803055137396,-0.9998522400856018,0.0009705163538455963,-0.0013686972670257092,-0.0005414148326963186,0.00037068314850330353,0.0005509315524250269,-0.001719355583190918
225,-0.01704837148020669,0.0021885257447484003,-2.4756058733604034,-0.01704750396311283,-0.0021885239984840155,-0.9998522996902466,0.0018713008612394333,-0.0006769201718270779,-0.001971474615857005,-0.0007289834320545197,-0.0003749527968466282,-0.001963496208190918
226,-0.01705871585028815,0.0021674464072017645,-2.475582394156699,-0.01705784909427166,-0.0021674446761608124,-0.999852180480957,0.0019184919074177742,0.0006223097443580627,0.00040696177165955305,0.0003799907863140106,-0.00024344353005290031,-0.0030622482299804688
227,-0.01702397377637325,0.0021942194406139536,-2.475571223069822,-0.017023110762238503,-0.002194217639043927,-0.99985271692276,0.0003622593358159065,-0.001572363544255495,-0.00014817470218986273,-5.14741986989975e-05,0.00010376377031207085,-0.0028023123741149902
228,-0.017081247616190138,0.002121504042324444,-2.475618453342008,-0.01708037778735161,-0.002121502533555031,-0.9998518824577332,-0.0011266227811574936,-0.0008181771263480186,-0.0006550779798999429,-0.0007571466267108917,0.0002446714788675308,-0.0033982396125793457
229,-0.017109742278969123,0.0021374042446202913,-2.4755789731912996,-0.017108868807554245,-0.0021374025382101536,-0.9998513460159302,-0.00153361726552248,0.00019390229135751724,0.00018051813822239637,-0.000759173184633255,1.643085852265358e-05,-0.0033224821090698242
230,-0.017120911068571398,0.002147446308390398,-2.475593476140059,-0.017120035365223885,-0.0021474447567015886,-0.9998511075973511,-0.00048416201025247574,-0.00029727304354310036,0.0007957187481224537,-0.0006106756627559662,-9.559723548591137e-05,-0.0018272995948791504
231,-0.017157483255696878,0.0021171496135412643,-2.4755883039098383,-0.017156602814793587,-0.002117148134857416,-0.9998505711555481,0.001521917525678873,-0.0005685011856257915,-0.0005083035212010145,6.675906479358673e-05,0.0006065280176699162,-0.0020872950553894043
232,-0.017190731636690253,0.002116591524324653,-2.4756193630962002,-0.01718984730541706,-0.002116590039804578,-0.9998499751091003,-0.0012002494186162949,-0.0017684218473732471,-0.00020549586042761803,6.948597729206085e-05,-0.0007520618382841349,-0.003232240676879883
233,-0.01721889552554691,0.002151795221513296,-2.4756110846804193,-0.017218004912137985,-0.0021517935674637556,-0.9998494386672974,0.0005971379578113556,0.00023234449326992035,-0.0005625839112326503,0.00037230364978313446,0.0001681509893387556,-0.0014627575874328613
234,-0.017251854513871474,0.0021149470768597038,-2.4756162319251667,-0.01725096069276333,-0.0021149455569684505,-0.9998489618301392,-0.00020526349544525146,0.0021007414907217026,0.0013769723009318113,0.00028318725526332855,0.00031440844759345055,-0.00218045711517334
235,-0.017230735698649004,0.0021225978411780638,-2.475622706238021,-0.017229843884706497,-0.002122596139088273,-0.9998493194580078,0.00046319887042045593,0.0005235308781266212,-0.0006238669157028198,0.0002315528690814972,-8.99285078048706e-05,-0.0032176971435546875
236,-0.017278260606449377,0.0021201366882565562,-2.4756611568881985,-0.017277361825108528,-0.0021201351191848516,-0.999848484992981,-0.0016056550666689873,-0.0007429681718349457,-0.0001318278955295682,-0.0005296450108289719,0.0007621031254529953,-0.002364039421081543
237,-0.017295188931693902,0.002107175030133939,-2.4756934788834175,-0.01729428768157959,-0.0021071734372526407,-0.9998482465744019,-0.0017602648586034775,0.0010258406400680542,0.0015651839785277843,-0.00026857852935791016,0.00010827183723449707,-0.0024253129959106445
238,-0.017287437371739708,0.00210353076093788,-2.475739403793082,-0.01728653721511364,-0.0021035291720181704,-0.9998483657836914,0.0002465303987264633,-0.001126845832914114,-0.0016183833358809352,-0.00045943446457386017,-0.0006888294592499733,-0.0022726058959960938
239,-0.01726640615305308,0.002129517073478163,-2.47581951356195,-0.01726550981402397,-0.0021295154001563787,-0.9998486638069153,-0.0015650056302547455,0.0005453908815979958,0.00023878482170403004,2.308003604412079e-05,-0.00015930249355733395,-0.0031419992446899414
240,-0.01721058861715514,0.0021719789756098062,-2.4758164465086767,-0.017209697514772415,-0.0021719771903008223,-0.9998495578765869,0.0019261720590293407,-6.700586527585983e-05,0.0023745291400700808,-0.00029213353991508484,0.0003256639465689659,-0.002652883529663086
241,-0.01718302856579472,0.0021209268398126807,-2.475797859003981,-0.01718214526772499,-0.002120925346389413,-0.9998501539230347,0.00037794094532728195,0.0012240903452038765,-0.0004410728579387069,0.00022963061928749084,0.0011291042901575565,-0.000928044319152832
242,-0.01718581873409344,0.0021630881511712175,-2.475814053085456,-0.01718493178486824,-0.0021630865521728992,-0.9998499751091003,-0.0011687083169817924,0.0001884130761027336,0.00014070607721805573,-0.0003931913524866104,7.26326834410429e-05,-0.002408266067504883
243,-0.017159974237977604,0.0021631972609479078,-2.475831972832531,-0.01715909130871296,-0.0021631955169141293,-0.9998504519462585,0.0008533354848623276,-0.0007639839313924313,-0.002192848362028599,-0.0005716215819120407,0.0008204220794141293,-0.002362072467803955
244,-0.01715504148122352,0.0021301226796673184,-2.4758694011149958,-0.017154160887002945,-0.0021301209926605225,-0.9998505711555481,-0.002641797997057438,-0.0016805301420390606,-0.0021967291831970215,0.0009035523980855942,9.149545803666115e-06,-0.003155350685119629
245,-0.017174477124508116,0.002126851522510742,-2.4758654842864707,-0.01717359386384487,-0.0021268499549478292,-0.9998502731323242,0.0005839280784130096,-0.0019168751314282417,-0.00028219050727784634,0.0007093604654073715,-0.0002992977388203144,-0.0020875930786132812
246,-0.017156004471543942,0.00215947315540056,-2.475884478122848,-0.017155122011899948,-0.0021594713907688856,-0.9998505115509033,-0.0027851155027747154,-0.0019182609394192696,-0.0018640474881976843,0.0008282177150249481,3.849947825074196e-05,-0.0022552013397216797
247,-0.017092141200499466,0.002143668101869666,-2.475878930850051,-0.01709127053618431,-0.0021436663810163736,-0.999851644039154,0.0013190396130084991,-0.000374689232558012,0.0005907227750867605,-0.0003342665731906891,0.0002210591919720173,-0.0024829506874084473
248,-0.01709078557625013,0.0021220874521657475,-2.4758739227365307,-0.01708991453051567,-0.0021220857743173838,-0.9998517036437988,-0.000604553148150444,0.00011031702160835266,0.0007201663684099913,-0.0004119165241718292,-0.0006092377007007599,-0.002513408660888672
249,-0.017096010414507215,0.002201090029756715,-2.4759161256878564,-0.017095135524868965,-0.0022010882385075092,-0.9998514652252197,-0.0007285363972187042,0.0004403041675686836,0.00042014301288872957,-0.00029988400638103485,-4.195375367999077e-05,-0.0032918453216552734
250,-0.017144840457082082,0.002198647742310023,-2.4759081218819334,-0.017143959179520607,-0.002198646077886224,-0.9998506307601929,0.000597669743001461,-0.0005761007778346539,-0.0011393530294299126,0.000206703320145607,-0.0006700060330331326,-0.002483963966369629
251,-0.017140140064475215,0.002230497822396277,-2.475876185842397,-0.017139257863163948,-0.0022304959129542112,-0.9998506307601929,0.0006602248176932335,-0.0007192813791334629,0.0009033378446474671,0.00017148442566394806,-8.883979171514511e-05,-0.002834916114807129
252,-0.017149008359347576,0.0021405974394298212,-2.475861499419828,-0.017148127779364586,-0.0021405958104878664,-0.9998506903648376,-0.002046685665845871,0.0016859127208590508,-0.00028083939105272293,-0.0002774074673652649,-0.0006059864535927773,-0.0021329522132873535
253,-0.017075656809786198,0.0021826332461483966,-2.4758375107462354,-0.017074786126613617,-0.0021826315205544233,-0.9998518228530884,0.00033187586814165115,-0.001962527632713318,-0.0018979946617037058,-0.0006406661123037338,7.691909559071064e-05,-0.0027268528938293457
254,-0.017112429373445627,0.002232198416651163,-2.4758510177786084,-0.017111551016569138,-0.002232196507975459,-0.9998511075973511,0.00163658382371068,-0.001176583580672741,-3.391643986105919e-05,-0.0006649382412433624,0.00037062400951981544,-0.0029412508010864258
255,-0.017120347818189136,0.0022342179902154055,-2.4758415913363936,-0.01711946912109852,-0.0022342160809785128,-0.9998509287834167,-0.001803223043680191,-0.0006595971062779427,-0.0029441164806485176,0.0005331672728061676,0.00022005639038980007,-0.0026819705963134766
256,-0.01709946503322431,0.002236817848881985,-2.4758689817471558,-0.01709858886897564,-0.002236815867945552,-0.9998512864112854,-0.00206148624420166,0.0011275708675384521,-0.0009370349580422044,0.0008327215909957886,7.006782107055187e-05,-0.0025442838668823242
257,-0.017028963603161442,0.002238885836637358,-2.475920565682291,-0.017028097063302994,-0.0022388838697224855,-0.9998524785041809,-0.0006051408126950264,0.0006821462884545326,-0.00116196449380368,-0.000168556347489357,-0.00018726312555372715,-0.0032144784927368164
258,-0.017037459613043753,0.002209908780769871,-2.4759197290537105,-0.017036594450473785,-0.002209906931966543,-0.9998524188995361,-0.0010341359302401543,-0.00016137678176164627,-0.001940645044669509,-8.37668776512146e-05,-4.839361645281315e-05,-0.002237975597381592
259,-0.017044355725184108,0.0021505698310939556,-2.4758879623157872,-0.017043491825461388,-0.0021505681797862053,-0.9998524188995361,-0.0014921864494681358,0.00283957552164793,0.0003166842507198453,0.00031985901296138763,-0.00041290814988315105,-0.0019480586051940918
260,-0.017035225648872707,0.0021721025532337613,-2.4758850900771487,-0.017034361138939857,-0.0021721008233726025,-0.9998525381088257,0.0011165114119648933,0.000581914559006691,-4.879874177277088e-05,0.0004022829234600067,-0.00016249367035925388,-0.004038393497467041
261,-0.017061472408314154,0.002195578234557094,-2.475922759283797,-0.017060603946447372,-0.002195576438680291,-0.9998520612716675,-0.00015121512115001678,0.0014024917036294937,-0.0008586416952311993,-0.00048700347542762756,0.00018141651526093483,-0.0028487443923950195
262,-0.01705908156321286,0.002090003874447553,-2.4759409302035356,-0.01705821603536606,-0.0020900024101138115,-0.9998522996902466,6.241165101528168e-05,0.0016808705404400826,0.0003038328140974045,-0.0003062840551137924,0.0008998170960694551,-0.0025585293769836426
263,-0.017051092148262274,0.002081989640227003,-2.475931535756637,-0.017050229012966156,-0.0020819881465286016,-0.9998524785041809,0.001078454777598381,0.0010610409080982208,0.00108975893817842,0.000860653817653656,-0.000359418336302042,-0.002192199230194092
264,-0.017020993141879527,0.0020966072716429875,-2.475963260619374,-0.01702013425529003,-0.002096605719998479,-0.9998529553413391,0.00017433427274227142,-0.001123326364904642,0.0008952287025749683,-0.00019177980720996857,-0.0005584238097071648,-0.0026647448539733887
265,-0.017062388077721313,0.0021270496407788603,-2.476054780105519,-0.017061522230505943,-0.0021270480938255787,-0.999852180480957,-0.0002039363607764244,0.00029562972486019135,-0.001128723262809217,-0.00048608705401420593,-0.0001465114764869213,-0.0027418136596679688
266,-0.017118634984229282,0.0021613150315644655,-2.476031325717241,-0.017117759212851524,-0.0021613133139908314,-0.9998511672019958,-0.0003542071208357811,-0.00011166185140609741,-7.04833073541522e-05,0.00037886761128902435,-0.0005852687172591686,-0.0025292038917541504
267,-0.017137207189354194,0.0021795353955494125,-2.4760432850314182,-0.017136327922344208,-0.0021795337088406086,-0.9998508095741272,-0.001979985274374485,0.0002857903018593788,-0.0018970241071656346,0.0009009763598442078,-0.0002313549630343914,-0.0017971396446228027
268,-0.017144512204460907,0.0022154037590885922,-2.4760857099380895,-0.017143629491329193,-0.002215401967987418,-0.9998505711555481,-0.0004086587578058243,9.291525930166245e-05,-0.0009310415480285883,0.00048103369772434235,0.0005216763820499182,-0.002743363380432129
269,-0.017150745264255897,0.0022054477202431318,-2.476068025034766,-0.01714986190199852,-0.002205445896834135,-0.9998505115509033,0.0002552242949604988,0.0018883692100644112,0.0024554042611271143,-0.0007639545947313309,-0.00025121914222836494,-0.0017364025115966797
270,-0.017103614546610905,0.002113589949904307,-2.476109038445208,-0.017102742567658424,-0.002113588387146592,-0.9998515248298645,0.00019026082009077072,-0.0034137689508497715,0.0010912412544712424,-0.0005364175885915756,0.0003283102996647358,-0.003703773021697998
271,-0.017219145608323574,0.0020700961577198775,-2.4761071347227825,-0.01721825823187828,-0.0020700946915894747,-0.9998496174812317,-0.0014753397554159164,0.0005552684888243675,-0.00025807449128478765,0.0005861781537532806,0.000696803443133831,-0.0025765299797058105
272,-0.01718373731245505,0.0020606401703852036,-2.4761027383674437,-0.017182854935526848,-0.00206063874065876,-0.9998502135276794,0.0030005350708961487,0.0011338982731103897,-0.0012576323933899403,-0.0007462203502655029,-0.00010610907338559628,-0.0019960403442382812
273,-0.017170118346690213,0.002130005524069966,-2.476138772767227,-0.01716923527419567,-0.0021300038788467646,-0.999850332736969,-0.0013374518603086472,0.00028991885483264923,0.00029455963522195816,-0.0008819121867418289,-0.00021984940394759178,-0.002987802028656006
274,-0.017212265463399212,0.0021868451165720374,-2.476145751616524,-0.017211373895406723,-0.002186843426898122,-0.9998494982719421,-0.0013786545023322105,-0.0009297407232224941,-0.0004823845811188221,-0.000320974737405777,0.0001726835034787655,-0.0027902722358703613
275,-0.017211874314967353,0.002155743470269027,-2.476147139886,-0.017210984602570534,-0.002155741909518838,-0.9998495578765869,-0.00280078686773777,0.0003844723105430603,0.0006217757472768426,0.0014791730791330338,-0.00014833547174930573,-0.002759695053100586
276,-0.017148108456484096,0.002109281558070799,-2.476097924637504,-0.017147229984402657,-0.002109280088916421,-0.9998507499694824,-5.531776696443558e-05,-0.002162081189453602,0.0035386078525334597,0.00034730322659015656,-0.0003626439720392227,-0.002682209014892578
277,-0.017140803947356526,0.0020906703544288498,-2.47613699496106,-0.017139926552772522,-0.002090668771415949,-0.9998509287834167,-0.0004941560328006744,-0.0006423112936317921,-0.00138235988561064,0.000797763466835022,0.00047323713079094887,-0.003963768482208252
278,-0.017137535682073816,0.0020668464986918554,-2.476171389798166,-0.01713665947318077,-0.0020668450742959976,-0.9998510479927063,-0.00035812146961688995,0.0008322009816765785,0.0001357761211693287,0.00021466240286827087,0.0006477776914834976,-0.0018426775932312012
279,-0.017164395747396834,0.0020835588399862443,-2.4761545962415124,-0.017163515090942383,-0.0020835574250668287,-0.9998505115509033,-0.0014374414458870888,-0.0003327867016196251,-0.002178419614210725,-0.00047564320266246796,0.0006034548860043287,-0.0027281641960144043
280,-0.017166353191137528,0.0020503452251980996,-2.47613696544078,-0.017165474593639374,-0.0020503439009189606,-0.9998505711555481,0.002906369511038065,-0.0014660758897662163,0.0010122739477083087,0.0002587363123893738,0.00012773647904396057,-0.0019347071647644043
281,-0.017170574076281843,0.0020511911429145742,-2.4761187880525877,-0.017169693484902382,-0.002051189774647355,-0.9998505115509033,0.0009538838639855385,0.0007007820531725883,-0.000976616283878684,-0.0010798163712024689,0.0003116875886917114,-0.0030333995819091797
282,-0.017168545916138672,0.0020880152337349445,-2.4761563176327845,-0.01716766506433487,-0.002088013803586364,-0.9998504519462585,-0.0006061382591724396,0.0010034320876002312,-0.0014879102818667889,-0.00010528415441513062,0.00025695934891700745,-0.003018200397491455
283,-0.017175620599684704,0.002076182366332077,-2.4761336713781823,-0.01717473939061165,-0.002076180884614587,-0.999850332736969,-0.0020356588065624237,0.0029831314459443092,3.8315076380968094e-05,-0.0004339013248682022,0.00042823213152587414,-0.0030487775802612305
284,-0.017138352546340743,0.0020267711230544183,-2.4761012227268773,-0.017137479037046432,-0.0020267697982490063,-0.9998511075973511,-0.001187778078019619,-0.0006052176468074322,-0.000908626476302743,-0.0007305629551410675,-0.00020101340487599373,-0.0023003816604614258
285,-0.01716314549394616,0.0019788313449586184,-2.476126815883213,-0.017162268981337547,-0.0019788299687206745,-0.9998507499694824,-0.00010718777775764465,-0.00015267962589859962,-0.0003770620096474886,5.716830492019653e-05,-0.00034050573594868183,-0.0021175742149353027
286,-0.017132086960977035,0.001988515802808419,-2.4761182795315677,-0.01713121496140957,-0.0019885145593434572,-0.9998512864112854,-0.00024111662060022354,0.000994160771369934,0.0006172326393425465,0.0001329239457845688,-0.00017823372036218643,-0.0030173659324645996
287,-0.017073919213620323,0.0019742941989720555,-2.4760741158338875,-0.01707305572926998,-0.001974293030798435,-0.9998522996902466,0.0031133522279560566,0.0023661628365516663,0.0007131219608709216,-0.0006881747394800186,0.0005704844370484352,-0.002528071403503418
288,-0.01701585364208807,0.0019917149998918164,-2.47602717141663,-0.0170149989426136,-0.0019917136523872614,-0.999853253364563,0.0001408485695719719,-0.00017089443281292915,-3.0374969355762005e-05,0.00021507218480110168,0.000526870135217905,-0.0019930601119995117
289,-0.017033911324644276,0.0020389012212677616,-2.475994751040634,-0.017033051699399948,-0.0020388998091220856,-0.9998528361320496,-0.0016391482204198837,-0.001892385073006153,0.0004653290379792452,0.00018735043704509735,-0.00015836558304727077,-0.001932382583618164
290,-0.01703475464824771,0.0020987707821073995,-2.4760073867253825,-0.0170338936150074,-0.0020987691823393106,-0.99985271692276,0.0006521353498101234,-1.0397285223007202e-05,0.0007013550493866205,-0.0005137138068675995,0.000252455472946167,-0.0028175711631774902
291,-0.01699933247949289,0.0020854215781982714,-2.4760015693510913,-0.016998477280139923,-0.0020854200702160597,-0.9998533129692078,0.002538986038416624,-0.0010808715596795082,-0.002275197533890605,-0.00016765855252742767,0.000132295535877347,-0.002954244613647461
292,-0.017028858204373762,0.002100548511342808,-2.476014175678749,-0.017027998343110085,-0.0021005470771342516,-0.9998528361320496,-0.0007654512301087379,-0.0008245655335485935,0.0016917675966396928,-0.0003975406289100647,-0.0006765527650713921,-0.0025580525398254395
293,-0.017015647092238725,0.0021245421949222425,-2.4759550922687787,-0.01701478846371174,-0.0021245405077934265,-0.9998529553413391,-0.0010651592165231705,-0.0011203410103917122,0.0010923859663307667,-0.00013609044253826141,-0.0004541941452771425,-0.0025426149368286133
294,-0.01703414208313695,0.00215037429626547,-2.475934247105252,-0.017033278942108154,-0.002150372602045536,-0.9998525977134705,-0.0005448069423437119,-0.0017695236019790173,0.0006064575864002109,-0.0013688188046216965,-0.0004893976729363203,-0.0023598670959472656
295,-0.01700487371146015,0.002091759559737957,-2.47591734311478,-0.017004016786813736,-0.0020917579531669617,-0.999853253364563,0.0021337727084755898,-0.0016806107014417648,0.0007578263757750392,-8.582696318626404e-05,0.0010541602969169617,-0.0032442808151245117
296,-0.016975788575645592,0.002120590172800069,-2.47588132011601,-0.016974935308098793,-0.0021205886732786894,-0.9998536705970764,0.00022688880562782288,0.0004898663610219955,-0.0032818967010825872,-0.000694742426276207,0.0006099683232605457,-0.003335416316986084
297,-0.01694817888670579,0.0021144349109098997,-2.475962545240248,-0.01694732904434204,-0.002114433329552412,-0.9998541474342346,0.001059751957654953,0.0001300238072872162,0.0006048886571079493,0.000620424747467041,0.00013079075142741203,-0.002755105495452881
298,-0.016909936068550832,0.0021646998498721553,-2.47596729514444,-0.01690909080207348,-0.0021646982058882713,-0.9998546838760376,-0.00039009470492601395,0.0003559878095984459,0.00042545772157609463,-7.39414244890213e-05,-0.00042929593473672867,-0.0014117956161499023
299,-0.016916236480584684,0.0021750899398054516,-2.475952732237523,-0.016915390267968178,-0.0021750882733613253,-0.999854564666748,0.0031065023504197598,-0.00158744677901268,1.3311626389622688e-05,0.0004206392914056778,8.463393896818161e-05,-0.002708911895751953
300,-0.016942534258219368,0.002245084294498405,-2.475993651683068,-0.016941681504249573,-0.0022450825199484825,-0.9998539686203003,-0.0007367925718426704,-0.001989835873246193,-0.0002561210421845317,-0.00019393861293792725,0.0001851459965109825,-0.002846837043762207
301,-0.016965917573514285,0.002254981698144139,-2.4760200312656053,-0.01696506142616272,-0.002254979684948921,-0.9998535513877869,0.00034000352025032043,0.0019291965290904045,-0.0025433495175093412,-0.0010250508785247803,-0.0001711677759885788,-0.0026488900184631348
302,-0.016994793980754035,0.0022556195754367767,-2.476047806316689,-0.0169939324259758,-0.002255617640912533,-0.9998530745506287,-0.0008049206808209419,2.366863191127777e-05,0.0009011463262140751,0.00013297051191329956,-0.0001552710309624672,-0.002084791660308838
303,-0.016997895643608485,0.0022809879365209094,-2.4760526856000165,-0.01699703373014927,-0.002280985936522484,-0.9998529553413391,0.001701817847788334,0.00010338146239519119,7.271161302924156e-05,-0.0006421282887458801,-0.00022145546972751617,-0.0023595690727233887
304,-0.017056319961031314,0.002277658463395906,-2.476006210279716,-0.0170554481446743,-0.0022776564583182335,-0.9998519420623779,0.0015136543661355972,0.0013812566176056862,-0.003111309139057994,-0.00021749921143054962,-0.00017900834791362286,-0.001948535442352295
305,-0.01706779732770836,0.002291854352370378,-2.4760185016140253,-0.017066923901438713,-0.0022918523754924536,-0.9998517036437988,-5.59147447347641e-05,-2.2013671696186066e-05,-5.910568870604038e-05,-0.0002823173999786377,0.0006744207348674536,-0.0034288763999938965
306,-0.017106419595706693,0.002311499596339597,-2.4760261080344423,-0.01710554026067257,-0.002311497461050749,-0.9998509883880615,0.0005930457264184952,-0.0021323510445654392,0.00026595802046358585,0.0005802735686302185,-0.00011464976705610752,-0.001980006694793701
307,-0.017103340746773436,0.0023508459623740943,-2.476064193047019,-0.01710245944559574,-0.00235084374435246,-0.9998509883880615,-0.0011348184198141098,0.0011416440829634666,-0.00024476542603224516,-0.00041463039815425873,0.00015357788652181625,-0.0021631717681884766
308,-0.017141618170809753,0.002370124029377456,-2.4760704799896867,-0.01714073121547699,-0.0023701218888163567,-0.9998502731323242,0.0010277284309267998,0.00017486512660980225,-4.329252988100052e-06,0.000493394210934639,0.0011646777857095003,-0.002530038356781006
309,-0.01715385340139948,0.0023754960089026117,-2.476079252241924,-0.01715296320617199,-0.0023754937574267387,-0.9998500347137451,-0.0006444798782467842,-0.0005492959171533585,0.0010934616439044476,6.312131881713867e-05,0.0003460750449448824,-0.0018283724784851074
310,-0.017147841209449434,0.0023683675027076152,-2.4760998268987504,-0.01714695245027542,-0.002368365181609988,-0.9998501539230347,-0.0005269516259431839,-0.0006379373371601105,-0.0010494989110156894,0.0005759093910455704,-0.0007139097433537245,-0.0027590394020080566
311,-0.01712816428848973,0.0023828316167756208,-2.4761420649303005,-0.017127277329564095,-0.0023828293196856976,-0.9998504519462585,0.002839705441147089,6.721168756484985e-05,0.0005410334561020136,-0.000221962109208107,0.0007043627556413412,-0.0026061534881591797
312,-0.017090794493059443,0.002423297420745439,-2.476157622693191,-0.01708991266787052,-0.0024232950527220964,-0.9998510479927063,-0.0009110094979405403,-0.0009093675762414932,0.0008856873027980328,0.0006714556366205215,0.0002107704058289528,-0.003124415874481201
313,-0.017076702529941156,0.00244356684995648,-2.476170487672977,-0.01707582175731659,-0.0024435643572360277,-0.9998512268066406,-0.0004477817565202713,0.0008455179631710052,-0.0013065389357507229,-0.0005480796098709106,0.00024629849940538406,-0.002620697021484375
314,-0.017097757855347714,0.0024429879414020494,-2.4762181439243176,-0.017096873372793198,-0.002442985540255904,-0.999850869178772,-0.0015149405226111412,0.0009343698620796204,-0.0009188551921397448,6.806477904319763e-05,0.0005661542527377605,-0.0031856298446655273
315,-0.01715396423877124,0.002477967525882439,-2.4762190343106454,-0.017153069376945496,-0.002477965084835887,-0.999849796295166,-0.0017010988667607307,5.911942571401596e-05,-0.0012812186032533646,0.00035314634442329407,0.000891051022335887,-0.003064572811126709
316,-0.0171179554808406,0.002387521242631178,-2.4762258864543427,-0.01711707003414631,-0.002387518994510174,-0.9998506307601929,-0.0008439039811491966,0.0006517292931675911,-0.0004121847450733185,-0.0005068276077508926,0.0008158639539033175,-0.0023465752601623535
317,-0.017141656125272266,0.0023470091455347836,-2.476297521575646,-0.017140770331025124,-0.002347006928175688,-0.999850332736969,0.0016164868138730526,-0.0025264564901590347,-0.0009383626747876406,-5.5884942412376404e-05,-0.0007200096733868122,-0.0015534758567810059
318,-0.017094617201018777,0.0023219714211943575,-2.4763148029294992,-0.017093738541007042,-0.0023219692520797253,-0.9998511672019958,-0.00015381351113319397,0.001683213748037815,0.0004535396583378315,-8.765608072280884e-05,-0.0002872834447771311,-0.003520965576171875
319,-0.01716099781651773,0.0023285591145499013,-2.476302702526674,-0.01716010831296444,-0.002328556962311268,-0.9998500347137451,-9.43327322602272e-05,-4.737265408039093e-05,0.001325445482507348,0.00013130158185958862,0.0003601734060794115,-0.0021945834159851074
320,-0.017132034315583147,0.0023442612943759206,-2.4763440569873514,-0.017131149768829346,-0.002344259060919285,-0.9998505115509033,0.00175443384796381,0.00024808570742607117,-0.0008581902366131544,0.0006363987922668457,0.0003148401156067848,-0.00437617301940918
321,-0.017154937387120924,0.0023378715122731116,-2.476304077544921,-0.01715404912829399,-0.0023378694895654917,-0.9998501539230347,0.001001616008579731,-0.00027034757658839226,-0.0010113633470609784,7.946416735649109e-05,-0.000256124883890152,-0.002423405647277832
322,-0.017148071630239677,0.0023382319926679085,-2.47632302933976,-0.017147185280919075,-0.002338229911401868,-0.9998502135276794,0.001873647328466177,-0.0007866248488426208,0.0010367322247475386,-0.001102326437830925,-0.00030154059641063213,-0.0022401809692382812
323,-0.01715775447491797,0.002356147736800084,-2.4763227757511603,-0.01715686544775963,-0.002356145530939102,-0.9998500347137451,-0.0007568113505840302,-0.0013685361482203007,-0.0005803635576739907,-7.03074038028717e-05,0.0004945732653141022,-0.002576112747192383
324,-0.017129975911354425,0.0023376019812835556,-2.4762834274055763,-0.017129091545939445,-0.0023375998716801405,-0.9998505711555481,0.0004716822877526283,-0.001055023167282343,0.0007592716719955206,0.0001002829521894455,0.00029292237013578415,-0.0033079981803894043
325,-0.017107710170373002,0.0023203745328654836,-2.476334758703489,-0.017106829211115837,-0.002320372499525547,-0.9998509883880615,-0.0010667676106095314,-0.00031885458156466484,-0.002515658736228943,0.0002000909298658371,0.00015362445265054703,-0.0020105838775634766
326,-0.017071383576930707,0.0024273569946750844,-2.4763286606352928,-0.017070503905415535,-0.0024273546878248453,-0.9998513460159302,-0.0005071256309747696,0.0008476283401250839,-0.0024539188016206026,-6.511621177196503e-05,0.0007031112909317017,-0.0014303922653198242
327,-0.017072282140227588,0.0023899505903220114,-2.4763079478511814,-0.017071403563022614,-0.0023899483494460583,-0.999851405620575,0.0010332576930522919,0.0008080936968326569,0.0019858847372233868,-0.00015576742589473724,0.0006351878400892019,-0.0029256343841552734
328,-0.017073761872371977,0.002360271609120068,-2.47633076001344,-0.017072884365916252,-0.0023602694272994995,-0.9998514652252197,-0.004083643667399883,-0.00016974005848169327,0.0003129602409899235,0.0012952964752912521,-0.0004931241273880005,-0.0023152828216552734
329,-0.01702500961239011,0.002316890591690814,-2.476313360069456,-0.017024140805006027,-0.0023168884217739105,-0.9998524188995361,-0.0010749809443950653,-0.0006948201917111874,-0.00012758909724652767,-0.0006607957184314728,-0.00021607056260108948,-0.0018718242645263672
330,-0.01704050596231783,0.002313216421337503,-2.4763337603630116,-0.01703963615000248,-0.0023132143542170525,-0.9998521208763123,0.0009541697800159454,0.0005735382437705994,-0.001807431923225522,-0.0006758160889148712,0.0007568181026726961,-0.0014295578002929688
331,-0.0170640365872504,0.0022820950577799324,-2.476357158044691,-0.017063163220882416,-0.002282093046233058,-0.9998518228530884,-0.001236921176314354,0.0006739217787981033,-0.0013347296044230461,0.00021746009588241577,0.00016112113371491432,-0.001887679100036621
332,-0.017105207147305103,0.002253901972430778,-2.476399418064504,-0.01710432954132557,-0.002253900049254298,-0.9998511672019958,0.0006966544315218925,-0.0002375217154622078,-0.00046823464799672365,-0.0004890542477369308,-0.0009962217882275581,-0.0020104050636291504
333,-0.0170829091645087,0.002201493389458746,-2.476497582548066,-0.017082037404179573,-0.0022014915011823177,-0.999851644039154,-0.00041638873517513275,-0.0021163057535886765,0.00028668995946645737,-0.0006639342755079269,0.0006756132934242487,-0.002299785614013672
334,-0.01712288320227282,0.0022620015189248697,-2.476512739033323,-0.017122002318501472,-0.0022619995288550854,-0.999850869178772,0.0030097495764493942,-0.0018045799806714058,0.0008797154296189547,0.0002457816153764725,-0.0004693237133324146,-0.0026515722274780273
335,-0.017164112331747885,0.0022670422445969516,-2.47649792180817,-0.017163226380944252,-0.0022670403122901917,-0.9998501539230347,0.0004488825798034668,-2.1453946828842163e-05,-0.0011014633346349,-0.0007048174738883972,-0.0005100592970848083,-0.002041935920715332
336,-0.017073703981839924,0.0023061274795271405,-2.4764930923289037,-0.017072828486561775,-0.002306125359609723,-0.9998515844345093,0.0007275193929672241,-0.000864631962031126,0.00020739762112498283,7.453933358192444e-05,0.0009633523877710104,-0.0030170083045959473
337,-0.01709441859429527,0.002244853409806425,-2.476497821696166,-0.017093542963266373,-0.002244851551949978,-0.9998513460159302,-0.0010378537699580193,-0.0009836782701313496,-0.00043254042975604534,-0.0008202735334634781,0.00042905588634312153,-0.002406895160675049
338,-0.017134178419535923,0.0022752105683741318,-2.4765272170091857,-0.01713329553604126,-0.0022752087097615004,-0.9998506307601929,0.0009300438687205315,0.0006508119404315948,-0.000400430872105062,0.00036388635635375977,0.0004441537894308567,-0.002529740333557129
339,-0.017114365424244212,0.0022780230180345896,-2.4765908062353708,-0.01711348630487919,-0.0022780210711061954,-0.9998509287834167,0.0013942373916506767,0.00021561142057180405,-0.00046757422387599945,-0.00020523928105831146,-0.0003007140476256609,-0.0024225711822509766
340,-0.01703831557120345,0.0022234803238402492,-2.476652288305812,-0.017037449404597282,-0.0022234783973544836,-0.9998523592948914,-0.0020699836313724518,-8.79904255270958e-05,3.2838666811585426e-05,-0.0004948973655700684,-0.0002179273869842291,-0.002161741256713867
341,-0.016993204932228206,0.0022605193955986683,-2.476635774313005,-0.016992343589663506,-0.0022605175618082285,-0.9998530745506287,0.0009336797520518303,-0.00021466659381985664,0.0008291711565107107,-0.00046371109783649445,0.00047523900866508484,-0.002542555332183838
342,-0.017059163728512138,0.002269606401080151,-2.4766930480998437,-0.017058292403817177,-0.0022696044761687517,-0.9998519420623779,-0.0007711648941040039,-0.001513021532446146,0.0003283012192696333,-1.629255712032318e-05,5.707982927560806e-05,-0.0028946399688720703
343,-0.01711629143506816,0.002263470751047307,-2.476743843373804,-0.017115412279963493,-0.002263468923047185,-0.9998509883880615,-0.002698712982237339,-0.0020005605183541775,-0.0020316611044108868,5.608610808849335e-05,0.0009206952527165413,-0.0015070438385009766
344,-0.017102937799735898,0.0022461362494160535,-2.4767108414990986,-0.017102060839533806,-0.0022461344487965107,-0.9998512268066406,0.0007799137383699417,0.0018933769315481186,0.0005859916564077139,0.00011902861297130585,0.0003845621831715107,-0.002010345458984375
345,-0.01711414779520325,0.002274392861100316,-2.476696593338349,-0.01711326837539673,-0.002274391008540988,-0.9998509883880615,-0.0008711852133274078,-0.0016171662136912346,0.001982307294383645,-5.2869319915771484e-05,0.0003365245647728443,-0.0025904178619384766
346,-0.017095658564941673,0.0022661792751157914,-2.4766228390886784,-0.01709478162229061,-0.0022661774419248104,-0.9998512864112854,-0.0007796967402100563,-0.000608367845416069,0.0011798958294093609,-0.0002086833119392395,-0.00023626373149454594,-0.0024527311325073242
347,-0.017101896162180538,0.0022836940071753937,-2.47660989185473,-0.017101017758250237,-0.0022836921270936728,-0.9998511672019958,-0.00038713589310646057,0.00041504576802253723,0.001263175392523408,0.0002858322113752365,0.0003916020505130291,-0.0019951462745666504
348,-0.017111158931756926,0.0022256964359254317,-2.476626133543583,-0.017110280692577362,-0.002225694712251425,-0.9998511075973511,-0.0014782166108489037,-0.0011131102219223976,0.00045813177712261677,0.0002950988709926605,-0.0004903699737042189,-0.0019798874855041504
349,-0.017117319844356573,0.002208047743705631,-2.4766624153201477,-0.017116442322731018,-0.002208045916631818,-0.9998510479927063,-0.0004115952178835869,-0.001182562205940485,0.00024839676916599274,-0.0001717638224363327,-0.0003401713911443949,-0.0026055574417114258
350,-0.017120435150443754,0.0021762005244542366,-2.4766581659742526,-0.01711955852806568,-0.0021761988755315542,-0.9998511075973511,-0.0006752023473381996,0.0002721846103668213,0.0019778853747993708,7.549114525318146e-05,0.00022307410836219788,-0.0023156404495239258
351,-0.01706743524667281,0.0021806652354673505,-2.4766045369703873,-0.01706656627357006,-0.002180663403123617,-0.9998520016670227,-0.00011408329010009766,-0.0015651751309633255,-0.0010754597606137395,-0.00020638294517993927,9.020930156111717e-05,-0.002772510051727295
352,-0.017065973119356242,0.0021473567045270014,-2.476610321212707,-0.017065105959773064,-0.002147355116903782,-0.9998520612716675,0.0017151357606053352,0.00046090036630630493,-8.00226116552949e-05,9.733252227306366e-05,0.00020948913879692554,-0.002406179904937744
353,-0.017015267829635056,0.00213156392029894,-2.4766386388179096,-0.017014408484101295,-0.00213156221434474,-0.9998529553413391,-0.0018253820016980171,0.0015960726886987686,4.131114110350609e-06,-0.0001212097704410553,0.00042257807217538357,-0.0020848512649536133
354,-0.017011377583162988,0.0021072198184663867,-2.4766792472906585,-0.0170105192810297,-0.002107218373566866,-0.9998530745506287,0.00025155581533908844,-0.0007418468594551086,0.00039083557203412056,2.7488917112350464e-05,-0.0003799640107899904,-0.0031528472900390625
355,-0.017060695050266816,0.0021291624228781244,-2.476650767124189,-0.017059829086065292,-0.002129160799086094,-0.999852180480957,-0.0011256085708737373,-0.00015842169523239136,0.0011425800621509552,-0.0007929522544145584,0.00017603603191673756,-0.0024976134300231934
356,-0.017053162129352015,0.002107560076324327,-2.4766751529596376,-0.01705229841172695,-0.0021075585391372442,-0.9998523592948914,-0.0009195636957883835,-0.0006762663833796978,0.0014425618574023247,0.00020659714937210083,-0.0006237642373889685,-0.002299070358276367
357,-0.017089776251271678,0.0021134551977484988,-2.4766864111505913,-0.017088906839489937,-0.0021134535782039165,-0.9998517632484436,7.010530680418015e-05,-0.0020915595814585686,0.00032988586463034153,-0.0008706897497177124,-0.00038898782804608345,-0.0028948187828063965
358,-0.017105012721649486,0.0021805236839427637,-2.4767030835671386,-0.0171041376888752,-0.0021805218420922756,-0.9998513460159302,0.002186473459005356,0.00011678878217935562,0.0006084577180445194,-1.6223639249801636e-05,0.0009293011389672756,-0.0025900602340698242
359,-0.017086317756036477,0.0022051046486385364,-2.4767297254765626,-0.017085444182157516,-0.002205102937296033,-0.9998515844345093,0.0013466188684105873,-4.332792013883591e-05,-0.0007258676923811436,-0.0001875031739473343,0.0005266361404210329,-0.0022845864295959473
360,-0.01705533433224352,0.00222328065084571,-2.476743896270314,-0.017054464668035507,-0.0022232788614928722,-0.9998520612716675,-0.00013537239283323288,-0.00017921067774295807,-0.0009694842156022787,-0.00031003542244434357,0.0009262820240110159,-0.002757132053375244
361,-0.017085392750367124,0.00221538141401656,-2.4767960681271304,-0.017084520310163498,-0.0022153796162456274,-0.9998515844345093,-0.0004040747880935669,-0.002126657869666815,0.0025813309475779533,-0.00023420341312885284,-0.0002107673790305853,-0.0026202797889709473
362,-0.017070368128790602,0.0022455540662807156,-2.4768143555353435,-0.0170694962143898,-0.0022455521393567324,-0.9998517632484436,0.0011731702834367752,-0.0006769751198589802,0.0015665579121559858,-0.0006154384464025497,7.880455814301968e-05,-0.002955794334411621
363,-0.017103820077946967,0.0022721030027407518,-2.4768375931168394,-0.017102941870689392,-0.002272101119160652,-0.9998511672019958,-0.0007221531122922897,-0.0009373282082378864,-0.0014020225498825312,-0.0001700073480606079,-4.723481833934784e-05,-0.0025444626808166504
364,-0.017077970320187017,0.00227938649854843,-2.4768583074054353,-0.017077095806598663,-0.0022793845273554325,-0.9998515844345093,0.0007155230268836021,4.6795234084129333e-05,-0.002382469130679965,-0.00013481825590133667,-0.0001925393007695675,-0.0024372339248657227
365,-0.017075579169330786,0.0022861509065119656,-2.476910182084394,-0.01707470417022705,-0.0022861489560455084,-0.9998515844345093,-0.0006675282493233681,0.0009392965584993362,0.0016337363049387932,-0.0007475595921278,-0.0002162919845432043,-0.0025287270545959473
366,-0.017062549863193246,0.00226521836638418,-2.4769681538422126,-0.01706167869269848,-0.0022652163170278072,-0.9998518824577332,-0.00018425192683935165,0.0007927482947707176,0.0012515945127233863,-0.0001960117369890213,-5.4119620472192764e-05,-0.0023301243782043457
367,-0.017013778518329394,0.0022346388537836355,-2.476914794647137,-0.017012914642691612,-0.002234637038782239,-0.9998527765274048,0.0017895745113492012,0.0021842336282134056,-0.0007984397234395146,-0.0008398685604333878,-8.46991315484047e-05,-0.002405524253845215
368,-0.0169571245265315,0.0022506849310595456,-2.476928588549017,-0.01695626974105835,-0.0022506830282509327,-0.9998536705970764,0.00410817563533783,0.000840640626847744,-0.0018598579335957766,-0.00031667761504650116,-0.0006027102936059237,-0.0035032033920288086
369,-0.016925488204980934,0.0022426811821962354,-2.4769286935001587,-0.01692463830113411,-0.0022426792420446873,-0.9998542666435242,0.0008006272837519646,0.0009628161787986755,0.001978865824639797,0.0002772994339466095,0.00024377787485718727,-0.00309067964553833
370,-0.01694166740667233,0.002258623554212156,-2.476879452635534,-0.01694081351161003,-0.002258621621876955,-0.9998539686203003,-0.0020573465153574944,0.0004754103720188141,0.001685661030933261,0.00023243948817253113,-0.00039640767499804497,-0.002862095832824707
371,-0.016879039786692442,0.0022227819140123524,-2.47687532537041,-0.016878196969628334,-0.0022227801382541656,-0.999855101108551,-0.00047245435416698456,-0.0003939736634492874,0.0010502367513254285,-0.00036423467099666595,5.603209137916565e-05,-0.0020369887351989746
372,-0.016891299958775915,0.002218914266973983,-2.4768544632101843,-0.016890455037355423,-0.0022189123556017876,-0.9998548626899719,-0.00041131116449832916,0.0002631004899740219,0.0013829045929014683,-0.0001383516937494278,3.690621815621853e-05,-0.0021744966506958008
373,-0.016874627214863595,0.002258366645880166,-2.47685096021846,-0.016873782500624657,-0.002258364809677005,-0.999855101108551,0.0015272353775799274,-0.002735990099608898,-0.0013499711640179157,-0.0009027067571878433,0.00042730988934636116,-0.0026015639305114746
374,-0.016912862158255673,0.002241406292926156,-2.4768413631586177,-0.016912013292312622,-0.0022414044942706823,-0.9998544454574585,0.0008984282612800598,0.0010607372969388962,-0.0010454269358888268,0.0006461460143327713,-0.0005967302713543177,-0.0019460320472717285
375,-0.016914430988402084,0.0023356987869685704,-2.4768374455824045,-0.016913577914237976,-0.0023356967139989138,-0.9998542070388794,0.001331075094640255,-0.001164100132882595,-0.001235637697391212,-0.0003288518637418747,-5.9933168813586235e-05,-0.00235825777053833
376,-0.016946312469406494,0.0023356410151707937,-2.476874847755766,-0.016945455223321915,-0.0023356389719992876,-0.9998536705970764,0.0010082386434078217,0.0001145731657743454,-0.0013594755437225103,-0.0007852558046579361,0.0003214788157492876,-0.0016263723373413086
377,-0.01700316358635624,0.0023495546477276417,-2.4768673132145316,-0.017002297565340996,-0.0023495524656027555,-0.99985271692276,-0.0018296604976058006,0.0008161189034581184,0.0012259946670383215,0.0007974635809659958,-0.0001681474968791008,-0.0030159354209899902
378,-0.016982023497624666,0.0023465862185130444,-2.4768835706847128,-0.016981160268187523,-0.0023465841077268124,-0.9998530745506287,-0.00017271190881729126,0.00045896321535110474,0.0010059471242129803,-0.0001544598489999771,0.00016457727178931236,-0.002817213535308838
379,-0.016959498372717274,0.0023410969620970873,-2.476830475980596,-0.01695863902568817,-0.0023410948924720287,-0.9998534321784973,-0.0009670630097389221,0.0003766799345612526,-0.00023230561055243015,-5.490891635417938e-05,0.0003269349690526724,-0.00293886661529541
380,-0.016985505566804972,0.0023574094894241045,-2.476840679687999,-0.016984641551971436,-0.0023574072401970625,-0.9998529553413391,-0.00036944542080163956,-0.0024376483634114265,-0.001034512766636908,-0.0003645997494459152,7.5541902333498e-06,-0.0035191774368286133
381,-0.01699993377975568,0.002364595911050088,-2.476858791403569,-0.01699906773865223,-0.002364593790844083,-0.99985271692276,0.0017745518125593662,-0.0008315672166645527,-0.002238421468064189,-0.0007774215191602707,0.0008081970736384392,-0.0017799735069274902
382,-0.016999066782485906,0.0023939582080745184,-2.476846950396809,-0.016998199746012688,-0.0023939558304846287,-0.9998526573181152,-0.0005089202895760536,-0.0014437404461205006,-3.9410311728715897e-05,0.0003203433007001877,0.0006544538773596287,-0.0030312538146972656
383,-0.016903929630878174,0.0024255971382088873,-2.4768183638909185,-0.016903074458241463,-0.0024255947209894657,-0.9998542070388794,0.002158675342798233,0.004093031398952007,0.0010453264694660902,-0.0001257341355085373,0.0004724697209894657,-0.0022667646408081055
384,-0.016911074591130826,0.0023825410492001008,-2.4768018724330148,-0.016910221427679062,-0.0023825387470424175,-0.9998541474342346,0.0005249371752142906,-0.0006105545908212662,-0.0003022329183295369,-0.0005000550299882889,-0.00019619637168943882,-0.0033959150314331055
385,-0.016929872034267233,0.002376827856493567,-2.4767755216954597,-0.016929015517234802,-0.002376825548708439,-0.9998538494110107,0.0006238212808966637,1.537241041660309e-05,0.0008784228703007102,-0.0006491076201200485,4.223105497658253e-05,-0.0024043917655944824
386,-0.016951108526652856,0.002393794794919322,-2.476807174796687,-0.016950247809290886,-0.0023937926162034273,-0.9998534917831421,0.0006281090900301933,0.0017112987115979195,0.001718940562568605,-0.0007957238703966141,-0.0007800357416272163,-0.0016266107559204102
387,-0.016961724332463447,0.002334031014296461,-2.4767922626582433,-0.016960864886641502,-0.002334028948098421,-0.9998534321784973,-0.0017703250050544739,-0.00020309444516897202,0.0028413436375558376,-0.0004188958555459976,0.0007928912527859211,-0.0025421977043151855
388,-0.016918249834783884,0.0023311003405743548,-2.476794370690307,-0.0169173963367939,-0.00233109830878675,-0.9998541474342346,0.0006487732753157616,0.003792579285800457,4.81543829664588e-05,-0.0007522795349359512,0.00021012709476053715,-0.0029686689376831055
389,-0.01695493632031545,0.0023493425344565254,-2.476802621816719,-0.016954077407717705,-0.002349340356886387,-0.9998534917831421,0.0008457396179437637,-0.0003079324960708618,-0.00023164646700024605,-0.000578269362449646,0.00024362769909203053,-0.0016112923622131348
390,-0.016966984957184385,0.0023873035615390842,-2.4767799315330614,-0.01696612313389778,-0.0023873012978583574,-0.9998531937599182,0.002987610176205635,0.0002293083816766739,0.0003662433009594679,-9.32011753320694e-05,3.744778223335743e-05,-0.0025576353073120117
391,-0.016972054357397067,0.0023901336643077876,-2.4767388546955256,-0.01697119139134884,-0.00239013135433197,-0.9998531341552734,0.000976921059191227,-0.0008493857458233833,-0.00020473089534789324,-0.002544799819588661,0.00242064893245697,-0.0039920806884765625
392,-0.01701764591361482,0.0023478142943577154,-2.4767170421641547,-0.017016777768731117,-0.002347812056541443,-0.9998524188995361,0.0030516479164361954,-0.00037694210186600685,-0.0019123604288324714,0.0003999583423137665,0.0019358254503458738,-0.002299010753631592
393,-0.016991307143941363,0.0024023510964092673,-2.476699349496958,-0.01699043996632099,-0.0024023486766964197,-0.9998527765274048,2.9324553906917572e-05,-0.0021775555796921253,0.0006139329634606838,-0.00016043893992900848,-0.001076655462384224,-0.00036084651947021484
394,-0.017049136140413125,0.0024349410188846525,-2.476696412968506,-0.01704826019704342,-0.002434938680380583,-0.9998517036437988,0.0018551461398601532,-0.00047498708590865135,-0.0014276921283453703,-0.0005603823810815811,0.0008785421960055828,-0.006602764129638672
395,-0.017074918223877536,0.002357004085224195,-2.4767591022205626,-0.017074041068553925,-0.002357001882046461,-0.9998514652252197,-0.0007486771792173386,-0.0014258301816880703,0.0012745317071676254,9.100884199142456e-05,0.002112861257046461,-0.0015065670013427734
396,-0.01705472813196279,0.002369334193170037,-2.476715729693341,-0.01705385372042656,-0.002369331894442439,-0.9998517632484436,0.0006845509633421898,0.0014415392652153969,-0.002089395886287093,0.0009710900485515594,-0.0018878700211644173,-0.0006822943687438965
397,-0.01708547997019274,0.002432325512611498,-2.4767336049486355,-0.017084598541259766,-0.0024323230609297752,-0.9998511075973511,-0.0012201303616166115,-0.0001390324905514717,-0.0004629247123375535,0.00011682510375976562,0.0006623035296797752,-0.0036126375198364258
398,-0.017135077824257747,0.0023628945891316627,-2.476758410585746,-0.01713419146835804,-0.002362892497330904,-0.9998503923416138,-0.0018716426566243172,0.0004213862121105194,0.0021572313271462917,-0.0006270371377468109,0.0013252950739115477,-0.001614391803741455
399,-0.01718235961309516,0.00239892533320687,-2.476741386178151,-0.01718146540224552,-0.0023989230394363403,-0.9998494982719421,0.00048537924885749817,0.0007515214383602142,-0.00031427352223545313,-7.622316479682922e-05,-0.001904055243358016,-0.004346609115600586
400,-0.017172038552626254,0.0024199805431858543,-2.47666006409375,-0.017171144485473633,-0.0024199781473726034,-0.9998496174812317,-0.002251807600259781,-0.001188088208436966,0.0011663783807307482,0.000539066269993782,-0.0016388597432523966,-0.003568291664123535
401,-0.01717306825712969,0.00245436506323902,-2.476631673857674,-0.01717217266559601,-0.002454362576827407,-0.9998495578765869,-0.002084835432469845,8.25216993689537e-05,0.001505393418483436,-0.0002991408109664917,0.0023322924971580505,-0.001065969467163086
402,-0.01725695921288555,0.002327548076266121,-2.4766448523554065,-0.017256055027246475,-0.0023275460116565228,-0.9998483657836914,0.0011060629040002823,-0.001338236965239048,0.0022160597145557404,-0.0010850057005882263,0.0013967601116746664,-0.0007771849632263184
403,-0.017190855446855613,0.002446729747359502,-2.4766249374889737,-0.017189957201480865,-0.0024467273615300655,-0.999849259853363,-0.0013364925980567932,0.0003271913155913353,-0.0015146802179515362,0.0007867589592933655,-0.0021003917790949345,-0.004911482334136963
404,-0.01725018771350473,0.0024272418948339167,-2.4766561733673282,-0.017249280586838722,-0.0024272394366562366,-0.9998482465744019,0.0003187544643878937,0.003950448706746101,-0.0007808641530573368,-0.0008628983050584793,0.0036326840054243803,-0.002486288547515869
405,-0.01727143268132477,0.0022958386186654406,-2.4766551218608925,-0.017270527780056,-0.0022958365734666586,-0.9998482465744019,-0.0015980321913957596,0.000731179490685463,-3.896420821547508e-05,0.0010351762175559998,-0.0008169561624526978,-0.0033866167068481445
406,-0.017262307158319376,0.002473601383277567,-2.4766838108139653,-0.01726139709353447,-0.002473598811775446,-0.999847948551178,0.0013422593474388123,0.0011183349415659904,-0.0007394113345071673,0.0017584674060344696,-0.002287143375724554,-0.0027918219566345215
407,-0.017274506897152625,0.0023743526060384292,-2.476690610829411,-0.01727359928190708,-0.0023743503261357546,-0.9998480081558228,0.000709964893758297,-0.0007773884572088718,-0.0016854689456522465,-0.0008538421243429184,0.0032746191136538982,-0.002135634422302246
408,-0.0172707140822863,0.002195097397199787,-2.476675628408461,-0.017269814386963844,-0.002195095643401146,-0.999848484992981,6.132759153842926e-06,0.00047131720930337906,0.0008814800530672073,0.0015837792307138443,-0.0005209688097238541,-0.003432154655456543
409,-0.017165184773554814,0.0023050569032446685,-2.476666442570892,-0.01716429553925991,-0.0023050548043102026,-0.9998500347137451,-7.364898920059204e-06,-7.251277565956116e-05,0.001149339834228158,-0.0009021088480949402,-0.0019368883222341537,-0.003094911575317383
410,-0.017244345468981313,0.0022503693977865514,-2.4766288256479374,-0.01724344678223133,-0.0022503675427287817,-0.9998487830162048,-0.0012243809178471565,-0.000705414917320013,-0.0010118039790540934,-0.0007924400269985199,0.0031658948864787817,-0.0017228126525878906
411,-0.01722158755054611,0.0021199630609826034,-2.4766378412487886,-0.017220698297023773,-0.002119961427524686,-0.9998494386672974,0.0010048504918813705,3.39532271027565e-05,-0.00045897101517766714,0.0003749970346689224,-0.0011454189661890268,-0.0033243298530578613
412,-0.017248921000761405,0.002190637044691862,-2.476649535806782,-0.01724802516400814,-0.0021906353067606688,-0.9998488426208496,0.0011642221361398697,-0.0015937681309878826,0.0004297957057133317,-0.0006657950580120087,-0.0023870011791586876,-0.0006089210510253906
413,-0.017289068936714284,0.0021836701625096693,-2.4765912252855506,-0.017288167029619217,-0.002183668315410614,-0.9998481869697571,-0.0006330637261271477,0.0021618250757455826,0.0011886860011145473,0.0002898760139942169,0.003480665385723114,-0.00195235013961792
414,-0.017287485544302254,0.0020825575740338236,-2.4766059454644727,-0.01728658750653267,-0.0020825560204684734,-0.9998484253883362,-0.0011989278718829155,0.0006350893527269363,-0.00023549352772533894,-0.00030679628252983093,-0.0013811890967190266,-0.0034016966819763184
415,-0.017294070347373,0.002228700682251419,-2.4765839945835775,-0.017293164506554604,-0.0022286989260464907,-0.999847948551178,-0.0006756335496902466,-0.0017417040653526783,0.001378944725729525,-0.00037650950253009796,-0.0018301389645785093,-0.002944350242614746
416,-0.017293047925972502,0.0022248380508519297,-2.476590012480407,-0.017292143777012825,-0.002224836265668273,-0.9998480081558228,0.0015793200582265854,-0.0028889193199574947,-0.0005626431666314602,-0.000697968527674675,0.0021638013422489166,-0.002471327781677246
417,-0.017338561763107548,0.0021771308113772846,-2.4766289594280124,-0.017337651923298836,-0.0021771290339529514,-0.9998472929000854,-0.0013724947348237038,0.0004413491114974022,0.00044935988262295723,-0.000286247581243515,-5.0653936341404915e-05,-0.0037079453468322754
418,-0.017391978635411524,0.002318356576537213,-2.476665376457489,-0.017391055822372437,-0.002318354556336999,-0.9998461008071899,-0.0005256170406937599,-0.00040418561547994614,-0.001559453783556819,0.0011709630489349365,-0.0014963424764573574,-0.0028699636459350586
419,-0.017365178336278604,0.0022793026241304084,-2.4766741785259585,-0.0173642598092556,-0.002279300708323717,-0.9998466372489929,-0.0018295319750905037,3.134924918413162e-05,0.0011730436235666275,-0.0004122294485569,0.002782840747386217,-0.00322037935256958
420,-0.017345049313723274,0.0021821091982737674,-2.476694313192119,-0.017344137653708458,-0.0021821074187755585,-0.9998471736907959,0.0030991286039352417,0.0004148343577980995,0.000486813485622406,0.0003153309226036072,-0.0009917200077325106,-0.001983821392059326
421,-0.017275346681177552,0.0023715283350238025,-2.4766823142740613,-0.017274439334869385,-0.002371526090428233,-0.999847948551178,0.0013455403968691826,0.0027001388370990753,-0.00029556837398558855,0.000947536900639534,-0.0008633367251604795,-0.003066420555114746
422,-0.017269826300047295,0.0022811411229384515,-2.476731413842653,-0.017268922179937363,-0.002281139139086008,-0.9998483061790466,0.0004108855500817299,-0.0010885121300816536,0.0002691815607249737,-0.0007364489138126373,0.002311656717211008,-0.003081381320953369
423,-0.017291142589741158,0.0023048515246299373,-2.476806247234303,-0.017290234565734863,-0.0023048494476825,-0.9998478293418884,-0.001126202754676342,-0.0011418871581554413,-9.675219189375639e-05,-0.0004557352513074875,-0.0017539884429425001,-0.003356456756591797
424,-0.017214181682235558,0.00238206579164905,-2.4768775316018186,-0.017213283106684685,-0.00238206353969872,-0.9998490214347839,0.000646393746137619,0.001667732372879982,-0.0017524518771097064,-1.3889744877815247e-05,-0.0004713302478194237,-0.0014784932136535645
425,-0.01721203290589429,0.0026524651033383406,-2.47690805142415,-0.017211122438311577,-0.0026524621061980724,-0.9998483657836914,-0.011944528669118881,-0.0055792322382330894,-0.0006598250474780798,-0.002655820921063423,0.00854235514998436,0.026551246643066406
426,-0.017052745616719236,0.002892272723175828,-2.4769326591017453,-0.017051847651600838,-0.0028922685887664557,-0.9998504519462585,0.051710065454244614,0.020678048953413963,-0.0020121117122471333,0.004493864253163338,0.001061213668435812,-0.024411022663116455
427,-0.016838609451658392,0.0030688229131154276,-2.476979398995997,-0.01683773472905159,-0.00306881801225245,-0.9998535513877869,0.002903356682509184,-0.0030133086256682873,-0.0007443521171808243,-0.01512942835688591,-0.014402495697140694,0.032370030879974365
428,-0.017717942730980603,0.0033119105773765796,-2.476981122624227,-0.017716918140649796,-0.003311904612928629,-0.9998375773429871,-0.0035411594435572624,-0.0016215667128562927,-0.0004711592337116599,0.009217772632837296,0.011215956881642342,-0.0064795613288879395
429,-0.01670979856031214,0.002911596600367571,-2.4769669760968624,-0.016708949580788612,-0.002911592600867152,-0.999856173992157,0.005120502319186926,0.0013759508728981018,6.784265860915184e-05,-0.0006250329315662384,-0.0062436810694634914,-0.026907742023468018
430,-0.017518622709078165,0.003465380955175248,-2.476998921586067,-0.01751762069761753,-0.0034653740003705025,-0.9998405575752258,-0.001200992614030838,-0.0001864871010184288,-0.0008118310943245888,-0.00802559033036232,-0.00018147658556699753,0.00376206636428833
431,-0.01726083795697637,0.0030217627574815474,-2.4770224467876605,-0.017259901389479637,-0.003021758049726486,-0.9998464584350586,-0.002543979324400425,0.0018668174743652344,-0.0008527513127774,0.011629411950707436,0.008347075432538986,0.003203451633453369
432,-0.01706823311438972,0.0030504530764269996,-2.4770275120268814,-0.017067324370145798,-0.0030504483729600906,-0.9998496770858765,0.000941254198551178,5.7991594076156616e-05,0.0005479801911860704,-0.009406672790646553,-0.00830209068953991,-0.00677257776260376
433,-0.01750149936629402,0.0032539878466720986,-2.4770507246146667,-0.017500514164566994,-0.0032539821695536375,-0.999841570854187,-0.00398538913577795,-0.00023932568728923798,0.00021675950847566128,0.005446070805191994,0.0055733174085617065,-0.0006314516067504883
434,-0.017032499525018292,0.002822412014604372,-2.4770766143400094,-0.017031608149409294,-0.0028224082197993994,-0.9998509883880615,-0.0017289230599999428,-0.0021083923056721687,-0.001934790168888867,0.0005368571728467941,-0.0017094523645937443,0.0013616085052490234
435,-0.017335082560991727,0.0031747978340893037,-2.4771096722559274,-0.01733412779867649,-0.0031747925095260143,-0.9998447299003601,0.0010575195774435997,0.001503688283264637,0.0028856710996478796,-0.004226541146636009,-0.005919445771723986,-0.006213009357452393
436,-0.017239526157829702,0.003164727319232263,-2.47709184764479,-0.017238585278391838,-0.003164722118526697,-0.9998463988304138,-0.0008204830810427666,-0.001414187252521515,0.00030210684053599834,0.005580870434641838,0.004812671337276697,-0.0028696656227111816
437,-0.017100076223820867,0.0030082319533403625,-2.4770916118832114,-0.0170991662889719,-0.0030082273297011852,-0.999849259853363,0.0021513942629098892,-0.0010657869279384613,-0.0004339470760896802,-0.006094193086028099,-0.002744335914030671,-0.0031719207763671875
438,-0.01736931358099628,0.0032313559196673327,-2.4770944585998302,-0.01736835017800331,-0.0032313503324985504,-0.999843955039978,0.0007696859538555145,-0.0006750659085810184,-0.0025240201503038406,0.006168399006128311,-0.0010716281831264496,-0.0020176172256469727
439,-0.017080126326458476,0.0031131855758546175,-2.477148495992053,-0.01707921363413334,-0.0031131806317716837,-0.9998493194580078,-0.00022582896053791046,-0.0010494617745280266,-0.00013147585559636354,-0.004466196522116661,0.0027011935599148273,-0.0027751922607421875
440,-0.01742905830303034,0.003079403563509634,-2.477142167924197,-0.017428092658519745,-0.0030793987680226564,-0.9998433589935303,-0.0009857146069407463,5.743280053138733e-05,0.0008486068109050393,0.001360589638352394,-0.002245919080451131,-0.003208339214324951
441,-0.01712928242163316,0.003086476402986129,-2.477160078728472,-0.017128363251686096,-0.00308647146448493,-0.9998485445976257,5.05838543176651e-05,-0.0015592006966471672,0.0009686537086963654,0.0006183534860610962,0.0020793918520212173,-0.0034168362617492676
442,-0.017256531363437636,0.00303027609309351,-2.477151951120837,-0.017255594953894615,-0.00303027150221169,-0.9998465180397034,8.887238800525665e-05,-0.0007648728787899017,-0.000914375064894557,-0.002977559342980385,0.0012907693162560463,-0.003663003444671631
443,-0.017231916007076385,0.0030729432398608667,-2.477177432083172,-0.017230981960892677,-0.0030729384161531925,-0.9998468160629272,0.0006643664091825485,-0.0011848602443933487,5.093985237181187e-05,0.005496973171830177,-0.0010469346307218075,-0.001114487648010254
444,-0.017142924524437643,0.0031423679044737126,-2.4771857445670045,-0.017141999676823616,-0.003142362693324685,-0.9998481273651123,-0.000841950997710228,0.00044035352766513824,0.0013199957320466638,-0.004403410479426384,-0.0008859569206833839,-0.0019524097442626953
445,-0.01729576270216541,0.0031293108760675715,-2.4771637917111726,-0.017294814810156822,-0.0031293057836592197,-0.999845564365387,0.0009817453101277351,0.000423370860517025,-0.0012130325194448233,0.002325942739844322,0.002457919530570507,-0.003328263759613037
446,-0.017113016381641456,0.003094883234419391,-2.47718993169948,-0.01711209863424301,-0.0030948782805353403,-0.9998487830162048,0.0003488874062895775,-0.0010520345531404018,-0.0001454119337722659,0.0001748446375131607,0.0010654598008841276,-0.0021805763244628906
447,-0.017241387332119343,0.003225195753469045,-2.477208494007849,-0.01724044419825077,-0.0032251900993287563,-0.9998461604118347,-0.0005470216274261475,-0.0007485938258469105,0.0008332247380167246,-0.0029164161533117294,-0.0002995894756168127,-0.002625703811645508
448,-0.017205082794740357,0.0032507171564323954,-2.4772436042091095,-0.01720414310693741,-0.003250711364671588,-0.9998466968536377,-0.0022870609536767006,-0.0005130083300173283,-0.00020588235929608345,0.005866864696145058,0.0016180214006453753,-0.0017859339714050293
449,-0.017041035322173957,0.0032663122226042943,-2.4772450701708317,-0.01704012043774128,-0.003266306361183524,-0.9998494982719421,0.0009650234133005142,0.0026952121406793594,-0.0008619788568466902,-0.00691617839038372,-0.0007772725075483322,-0.006604969501495361
450,-0.017354360493542494,0.0032609432730511113,-2.477258351200592,-0.017353396862745285,-0.0032609375193715096,-0.9998440742492676,0.001176176592707634,0.0018980195745825768,-0.0023507210426032543,0.0037883352488279343,0.002528515411540866,-0.0043978095054626465
451,-0.017000841557221764,0.0030988667077470667,-2.4772870782004768,-0.01699994131922722,-0.0030988617800176144,-0.9998506903648376,-0.0018655946478247643,0.0017163930460810661,-0.000934493844397366,-0.00021197274327278137,-0.002989395521581173,0.00018638372421264648
