,attitude.roll,attitude.pitch,attitude.yaw,gravity.x,gravity.y,gravity.z,rotationRate.x,rotationRate.y,rotationRate.z,userAcceleration.x,userAcceleration.y,userAcceleration.z
0,-1.4482896793561297,0.3189328122763566,0.8412035674083232,-0.942453920841217,-0.3135533630847931,-0.11603794991970062,-0.12201046198606491,0.21372023224830627,0.27101218700408936,0.010447144508361816,-0.021361738443374634,0.017542488873004913
1,-1.4752195703159712,0.30183977133119416,0.8520261925439758,-0.9504335522651672,-0.2972773015499115,-0.09111697226762772,0.0743473470211029,-0.1129324808716774,0.09832779318094254,-0.0032560229301452637,-0.025446057319641113,-0.0066612884402275085
2,-1.5176859218174525,0.29995287886436106,0.8608305284862284,-0.9540033936500549,-0.29547518491744995,-0.05071520060300827,0.27070340514183044,-0.7104354500770569,0.021466266363859177,0.03118234872817993,-0.013667881488800049,-0.10789990425109863
3,-1.560291833819038,0.29290428915313105,0.8867661625450044,-0.9573564529418945,-0.2887340188026428,-0.010056913830339909,0.30534082651138306,-0.5445154905319214,-0.0033621732145547867,0.027958929538726807,-0.03272286057472229,-0.052000582218170166
4,-1.6306256491260218,0.2817212747128638,0.9149254283379868,-0.9588595032691956,-0.27800947427749634,0.057436466217041016,-0.014571291394531727,-0.01298356894403696,0.11724059283733368,0.018552005290985107,-0.006170153617858887,0.0055212900042533875
5,-1.6918222366774716,0.2636160501367732,0.9432327688447006,-0.9583920836448669,-0.2605733871459961,0.11655992269515991,0.14677463471889496,-0.5348447561264038,0.17367002367973328,0.03415191173553467,-0.004639625549316406,0.04596138000488281
6,-1.7150662665377885,0.24155707249821612,0.9369755669563071,-0.9608795046806335,-0.23921477794647217,0.1395958811044693,0.033013857901096344,-0.5479881763458252,0.08781807124614716,-0.034115612506866455,-0.03448212146759033,0.019049763679504395
7,-1.7269477495033339,0.2366876459046482,0.9148765365303857,-0.9602922797203064,-0.23448391258716583,0.15118178725242615,-0.20483005046844482,-0.06844136118888855,0.07264748215675354,0.008510112762451172,-0.006437093019485474,-0.046521782875061035
8,-1.7467317833974128,0.22051945531386766,0.9055637923417861,-0.9607210755348206,-0.21873652935028076,0.17079073190689087,-0.2032804638147354,0.06232047080993652,0.20859584212303162,0.007123053073883057,-0.011304974555969238,-0.007201194763183594
9,-1.7662724542007815,0.19602392764628251,0.8977295321505545,-0.9621688723564148,-0.1947709619998932,0.19051381945610046,0.035633571445941925,-0.26826223731040955,0.3155859410762787,-0.0031937360763549805,-0.011009126901626587,-0.034797877073287964
10,-1.8007615638286676,0.16441390959372706,0.9016737293236297,-0.960543692111969,-0.16367417573928833,0.22486969828605652,0.25433140993118286,-0.6002294421195984,0.34279948472976685,0.008441150188446045,-0.01322096586227417,-0.04438881576061249
11,-1.8426944680345168,0.1291355785661581,0.9022101613884026,-0.9552423357963562,-0.12877696752548218,0.2663241922855377,-0.0046209534630179405,-0.32225996255874634,0.5194185972213745,0.0007593035697937012,0.024086415767669678,-0.010739445686340332
12,-1.8379479019730773,0.09475120042605235,0.8752398267279834,-0.9602004289627075,-0.09460949152708054,0.26280105113983154,-0.3110209107398987,-0.10709724575281143,0.5541597604751587,0.06516551971435547,0.05936165153980255,0.053864628076553345
13,-1.867684964438302,0.05958006972547475,0.8301329670833708,-0.954554557800293,-0.05954482778906822,0.2920272946357727,-0.14971813559532166,-0.4992503225803375,0.34728923439979553,-0.010640144348144531,0.03401687741279602,0.02375328540802002
14,-1.938713011043313,0.01442136125956483,0.7932952756731468,-0.9329814910888672,-0.014420861378312111,0.3596348762512207,-0.4188598692417145,-0.7320387959480286,0.6892083883285522,0.0018293261528015137,-0.011946347542107105,0.12640327215194702
15,-1.9967646517201203,-0.005429837361290001,0.7182789011348168,-0.9106255173683167,0.005429810844361782,0.4131966233253479,-0.4699837267398834,-0.047280311584472656,0.12633024156093597,-0.2522009015083313,-0.15530163049697876,-0.16516512632369995
16,-1.8773588043211318,0.02996567044500063,0.7226820635190939,-0.9529485702514648,-0.02996118552982807,0.30164769291877747,0.15372681617736816,2.7278554439544678,-0.8388363122940063,-0.18579959869384766,-0.23021644353866577,-0.42812788486480713
17,-1.725827429782984,0.11026501112429796,0.8272271522430434,-0.9820064902305603,-0.11004170775413513,0.15347307920455933,0.4714607894420624,-0.14186085760593414,-0.7761726975440979,0.13274812698364258,-0.07686319202184677,0.3122251033782959
18,-1.8492200634655955,0.08424317364096115,0.8707646770953513,-0.9580801129341125,-0.08414356410503387,0.2738657593727112,0.7290852665901184,-1.6282953023910522,0.39653685688972473,0.06711941957473755,0.4465855658054352,0.2077321708202362
19,-1.8690137727226352,0.03828337230126325,0.8175047680795526,-0.955161452293396,-0.038274019956588745,0.29360154271125793,-0.895452618598938,-0.44241684675216675,0.3505571782588959,-0.051003217697143555,0.08333322405815125,0.36035969853401184
20,-1.860487479573167,0.03428731927612475,0.6333204291851815,-0.9577690362930298,-0.034280601888895035,0.28548842668533325,-2.231118679046631,0.5100594162940979,0.3631132245063782,0.030736446380615234,-0.26099222898483276,0.02135065197944641
21,-1.8202938115216651,0.09124078850138408,0.5041814702754359,-0.9650057554244995,-0.09111424535512924,0.24588994681835175,-0.7859483361244202,0.10847945511341095,-0.7125729322433472,-0.07509416341781616,-0.2899892330169678,-0.26128607988357544
22,-1.800916084098085,0.13294133557897816,0.49330863789466356,-0.9650478959083557,-0.13255009055137634,0.2260814607143402,0.2612919509410858,-0.3971221148967743,-0.24200692772865295,-0.021982014179229736,-0.004000797867774963,-0.15776792168617249
23,-1.9005394514051817,0.11946162519298288,0.599009626641773,-0.9393823742866516,-0.1191776841878891,0.3214922249317169,1.3760091066360474,-0.6621842384338379,-0.018343649804592133,0.03870195150375366,0.0780857726931572,-0.10823538899421692
24,-2.0440627643202354,0.021966690003699777,0.7286690898357705,-0.8898694515228271,-0.021964922547340393,0.45568612217903137,1.258406639099121,-1.6247553825378418,0.030345004051923752,-0.12937182188034058,0.2699965536594391,-0.07450631260871887
25,-2.0089181106949576,-0.01682923400463544,0.7789657023150112,-0.9054216742515564,0.016828440129756927,0.42417922616004944,0.6492266654968262,1.1922264099121094,-0.08464764803647995,-0.075336754322052,0.06788837909698486,0.3380124866962433
26,-1.970939138283515,-0.009086060917208722,0.7921631875924287,-0.9209675192832947,0.009085935540497303,0.3895338773727417,-0.19708915054798126,0.27381134033203125,-0.07535701990127563,-0.05602234601974487,0.02932041883468628,0.14690428972244263
27,-1.9584252459127451,0.002566783570465789,0.8174563879472764,-0.9258047342300415,-0.002566780662164092,0.37799301743507385,0.2495345175266266,0.39571428298950195,-0.13436749577522278,-0.032370805740356445,-0.015804797410964966,-0.03189319372177124
28,-1.926555757913425,0.011409610252178804,0.8224724840807625,-0.9373211860656738,-0.011409362778067589,0.3482796549797058,0.29274314641952515,-0.16937893629074097,-0.2744394838809967,0.018253862857818604,-0.07425346970558167,-0.09463277459144592
29,-1.924816328959138,0.015435830243283205,0.8435230880976844,-0.9378749132156372,-0.015435216948390007,0.3466300070285797,0.01507122814655304,0.05861804261803627,0.02124120108783245,0.03920853137969971,-0.042716026306152344,-0.06803512573242188
30,-1.905660011320656,0.012860597007792558,0.8452379692909829,-0.9443768858909607,-0.012860242277383804,0.32861319184303284,0.17222915589809418,0.27114564180374146,0.042931344360113144,-0.058766305446624756,0.022259654477238655,-0.12371820211410522
31,-1.8580393451025414,0.00063803966795877,0.8270822995079808,-0.9590283632278442,-0.0006380396080203354,0.2833092212677002,-0.06082705408334732,0.34630730748176575,0.05256807059049606,0.016645610332489014,-0.06921669840812683,-0.07975700497627258
32,-1.833280335731408,-0.007937745126594618,0.8188866785061903,-0.965718150138855,0.007937661372125149,0.25947216153144836,-0.1518719643354416,0.30553460121154785,0.09726502001285553,0.01868128776550293,-0.02266240119934082,-0.02376958727836609
33,-1.8138469613788573,-0.009287782594527772,0.8144912022412526,-0.9705663919448853,0.00928764883428812,0.24065431952476501,-0.3731813132762909,0.7335875034332275,-0.004204193130135536,-0.007354080677032471,-0.013834775425493717,0.0938945859670639
34,-1.6939442889844776,-0.0008008973456594278,0.7689993702308291,-0.9924265146255493,0.0008008972508832812,0.1228368952870369,-0.13297440111637115,0.674810528755188,0.260856032371521,-0.4308827519416809,-0.22708871960639954,0.24763131141662598
35,-1.6837588055227537,-0.0010452998439484573,0.7923045037484023,-0.9936258792877197,0.00104529969394207,0.11272231489419937,0.2897301912307739,-0.5703251361846924,-0.029447058215737343,-0.015605568885803223,-0.09261330962181091,-0.10672570765018463
36,-1.6943041202440414,-0.0010032388784353093,0.8114048472305951,-0.9923819899559021,0.0010032387217506766,0.12319394946098328,-0.0007419753819704056,0.07541798800230026,-0.0008161747828125954,0.0026207566261291504,-0.013088196516036987,-0.05362917482852936
37,-1.6886656071755948,-0.0007469260336025298,0.8252584015751482,-0.9930611848831177,0.000746925943531096,0.11759650707244873,-0.04630206525325775,0.043925344944000244,0.008106970228254795,0.004184842109680176,-0.018264025449752808,0.02022087574005127
38,-1.7291961122622617,-0.0005810131825585175,0.82886622277199,-0.9874808192253113,0.000581013155169785,0.15773820877075195,0.03331705555319786,-0.26420506834983826,-0.001556864008307457,0.008370161056518555,-0.00294610857963562,0.07178449630737305
39,-1.7240100035275943,-0.000731781798072424,0.8231321911042961,-0.9882854223251343,0.0007317817071452737,0.15261489152908325,-0.5572957396507263,1.3308520317077637,0.08246582746505737,0.007648885250091553,-0.08688288927078247,0.17111550271511078
40,-1.687698888969711,-0.0003457391161767192,0.8024539375240035,-0.9931745529174805,0.0003457390994299203,0.11663646250963211,-0.0448780432343483,0.028439193964004517,0.0029578357934951782,0.006770193576812744,-0.008722811937332153,0.001420728862285614
41,-1.687662866241605,-0.0002879665404842383,0.8018908652304283,-0.9931788444519043,0.0002879665407817811,0.11660069227218628,0.0036218813620507717,-0.00030874786898493767,-0.0008028792217373848,0.005202770233154297,-0.0117625892162323,-0.010903120040893555
42,-1.6867578115067505,0.0005440923397381812,0.801977318097311,-0.9932836890220642,-0.0005440923268906772,0.11570173501968384,0.003417027648538351,0.0001650182530283928,0.001183115877211094,0.0017830133438110352,-0.013249844312667847,-0.006570838391780853
43,-1.686085694465141,0.0018434865365113849,0.8019692027231959,-0.9933599233627319,-0.00184348551556468,0.11503395438194275,0.0004933550953865051,0.0007280337158590555,-8.91340896487236e-05,0.0033086538314819336,-0.010058373212814331,-0.009946703910827637
44,-1.68532535766,0.002789460954413559,0.8019943839779701,-0.9934449195861816,-0.002789457328617573,0.1142783835530281,0.0005106115713715553,-0.0006865765899419785,0.0020729005336761475,0.00348508358001709,-0.011141806840896606,-0.004262551665306091
45,-1.6847282120324265,0.0037194922468296145,0.80200620560833,-0.993509829044342,-0.00371948373503983,0.1136847659945488,-0.00150247011333704,-0.0013286275789141655,-6.308313459157944e-05,0.0031534433364868164,-0.0069769322872161865,-0.008139736950397491
46,-1.6840758960425306,0.0045064048815296074,0.802005124078631,-0.9935805201530457,-0.004506389610469341,0.11303628981113434,-0.0008226186037063599,0.0010581209789961576,0.0019164485856890678,0.002903759479522705,-0.00931808352470398,-0.0038291364908218384
47,-1.6836693172830521,0.00522850424804094,0.8020379445161345,-0.9936230182647705,-0.005228480324149132,0.11263192445039749,-3.22805717587471e-05,-0.00174230569973588,-0.0018831603229045868,0.002305269241333008,-0.005971461534500122,-0.0071173906326293945
48,-1.683167475332949,0.005828306672134626,0.8020729679323806,-0.9936763048171997,-0.005828273482620716,0.11213292181491852,0.0006072120741009712,0.0017934611532837152,-0.0010853363201022148,0.0016565322875976562,-0.0060583059675991535,-0.0029562562704086304
49,-1.6827861475587587,0.0063763290736002926,0.8020636472074606,-0.9937155842781067,-0.006376286037266254,0.11175361275672913,-0.0018673492595553398,0.001502443803474307,-0.0007187211886048317,0.002657175064086914,-0.009080857038497925,-0.002683877944946289
50,-1.6825200577488197,0.007148662958635956,0.8020198135685459,-0.993739902973175,-0.007148602046072483,0.11148858815431595,0.0008825622498989105,0.002359488047659397,-0.0017607975751161575,0.0041007399559021,-0.0037156627513468266,-0.0032580122351646423
51,-1.6821491527706824,0.007573207331577847,0.8019681449251675,-0.9937782287597656,-0.007573134731501341,0.11111967265605927,-0.0005607102066278458,0.002419502241536975,0.001568574458360672,0.004093170166015625,-0.006083488464355469,-0.0033926963806152344
52,-1.6818662073804187,0.00819397740525366,0.801938004271824,-0.9938046336174011,-0.008193885907530785,0.110837921500206,0.0015188995748758316,2.20639631152153e-05,-0.00030610617250204086,0.004363834857940674,-0.0005951812490820885,-0.0033855587244033813
53,-1.6816009276766641,0.008463417491019046,0.8019676557239349,-0.9938320517539978,-0.008463316597044468,0.11057406663894653,-0.00013520196080207825,0.00012139976024627686,0.0010876413434743881,0.003811180591583252,-0.005574763752520084,-0.002846941351890564
54,-1.6813233296014651,0.009012977443717403,0.8019400401894731,-0.993857741355896,-0.009012855589389801,0.11029762774705887,-0.0005804179236292839,-0.001140090636909008,-0.0008352920413017273,0.002738356590270996,-0.003789275884628296,-0.003104686737060547
55,-1.6811384857375167,0.009396811054194858,0.8019336056566101,-0.9938745498657227,-0.009396673180162907,0.11011351644992828,0.000677645206451416,-3.674812614917755e-05,-0.001010645180940628,0.0032740235328674316,-0.0011471500620245934,-0.0019592195749282837
56,-1.6809014062995071,0.009651514067143726,0.8019806396546221,-0.9938983917236328,-0.00965136382728815,0.10987763851881027,0.000833616591989994,-0.0017174719832837582,0.0011155745014548302,0.004930377006530762,-0.0049512991681694984,-0.0025319904088974
57,-1.6808055547312535,0.01010331231190509,0.8019287432896898,-0.9939044117927551,-0.010103140026330948,0.10978187620639801,0.0012431461364030838,-4.78099100291729e-05,0.0005065463483333588,0.0023272037506103516,-0.003339827060699463,-0.0011545419692993164
58,-1.6806243508848238,0.010207906606030851,0.8018705976889714,-0.9939233064651489,-0.010207729414105415,0.10960166156291962,-0.0015817703679203987,0.00207350542768836,0.0015808949247002602,0.002452850341796875,-0.0025028297677636147,-0.0021034330129623413
59,-1.6805054974190465,0.010538897856804919,0.8018945581917564,-0.9939329028129578,-0.010538702830672264,0.10948316007852554,-0.0013694241642951965,-0.0020516174845397472,0.0004209103062748909,0.003042280673980713,-0.0013936767354607582,-0.0014356225728988647
60,-1.6803898215796198,0.010658018111934089,0.8018919169439294,-0.9939442873001099,-0.01065781619399786,0.10936804115772247,-0.0008216090500354767,-0.0007434724830091,0.00027953367680311203,0.0041675567626953125,-0.00246474239975214,0.00040365755558013916
61,-1.680341104231393,0.010911347394436064,0.8018397974052344,-0.9939466714859009,-0.010911131277680397,0.1093192994594574,-9.127706289291382e-05,0.0005770188290625811,0.0009661009535193443,0.00441431999206543,0.0014506587758660316,-0.002935066819190979
62,-1.680141228447585,0.011007533719445375,0.8018410340917892,-0.9939675331115723,-0.011007311753928661,0.10912051796913147,0.0001323288306593895,0.001608438091352582,0.0018526548519730568,0.002970278263092041,-0.003519057296216488,-3.5412609577178955e-05
63,-1.6800611202023952,0.011203303049345536,0.8018273250415331,-0.9939742088317871,-0.011203068308532238,0.10904067009687424,0.00013190694153308868,0.002662003505975008,0.0025855842977762222,0.0038466453552246094,-0.000179976224899292,-0.0022902488708496094
64,-1.6799529297337032,0.011333934223328478,0.80181436990849,-0.9939844608306885,-0.011333691887557507,0.1089329645037651,-0.0017400328069925308,0.0021236140746623278,0.0008722906932234764,0.005062401294708252,-0.0019109239801764488,-0.00035143643617630005
65,-1.67990273655097,0.011393863062732625,0.8018040424011812,-0.9939892292022705,-0.011393616907298565,0.10888299345970154,0.0002966681495308876,0.003360667498782277,0.00047006551176309586,0.003403961658477783,-0.0018052151426672935,-0.0011254623532295227
66,-1.6797986004704928,0.01165353412851364,0.8018099710266043,-0.9939975738525391,-0.011653270572423935,0.10877915471792221,-0.001482497900724411,9.133480489253998e-05,0.0014569368213415146,0.0033665895462036133,0.0007432112470269203,-0.002593293786048889
67,-1.6797035696827047,0.011669636093967557,0.8018083795125482,-0.9940077662467957,-0.011669371277093887,0.10868468135595322,0.0018574120476841927,-7.524620741605759e-05,-0.0005587190389633179,0.0025832653045654297,-0.004352360963821411,0.0006903409957885742
68,-1.6796889725017745,0.01196080958148956,0.8018754017826483,-0.9940059781074524,-0.011960524134337902,0.10866980254650116,0.0006259661167860031,0.0011922288686037064,-0.00047314446419477463,0.002245664596557617,0.0005774777382612228,-0.004940494894981384
69,-1.6794079169064993,0.011863492203575058,0.8018842046298005,-0.9940376281738281,-0.01186321396380663,0.10839055478572845,-0.0009108670055866241,0.0015238323248922825,-0.0008329413831233978,0.004398345947265625,-0.0008015930652618408,0.0036547183990478516
70,-1.6795565751686543,0.012035695046519898,0.8018729556433316,-0.9940193891525269,-0.012035404331982136,0.10853809118270874,0.00012254063040018082,0.002722755540162325,-0.0008890582248568535,0.002243936061859131,-0.0007209470495581627,-0.0029472187161445618
71,-1.679372052246862,0.012091245812451105,0.801907205165641,-0.9940387606620789,-0.012090951204299927,0.1083546057343483,0.0006826389580965042,-0.0012435950338840485,-0.0007314886897802353,0.004262208938598633,-0.0017182519659399986,-0.0003528669476509094
72,-1.679419766272031,0.012083202732837637,0.8018852320749875,-0.9940337538719177,-0.012082908302545547,0.10840205103158951,-0.0010720668360590935,0.0014707597438246012,-0.0016227224841713905,0.004623353481292725,-0.000887066125869751,-0.0005834102630615234
73,-1.6793812690869725,0.012296596464256163,0.8019125723544633,-0.9940351247787476,-0.012296286411583424,0.10836347937583923,-9.143725037574768e-05,-0.0006304392591118813,0.0009237388148903847,0.0034499764442443848,-0.0007804911583662033,-0.0015825256705284119
74,-1.6792186676999652,0.012255420382738122,0.8018684110531711,-0.9940534830093384,-0.012255113571882248,0.10820192098617554,-0.002062372863292694,0.0014642942696809769,0.0016361027956008911,0.004139542579650879,-0.0005775392055511475,0.0014325380325317383
75,-1.6792761015439233,0.012331820496970779,0.8018470592523798,-0.9940463304519653,-0.012331508100032806,0.10825891047716141,0.0012545818462967873,-0.0019841259345412254,0.0010641664266586304,0.005154669284820557,-0.0003790557384490967,-0.002835988998413086
76,-1.6790501243199218,0.012316447540543616,0.8018901721428733,-0.9940710067749023,-0.012316135689616203,0.10803430527448654,-0.0009440788999199867,0.0016912927385419607,0.000110577791929245,0.004675745964050293,-0.0009132344275712967,0.00268341600894928
77,-1.67920984530043,0.012388922845719921,0.8018815834545924,-0.9940526485443115,-0.012388605624437332,0.10819296538829803,0.0011560888960957527,-0.0022733090445399284,0.003770727664232254,0.004718661308288574,0.0012497026473283768,-0.001595035195350647
78,-1.6790622578298156,0.012382572049875381,0.8019007572197503,-0.9940685629844666,-0.012382255867123604,0.10804624110460281,0.0006894012913107872,0.0035906080156564713,0.00037289876490831375,0.0036513209342956543,-0.0012438558042049408,1.1622905731201172e-06
79,-1.679203896646435,0.012441971093615991,0.8019000333998781,-0.9940527677536011,-0.012441650032997131,0.1081869900226593,-0.0015349788591265678,-0.002204393967986107,0.0001611681655049324,0.004337131977081299,0.0013180077075958252,-7.843971252441406e-05
80,-1.6791398738099619,0.012431306756256547,0.8018924987339379,-0.9940597414970398,-0.012430986389517784,0.10812335461378098,6.78161159157753e-05,0.003335287095978856,-0.00047779548913240433,0.003596484661102295,-6.598234176635742e-05,-0.0003962516784667969
81,-1.6791636368554421,0.012429641177219373,0.8019109757451405,-0.9940571784973145,-0.012429321184754372,0.10814697295427322,0.00019656773656606674,-0.0032349862158298492,-0.0004402836784720421,0.0040212273597717285,-0.000784783624112606,-0.0006640031933784485
82,-1.6792108378981667,0.01252757816323827,0.8019245828616287,-0.994050920009613,-0.012527250684797764,0.1081937700510025,4.7579407691955566e-05,0.0011109861079603434,-0.0021920008584856987,0.003862321376800537,0.0005948841571807861,-0.0003904104232788086
83,-1.6791344600388303,0.012469850914563572,0.8019153515563608,-0.9940598607063293,-0.012469527311623096,0.10811792314052582,0.00015643145889043808,-0.0020780442282557487,-0.0009562168270349503,0.004298508167266846,-0.0010039806365966797,2.110004425048828e-05
84,-1.6792530546653095,0.012570812300366377,0.8019263057715124,-0.9940457940101624,-0.012570480816066265,0.1082356721162796,-0.001371363177895546,0.00038771145045757294,2.6979483664035797e-05,0.0037961602210998535,-0.0008572638034820557,-0.0011800527572631836
85,-1.6791224070321986,0.012438036990466878,0.8019333146263302,-0.9940615892410278,-0.012437716126441956,0.10810597985982895,0.0011786557734012604,0.0020508531015366316,-7.061287760734558e-05,0.004284977912902832,-0.0015546083450317383,0.0012538433074951172
86,-1.6792563468388735,0.012464630958363997,0.8019695738394511,-0.994046688079834,-0.012464308179914951,0.108239084482193,-0.0009362418204545975,-0.000623208936303854,0.002609328366816044,0.00515514612197876,0.0014474401250481606,-0.0010002925992012024
87,-1.6791246708164587,0.012461945138663574,0.8020024005875097,-0.9940610527992249,-0.01246162224560976,0.10810820013284683,0.0013707205653190613,0.0001933942548930645,-0.0008316515013575554,0.0036893486976623535,-0.001866370439529419,0.0010683536529541016
88,-1.6792199136737902,0.012576494726370313,0.8019930854902697,-0.9940493106842041,-0.012576162815093994,0.10820271819829941,0.0005434136837720871,0.0014603249728679657,-0.0013734353706240654,0.0032351016998291016,0.002322256565093994,-0.0011622905731201172
89,-1.679158270324902,0.012635457904695268,0.8019927070724285,-0.9940552115440369,-0.012635122053325176,0.10814136266708374,-0.0004746578633785248,-0.0017477525398135185,0.00012298952788114548,0.0036683082580566406,-0.0004568984732031822,0.0007911846041679382
90,-1.679225133789722,0.012626201330746304,0.8019499458874897,-0.9940480589866638,-0.012625865638256073,0.1082078367471695,-0.002285531722009182,0.0005415219347923994,0.0006971312686800957,0.003569662570953369,0.0011207181960344315,-0.0009232908487319946
91,-1.6792229054370849,0.012666589013380955,0.8019558907207255,-0.9940478205680847,-0.012666250579059124,0.10820556432008743,-0.0009826663881540298,0.0016828069929033518,-2.3696571588516235e-05,0.003935575485229492,-0.0015854528173804283,-0.0012567117810249329
92,-1.6791804706666156,0.012602837759659358,0.8019202922809492,-0.9940531253814697,-0.012602504342794418,0.10816346853971481,-0.0007519088685512543,-0.0015005888417363167,0.0004152171313762665,0.004337668418884277,-0.001115141436457634,0.001013144850730896
93,-1.679199570012674,0.012621372066415863,0.8018980235791842,-0.9940510392189026,-0.012621036730706692,0.10818244516849518,0.0010646600276231766,0.0016571476589888334,0.0013264790177345276,0.003618180751800537,0.000764964148402214,-0.0030340999364852905
94,-1.6791329991903141,0.012451849535108899,0.8018907486639771,-0.9940601587295532,-0.012451527640223503,0.10811648517847061,-0.0028495099395513535,-0.0025861295871436596,0.00013866741210222244,0.0039174556732177734,-0.0008541326969861984,0.002875909209251404
95,-1.679317162953876,0.012604266723581177,0.8019052698518316,-0.9940383434295654,-0.012603932991623878,0.10829934477806091,-0.00011321809142827988,0.0017335934098809958,-0.0015460588037967682,0.0038956403732299805,0.0019990522414445877,-0.0029221922159194946
96,-1.6792007086091003,0.012579429988085408,0.8018950778251567,-0.9940512776374817,-0.012579098343849182,0.1081836149096489,0.00019914470613002777,0.0016562500968575478,-0.0006175031885504723,0.004595160484313965,-0.0013216426596045494,0.002381555736064911
97,-1.679377853645789,0.012539108786873969,0.8018740112696828,-0.994032621383667,-0.012538780458271503,0.10835976898670197,-0.0005659302696585655,0.0003096894361078739,-0.00023131445050239563,0.0031574368476867676,0.003322483040392399,-0.002891071140766144
98,-1.6792558648044489,0.012534513877205913,0.8018718166005113,-0.9940460324287415,-0.01253418531268835,0.10823852568864822,-0.0008993754163384438,-0.0006732768379151821,-0.00014940928667783737,0.004467666149139404,-0.00290769524872303,-0.0001758188009262085
99,-1.6793337810703897,0.012613849998440714,0.8018910059278453,-0.9940364956855774,-0.012613515369594097,0.1083158552646637,-0.001171753741800785,-0.00021941494196653366,0.0021182717755436897,0.0034969449043273926,0.0008490094915032387,-0.0003751590847969055
100,-1.6793707227232426,0.012564019248210188,0.8019013752555225,-0.9940329790115356,-0.012563688680529594,0.10835263878107071,0.0003090808168053627,0.002166575053706765,-0.0001447424292564392,0.0022881627082824707,-0.001230267807841301,-0.0014496073126792908
101,-1.6793082645789816,0.012569296966081089,0.8018862877483784,-0.9940399527549744,-0.012568965554237366,0.10829056799411774,-0.0007581766694784164,0.0004656207747757435,0.00032170768827199936,0.0042937397956848145,-0.00047731585800647736,-0.00021253526210784912
102,-1.6794303181182908,0.012612854163899487,0.8018830328641269,-0.9940259456634521,-0.012612519785761833,0.10841181129217148,-0.00022391416132450104,0.0014082577545195818,0.001657751388847828,0.004615664482116699,0.0011836905032396317,0.00012396275997161865
103,-1.679363492462541,0.012537759562372588,0.8019090686024581,-0.9940341114997864,-0.012537430971860886,0.10834548622369766,0.0003749588504433632,0.00011794036254286766,-0.0008231829851865768,0.0028690695762634277,-0.0012107184156775475,0.00109051913022995
104,-1.679458093972362,0.012582452462962312,0.8018706243720843,-0.9940233826637268,-0.01258212048560381,0.10843946784734726,0.001010713167488575,-0.0016239103861153126,-0.0009853793308138847,0.003743290901184082,0.0021451134234666824,-0.0010023266077041626
105,-1.6793840383303784,0.012563349425442866,0.8018481057465484,-0.9940316081047058,-0.012563019059598446,0.10836587846279144,-0.002027435228228569,0.0011349448468536139,-8.965097367763519e-05,0.004941701889038086,-0.002024381421506405,0.0010243579745292664
106,-1.67939353966559,0.01258501937397321,0.8018425453889556,-0.9940304160118103,-0.01258468721061945,0.10837530344724655,0.0006710030138492584,0.0028888359665870667,-0.0011795498430728912,0.0031093955039978027,0.001735687255859375,-0.0042493343353271484
107,-1.6793015498278536,0.012549023747866284,0.8018902995078698,-0.9940407276153564,-0.012548694387078285,0.10828389972448349,0.0005060154944658279,-0.0008270414546132088,-0.00012714136391878128,0.005042374134063721,0.0009520063176751137,0.0018540546298027039
108,-1.6794104837607877,0.01259659070441363,0.8018773518280383,-0.9940284490585327,-0.012596257962286472,0.108392134308815,0.0007434682920575142,0.0002650381065905094,-0.0003477698192000389,0.0046637654304504395,-0.0024489182978868484,-0.0027707666158676147
109,-1.679285642297831,0.012744248957848014,0.8018830007338525,-0.9940400719642639,-0.012743904255330563,0.10826782882213593,0.0001384001225233078,0.0005716010928153992,-0.0014817863702774048,0.003805696964263916,0.000430048443377018,0.0010766908526420593
110,-1.6793395791361525,0.012572573573192922,0.8018404094029852,-0.9940364956855774,-0.012572241947054863,0.10832169651985168,-0.0005182744935154915,-0.0005991705693304539,-0.00020148418843746185,0.002901792526245117,0.003539053723216057,-0.002288326621055603
111,-1.679337876681555,0.012702036372914883,0.8018035949410681,-0.9940348863601685,-0.01270169485360384,0.10831980407238007,-0.0001814635470509529,0.00045733340084552765,0.0002202298492193222,0.004197299480438232,-0.0004208674654364586,0.0013604089617729187
112,-1.6792820336535266,0.012635952734944342,0.8018096407953368,-0.9940417408943176,-0.012635616585612297,0.10826437920331955,0.0017548855394124985,0.0016774993855506182,0.0008386699482798576,0.004127860069274902,-0.001387207768857479,0.001644723117351532
113,-1.679359089729911,0.012713302513230114,0.8018427158088159,-0.9940323829650879,-0.012712960131466389,0.10834086686372757,-0.0007694344967603683,-0.0006872187368571758,0.00021659024059772491,0.0030351877212524414,0.002871038392186165,-0.0012089163064956665
114,-1.6792309435841168,0.012691620676600974,0.8018013227419858,-0.9940467476844788,-0.012691279873251915,0.10821353644132614,-0.0017409790307283401,0.001023399643599987,-0.0014682048931717873,0.003796994686126709,-0.0012094993144273758,0.0005511194467544556
115,-1.6792744123390178,0.012813387010745789,0.8017927681444841,-0.9940403699874878,-0.01281303633004427,0.10825656354427338,-0.0007308349013328552,0.0006314828060567379,0.0008357977494597435,0.003958642482757568,0.0009722132235765457,-0.0012467056512832642
116,-1.6791706989322017,0.012635650634575451,0.8018110106359339,-0.9940540790557861,-0.012635314837098122,0.10815373808145523,-0.0005454998463392258,-0.00028986483812332153,0.0006785048171877861,0.0032702088356018066,-0.0013112444430589676,0.0007330328226089478
117,-1.6792150228479656,0.012642120765552269,0.8018221134388424,-0.9940489530563354,-0.0126417838037014,0.10819776356220245,0.0011710664257407188,0.0009114369750022888,-0.0004554959014058113,0.004226624965667725,0.0013502845540642738,-0.002088196575641632
118,-1.6791341685245045,0.012596151910220062,0.8018188187538355,-0.9940582513809204,-0.012595818378031254,0.10811745375394821,0.00026713777333498,0.0013197881635278463,0.0017945356667041779,0.004724264144897461,-0.0004504602402448654,0.0021120160818099976
119,-1.6792417466057346,0.012630694161450946,0.8017976817732094,-0.9940462112426758,-0.012630358338356018,0.10822434723377228,-0.000844036228954792,0.0004645455628633499,-0.0010663047432899475,0.004376471042633057,0.00011816713958978653,-0.0020842626690864563
120,-1.6791823308180636,0.012635416820090638,0.8017657792322707,-0.9940526485443115,-0.012635080143809319,0.10816527903079987,0.0006520431488752365,-0.0014253617264330387,0.0017464449629187584,0.0038182735443115234,0.0003822743892669678,0.0006604194641113281
121,-1.679239921107601,0.012504639673193175,0.8017446003257399,-0.9940481185913086,-0.012504314072430134,0.10822271555662155,0.0005005579441785812,0.0003683902323246002,0.0017725694924592972,0.0025472640991210938,0.00034305453300476074,-0.0018842220306396484
122,-1.6791956750179182,0.012464790365786713,0.8017249232064858,-0.994053304195404,-0.01246446743607521,0.10817877948284149,0.000872299075126648,0.0021525502670556307,0.0010365741327404976,0.005054891109466553,-7.826089859008789e-05,0.0006011724472045898
123,-1.6791999115033187,0.012514067476148442,0.8017300216115864,-0.9940522909164429,-0.012513740919530392,0.10818292945623398,0.001013007014989853,-0.0008918801322579384,-0.001182052306830883,0.001223921775817871,-0.0011886358261108398,-0.0011425018310546875
124,-1.67927774804529,0.012512092571460725,0.8017198410135786,-0.9940438270568848,-0.012511766515672207,0.10826029628515244,-0.0009069051593542099,-0.0010062134824693203,-0.0014218194410204887,0.003687441349029541,0.0011592218652367592,-0.00025857239961624146
125,-1.679202786689123,0.012563211412610771,0.8016702648699243,-0.9940512776374817,-0.012562881223857403,0.10818570852279663,-0.0006132209673523903,-0.000549274031072855,0.00046886131167411804,0.003343939781188965,-0.0007885685190558434,-7.725507020950317e-05
126,-1.6793217441712165,0.012564833086462836,0.8016709502066605,-0.9940383434295654,-0.012564502656459808,0.10830395668745041,0.0006130635738372803,0.000958719989284873,0.0012081693857908249,0.005284130573272705,0.0017002522945404053,-0.0005464553833007812
127,-1.6791793455082311,0.012460426062292104,0.8017055938813528,-0.9940551519393921,-0.012460103258490562,0.10816255211830139,-1.746043562889099e-05,-0.00010046223178505898,0.0007050046697258949,0.00429379940032959,-0.0004640817642211914,0.0004647970199584961
128,-1.679294765255282,0.012528173638643928,0.8017069364161126,-0.9940417408943176,-0.012527845799922943,0.10827718675136566,0.00025307293981313705,-0.0015276232734322548,0.0010624127462506294,0.0032428503036499023,0.0008853990584611893,-0.0008095651865005493
129,-1.6792112014233387,0.012469156875520429,0.8016879004755135,-0.9940515756607056,-0.012468833476305008,0.10819420218467712,0.0003772880882024765,-0.0011368896812200546,-0.00031725596636533737,0.0035272836685180664,-0.0005926787853240967,0.0002957582473754883
130,-1.679348802621227,0.012362891459474914,0.8016610762654784,-0.9940379858016968,-0.012362576089799404,0.10833112895488739,0.00282501894980669,-0.00041489675641059875,0.0006968555971980095,0.011127829551696777,0.002184957265853882,-0.0024199485778808594
131,-1.679138695609131,0.012246017231804955,0.8016468438868994,-0.9940621852874756,-0.01224571093916893,0.10812243074178696,-0.0003625992685556412,-8.451147004961967e-05,0.000504571944475174,0.005582571029663086,-0.0041422247886657715,0.0006880760192871094
132,-1.6793507303487736,0.012330862660642395,0.8016465155035087,-0.9940381646156311,-0.012330549769103527,0.10833308845758438,0.0005166782066226006,-7.77742825448513e-05,-0.0008215010166168213,0.004978775978088379,0.004273923113942146,-0.0010485798120498657
133,-1.6793305261863345,0.012214949498151122,0.8016323231934194,-0.9940418004989624,-0.012214645743370056,0.10831315815448761,-0.0015912707895040512,0.0026469340082257986,0.0008993037045001984,0.003990530967712402,-0.0008163750171661377,0.0002835988998413086
134,-1.6793283499343186,0.012292390451207665,0.8015909280800397,-0.9940410852432251,-0.01229208055883646,0.10831090062856674,0.0003252103924751282,0.0021164147183299065,0.0009861038997769356,0.003837287425994873,0.0011684298515319824,0.00014853477478027344
135,-1.6793543888528464,0.012295566114018521,0.8015996492266366,-0.9940382242202759,-0.012295256368815899,0.10833677649497986,-0.0006436798721551895,0.0016936699394136667,7.148552685976028e-05,0.005085587501525879,0.0012326240539550781,-0.0009149312973022461
136,-1.6793785827869845,0.01225394746887795,0.8015621239358803,-0.9940360188484192,-0.01225364115089178,0.10836087167263031,0.0007432205602526665,-0.0012572011910378933,-0.0011856257915496826,0.00400012731552124,-0.0002127867192029953,-0.0004965215921401978
137,-1.6794878233373391,0.012298719430396057,0.8015774137227232,-0.9940236806869507,-0.012298409827053547,0.1084694042801857,-0.0011111656203866005,0.0018689953722059727,0.0004630880430340767,0.004582822322845459,0.00019821617752313614,0.00043260306119918823
138,-1.6794744690526715,0.01218006832902021,0.8015065150029883,-0.9940264225006104,-0.012179766781628132,0.10845627635717392,-0.0020337607711553574,-0.0009859646670520306,-0.0029588667675852776,0.0035023093223571777,-0.000713912770152092,0.00023207813501358032
139,-1.6795787271480223,0.012327779454032553,0.801505549847601,-0.9940134882926941,-0.01232746709138155,0.10855972766876221,-0.0008338354527950287,-0.0006757862865924835,0.00021256040781736374,0.002802610397338867,-0.00030678510665893555,0.000967860221862793
140,-1.67950757572807,0.012258041100166706,0.8015376157005817,-0.9940221905708313,-0.012257734313607216,0.10848911106586456,0.000529746524989605,6.59027136862278e-05,0.00023150071501731873,0.005405128002166748,4.915520548820496e-06,0.00016869604587554932
141,-1.6796191120494741,0.012262904141009584,0.8015797372030712,-0.9940100312232971,-0.012262596748769283,0.10859996825456619,0.0018137944862246513,2.71480530500412e-05,0.0001536160707473755,0.004950523376464844,0.002237558364868164,-0.001620650291442871
142,-1.6795555777211817,0.012166438838534608,0.8016065843302067,-0.9940178990364075,-0.012166138738393784,0.10853692889213562,-0.0006092051044106483,-0.0009382525458931923,-0.001108209602534771,0.0050501227378845215,-0.0005139093846082687,-0.0021221786737442017
143,-1.679571548565415,0.012237595997387465,0.8016505033552563,-0.9940152168273926,-0.012237290851771832,0.10855270177125931,-7.767602801322937e-05,0.0004650144837796688,-0.00231038685888052,0.003918349742889404,0.0014646071940660477,0.0001814141869544983
144,-1.6795803790762291,0.012179351687313586,0.8016652786175178,-0.9940152168273926,-0.012179050594568253,0.10856157541275024,-0.0006222454831004143,0.0007549610454589128,-0.0005007078871130943,0.005886435508728027,-0.002209993079304695,-0.0007430166006088257
145,-1.6795155321205508,0.01218378150797585,0.8017305857643631,-0.9940218925476074,-0.012183479964733124,0.10849708318710327,0.0028055673465132713,-0.001075034961104393,0.0008321516215801239,0.0057561397552490234,0.00015956442803144455,-0.0010752901434898376
146,-1.679631375213982,0.012247498048273657,0.8017023341740837,-0.9940088391304016,-0.012247191742062569,0.10861217975616455,-0.000870254822075367,-0.0017758673056960106,0.0007488075643777847,0.005376636981964111,-0.0014704763889312744,-0.0010377168655395508
147,-1.6795256184268366,0.012237244647970451,0.8017730130494046,-0.9940202832221985,-0.012236938811838627,0.10850705206394196,-0.00040796026587486267,-0.0011784234084188938,0.0028029531240463257,0.003877580165863037,-0.0013433676213026047,-0.0008715540170669556
148,-1.679588340616939,0.012267936015740335,0.8018077291788287,-0.9940133094787598,-0.01226762868463993,0.10856938362121582,-7.39116221666336e-05,0.001915877452120185,0.0013236692175269127,0.002680182456970215,-0.00025984831154346466,7.320940494537354e-05
149,-1.679441853543476,0.012160830059339397,0.801822834759289,-0.9940305352210999,-0.01216053031384945,0.10842391103506088,0.0006543435156345367,0.0026221363805234432,-0.0007139742374420166,0.00014919042587280273,-0.001908065751194954,-0.0008647292852401733
150,-1.6794475767947907,0.012304131372416885,0.8018997313654179,-0.9940279126167297,-0.012303820811212063,0.10842938721179962,0.0002960842102766037,0.000702856108546257,-0.0003601331263780594,0.003686845302581787,0.004201384261250496,0.001098141074180603
151,-1.679394837283854,0.012094740892502898,0.8019228758494856,-0.994036078453064,-0.012094446457922459,0.10837722569704056,-0.0005460456013679504,0.000629947055131197,0.0007362533360719681,0.005419313907623291,-0.0007992368191480637,-0.0007570013403892517
152,-1.6793507341883738,0.01234933796998782,0.8019566694807313,-0.9940378069877625,-0.012349024415016174,0.1083330512046814,0.0015265420079231262,0.0003900430165231228,0.0004699612036347389,0.0029338598251342773,0.0016221124678850174,-0.004939459264278412
153,-1.6793250769936021,0.012311266839588518,0.8019336008807398,-0.9940410852432251,-0.012310955673456192,0.1083076074719429,0.002573284786194563,-0.0001109936274588108,-7.554888725280762e-05,0.0020368099212646484,0.0010041911154985428,0.0040581077337265015
154,-1.679438407560748,0.012284219651504199,0.8019508643719615,-0.9940293431282043,-0.012283910997211933,0.10842031985521317,-0.001785334199666977,-0.000690806657075882,0.0002931114286184311,0.002421557903289795,-0.003341110423207283,-0.00731562077999115
155,-1.6792650542350844,0.012249755079571184,0.8019584942620048,-0.9940484762191772,-0.012249448336660862,0.1082480326294899,0.0012628166005015373,0.0023981197737157345,0.0013267071917653084,0.002181410789489746,-0.00021699070930480957,0.007871389389038086
156,-1.6795254377268662,0.012059315314014394,0.8019679611992941,-0.9940224885940552,-0.012059022672474384,0.10850711166858673,-0.0009562168270349503,-4.024989902973175e-05,0.005638805218040943,0.002445399761199951,-0.00530546810477972,-0.01048470288515091
157,-1.6791458220243682,0.012022192993712164,0.8019855510154178,-0.9940640926361084,-0.012021902948617935,0.10812980681657791,0.0005247564986348152,0.0021271687000989914,0.0034091509878635406,0.010864019393920898,0.0008524656295776367,0.003473043441772461
158,-1.6795247823314225,0.011700784076139866,0.8019748504115017,-0.9940269589424133,-0.011700517497956753,0.108506940305233,0.0013876166194677353,5.227047950029373e-06,-0.003130420111119747,-0.014991044998168945,-0.0016356417909264565,0.0002119690179824829
159,-1.6792561111591728,0.011785507995061279,0.8019965500208343,-0.9940550327301025,-0.01178523525595665,0.10823975503444672,-0.0005759876221418381,-4.201149567961693e-05,-0.0015315767377614975,-0.002588033676147461,0.0035760104656219482,-0.00238955020904541
160,-1.6794285745089685,0.011467622288887565,0.8020104654207201,-0.9940400123596191,-0.011467371135950089,0.10841158777475357,-0.0021026264876127243,0.0013440228067338467,0.0023233573883771896,0.005819797515869141,-0.00261649489402771,-0.004529714584350586
161,-1.6791915975946015,0.011380414923410655,0.8020018762975545,-0.9940664768218994,-0.011380169540643692,0.10817611217498779,0.0016134241595864296,0.0010015773586928844,0.00022405758500099182,0.006639838218688965,-0.002322225831449032,0.0005427449941635132
162,-1.6792836146716372,0.011583679407737225,0.8020224815104996,-0.9940542578697205,-0.0115834204480052,0.10826733708381653,0.0009783515706658363,-0.0003639613278210163,0.000589834526181221,0.0010886788368225098,0.00547990296036005,-0.0045838430523872375
163,-1.6790923236161717,0.011282561534286332,0.8020777349807738,-0.9940784573554993,-0.011282321996986866,0.10807756334543228,0.00025595445185899734,0.0011409218423068523,0.0007997723296284676,0.010741114616394043,0.00426328182220459,-0.0006403923034667969
164,-1.679211421142343,0.01138635171133171,0.802119653957653,-0.9940643906593323,-0.011386105790734291,0.10819581896066666,0.0004191761836409569,0.0012974832206964493,0.0017525041475892067,0.007995665073394775,-0.003750622272491455,0.0013012886047363281
165,-1.6793550305560772,0.011498261799700354,0.8021193702829065,-0.9940476417541504,-0.011498008854687214,0.10833844542503357,0.0024960311129689217,0.0005969936028122902,0.001399388536810875,0.005491733551025391,0.002159625291824341,0.012175440788269043
166,-1.679606914714195,0.011478742824057144,0.8021928210383964,-0.9940203428268433,-0.011478491127490997,0.10858882963657379,0.002725549042224884,0.002165840473026037,-0.00012421607971191406,-5.91278076171875e-05,0.008762449957430363,-0.010688439011573792
167,-1.6789525965512169,0.011140451567434323,0.802250765802595,-0.9940951466560364,-0.011140220798552036,0.10793883353471756,0.0019399886950850487,-0.0013145473785698414,-0.001733013428747654,0.00019866228103637695,-5.972292274236679e-05,0.004930369555950165
168,-1.679509794251876,0.011470016435284532,0.8022688213136916,-0.9940311312675476,-0.01146976463496685,0.10849231481552124,0.0005777906626462936,-0.0010473928414285183,0.0028611281886696815,0.003995120525360107,-0.005101293325424194,-0.005877017974853516
169,-1.6792350236050846,0.011665060827111443,0.8022936021962528,-0.9940586090087891,-0.011664796620607376,0.10821893066167831,-0.001577259972691536,0.0005532552022486925,-0.0010266415774822235,0.009622633457183838,-0.0027242591604590416,-0.01149345189332962
170,-1.6791639438155868,0.011291612595993752,0.8023473059307921,-0.9940705299377441,-0.01129137258976698,0.1081487387418747,-0.0033217258751392365,-3.9841048419475555e-05,-0.0027168365195393562,0.003210604190826416,-0.0007020225748419762,-0.0005284622311592102
171,-1.6792466306936908,0.011454243271268634,0.8023722393756563,-0.9940597414970398,-0.011453992687165737,0.10823073238134384,-0.0010600090026855469,-4.929862916469574e-05,-0.0022452017292380333,-6.55055046081543e-05,-0.0043388595804572105,-0.004211552441120148
172,-1.679349656930749,0.011693647811546878,0.8024083252648138,-0.9940458536148071,-0.011693381704390049,0.10833285003900528,-0.002822042442858219,0.0008996331598609686,-0.0009029898792505264,0.008175551891326904,-0.012415497563779354,-0.0025589540600776672
173,-1.679230396274277,0.011728694919769583,0.8024279546544629,-0.9940583109855652,-0.011728426441550255,0.10821425169706345,-0.0029138335958123207,0.0020881241653114557,0.000819643959403038,0.007043659687042236,0.0051213521510362625,-0.011198893189430237
174,-1.6790581481982543,0.011409473291701326,0.8024293617461861,-0.9940807223320007,-0.01140922587364912,0.10804343223571777,-0.00040703732520341873,-0.001561370212584734,-0.0008757486939430237,-0.0023944973945617676,-0.0058942437171936035,0.0032389163970947266
175,-1.679503289007132,0.01176193879048555,0.8024309883811287,-0.9940285682678223,-0.01176166720688343,0.10848549008369446,-0.0002496987581253052,-3.056880086660385e-05,-0.0008639032021164894,0.0009407401084899902,0.004086494445800781,0.0002791881561279297
176,-1.6793887631312843,0.011435218217042532,0.8024808779916807,-0.9940446019172668,-0.011434968560934067,0.1083720475435257,-0.0012846728786826134,-0.0009083165787160397,-0.0008432576432824135,0.006099104881286621,0.0014862427487969398,-0.0002634599804878235
177,-1.6793465629346656,0.011716164411153366,0.8025359763232174,-0.9940460324287415,-0.011715896427631378,0.10832975059747696,0.001670708879828453,-0.0009331647306680679,-0.0013804687187075615,0.011288464069366455,0.005627661943435669,-0.00186920166015625
178,-1.679380361782129,0.011571808425769,0.8025632140909243,-0.9940439462661743,-0.01157154981046915,0.10836352407932281,-0.0018554730340838432,-0.0005495483055710793,-0.00017406977713108063,0.010691344738006592,0.0046898433938622475,0.005528084933757782
179,-1.679415559799304,0.011728311634674766,0.8025597440706722,-0.9940383434295654,-0.011728042736649513,0.10839831829071045,0.00217360258102417,0.00017884233966469765,0.002383149228990078,0.00919032096862793,-0.004797220230102539,-0.004409670829772949
180,-1.6794057695500189,0.011853909958507885,0.802580059952512,-0.9940378665924072,-0.011853632517158985,0.10838841646909714,-0.0010880976915359497,-0.002131087239831686,-0.0005838368088006973,0.0022166967391967773,0.002973021939396858,0.0011086314916610718
181,-1.6794262296524043,0.011663783446837982,0.8025732988377758,-0.994037926197052,-0.011663518846035004,0.10840900987386703,7.375422865152359e-05,0.00026968540623784065,-0.002619680017232895,0.0017741918563842773,-0.0005587628111243248,0.009678713977336884
182,-1.679645386072428,0.01187665423521874,0.8026478299214524,-0.994011640548706,-0.011876375414431095,0.1086265817284584,0.0031983498483896255,-0.0013653598725795746,0.0013990160077810287,-0.00202101469039917,0.002370149828493595,-0.007781274616718292
183,-1.6791849514689496,0.011602262500741655,0.8026155983927428,-0.9940649271011353,-0.011602002196013927,0.10816925764083862,0.001706523820757866,-0.0008440911769866943,-0.002437833696603775,0.002518177032470703,0.00017318036407232285,0.006683602929115295
184,-1.6796867835211868,0.011844735645943332,0.8026178196247061,-0.9940075278282166,-0.011844458989799023,0.1086677685379982,0.000269545242190361,0.0016114467289298773,-0.0019939029589295387,0.003330707550048828,-0.0027276864275336266,-7.105618715286255e-05
185,-1.6793566853118522,0.012089039790467961,0.8026370967726841,-0.9940404891967773,-0.012088744901120663,0.1083393320441246,-6.283912807703018e-05,-0.0023007546551525593,-0.002012883313000202,0.0038824081420898438,-0.0018883049488067627,0.0008525848388671875
186,-1.6792603379952387,0.01195583126466686,0.8026743219553281,-0.994052529335022,-0.011955546215176582,0.10824373364448547,0.0014732880517840385,1.5081837773323059e-05,-0.001056731678545475,0.0033451318740844727,0.007728874683380127,4.792213439941406e-05
187,-1.6793128634342074,0.01194356206854107,0.8027783706122956,-0.9940471053123474,-0.011943277902901173,0.1082959696650505,0.0008108196780085564,0.0012915211264044046,-0.0026905396953225136,0.0034464001655578613,-0.005894245579838753,-0.0019116252660751343
188,-1.6791152412322556,0.012185096329178833,0.8028284373154687,-0.9940653443336487,-0.01218479499220848,0.10809918493032455,-0.002931825816631317,0.00010121893137693405,-0.00159462820738554,0.005921542644500732,0.0004355320706963539,-0.002203233540058136
189,-1.6792997513435055,0.011977010073617718,0.8028296062128124,-0.994047999382019,-0.011976723559200764,0.10828287899494171,-0.0005585197359323502,-0.0005192020907998085,0.0014308467507362366,0.005492091178894043,7.486436516046524e-05,-0.0001438930630683899
190,-1.6792189805929847,0.012038296735891654,0.8028247777889496,-0.994055986404419,-0.012038005515933037,0.1082025095820427,-0.0012561865150928497,0.0015180944465100765,0.0036991778761148453,0.0034706592559814453,-0.003587006591260433,-0.0031304433941841125
191,-1.679258362421366,0.012195722925996131,0.8028429808579377,-0.9940499663352966,-0.012195420451462269,0.10824146866798401,-0.0015686824917793274,0.0009469359647482634,-0.0007005166262388229,0.0053719282150268555,0.0013922136276960373,-0.00025497376918792725
192,-1.6792026650679361,0.012042312914223238,0.8028634366188951,-0.9940575957298279,-0.012042022310197353,0.108186274766922,0.00045812688767910004,-0.0008555129170417786,-0.0018245214596390724,0.0031977295875549316,-0.0003023426979780197,-0.0022444874048233032
193,-1.6793762612451746,0.012231601643998464,0.8029043239692298,-0.9940366744995117,-0.012231296859681606,0.10835860669612885,0.0012603038921952248,0.0045555755496025085,-0.00026291143149137497,0.005862236022949219,-3.674626350402832e-05,0.002816915512084961
194,-1.6793361124007602,0.012088708044281506,0.8029293865019784,-0.9940426349639893,-0.0120884133502841,0.10831887274980545,0.0047955987975001335,-0.0028098979964852333,-0.0025606583803892136,0.004983246326446533,0.0020176181569695473,-0.002483971416950226
195,-1.679444842107032,0.012118135561330212,0.8029148148963104,-0.9940305948257446,-0.01211783941835165,0.10842692852020264,0.00026067160069942474,0.00016157422214746475,0.0005683442577719688,0.003018021583557129,0.002123326063156128,0.0019551515579223633
196,-1.679537304332212,0.01211461670699937,0.8029107054228878,-0.9940206408500671,-0.012114319950342178,0.10851884633302689,0.002022799104452133,-0.0010057007893919945,-0.0005496945232152939,0.0027334094047546387,-0.0005809664726257324,-0.0005934238433837891
197,-1.6794081129957794,0.012143446627552828,0.8029556311776693,-0.9940343499183655,-0.012143148109316826,0.10839039087295532,-2.6066787540912628e-05,-0.0014286474324762821,-0.002189432270824909,0.004227101802825928,0.001675603911280632,-0.0007091611623764038
198,-1.6795464103932878,0.012101736075807189,0.8029684102044727,-0.9940197467803955,-0.012101440690457821,0.10852790623903275,-0.0021381257101893425,0.0011762345675379038,0.00043413974344730377,0.007218599319458008,0.0027325451374053955,-0.0010755062103271484
199,-1.6794192628980704,0.01211485081432335,0.8029248618927066,-0.9940333366394043,-0.012114554643630981,0.10840149968862534,-0.0015745991840958595,0.0005107957404106855,-0.0030401023104786873,0.0030208230018615723,-0.00013825204223394394,0.0005309507250785828
200,-1.679529328885734,0.012222888573112429,0.802901361352153,-0.9940201044082642,-0.012222584336996078,0.10851076245307922,0.0006059659644961357,0.0005990490317344666,-0.0015542199835181236,0.0039383769035339355,-0.00042694713920354843,0.00033020228147506714
201,-1.6794083327400555,0.012030135036979535,0.8028685570383775,-0.994035542011261,-0.012029845267534256,0.10839074105024338,0.0013893414288759232,0.00046493462286889553,0.0017927568405866623,0.0032519102096557617,-0.0010469257831573486,-0.0006178617477416992
202,-1.679517343601509,0.012104138966908972,0.8029051416419087,-0.9940229654312134,-0.012103843502700329,0.10849902033805847,0.0007976070046424866,0.0011031783651560545,-0.001046658493578434,0.004597187042236328,-0.0002557653933763504,-0.00037525594234466553
203,-1.6794166971452587,0.011994533537446731,0.8029294001152837,-0.9940350651741028,-0.011994246393442154,0.10839910060167313,0.0012919791042804718,0.0021537330467253923,0.00041498616337776184,0.002488434314727783,-0.0014945268630981445,0.0001366138458251953
204,-1.6794569825913923,0.01199340327857444,0.8029601475066082,-0.994030773639679,-0.01199311576783657,0.10843915492296219,-0.00012275483459234238,-0.0006848461925983429,0.0007324507459998131,0.003735363483428955,0.000762641429901123,-0.0018870830535888672
205,-1.679340211537294,0.011961309622913491,0.8029416999648981,-0.9940437078475952,-0.01196102425456047,0.1083231121301651,0.00017053168267011642,-0.0017949026077985764,-4.0189363062381744e-05,0.005365848541259766,-0.0012988429516553879,-0.0007944256067276001
206,-1.6793649596735214,0.011988108381964818,0.8029268263630651,-0.9940406680107117,-0.011987821198999882,0.10834767669439316,0.0008416818454861641,-0.0008379784412682056,-0.0025463104248046875,0.0034096837043762207,-0.0006464403122663498,0.001057848334312439
207,-1.679498073889868,0.012046908625747445,0.8029570331661633,-0.9940255880355835,-0.012046617455780506,0.10847992449998856,0.000695476308465004,0.0006068930961191654,0.0012316415086388588,0.0017618536949157715,0.00022104475647211075,-0.0021413639187812805
208,-1.6793229789329764,0.011992747603222005,0.8029806586095797,-0.9940453171730042,-0.011992460116744041,0.10830595344305038,0.0016845650970935822,0.00029753148555755615,-0.0004007844254374504,0.00434499979019165,-0.0013742446899414062,0.0005655288696289062
209,-1.679515147220412,0.01209189140804958,0.8030088595709299,-0.9940231442451477,-0.012091596610844135,0.10849682986736298,0.0002796771004796028,-0.0015495098195970058,0.0021822508424520493,0.004628121852874756,0.0019902903586626053,-0.0024939924478530884
210,-1.679308859325374,0.011988459064527083,0.8030014439899446,-0.9940468668937683,-0.011988172307610512,0.10829191654920578,-0.0009743450209498405,-0.0013909507542848587,0.0007755234837532043,0.0039955973625183105,-0.0016379058361053467,0.0017850399017333984
211,-1.6795106262455577,0.012195225383937604,0.8029865572325808,-0.9940223693847656,-0.012194923125207424,0.10849220305681229,-0.0005657384172081947,0.0011068079620599747,-0.002138267271220684,0.003437221050262451,0.002063097432255745,-0.0009788498282432556
212,-1.6793456601621297,0.012182629362515157,0.8029465509494137,-0.9940404295921326,-0.012182327918708324,0.10832823812961578,0.0005987538024783134,0.0015901955775916576,-0.0014665871858596802,0.004111349582672119,-0.00232878141105175,-0.0001586824655532837
213,-1.6794738628667358,0.012301267829218556,0.8029766779517302,-0.9940252900123596,-0.012300957925617695,0.10845553874969482,-0.0007174564525485039,-0.0025811591185629368,0.00034618377685546875,0.004340112209320068,0.0031914394348859787,-0.00011812150478363037
214,-1.6794088151663213,0.012277126648546478,0.8029335639154611,-0.9940326809883118,-0.012276818044483662,0.1083909124135971,-0.0003235163167119026,-0.000889679417014122,0.0009382180869579315,0.003096282482147217,-0.0013950783759355545,-0.001442059874534607
215,-1.6793677581814508,0.012240799895136656,0.8029774190293228,-0.9940375089645386,-0.012240494601428509,0.10835014283657074,0.00031138304620981216,0.0008895688224583864,-0.00035046227276325226,0.0038641691207885742,-0.0008973181247711182,0.0010706186294555664
216,-1.6793743520259783,0.012284036613684018,0.8030416273844234,-0.9940361976623535,-0.012283727526664734,0.10835663229227066,-0.0008010873571038246,0.0025193868204951286,3.653019666671753e-05,0.004198551177978516,-0.00059470534324646,-0.004352688789367676
217,-1.679206593859155,0.01218618550358774,0.8030433739351892,-0.9940555691719055,-0.012185883708298206,0.10819000750780106,7.602572441101074e-05,-0.0021787905134260654,0.001924116164445877,0.0038517117500305176,0.001581043004989624,0.0032601356506347656
218,-1.6794669012327226,0.012270802008047423,0.8030311759326504,-0.9940264225006104,-0.012270494364202023,0.10844866186380386,-0.0005422923713922501,0.0022595275659114122,-0.001573876477777958,0.003914058208465576,0.0004296600818634033,-0.003864884376525879
219,-1.6791807856373269,0.012167014710226767,0.8030455403568724,-0.9940586686134338,-0.012166714295744896,0.10816438496112823,0.001909889280796051,0.00015235738828778267,-0.0019254116341471672,0.004571855068206787,-0.002146037295460701,0.0018819719552993774
220,-1.6794354159350222,0.01226196724168803,0.8030066927900286,-0.9940297603607178,-0.01226165983825922,0.10841735452413559,-0.0009578866884112358,-0.0010865251533687115,-0.00029063038527965546,0.003948092460632324,0.0018856842070817947,-0.002384081482887268
221,-1.6791886513702678,0.012183795510583049,0.802966209041541,-0.9940574169158936,-0.012183493934571743,0.10817216336727142,0.00012279115617275238,-0.000463731586933136,0.001607704907655716,0.0055474042892456055,-0.0020529618486762047,0.0002720281481742859
222,-1.6792937515056172,0.01225044771568545,0.8029169435513807,-0.9940452575683594,-0.012250141240656376,0.10827654600143433,-0.0003307247534394264,0.00047210603952407837,0.0003616316244006157,0.00487905740737915,0.00043982360512018204,-0.0006715133786201477
223,-1.6792038957174455,0.012280427658680043,0.8028966510926687,-0.9940546751022339,-0.012280118651688099,0.10818719863891602,0.0004925141111016273,-0.0007158513180911541,0.0011375928297638893,0.004583299160003662,0.0005919048562645912,-0.0008416250348091125
224,-1.6792430500817885,0.012216209798598655,0.8028741677184292,-0.9940512776374817,-0.012215905822813511,0.10822620987892151,-0.0005481261759996414,-0.00042698998004198074,-0.0003674086183309555,0.004076242446899414,-0.001501740887761116,-0.00013290345668792725
225,-1.6792415626337789,0.012321691657445167,0.8028679052155903,-0.9940500855445862,-0.012321379967033863,0.10822457820177078,0.00023180153220891953,-0.002652416005730629,-0.0011208290234208107,0.003266453742980957,0.0007552215829491615,-0.0013063028454780579
226,-1.6630860230801088,0.012895873578629839,0.8021690930631143,-0.9956615567207336,-0.012895516119897366,0.09215108305215836,-0.1345003843307495,0.1754150539636612,0.00010992772877216339,5.608797073364258e-05,0.029313981533050537,-0.05478227138519287
227,-1.6973667495687568,0.027130531584600985,0.7746795651212425,-0.9916355609893799,-0.027127202600240707,0.1261862963438034,-0.17456454038619995,-0.3681287467479706,-0.6921029686927795,-0.16835278272628784,-0.037646353244781494,0.020115002989768982
228,-1.7575794639050628,0.2060556048689624,0.671242626765944,-0.9618200063705444,-0.20460054278373718,0.18177054822444916,-1.653030514717102,-1.1635700464248657,-1.6669811010360718,0.060468316078186035,0.06954504549503326,-0.13100461661815643
229,-1.851558844283752,0.3583647730180283,0.565008994611214,-0.8998035788536072,-0.3507433533668518,0.2594854235649109,-0.9388363361358643,-1.0661098957061768,-1.0552371740341187,-0.008124887943267822,0.00017270445823669434,-0.1450139284133911
230,-1.9532609026610153,0.45193212072958255,0.5118838910484448,-0.8346065282821655,-0.43670448660850525,0.3357399106025696,-0.23716849088668823,-0.8730837106704712,-0.619775116443634,-0.007861852645874023,0.013486653566360474,-0.07171711325645447
231,-2.048232714041604,0.5245580613825179,0.4892951642690242,-0.7687562704086304,-0.5008305311203003,0.3977212607860565,0.0667131096124649,-0.6420129537582397,-0.64024418592453,-0.0826076865196228,0.058447837829589844,-0.04254254698753357
232,-2.0932247589732276,0.5849741744717915,0.46153127776045993,-0.7225155234336853,-0.5521778464317322,0.4160178303718567,-0.5772250294685364,0.5305013060569763,-0.2858235538005829,0.008129537105560303,-9.870529174804688e-05,0.09786757826805115
233,-1.9238734860973365,0.6413471777917411,0.36068934669954084,-0.7518615126609802,-0.5982754826545715,0.27707570791244507,-1.0694375038146973,1.8957607746124268,-0.22695289552211761,-0.009704768657684326,0.05523037910461426,0.16927435994148254
234,-1.6718322899160905,0.6932092159203732,0.22656335502859906,-0.7652764320373535,-0.6390089988708496,0.07758462429046631,-0.8470123410224915,1.041275978088379,-0.33791032433509827,-0.2392095923423767,0.021363794803619385,-0.1034025028347969
235,-1.597632803925484,0.7625543713200791,0.19773098812313786,-0.7228136658668518,-0.69077068567276,0.019402431324124336,0.23069490492343903,0.3014787435531616,-0.7524874806404114,-0.1021527647972107,0.05118328332901001,-0.1995018720626831
236,-1.6088601191137197,0.837542721236352,0.2494712761745662,-0.6688058972358704,-0.7430007457733154,0.025469591841101646,0.3656419813632965,0.25916093587875366,-0.5807653665542603,0.10372716188430786,0.030384719371795654,-0.04638933762907982
237,-1.6907344338471997,0.8874105393532253,0.3230762243256408,-0.6268860697746277,-0.7754393219947815,0.0755501389503479,0.45187219977378845,0.04511938989162445,-0.44244301319122314,0.09319466352462769,-0.006131112575531006,-0.018741726875305176
238,-1.7418549283730678,0.912143837361852,0.3468455054385457,-0.6031190752983093,-0.7908176779747009,0.10418689996004105,0.39769411087036133,-0.8037733435630798,-0.13701672852039337,0.17578136920928955,0.03285247087478638,0.020996227860450745
239,-1.7969597856676383,0.9099186197950929,0.3948474744140305,-0.5981786847114563,-0.7894538044929504,0.13764098286628723,0.20091788470745087,-1.1911991834640503,-0.1001586839556694,0.07463443279266357,0.03417426347732544,-0.07147884368896484
240,-1.8348378377393422,0.8810599116977187,0.4422730113750727,-0.6142803430557251,-0.7714137434959412,0.1660729944705963,0.4047236442565918,-0.42052048444747925,0.13677793741226196,0.09181952476501465,0.024313032627105713,-0.1507379114627838
241,-1.947870509784032,0.8668242970716646,0.5391908702159193,-0.601778507232666,-0.7622773051261902,0.2383187860250473,0.482147216796875,0.28388512134552,0.20355749130249023,0.07156616449356079,-0.02937912940979004,-0.00804843008518219
242,-2.1099790643901,0.8190640468195206,0.653319356686708,-0.5860204100608826,-0.730506956577301,0.3506273031234741,1.4282872676849365,-0.8422075510025024,0.07529578357934952,-0.016152381896972656,-0.044135868549346924,-0.09693470597267151
243,-2.2694322452421214,0.7322787439185592,0.7615603834901429,-0.5694299936294556,-0.6685659885406494,0.47829797863960266,1.2693270444869995,-0.6528509259223938,0.20387308299541473,-0.11681872606277466,-0.06400847434997559,-0.07702234387397766
244,-2.4173903869542515,0.6355817662289294,0.8877371851903403,-0.5331621766090393,-0.5936457514762878,0.6027629971504211,1.3896867036819458,-0.16572275757789612,-0.013008633628487587,-0.14638811349868774,-0.048886656761169434,-0.012522339820861816
245,-2.408423662661754,0.587018586245715,0.9551619576320695,-0.5571960806846619,-0.5538811683654785,0.6186662912368774,0.978304386138916,0.2632732689380646,-0.27044734358787537,-0.06978750228881836,0.03912597894668579,-0.03893917798995972
246,-2.408916671739019,0.5330691584047691,1.041139865275969,-0.5760577917098999,-0.5081790685653687,0.6402432918548584,0.7552207708358765,0.09932182729244232,-0.15723688900470734,0.027916252613067627,-0.016173958778381348,0.0718996524810791
247,-2.4187628040771467,0.4898960248367807,1.095096226667648,-0.5837039947509766,-0.47053414583206177,0.6617305874824524,0.35273388028144836,0.14733290672302246,-0.044451482594013214,-0.021673202514648438,-0.005585849285125732,0.04642987251281738
248,-2.3941193401398286,0.46040435155351184,1.1280400309930836,-0.6090035438537598,-0.44431039690971375,0.6570411324501038,0.30126670002937317,0.4676119387149811,-0.16155879199504852,-0.032582759857177734,-0.04232287406921387,-0.0034156441688537598
249,-2.371795859226864,0.45580100833586124,1.1684746193823305,-0.62493497133255,-0.4401816725730896,0.6447453498840332,0.27513131499290466,0.21756747364997864,-0.2559356987476349,0.0017659664154052734,0.031597018241882324,0.014159739017486572
250,-2.357936842615789,0.4460724969053016,1.2104220935002612,-0.6368028521537781,-0.43142569065093994,0.6390258073806763,0.330107182264328,0.3632175326347351,-0.2369212657213211,-0.030387699604034424,0.02258169651031494,0.0036286115646362305
251,-2.3537895282293486,0.4408937557871309,1.2550864962815766,-0.6410228610038757,-0.4267479181289673,0.6379470229148865,0.2795524299144745,0.20769912004470825,0.019605852663517,0.019669532775878906,-0.0003151893615722656,-0.001334846019744873
252,-2.357359286601771,0.4113720043027491,1.2747453821225612,-0.6473597884178162,-0.3998672366142273,0.6488695740699768,0.5311047434806824,0.1814599335193634,0.10137718915939331,-0.022913098335266113,0.02022850513458252,0.010355889797210693
253,-2.3736392448515273,0.37112331733582377,1.2425340003842158,-0.6473722457885742,-0.36266249418258667,0.670362114906311,-0.29809433221817017,0.02628963254392147,0.7218957543373108,-0.2007877230644226,0.012915730476379395,0.00793689489364624
254,-2.3282924704962342,0.34129880477239105,1.1902182106325734,-0.684651255607605,-0.3347112536430359,0.6474726796150208,0.472418874502182,-0.2522890269756317,0.8643196225166321,0.052540719509124756,-0.051702260971069336,-0.10155898332595825
255,-2.3448546381316535,0.20907045063579066,1.1601963166546747,-0.6995083689689636,-0.20755067467689514,0.683820903301239,0.6527572870254517,-0.1394391804933548,0.6068996787071228,-0.17303502559661865,-0.050963759422302246,0.06398183107376099
256,-2.3399193078905967,0.21285394757763754,1.1268924366420536,-0.7023054957389832,-0.21125029027462006,0.6798093318939209,-0.9955041408538818,-0.24547982215881348,-0.055759284645318985,-0.17318296432495117,0.015022233128547668,0.08883708715438843
257,-2.3295803197187306,0.3331306170640153,1.0289763365803064,-0.6857779622077942,-0.3270031213760376,0.6502132415771484,-1.5432369709014893,-0.39065349102020264,-0.6202448606491089,-0.28582537174224854,0.12621274590492249,0.04929536581039429
258,-2.1868559132924936,0.5730896318562617,0.8502724244530353,-0.6857632398605347,-0.5422306060791016,0.4855045676231384,-3.66685152053833,1.2720552682876587,-0.7827213406562805,-0.32813745737075806,0.1374760866165161,-0.07005348801612854
259,-2.031454773554565,0.8091665671999653,0.6498646922202648,-0.6181656718254089,-0.7237122654914856,0.3067765235900879,-0.7811617255210876,-0.5956328511238098,-1.6951360702514648,0.00804293155670166,-0.046002089977264404,-0.6902909278869629
260,-2.3686632172302575,0.8206815591086142,0.9091127555098476,-0.47600290179252625,-0.7316106557846069,0.48802369832992554,2.006688117980957,-0.6966767311096191,-0.9431670904159546,0.32991525530815125,-0.07124578952789307,-0.2778491973876953
261,-2.370037102582937,0.736722971557565,1.066842382934918,-0.5164361000061035,-0.6718643307685852,0.5309353470802307,1.1533303260803223,2.2972421646118164,-0.007104809395968914,0.22542041540145874,-0.02265477180480957,-0.06931120157241821
262,-2.1119257045515667,0.6109008475272335,1.0819287711291632,-0.7021002769470215,-0.5736055970191956,0.4219382703304291,1.6401537656784058,1.2646132707595825,1.1898342370986938,-0.08976984024047852,0.0035677552223205566,0.017698049545288086
263,-1.9694837896824937,0.4264732634305441,1.175322803337901,-0.8390265703201294,-0.41366252303123474,0.3534373641014099,1.710769772529602,1.2293696403503418,1.7567901611328125,0.22736263275146484,0.10931065678596497,0.4266376793384552
264,-1.824737709731381,0.2649993192450246,1.2219715711023482,-0.9341419339179993,-0.261908620595932,0.24245142936706543,-0.4902924597263336,-0.7518681883811951,0.983257532119751,-0.06036484241485596,0.0868445336818695,0.5320389270782471
265,-1.903860792223592,0.14352990906882693,1.2506160221453857,-0.9353271722793579,-0.1430376172065735,0.32357874512672424,0.5823001861572266,-0.1675870567560196,0.8332769870758057,-0.07175284624099731,-0.00958077609539032,0.3096608817577362
266,-2.0701999944599345,0.07051762019566189,1.2523997645792346,-0.8756864070892334,-0.07045918703079224,0.47771182656288147,1.018294334411621,-3.5012784004211426,0.2115999460220337,0.062240540981292725,-0.18889443576335907,-0.29390451312065125
267,-2.457723596928566,-0.05009439346029923,1.290187671451887,-0.6310040354728699,0.050073444843292236,0.7741614580154419,0.11047054827213287,-3.2311346530914307,0.42874041199684143,-0.1494981050491333,-0.02735311910510063,0.02961021661758423
268,-2.771502517509334,-0.03631389012142162,1.2534201406561438,-0.3614610433578491,0.03630590811371803,0.9316802024841309,-0.4704686999320984,-3.267531156539917,0.17058169841766357,-0.09372392296791077,0.08388756215572357,-0.08525979518890381
269,-3.066662229147714,-0.0075208339102155195,1.2415280452044137,-0.07485819607973099,0.007520763203501701,0.9971656203269958,-0.08042694628238678,-2.0161118507385254,-0.06085792928934097,-0.010148510336875916,0.05642882362008095,0.02755337953567505
270,3.13419425653186,0.007028844053838641,1.240508331982173,0.007398148532956839,-0.00702878599986434,0.9999481439590454,-0.0886831134557724,-0.1756807565689087,-0.06211164593696594,-0.03526069596409798,0.017725195735692978,-0.05909097194671631
271,3.0973047803681526,0.026743699278913725,1.2664780313584056,0.04425755888223648,-0.026740511879324913,0.9986620545387268,-0.7505871057510376,-1.908237099647522,-0.32375046610832214,-0.13707678020000458,0.04253336414694786,-0.04996228218078613
272,3.1090187719925866,0.03256699637713217,1.2723726896261334,0.03255085274577141,-0.03256123885512352,0.9989396333694458,-0.06699369847774506,0.1079467236995697,-0.0006569894030690193,0.0824088603258133,0.02677816152572632,0.09957116842269897
273,3.106915141483683,0.03165162398707542,1.2722301323817777,0.034653205424547195,-0.03164634108543396,0.998898446559906,-0.004186236299574375,0.005867958068847656,0.0011963574215769768,-0.0240025632083416,-0.013489168137311935,-0.0008513927459716797
274,3.108159720778859,0.03216217850697975,1.2721239711822252,0.033409424126148224,-0.03215663507580757,0.9989244937896729,-0.0025666970759630203,0.0007887114770710468,0.0010525202378630638,-0.004127804189920425,-0.007272079586982727,0.007362246513366699
275,3.109003705604695,0.03212942528423759,1.2721008114751198,0.0325663685798645,-0.03212389722466469,0.9989532828330994,0.0014564208686351776,0.003896151203662157,0.001327340491116047,-0.0073283277451992035,-0.0015980266034603119,-0.00644528865814209
276,3.110227386860203,0.03234054389348796,1.2720644026213104,0.0313437357544899,-0.03233490511775017,0.998985767364502,0.0010936558246612549,-0.002330392599105835,0.0008389120921492577,-0.012743264436721802,-0.013121034950017929,0.01599860191345215
277,3.111201888001575,0.032631607274615816,1.2720329501791732,0.03036990575492382,-0.03262581676244736,0.999005913734436,-0.006780395284295082,-0.004764284007251263,0.0013932446017861366,-0.008259925991296768,0.001558929681777954,0.013796031475067139
278,3.1118718142082167,0.03250012512934899,1.272007968435978,0.02970077283680439,-0.032494403421878815,0.999030590057373,0.0053868768736720085,0.005713202059268951,0.0013152556493878365,-0.00292159803211689,-0.010672710835933685,-0.018836498260498047
279,3.112647313238064,0.03291384284149932,1.271934652093475,0.028925618156790733,-0.03290789946913719,0.9990395903587341,0.0017176344990730286,0.0023850002326071262,-0.0017819255590438843,-0.00939437747001648,-0.002889208495616913,0.009901881217956543
280,3.1132916448208814,0.03259281987899703,1.2718403618906113,0.028282199054956436,-0.03258705139160156,0.999068558216095,-0.002872842364013195,-0.0015807650052011013,-0.0019387491047382355,-0.0006943140178918839,0.01546669751405716,0.011841356754302979
281,3.113927869688821,0.032694461259018585,1.271802355107629,0.027646472677588463,-0.03268863633275032,0.9990831017494202,-0.0008731167763471603,0.0023747533559799194,-0.0004508495330810547,-0.013898305594921112,-0.012477375566959381,-0.0001207590103149414
282,3.114685971123435,0.03321792060359566,1.2717548291169152,0.026888590306043625,-0.03321181237697601,0.9990864396095276,-0.0004467163234949112,0.001120531465858221,-0.000315333716571331,0.006268754601478577,0.0038081295788288116,0.0037057995796203613
283,3.114788833167018,0.032903072399477484,1.2717287655200615,0.02678609825670719,-0.032897137105464935,0.9990994930267334,0.002694755792617798,-0.0006670253351330757,0.000820893794298172,-0.012244479730725288,0.004592087119817734,0.006805419921875
284,3.11574467524099,0.033164895716807176,1.2716530387991087,0.025830892845988274,-0.033158816397190094,0.9991164803504944,0.0015189247205853462,5.225837230682373e-05,0.00039854925125837326,-0.0018135569989681244,-0.0033859871327877045,0.0035539865493774414
285,3.115621763169662,0.03320394742241528,1.2716608952310773,0.02595365233719349,-0.03319784626364708,0.999111533164978,0.001956361345946789,0.004627108573913574,-0.0017142444849014282,-0.00036466866731643677,0.0010933615267276764,0.003451704978942871
286,3.1162618466665917,0.033301050911896626,1.2716096070656755,0.025314055383205414,-0.03329489752650261,0.9991248846054077,-0.0005486411973834038,-0.002239751163870096,0.0005893651396036148,-0.009948456659913063,-0.0032193809747695923,0.00662761926651001
287,3.1165928971457375,0.033369498378805915,1.2715859991183738,0.02498324029147625,-0.033363305032253265,0.9991311430931091,0.0002478528767824173,-0.0003898227587342262,0.000580737367272377,0.004771403968334198,-0.0033951252698898315,0.0023643970489501953
288,3.116632337383351,0.033466384478197636,1.2715712378200108,0.024943755939602852,-0.033460136502981186,0.9991289973258972,-0.0017885975539684296,0.000284313689917326,-0.0007012998685240746,-0.009776510298252106,-0.005327712744474411,0.00508272647857666
289,3.117201440110491,0.033506316296557696,1.271589215594223,0.024375110864639282,-0.03350004553794861,0.9991416335105896,-0.00024911481887102127,0.0015413854271173477,0.0010018907487392426,0.004540301859378815,0.00032743439078330994,0.0047342777252197266
290,3.1171126553831323,0.033507121988110004,1.2716073853494003,0.024463819339871407,-0.033500853925943375,0.9991394877433777,4.8922374844551086e-05,-0.0027841771952807903,0.0012536058202385902,-0.003650827333331108,-0.005210705101490021,0.005682468414306641
291,3.117636408741004,0.033642738304178146,1.2715499552149065,0.023940401151776314,-0.033636391162872314,0.9991474747657776,0.00087710190564394,0.0020941318944096565,0.0007164068520069122,-0.0036156922578811646,-0.000772181898355484,0.0029582977294921875
292,3.1176477200301105,0.03348933751487249,1.2715743433076139,0.023929215967655182,-0.033483076840639114,0.9991526007652283,0.0006473679095506668,0.000850907526910305,0.00024292990565299988,0.00425376370549202,0.0012412592768669128,0.0034106969833374023
293,3.1177125828380206,0.033570832621118984,1.2715884619178965,0.023864345625042915,-0.033564526587724686,0.9991515278816223,0.0013029184192419052,0.0037061558105051517,0.000225030817091465,-0.004256805405020714,-0.004918135702610016,0.00376284122467041
294,3.118108792055161,0.03366606106361294,1.2715976808493867,0.023468393832445145,-0.03365970030426979,0.9991576671600342,-0.0011957241222262383,0.002191061619669199,6.67693093419075e-05,0.0010372158139944077,-0.001969568431377411,0.0039244890213012695
295,3.1180159479959992,0.03356945051655046,1.2715965387755654,0.02356123924255371,-0.033563144505023956,0.9991588592529297,0.0027231774292886257,-0.0023984932340681553,0.0016186600551009178,-0.001481771469116211,-0.0020661242306232452,0.0062122344970703125
296,3.1183044256220844,0.03367357598728276,1.271540171746896,0.023272927850484848,-0.03366721421480179,0.9991623163223267,0.0008131125941872597,0.0017026565037667751,0.0007828511297702789,-0.0027803685516119003,-0.001244906336069107,0.004042267799377441
297,3.118408192593945,0.03360659472524179,1.2715072754168002,0.02316928841173649,-0.03360027074813843,0.9991664886474609,0.00021356716752052307,0.0003597550094127655,0.0021527837961912155,0.0005428623408079147,-0.002028990536928177,0.0047394633293151855
298,3.118581406175725,0.033681021491120115,1.2714681145687363,0.022996170446276665,-0.03367465361952782,0.9991683959960938,-0.0012057367712259293,0.0024674604646861553,-3.4586526453495026e-05,-0.0009929947555065155,-0.0014968588948249817,0.0035630464553833008
299,3.1185954387538093,0.03363950112975885,1.2714793335295091,0.022982174530625343,-0.03363315761089325,0.9991698265075684,0.0020388420671224594,-6.448524072766304e-05,0.0003708936274051666,0.0011267103254795074,0.000613141804933548,0.00485837459564209
300,3.118748783891112,0.03369239071557352,1.2714699458238734,0.022828925400972366,-0.033686015754938126,0.9991719722747803,-0.004169158637523651,0.0004947211127728224,-0.002086636610329151,-0.007310731336474419,-0.004232082515954971,-0.011683940887451172
301,3.1189881236617625,0.033818738728462375,1.2714146985420576,0.022589674219489098,-0.03381229192018509,0.9991726279258728,-0.003095853142440319,0.0023107556626200676,-0.00043197348713874817,0.010521892458200455,0.005751386284828186,0.00860905647277832
302,3.118462366173328,0.0335406702914071,1.2714240430834225,0.023115215823054314,-0.03353438153862953,0.999170184135437,0.0013628415763378143,-0.005652215331792831,-0.003303159959614277,-0.007688583806157112,-0.002751011401414871,0.007543623447418213
303,3.1194624978608467,0.03395402729755294,1.271399477561521,0.022115597501397133,-0.03394750505685806,0.9991790652275085,-0.0024648886173963547,-0.0005718236789107323,0.0007770294323563576,-3.612786531448364e-05,0.0015988685190677643,-0.0032224655151367188
304,3.118782275233549,0.03356986821360719,1.2714257376728884,0.022795556113123894,-0.033563561737537384,0.9991768598556519,-0.00019754469394683838,-0.0015866574831306934,-7.30026513338089e-05,0.004761822521686554,0.006738603115081787,0.001281142234802246
305,3.1191492638396,0.0337896220297541,1.2714611117431378,0.02242870070040226,-0.0337831936776638,0.9991776943206787,0.0015701279044151306,-0.0014454382471740246,-0.0003922414034605026,-0.00825328379869461,-0.0037992075085639954,0.00437772274017334
306,3.1191754125460127,0.03378661620185771,1.2715316543157928,0.022402577102184296,-0.033780187368392944,0.999178409576416,0.003538154996931553,0.0004228635225445032,0.00021375250071287155,0.008572770282626152,0.0028811320662498474,0.004209280014038086
307,3.1190607992857746,0.03371919472781062,1.2715315856050686,0.022517142817378044,-0.033712804317474365,0.9991779327392578,0.0015503307804465294,0.0008634547702968121,-0.0002772156149148941,-0.008753713220357895,-0.004006922245025635,0.0026836395263671875
308,3.11793520613332,0.03358032752480762,1.271985298889445,0.023641901090741158,-0.03357401862740517,0.9991564154624939,-0.011503966525197029,0.00591313699260354,-0.09388044476509094,0.003610292449593544,-0.001963697373867035,-0.009837746620178223
309,-3.1026025119007317,0.00030803754949540685,1.2611063261522268,-0.03898027166724205,-0.00030803753179498017,0.9992401599884033,0.40701279044151306,1.6956350803375244,1.2053625583648682,0.18526627123355865,-0.18575763702392578,0.18020343780517578
310,-2.710144186101985,-0.018121188240270918,1.1780424691759084,-0.41811826825141907,0.01812019571661949,0.9082117676734924,-0.30345192551612854,5.6064605712890625,0.3854394257068634,-0.21391594409942627,0.11104544997215271,0.06272017955780029
311,-2.1907735257558976,0.007006693986919522,1.1379612114148465,-0.8138718008995056,-0.007006636820733547,0.581002414226532,-1.0417742729187012,3.551250696182251,0.007019541226327419,0.16125339269638062,0.05038738250732422,0.03494918346405029
312,-1.9763877054506305,0.05100089161017652,1.1128028960869518,-0.9176743626594543,-0.05097878351807594,0.39404916763305664,0.19380801916122437,0.16507022082805634,-0.4188617169857025,0.0054735541343688965,-0.01590048521757126,-0.10162979364395142
313,-1.8622760094983921,0.09161142525170266,1.1240395240710965,-0.9538030624389648,-0.09148333221673965,0.28616470098495483,-0.03588659316301346,1.9721217155456543,-0.2711789309978485,0.0838385820388794,-0.027642004191875458,0.011045902967453003
314,-1.742937993732101,0.16287863615038511,1.1494880634158486,-0.9721803069114685,-0.16215941309928894,0.16902561485767365,0.12194870412349701,1.502551555633545,-0.5274192690849304,0.09362506866455078,0.007420048117637634,0.08269856870174408
315,-1.6574483298208242,0.20609726314781618,1.1711300154146977,-0.9751644134521484,-0.20464132726192474,0.08471208065748215,0.5247408151626587,0.5843448042869568,-0.438694566488266,0.05035984516143799,0.03532981872558594,0.012303225696086884
316,-1.6274378789978137,0.23877551129576421,1.2308501568956953,-0.9700701236724854,-0.23651306331157684,0.055005114525556564,0.11935974657535553,-0.30879995226860046,-0.14176729321479797,0.11777526140213013,0.04898256063461304,0.05987834930419922
317,-1.61524468866346,0.25711740684016504,1.2315266102735172,-0.96617192029953,-0.2542937695980072,0.04297306388616562,0.15317127108573914,0.26483389735221863,-0.1708948016166687,0.046021103858947754,-0.004357963800430298,0.07932615280151367
318,-1.6109016567903216,0.27289931746072693,1.2426572606918451,-0.9622191786766052,-0.26952460408210754,0.03861081972718239,0.222643181681633,0.20336492359638214,-0.36619439721107483,0.024398744106292725,0.021920233964920044,0.04450380802154541
319,-1.5943813944685463,0.2791158377992143,1.2491299142461927,-0.9610321521759033,-0.27550581097602844,0.022670211270451546,-0.14580664038658142,0.2543775141239166,-0.25226718187332153,-0.03442084789276123,0.10739970207214355,0.05556154251098633
320,-1.4860796775994487,0.28459026453398584,1.2196784220038777,-0.9563347697257996,-0.28076422214508057,-0.08121185004711151,-0.5608083605766296,0.44313254952430725,0.15710289776325226,-0.04847174882888794,-0.058164000511169434,0.004933178424835205
321,-1.5413937267568947,0.2806567414688133,1.2125088499684005,-0.9604583382606506,-0.2769867479801178,-0.02824811451137066,0.07816209644079208,-0.6901901960372925,0.07312332838773727,-0.030355751514434814,-0.007574349641799927,0.005482019856572151
322,-1.5662784302103359,0.2835084798163537,1.2127292931056008,-0.9600702524185181,-0.2797257900238037,-0.00433752778917551,0.09223482757806778,-0.006441846024245024,-0.050168782472610474,-0.011624813079833984,-0.013304024934768677,-0.05495810508728027
323,-1.6016551068309839,0.2860027370016594,1.2321874138338058,-0.9589225649833679,-0.28211960196495056,0.02960057742893696,0.2359747290611267,-0.30220848321914673,-0.012984261848032475,0.012618184089660645,-0.026367366313934326,-0.04128885269165039
324,-1.6122040117942749,0.2975520254531092,1.2590115198574499,-0.9552376866340637,-0.2931806743144989,0.039576802402734756,0.32280072569847107,0.47065842151641846,-0.34139329195022583,-0.06768113374710083,-0.06581288576126099,-0.17960667610168457
325,-1.313409090871007,0.37606102383285855,1.251785159522037,-0.8994787931442261,-0.3672596216201782,-0.2367660403251648,-0.652741014957428,6.511088848114014,-1.6288158893585205,0.09804147481918335,-0.13666188716888428,0.02598114311695099
326,-0.4046902538807377,0.3831949253576274,1.142361350976107,-0.3651784360408783,-0.3738855719566345,-0.8525574803352356,-0.9576407074928284,9.095703125,0.6483547687530518,-0.046641021966934204,0.05369514226913452,0.0796998143196106
327,0.21940994597471766,0.367169038958646,1.1744989755024582,0.2031465470790863,-0.3589746057987213,-0.9109712839126587,3.134676694869995,1.9669657945632935,-0.09390921890735626,-0.9270387887954712,0.11761108040809631,-1.4819271564483643
328,0.4480144790016637,0.5834127060242403,1.1600423164658118,0.36152398586273193,-0.5508753657341003,-0.7522212266921997,0.5412463545799255,1.8461004495620728,1.328329086303711,0.5670801401138306,0.09059399366378784,0.4070521593093872
329,0.6024250911541805,0.6507113559714814,1.1351610913571435,0.4508507251739502,-0.6057525277137756,-0.6555894017219543,1.6747385263442993,-1.1629856824874878,-0.8315685391426086,0.11692878603935242,-0.2280944585800171,-0.002964615821838379
330,0.8972724406226008,0.732914926259867,1.002381418528,0.5809277296066284,-0.6690389513969421,-0.463583767414093,0.7230225801467896,3.171283483505249,0.7321785688400269,0.04060852527618408,0.09843653440475464,0.2115086317062378
331,1.3229837796704982,0.6929522743103558,0.8419519672395431,0.7458603978157043,-0.6388113498687744,-0.188712477684021,1.26784348487854,4.548148155212402,-0.5617082715034485,-0.20409703254699707,0.08066010475158691,0.1932748556137085
332,1.8700528284289937,0.5509668784953903,0.6825335242580426,0.8141516447067261,-0.5235112905502319,0.25118353962898254,0.47888821363449097,3.5488967895507812,-1.7700598239898682,-0.08580386638641357,-0.09947454929351807,-0.10259342193603516
333,2.2383784233673016,0.33790656686683757,0.7242225783592826,0.7409116625785828,-0.33151277899742126,0.5840800404548645,0.8854248523712158,2.7797555923461914,-1.9231065511703491,0.348138689994812,-0.11775180697441101,-0.30064791440963745
334,2.4220769933008746,0.1928837274260778,0.7958403261389696,0.6467993259429932,-0.19168993830680847,0.7381772994995117,0.5823071002960205,1.0793401002883911,-0.9278532266616821,0.32127928733825684,-0.16173413395881653,-0.24168682098388672
335,2.4023850413501076,0.15952267898065736,0.8505624372988442,0.6651485562324524,-0.15884695947170258,0.729619562625885,0.19666892290115356,0.1259927749633789,-0.3037553131580353,0.06918048858642578,-0.05411992967128754,-0.11432421207427979
336,2.397019161923549,0.13203337038299465,0.8682721737126894,0.671760082244873,-0.13165009021759033,0.7289764881134033,-0.3315418064594269,-0.5485097169876099,-0.1364685744047165,0.07863664627075195,-0.08374296128749847,-0.02478337287902832
337,2.3171530250724093,0.14956766666396645,0.9152268214900927,0.7259710431098938,-0.14901064336299896,0.6713883876800537,-0.396596759557724,-0.6909639239311218,-0.33303967118263245,0.025234580039978027,0.035653069615364075,-0.10215908288955688
338,2.257552834589281,0.14857126231832346,0.9530220950758835,0.7647873759269714,-0.1480252891778946,0.6270474791526794,-0.05307887867093086,-0.24055986106395721,-0.17547161877155304,0.07310307025909424,0.00659160315990448,-0.08958715200424194
339,2.2047350233006493,0.1498794315872842,0.9653905413809336,0.7966682314872742,-0.14931891858577728,0.5856823325157166,-0.1734076589345932,-0.588157594203949,0.01617555133998394,0.040398478507995605,0.0003931373357772827,-0.003040611743927002
340,2.177886915784555,0.1430137964182894,0.9724116554794181,0.8129265904426575,-0.1425267904996872,0.5646563768386841,0.041970785707235336,-0.2290044128894806,-0.12627601623535156,0.02887040376663208,-0.005117297172546387,-0.03581714630126953
341,2.169928269880745,0.13168601489808088,0.9668832328860394,0.8186752200126648,-0.1313057392835617,0.5590432286262512,0.10924433916807175,0.028773454949259758,-0.10364605486392975,0.02206861972808838,-0.010097414255142212,-0.030677199363708496
342,2.172688241563217,0.12542488116627737,0.9656410575293097,0.8177909851074219,-0.12509629130363464,0.5617552399635315,0.07722709327936172,0.10660690814256668,-0.06085026636719704,0.020053863525390625,-0.0045576393604278564,-0.01747417449951172
343,2.1759774020446496,0.1239877264386624,0.9636919736510122,0.8160859942436218,-0.123670294880867,0.5645437836647034,0.20336657762527466,0.2006591409444809,0.15901823341846466,0.07084649801254272,-0.013475701212882996,-0.02743428945541382
344,2.173106927468127,0.14878459420096704,0.9494064606247442,0.814924955368042,-0.1482362598180771,0.5602888464927673,-0.17057497799396515,-0.10275939106941223,0.0084269093349576,0.009232819080352783,0.0136079341173172,-0.04261904954910278
345,2.1792754567976917,0.15170504980596164,0.9507603997010958,0.811094343662262,-0.15112382173538208,0.5650549530982971,0.06918954849243164,0.09119600802659988,0.0037009436637163162,0.03262495994567871,-0.0035850107669830322,-0.037543416023254395
346,2.1797423507890445,0.15803954969732617,0.9548789751605518,0.8100292086601257,-0.15738248825073242,0.5648748278617859,-0.08102669566869736,0.05967087298631668,-0.018834656104445457,0.013472378253936768,0.010562419891357422,-0.03876698017120361
347,2.1808066022280315,0.15717292265282443,0.9548062913712065,0.8095389604568481,-0.1565266102552414,0.5658144354820251,0.024096909910440445,0.03256012499332428,-0.015205103904008865,0.01043778657913208,0.000932738184928894,-0.015246927738189697
348,2.1798707360092973,0.15855400920160762,0.9545643589025161,0.8098901510238647,-0.15789051353931427,0.5649324059486389,0.0685940757393837,0.02677197940647602,-0.0025933589786291122,0.014114975929260254,0.006996363401412964,-0.04228842258453369
349,2.176206119298847,0.1572064659118504,0.9524794542873364,0.812129020690918,-0.15655973553657532,0.5620811581611633,0.06741465628147125,0.02099141664803028,-0.02466835454106331,0.01291358470916748,0.008183300495147705,-0.019692301750183105
350,2.1783984884773013,0.1557868817784063,0.9524276140495942,0.8110766410827637,-0.15515750646591187,0.5639867186546326,-0.04385441169142723,-0.007593850139528513,-0.043337881565093994,0.01767408847808838,0.010839864611625671,-0.01813405752182007
351,2.179826132389037,0.14975068241983164,0.9524936400938239,0.8110241889953613,-0.14919160306453705,0.5656696557998657,0.036857619881629944,0.06970713287591934,-0.0738888680934906,0.0012164711952209473,0.003927946090698242,-0.00799107551574707
352,2.1871063055355684,0.14232339860174523,0.9533357800563375,0.8077663779258728,-0.14184340834617615,0.5721836686134338,0.014796826057136059,0.05764629691839218,-0.101217120885849,0.0027499794960021973,0.009946435689926147,-0.020288467407226562
353,2.1890698754252345,0.1389281535562968,0.956335942501781,0.8070291876792908,-0.13848167657852173,0.5740445852279663,0.007488088682293892,0.01593594253063202,-0.049171146005392075,0.007317304611206055,0.0004964172840118408,-0.03150296211242676
354,2.191442042391108,0.13510858241934207,0.9559626787216932,0.8060892224311829,-0.13469789922237396,0.576260507106781,0.04912883788347244,0.036587201058864594,0.010144148021936417,0.023561477661132812,-0.017539024353027344,-0.029217839241027832
355,2.1889566345573126,0.13619164645185916,0.95127826130802,0.8073996901512146,-0.1357710212469101,0.5741704702377319,-0.018881235271692276,-0.03568289056420326,0.03766065835952759,0.00812143087387085,-0.012941092252731323,-0.008572936058044434
356,2.187957725924835,0.13363816176620685,0.9433533189217256,0.8082528710365295,-0.13324074447155,0.5735623240470886,0.056508034467697144,0.022991744801402092,-0.01658577285706997,-0.002710878849029541,-0.002852410078048706,0.0022429227828979492
357,2.18833919912611,0.128562343264967,0.9360173443340007,0.8085750937461853,-0.1282084882259369,0.5742549300193787,0.05966338515281677,0.008214214816689491,-0.0038071023300290108,0.005847334861755371,0.0067332834005355835,0.009683668613433838
358,2.188753655730485,0.1262053074780299,0.9323278849282395,0.8085812926292419,-0.12587054073810577,0.5747635960578918,0.07311806082725525,0.002926977351307869,-0.017858989536762238,0.011197268962860107,0.005554988980293274,-0.005946338176727295
359,2.1898677329628433,0.12323785587227715,0.9285896770254741,0.8082411289215088,-0.12292614579200745,0.5758783221244812,0.011156202293932438,0.011849936097860336,-0.026739677414298058,0.0017871260643005371,0.010560393333435059,0.005283236503601074
360,2.1915307379104045,0.1229826512196538,0.9286912692590583,0.8073077201843262,-0.12267287075519562,0.5772398114204407,-0.057416267693042755,-0.013766158372163773,-0.015124908648431301,0.001453995704650879,0.006660297513008118,0.002700984477996826
361,2.19093360214106,0.12319667648404478,0.9287153635290418,0.8076307773590088,-0.12288527935743332,0.5767422318458557,-0.01594357192516327,-0.027730032801628113,-0.012430318631231785,-0.001478433609008789,0.0005708411335945129,0.006891071796417236
362,2.1893664835979343,0.12340458096415179,0.9286353351931601,0.8085127472877502,-0.12309160083532333,0.5754610896110535,0.05617443099617958,-0.036457888782024384,-0.01433000061661005,0.0031021833419799805,0.01106157898902893,-0.019156217575073242
363,2.188323976185437,0.12157016106653469,0.927181635584062,0.809295117855072,-0.12127093225717545,0.5747477412223816,0.03436212241649628,0.02111249975860119,-0.019768547266721725,-0.0007012486457824707,0.008355870842933655,-0.002207458019256592
364,2.1902084991941844,0.12243574432919936,0.92984688184915,0.8081249594688416,-0.12213008105754852,0.5762107968330383,-0.07913659512996674,0.01760038547217846,0.010728356428444386,0.015605747699737549,-0.001725524663925171,-0.006569504737854004
365,2.1907978245923716,0.12606236000879228,0.930922821700601,0.8074191808700562,-0.12572874128818512,0.5764256119728088,-0.0334494449198246,0.023877296596765518,0.03065561316907406,0.008315682411193848,-0.0057867467403411865,0.0032862424850463867
366,2.1907991673474765,0.12640169406601215,0.9315588270832454,0.8073835372924805,-0.12606537342071533,0.5764018297195435,0.004038009326905012,-0.01534254476428032,-0.0277581624686718,-0.006083548069000244,0.01340976357460022,-0.002183198928833008
367,2.187824649041714,0.12443823759659982,0.9317724231107556,0.8092948794364929,-0.12411733716726303,0.5741398930549622,-0.004544944502413273,0.001528909895569086,-0.018172666430473328,0.00431901216506958,-0.006772540509700775,0.011126101016998291
368,2.1876414717102817,0.12389177364660141,0.9315519066213183,0.8094552159309387,-0.12357507646083832,0.5740307569503784,-0.023395095020532608,0.01392713189125061,0.015095314010977745,0.011757493019104004,-0.009496793150901794,0.012089788913726807
369,2.1871193970008873,0.12486223324455267,0.9319418151978188,0.8096566200256348,-0.12453804165124893,0.5735385417938232,-0.047933340072631836,-0.017436688765883446,-0.010880785994231701,-0.0036110877990722656,0.0038868188858032227,0.004800081253051758
370,2.186320263476836,0.12134333387276917,0.9296319752245767,0.8104673624038696,-0.12104577571153641,0.5731407403945923,0.03168320283293724,-0.02380465529859066,-0.013687819242477417,0.00778508186340332,-0.0026724785566329956,0.01839667558670044
371,2.1837999379775788,0.12136099273058225,0.9298011183118093,0.8119076490402222,-0.12106329947710037,0.5710951089859009,0.019954988732933998,0.01948520727455616,-0.014438364654779434,0.000821232795715332,-0.0006408095359802246,-0.005146622657775879
372,2.1834298252328215,0.1182850896669623,0.9267257939650975,0.8124197125434875,-0.11800945550203323,0.5710059404373169,0.024363456293940544,-0.0060043008998036385,-0.03558489680290222,-0.0059623122215271,-0.0021229833364486694,0.01464158296585083
373,2.1847810575712345,0.11445705729068764,0.9196293562045282,0.8120107054710388,-0.11420731246471405,0.5723593235015869,0.09232950955629349,0.021344730630517006,0.01801053248345852,0.013688087463378906,0.005351133644580841,-0.0018027424812316895
374,2.1861192296558474,0.11164738380909038,0.9071229772887198,0.8115029335021973,-0.11141557991504669,0.5736283659934998,0.05037440359592438,-0.026909908279776573,0.046939827501773834,-0.01827484369277954,-0.014072678983211517,0.0013533234596252441
375,2.18345839336257,0.11243277999845616,0.8968770784150966,0.8129544258117676,-0.11219605058431625,0.5714164972305298,0.03193497285246849,-0.11681410670280457,0.14484557509422302,0.04507768154144287,-0.021028414368629456,-0.06172734498977661
376,2.1626863206327642,0.13774758110881202,0.8446076047478648,0.8220269083976746,-0.1373123824596405,0.552645742893219,0.1719791293144226,-0.9361340403556824,0.6991123557090759,0.07367938756942749,-0.004884287714958191,-0.13080114126205444
377,2.0806521486442753,0.18326526014515665,0.7706664004586526,0.8581985831260681,-0.18224111199378967,0.47987842559814453,0.7041362524032593,-1.128134846687317,0.7717815041542053,0.02012777328491211,0.016454368829727173,-0.08638477325439453
378,1.9564924617218429,0.21855094496607502,0.7025581240768974,0.9044970870018005,-0.2168152630329132,0.36725538969039917,0.5662407875061035,-0.9019599556922913,0.48470115661621094,-0.02252364158630371,0.011950716376304626,0.098992258310318
379,1.882730594315181,0.22137677062683964,0.6672195573235832,0.9285154938697815,-0.2195730060338974,0.29941055178642273,-0.0791187584400177,-0.8527175188064575,-0.0402522087097168,-0.028628408908843994,0.0633992999792099,0.16261029243469238
380,1.8155239289414657,0.19979503036609597,0.6736949122790845,0.9509032368659973,-0.19846844673156738,0.23747217655181885,0.1920187622308731,-0.10362072288990021,-0.211802139878273,0.01441335678100586,0.04421737790107727,0.11880536377429962
381,1.8164635576024915,0.16462048663315385,0.6756651503112274,0.9568619132041931,-0.1638779640197754,0.2399156391620636,0.06298661231994629,0.2761203348636627,-0.36315038800239563,0.01107943058013916,0.01606607437133789,0.08643937110900879
382,1.8359509487050567,0.14165093350988214,0.6874424698132972,0.9553862810134888,-0.141177698969841,0.259433776140213,-0.10672188550233841,-0.03973028436303139,-0.20128470659255981,0.022320568561553955,0.02534826099872589,-0.028553038835525513
383,1.8486024725988428,0.12663440944174936,0.6865246083878548,0.9539588689804077,-0.12629622220993042,0.27205052971839905,0.08767320960760117,0.1619037389755249,-0.06399062275886536,0.030400753021240234,-0.019058987498283386,0.009168952703475952
384,1.8370106599103266,0.12548019015310868,0.6979971495647918,0.9571883082389832,-0.1251511573791504,0.26101255416870117,-0.12291581928730011,-0.17043747007846832,-0.015919279307127,0.007792651653289795,-0.0007033199071884155,0.00029417872428894043
385,1.834676224380357,0.11931523637027391,0.6896465249757779,0.9585219025611877,-0.11903233826160431,0.25897374749183655,0.1793384552001953,0.07320620119571686,-0.04105845093727112,0.007313847541809082,0.02030797302722931,0.03170624375343323
386,1.8693071462061772,0.11028614200985565,0.6795570103539638,0.949968695640564,-0.11006271094083786,0.2923104166984558,0.0403527170419693,0.4919489324092865,-0.14365877211093903,-0.010408937931060791,0.03512682765722275,0.01816016435623169
387,1.9137745464334288,0.10450343839458785,0.6838512619752615,0.9366196393966675,-0.10431332886219025,0.33445873856544495,-0.07150818407535553,0.18629010021686554,0.021167464554309845,0.05631566047668457,-0.002559259533882141,-0.07890447974205017
388,1.8780823978513472,0.15182586309991397,0.6721809862431394,0.942193329334259,-0.15124323964118958,0.29899346828460693,-0.11904387176036835,-1.2466634511947632,1.079674482345581,0.08949911594390869,-0.13713259994983673,-0.3150610029697418
389,1.6378584849747053,0.35707983761462536,0.6631445189906107,0.9348154067993164,-0.34953975677490234,0.06278488785028458,-0.19024646282196045,-4.077064037322998,2.709906578063965,0.14417922496795654,0.07511046528816223,-0.35222887992858887
390,1.0410043205649393,0.5762685792259415,0.7677869060850631,0.7235533595085144,-0.5448989272117615,-0.42374008893966675,-0.38881391286849976,-5.978438377380371,2.316528558731079,0.1168397068977356,0.14618676900863647,-0.14002639055252075
391,0.2683091778527013,0.5410572294214718,0.9362763625004711,0.22723563015460968,-0.5150424838066101,-0.8264957666397095,-1.5657089948654175,-5.888254642486572,-0.7492175698280334,0.21505561470985413,0.07218664884567261,0.11516153812408447
392,-0.09803052825251525,0.4739418776583629,0.8900804287660938,-0.08708558976650238,-0.4563972055912018,-0.8855041861534119,1.20399808883667,-1.611703872680664,-1.0156970024108887,0.4061926603317261,0.09183424711227417,-0.050103724002838135
393,-0.15436217941190028,0.5399195250765858,0.8588905406881444,-0.13187898695468903,-0.5140669941902161,-0.8475512266159058,0.8045086860656738,-0.9017550945281982,-0.3631036579608917,0.27940094470977783,0.0056594014167785645,-0.36295902729034424
394,-0.23012505379055193,0.5483467384031666,0.7690495297848825,-0.1946570724248886,-0.5212770700454712,-0.8308903574943542,-0.2876312732696533,-1.3521672487258911,-0.9276437759399414,0.3243262767791748,-0.2613919973373413,0.07817429304122925
395,-0.3959327458583686,0.5954105465209731,0.6197145847050687,-0.31930238008499146,-0.5608487129211426,-0.7638682723045349,-0.7242946028709412,-2.8114712238311768,-0.8929774761199951,0.29571229219436646,0.002483844757080078,0.1756877303123474
396,-0.627345169449921,0.504154667417383,0.518582882965053,-0.5139651298522949,-0.48306745290756226,-0.7088622450828552,-0.052795276045799255,-0.8580496311187744,-0.030669445171952248,-0.09017610549926758,-0.08181291818618774,-0.4027557969093323
397,-0.6393691772033516,0.44188172234706696,0.49138760403764425,-0.539376437664032,-0.42764121294021606,-0.7253936529159546,-1.342057228088379,0.4210728108882904,-0.06984708458185196,0.05486416816711426,0.13485556840896606,0.13928836584091187
398,-0.7966518371958746,0.422532048563582,0.5530936311147521,-0.6521359086036682,-0.41007113456726074,-0.6376208066940308,1.8615343570709229,-3.074728488922119,1.5655893087387085,0.177679181098938,0.02229955792427063,0.06231874227523804
399,-1.1577528781810889,0.42146120790795555,0.7646391606535151,-0.8357547521591187,-0.4090942442417145,-0.3662731647491455,1.701795220375061,-3.643221378326416,0.8778183460235596,0.21818578243255615,0.05200806260108948,0.05630612373352051
400,-1.5216226963791228,0.37823962192199057,0.8767458604583546,-0.9281927347183228,-0.36928510665893555,-0.04567943140864372,0.37266814708709717,-1.663175344467163,0.7114882469177246,0.06852787733078003,0.019629985094070435,-0.18611681461334229
401,-1.6462852120610503,0.2810809461305163,0.8854642231003198,-0.958020031452179,-0.2773943245410919,0.07245755195617676,0.10304709523916245,-0.7739678025245667,0.659980833530426,-0.041537463665008545,0.01967337727546692,-0.21341824531555176
402,-1.6834480980443127,0.20392450924006528,0.8976504725733174,-0.9730722308158875,-0.20251406729221344,0.11008437722921371,0.2357482612133026,0.18416999280452728,0.5896862149238586,-0.09119772911071777,-0.020325273275375366,-0.17009711265563965
403,-1.6132734461602642,0.15033892847562272,0.8929344233629805,-0.9878286123275757,-0.1497732400894165,0.041985366493463516,0.022527053952217102,0.6051419973373413,0.41318148374557495,0.003270447254180908,-0.013953566551208496,-0.057381510734558105
404,-1.5725837198868926,0.11913433261614571,0.9024326046539284,-0.9929103255271912,-0.11885271966457367,0.0017747229430824518,0.19451631605625153,0.029024135321378708,0.20473282039165497,-0.0016728043556213379,0.006090253591537476,-0.02359473705291748
405,-1.5766896167092779,0.09505022775948102,0.9067776559401977,-0.9954689145088196,-0.09490717202425003,0.005866654682904482,-0.1216876432299614,0.07905800640583038,0.1580250859260559,-0.05274885892868042,-0.019289612770080566,0.0314410924911499
406,-1.5814145236569768,0.0816444722799695,0.8927005791866174,-0.9966127872467041,-0.08155379444360733,0.010582627728581429,0.032740235328674316,-0.15301570296287537,0.13751108944416046,-0.010619878768920898,-0.0004927217960357666,-0.09253764152526855
407,-1.618375678055039,0.06524625523073144,0.9067931316933513,-0.9967429041862488,-0.06519997119903564,0.047460198402404785,0.11926736682653427,-0.3052397072315216,0.21433643996715546,0.024117231369018555,-0.01828085631132126,-0.058461789041757584
408,-1.665080567633369,0.04643818699848356,0.9181950048498209,-0.9944852590560913,-0.04642149806022644,0.09404312074184418,0.012408099137246609,-0.39818617701530457,0.10122038424015045,0.0006955862045288086,0.01527830958366394,-0.04239213466644287
409,-1.6883522412198129,0.034417267086592325,0.9226866898152639,-0.9925101399421692,-0.034410472959280014,0.11721588671207428,-0.027024222537875175,-0.29702886939048767,0.24331380426883698,0.03369361162185669,0.0069141387939453125,0.005357980728149414
410,-1.711932281842981,0.016297100491430315,0.9248914370976838,-0.9899253249168396,-0.016296379268169403,0.14064918458461761,-0.018050702288746834,-0.14843086898326874,0.16445547342300415,0.009838104248046875,-0.02165221981704235,-0.019875898957252502
411,-1.7414050001586288,0.006820162289787952,0.923723838013548,-0.9854586720466614,-0.006820109207183123,0.1697782576084137,0.3200722932815552,-0.5148934125900269,0.11131539940834045,0.009003043174743652,0.005263716448098421,-0.0600980669260025
412,-1.7853034399080459,-0.004732403322794591,0.9391076944703959,-0.9770705103874207,0.004732385743409395,0.2128634750843048,0.22605672478675842,-0.4896981418132782,0.044502489268779755,-0.012126266956329346,0.005521506071090698,-0.05372953414916992
413,-1.8151063492168316,-0.01813368952742682,0.9545301737979716,-0.9701449275016785,0.01813269592821598,0.24184712767601013,-0.02364588901400566,0.11338178813457489,0.1611473262310028,-0.005547821521759033,0.0012764930725097656,-0.02459251880645752
414,-1.8066735029036605,-0.03203217184289035,0.9560543933451154,-0.971811056137085,0.03202669322490692,0.23357610404491425,0.24061836302280426,-0.03464645892381668,0.14182426035404205,0.02100527286529541,-0.009397890418767929,-0.041055887937545776
415,-1.808652474367842,-0.041774892597521526,0.9652877244455141,-0.9709974527359009,0.04176274314522743,0.23541410267353058,0.0747067779302597,-0.17341873049736023,-0.1176595464348793,-0.07068949937820435,-0.03539982810616493,0.028913944959640503
416,-1.7975366950046208,-0.03634586284956311,0.9617527909240549,-0.9737606644630432,0.03633785992860794,0.22465403378009796,0.023737899959087372,0.12184353917837143,-0.012929799035191536,-0.010507345199584961,0.00966738909482956,-0.035124704241752625
417,-1.7861749917046528,-0.039084286485314604,0.9673633978309674,-0.9761494994163513,0.039074335247278214,0.21355415880680084,0.09796449542045593,-0.030414868146181107,0.006566053722053766,-0.011536657810211182,-0.0012020468711853027,-0.06464362144470215
418,-1.7799093821211966,-0.039494249300948636,0.9710800175404382,-0.9774525165557861,0.03948398306965828,0.20743046700954437,-1.7764046788215637e-05,0.06796752661466599,-0.0038132648915052414,-0.0004678964614868164,-0.008844349533319473,-0.020998626947402954
419,-1.7739181609755303,-0.038337133359862,0.9710028586928009,-0.9787218570709229,0.038327742367982864,0.2015797197818756,0.03762559965252876,0.028174253180623055,-0.02956439182162285,-0.002784430980682373,0.0028710030019283295,-0.018153801560401917
420,-1.756605202446605,-0.03855328998977712,0.9680061545234365,-0.9820567965507507,0.038543738424777985,0.18460425734519958,-0.08957489579916,0.3334674537181854,0.0010390672832727432,-0.04975771903991699,0.0011138580739498138,-0.019504204392433167
421,-1.7548187134291269,-0.038421241258919464,0.9766852459881844,-0.9823900461196899,0.038411788642406464,0.18285046517848969,0.14933577179908752,-0.605328381061554,-0.10454624891281128,-0.010743439197540283,0.004556950181722641,-0.03748001158237457
422,-1.7943989789058485,-0.0155441631462483,0.9779064929196903,-0.9749872088432312,0.015543537214398384,0.2217172384262085,-0.10496914386749268,-0.3203881084918976,-0.314115434885025,-0.023807406425476074,-0.006311953067779541,-0.015235304832458496
423,-1.793272110023462,0.015887594387051396,0.9641350471100794,-0.9752309918403625,-0.015886925160884857,0.22061719000339508,-0.2812904715538025,0.313755601644516,-0.2733403742313385,0.0147208571434021,-0.010861722752451897,-0.009328752756118774
424,-1.7654359407295084,0.030077240214327436,0.956173134473029,-0.9806737303733826,-0.030072705820202827,0.19332550466060638,0.0620490238070488,0.16714079678058624,0.031760185956954956,0.06119436025619507,0.006162196397781372,-0.05482149124145508
425,-1.762391502684061,0.022009541829388322,0.9692249338312963,-0.9814639687538147,-0.022007765248417854,0.19037900865077972,0.18320471048355103,-0.0748390331864357,0.11138205975294113,0.018405556678771973,-0.008158862590789795,-0.024866938591003418
426,-1.7518798821543424,0.01686389295628008,0.9744156661014836,-0.9835094213485718,-0.01686309278011322,0.1800699383020401,-0.04206783324480057,0.33674952387809753,0.06528410315513611,-0.020625829696655273,0.004060951992869377,-0.0011300891637802124
427,-1.6856781766832372,0.01413693959115208,0.9674345825005302,-0.993308961391449,-0.01413646899163723,0.11461785435676575,-0.09459210187196732,0.7148722410202026,0.020029399544000626,0.0016251206398010254,0.0057288724929094315,0.023642048239707947
428,-1.6046864071683802,0.01086442410702683,0.9531440428976405,-0.9993667602539062,-0.010864210315048695,0.033881593495607376,-0.08936892449855804,0.889894962310791,0.06788762658834457,0.011497557163238525,0.0154418358579278,-0.008735183626413345
429,-1.5120772467847725,0.012270573994085078,0.9398292247965953,-0.9982013702392578,-0.012270266190171242,-0.05868092551827431,-0.22427046298980713,1.3456791639328003,-0.06703439354896545,-0.04003715515136719,-0.0030648112297058105,0.0077928900718688965
430,-1.3138988419907125,0.03360069919156037,0.910493673143301,-0.9666370749473572,-0.03359437733888626,-0.253937691450119,-0.3053494393825531,2.652068853378296,-0.3560790717601776,-0.06252247095108032,0.011133432388305664,0.011612892150878906
431,-1.110114522968734,0.05789257507834994,0.8852056213957913,-0.894248902797699,-0.05786024034023285,-0.44381412863731384,-0.1714911162853241,1.405601978302002,-0.2668938934803009,0.02799224853515625,-0.006714962422847748,0.0734376311302185
432,-1.006331866520354,0.061017969324678,0.8597527373870821,-0.843302845954895,-0.06098011136054993,-0.5339678525924683,-0.21389612555503845,0.7353503704071045,-0.09106625616550446,0.021449267864227295,0.014028821140527725,0.04593080282211304
433,-0.9385769416491964,0.05338724351978778,0.8330404419501566,-0.8055685758590698,-0.053361885249614716,-0.5900946855545044,-0.3289809226989746,0.7979457378387451,-0.14481718838214874,-0.011692166328430176,-0.0019664764404296875,0.016120076179504395
434,-0.8980954858036327,0.05177765702712499,0.8136131150717156,-0.7810933589935303,-0.05175452306866646,-0.622265636920929,-0.06920267641544342,0.2799234688282013,-0.14112912118434906,0.004833102226257324,0.009075675159692764,-0.020892322063446045
435,-0.8624961869873098,0.05325890617151152,0.8040441450904261,-0.7583919167518616,-0.05323373153805733,-0.649621307849884,0.027028676122426987,0.4178134799003601,-0.02407016046345234,0.013091683387756348,0.018825143575668335,-0.029471099376678467
436,-0.8155614475030545,0.059077056159131856,0.8088719286684668,-0.7268403172492981,-0.05904269963502884,-0.6842638850212097,0.20508861541748047,0.018748771399259567,-0.0013612611219286919,0.02449357509613037,0.0021274276077747345,-0.011292695999145508
437,-0.8244836974051,0.06299212756803253,0.8183866980424969,-0.7327411770820618,-0.06295047700405121,-0.6775895357131958,0.09566967189311981,-0.41247278451919556,0.0394030436873436,0.023054897785186768,-0.009162545204162598,0.009178340435028076
438,-0.9020798638930091,0.06216507500505296,0.8248313426893153,-0.7831025123596191,-0.06212504208087921,-0.6187818646430969,-0.14560985565185547,-0.803605854511261,0.018601279705762863,0.006063938140869141,-0.016381412744522095,0.02307868003845215
439,-1.049956237690246,0.06496653487515369,0.8390299190962346,-0.8655715584754944,-0.06492084264755249,-0.4965592324733734,-0.12911878526210785,-0.8372610211372375,0.1013144999742508,-0.01170194149017334,0.005884595215320587,0.03232589364051819
440,-1.135774567903589,0.06053258043653049,0.8502394906753752,-0.9052000045776367,-0.06049561873078346,-0.42065829038619995,0.18446612358093262,-0.8450112342834473,0.13170108199119568,0.019396722316741943,0.014856576919555664,-0.03213101625442505
441,-1.1690644377320611,0.05575944276461812,0.8549819599904616,-0.9189547300338745,-0.05573055520653725,-0.39040523767471313,0.19860146939754486,-0.6066188812255859,0.06984254717826843,0.04213899374008179,0.013448446989059448,-0.042044103145599365
442,-1.2577654311014945,0.05745112364230332,0.8777748732463099,-0.949834942817688,-0.05741952359676361,-0.3074356019496918,0.15779566764831543,-0.7058207988739014,0.0529974140226841,-0.007409870624542236,-0.013076096773147583,-0.010649144649505615
443,-1.3107054043607587,0.051346677653211804,0.8891638554627559,-0.9650930166244507,-0.05132411792874336,-0.25682950019836426,0.07521054893732071,-0.5311964750289917,0.09854565560817719,0.008275389671325684,-0.0017917454242706299,-0.002981901168823242
444,-1.391663146307986,0.04566863895693388,0.9008076194964814,-0.9829726219177246,-0.04565276578068733,-0.17799092829227448,0.18939711153507233,-1.1153147220611572,-0.03774748370051384,0.0017409324645996094,0.0011123418807983398,-0.02603435516357422
445,-1.4849067843914285,0.041527764818689236,0.9096875284413776,-0.995454728603363,-0.04151583090424538,-0.08571001887321472,0.13831110298633575,-0.9889382719993591,-0.001386936753988266,-0.011716842651367188,-0.007632728666067123,-0.02705245465040207
446,-1.5949661741804844,0.03922804745014543,0.9265533138757844,-0.9989389181137085,-0.0392179861664772,0.024148903787136078,0.15918762981891632,-1.0122321844100952,-0.03774544596672058,-0.013741135597229004,-0.014004677534103394,-0.027185440063476562
447,-1.7271955287251766,0.03907424960720373,0.9736831382129431,-0.9870405793190002,-0.039064306765794754,0.15564347803592682,0.5007425546646118,-0.8118821978569031,0.025805767625570297,0.017909109592437744,0.005876451730728149,-0.036472320556640625
448,-1.764384552370683,0.017711117188745858,0.9873215957770205,-0.9811663031578064,-0.017710192129015923,0.19235114753246307,0.28194570541381836,-0.7709075808525085,0.20236392319202423,0.014705181121826172,0.00013205595314502716,-0.041441693902015686
449,-1.8158059528429509,0.002550125305575491,0.9929145332973349,-0.9701318144798279,-0.0025501225609332323,0.2425648719072342,-0.005546163767576218,-0.22280128300189972,0.05108119547367096,-0.016776084899902344,-0.0037364959716796875,-0.04218649864196777
450,-1.8308332504732756,-0.009329055107258255,0.9937560316119793,-0.9663383364677429,0.00932891946285963,0.2571050226688385,-0.12649016082286835,0.19015748798847198,0.171139195561409,0.007018387317657471,-0.007833541370928288,0.008626788854598999
451,-1.825991214536029,-0.008730005400004855,0.9924838505189847,-0.967577338218689,0.008729894645512104,0.2524243891239166,-0.22421903908252716,0.2101111114025116,-0.14879155158996582,-0.08883446455001831,-0.005189865827560425,0.03747737407684326
452,-1.8188390159327945,0.003954638048090881,0.9851363217656347,-0.969387412071228,-0.003954627551138401,0.24550515413284302,0.040850285440683365,-0.17930668592453003,-0.11273154616355896,0.011272668838500977,0.003054350148886442,-0.031744688749313354
453,-1.8234488364924513,0.013379115084938283,0.9744024535369327,-0.9681660532951355,-0.013378716073930264,0.24995075166225433,0.03285236284136772,-0.13471899926662445,-0.0487174354493618,-0.013813257217407227,-0.005481152795255184,-0.02743186056613922
454,-1.8294237077073314,0.015570064747681292,0.9764562859385983,-0.9666247367858887,-0.015569435432553291,0.2557228207588196,0.05857963487505913,-0.1634475588798523,-0.015294217504560947,-0.005787312984466553,0.011647910811007023,-0.03854444622993469
455,-1.8339220725407672,0.015478573791499752,0.9782337329427546,-0.9654660224914551,-0.015477955341339111,0.2600688338279724,0.041332319378852844,-0.06881728768348694,-0.01633409969508648,0.0019498467445373535,0.004339040257036686,-0.033384233713150024
456,-1.8363754512864767,0.015342391519165785,0.979011324780504,-0.9648271799087524,-0.015341789461672306,0.26243725419044495,-0.004001832567155361,-0.027700113132596016,-0.004767820239067078,0.004332065582275391,-0.003655405715107918,-0.01670965552330017
457,-1.8438109280295905,0.019302190791334176,0.9797492678086199,-0.9627832174301147,-0.01930099166929722,0.26958543062210083,-0.08574403077363968,-0.007410840131342411,-0.02593991532921791,0.0028831958770751953,-0.001557799056172371,0.010138779878616333
458,-1.8526325665363044,0.02206027827175136,0.9830936497696906,-0.9603126645088196,-0.02205848880112171,0.2780522406101227,0.038513630628585815,-0.12221678346395493,-0.04316604882478714,0.0016944408416748047,-0.0023555755615234375,-0.014487266540527344
459,-1.8587728829291816,0.021953015224208484,0.9852248979481897,-0.9585892558097839,-0.021951252594590187,0.28394418954849243,0.06037750095129013,-0.09284624457359314,0.006136368960142136,0.004732072353363037,-0.011816434562206268,-0.00895044207572937
460,-1.8703840068186455,0.02102863386056308,0.9903782700316333,-0.9552469253540039,-0.021027084439992905,0.29506099224090576,0.08079706132411957,-0.09893670678138733,0.007892291992902756,-0.002638697624206543,0.0034337062388658524,0.0003643929958343506
461,-1.874486686140568,0.02026185277442929,0.994929529174847,-0.9540433883666992,-0.020260466262698174,0.29898229241371155,-0.014247404411435127,0.004446109291166067,-0.011408121325075626,-0.0009582638740539551,0.0012785233557224274,0.0006850361824035645
462,-1.8785185588691842,0.02201800980465111,0.9985195937188424,-0.9527949094772339,-0.02201623097062111,0.3028152287006378,-0.04978226125240326,0.03832053393125534,-0.052917033433914185,0.007726609706878662,0.00440758652985096,0.020350664854049683
463,-1.854768535615504,0.03278051909732256,0.9866213890667322,-0.9594343304634094,-0.03277464956045151,0.28002044558525085,-0.18247650563716888,0.4678504168987274,-0.07299895584583282,0.0186079740524292,0.010328978300094604,0.014718294143676758
464,-1.8030819407777536,0.04164294308277482,0.9731919261083067,-0.9722989797592163,-0.041630908846855164,0.2300027459859848,-0.14024634659290314,0.6862244009971619,-0.09377916157245636,-0.035971105098724365,0.00047797709703445435,0.0012746602296829224
465,-1.6694404943699468,0.03253431212716073,0.9435402287166988,-0.9946120381355286,-0.03252857178449631,0.09843215346336365,-0.2998579740524292,2.0574629306793213,0.2779870331287384,-0.017121970653533936,0.013134628534317017,-0.051923394203186035
466,-1.407807289777878,0.02844525167712942,0.9217806334199999,-0.9863475561141968,-0.02844141609966755,-0.16220271587371826,0.023642567917704582,2.1252739429473877,-0.18457505106925964,0.008320212364196777,-0.016617804765701294,-0.01672184467315674
467,-1.2441176059904446,0.048442768423505304,0.922664425892408,-0.9460023641586304,-0.04842382296919823,-0.3205227553844452,-0.11228033900260925,1.7057619094848633,-0.20647642016410828,0.014850020408630371,-0.010444581508636475,0.10888338088989258
468,-1.11027642616257,0.056600479956268726,0.9042062996480751,-0.8943870067596436,-0.05657026544213295,-0.44370222091674805,-0.13265512883663177,0.9016366600990295,-0.13199691474437714,0.018501996994018555,0.0017606914043426514,0.09761762619018555
469,-1.0159517922304098,0.057431659202845334,0.8781877425623517,-0.8485809564590454,-0.057400092482566833,-0.5259425640106201,-0.1779356598854065,0.6824992299079895,-0.22225354611873627,-0.00301206111907959,-0.0017582178115844727,0.028506040573120117
470,-0.9544741855031973,0.06823427786131489,0.8540636785721591,-0.8141109943389893,-0.0681813433766365,-0.5766927599906921,-0.14034417271614075,0.7293174266815186,-0.16778908669948578,0.04305392503738403,0.018987007439136505,0.004228830337524414
471,-0.8868212424559462,0.065953236788962,0.8255917902971375,-0.7733819484710693,-0.06590542942285538,-0.6305051445960999,0.039327748119831085,0.02738194353878498,0.010186762548983097,0.04883366823196411,0.02687343955039978,-0.05180680751800537
472,-0.8953944073601041,0.06079610912574691,0.8245085681782581,-0.7790138721466064,-0.06075866520404816,-0.6240559816360474,-0.041148606687784195,-0.09016600251197815,-0.03962259739637375,-0.006478071212768555,0.022520124912261963,0.05337727069854736
473,-0.9146043673988493,0.0621979207183006,0.8222599564398104,-0.7907892465591431,-0.062157824635505676,-0.608924388885498,0.36679112911224365,-0.4238101840019226,0.05673658847808838,0.014101624488830566,0.008095920085906982,-0.03998613357543945
474,-0.940642566771011,0.06323391766947788,0.8384364086803312,-0.8063221573829651,-0.06319178640842438,-0.5880913138389587,0.046659648418426514,-0.13791689276695251,0.05102195218205452,0.009935438632965088,0.011174589395523071,-0.0035987496376037598
475,-0.9562520493097897,0.06004138766280579,0.8431571423400024,-0.8155640959739685,-0.060005318373441696,-0.5755472779273987,0.04319533705711365,-0.2751122713088989,0.050230178982019424,0.02087104320526123,0.0139085054397583,-0.03280538320541382
476,-0.9920636931145422,0.06315944941749518,0.8559000406665329,-0.8354873061180115,-0.06311746686697006,-0.5458728075027466,0.10064824670553207,-0.3101978302001953,0.02071702852845192,0.00214385986328125,0.0013346374034881592,0.012395024299621582
