,attitude.roll,attitude.pitch,attitude.yaw,gravity.x,gravity.y,gravity.z,rotationRate.x,rotationRate.y,rotationRate.z,userAcceleration.x,userAcceleration.y,userAcceleration.z
0,-0.21849228611262247,0.3591187020477728,1.535452686550728,-0.20293034613132477,-0.35144928097724915,-0.9139489531517029,0.029741788282990456,-3.1686975955963135,1.6758047342300415,-0.054805874824523926,-0.048804014921188354,0.17508786916732788
1,-0.37944210993919386,0.389520821235766,1.519956022277371,-0.34265589714050293,-0.3797451853752136,-0.8592907190322876,-0.10501711815595627,-1.1586805582046509,-0.39606571197509766,-0.08349153399467468,-0.19892913103103638,0.0577617883682251
2,-0.4587653467574517,0.3512680388086571,1.5137620240208256,-0.4158002734184265,-0.34408870339393616,-0.841850996017456,0.46937698125839233,-2.7045178413391113,-0.28013110160827637,-0.11395436525344849,0.18307796120643616,-0.26363301277160645
3,-1.3768283607265017,0.5736735028562348,1.7205523913283913,-0.8241622447967529,-0.542721152305603,-0.16189655661582947,3.609903335571289,-8.876571655273438,-1.1519463062286377,0.04953455924987793,0.18384969234466553,0.14759910106658936
4,-2.378331203126831,0.5835180993608252,2.0775669479437364,-0.5768951773643494,-0.550963282585144,0.6030188798904419,3.281726360321045,-7.311731815338135,-0.8560487031936646,0.1870177984237671,0.21041762828826904,-0.17732912302017212
5,-3.0381082843199767,0.324898426429122,2.2312822117145177,-0.09789545834064484,-0.31921252608299255,0.942613422870636,2.4592297077178955,-3.2119333744049072,0.37705692648887634,-0.17615239322185516,0.055143922567367554,0.02282547950744629
6,-3.1303478344401134,0.2012847619875005,2.2210676800031868,-0.01101756002753973,-0.19992831349372864,0.979748547077179,-0.24489125609397888,0.12969759106636047,0.8304679989814758,-0.1562492847442627,-0.12607568502426147,0.18022453784942627
7,-3.1114849933745212,0.1703130067023373,2.2072038543692174,-0.0296675693243742,-0.16949082911014557,0.9850850105285645,1.02443265914917,0.22327326238155365,0.22613310813903809,0.05255575850605965,-0.15916819870471954,-0.053612351417541504
8,-3.0772164937930695,0.11733799358569498,2.1972918783516433,-0.06388934701681137,-0.11706892400979996,0.9910666346549988,-0.256631463766098,0.6441121697425842,0.562388002872467,0.003434017300605774,-0.08901629596948624,0.0980600118637085
9,-3.01106411459196,0.17389151061692265,2.164050833698719,-0.12819528579711914,-0.1730164736509323,0.9765405058860779,-1.6210525035858154,-0.69245845079422,0.1448974460363388,-0.021050915122032166,0.0913209319114685,0.09694582223892212
10,-3.0067003332927507,0.36120387657739356,2.1474359431139667,-0.12580564618110657,-0.35340067744255066,0.9269739389419556,-0.338691771030426,-0.7244869470596313,0.0867244303226471,-0.06250306963920593,0.13382670283317566,-0.24975848197937012
11,-3.033771008757929,0.2849258519858199,2.114960282684503,-0.10327416658401489,-0.2810862958431244,0.9541094303131104,-0.23597124218940735,-1.2876148223876953,0.9262893199920654,0.0009639859199523926,0.11981615424156189,-0.1491016149520874
12,2.9095443784121358,0.36087669408011347,2.173908886738615,0.2151583582162857,-0.35309460759162903,0.9105113744735718,-0.405657023191452,-1.5988210439682007,-0.20916657149791718,-0.027383744716644287,-0.24813216924667358,0.16784244775772095
13,2.9496816533488692,0.2022753362314396,2.1012763045436476,0.18684643507003784,-0.20089879631996155,0.961627721786499,2.050751209259033,-0.013573977164924145,-0.5692152380943298,-0.19725294411182404,-0.049101173877716064,-0.005420565605163574
14,2.961155713007355,0.12431198967756153,2.1221426016476825,0.17807461321353912,-0.12399206310510635,0.976173996925354,0.8875965476036072,0.026804441586136818,0.2588194012641907,0.014262452721595764,0.03233249485492706,-0.18956804275512695
15,3.006000599804662,0.03231970146885899,2.098201182226123,0.1351063847541809,-0.03231407329440117,0.9903042316436768,-0.04544534534215927,0.8384276032447815,0.20984496176242828,-0.017247483134269714,-0.08397315442562103,0.016928553581237793
16,3.060517250333965,0.0429944666451618,2.0810627283900907,0.08091176301240921,-0.04298122227191925,0.9957939982414246,0.8921424150466919,0.2024793028831482,0.5815954804420471,0.04511056840419769,-0.005984228104352951,-0.006551563739776611
17,3.064188998641685,-0.007317064929800237,2.10321922786714,0.07732430845499039,0.007316999603062868,0.9969790577888489,-0.03930048644542694,0.03866209834814072,-0.05249825865030289,-0.008598729968070984,-0.08994334936141968,0.0005336403846740723
18,3.096239918807938,-0.01877069187684202,2.100046359568214,0.04532919451594353,0.01876959018409252,0.9987955689430237,0.1270717829465866,0.6525920033454895,0.6866440773010254,0.053685080260038376,-0.05435308814048767,-0.006577789783477783
19,-3.1004568342592917,-0.02970725065701432,2.0031099988923766,-0.04110606759786606,0.02970288135111332,0.9987130761146545,0.18794763088226318,1.0240825414657593,1.4426742792129517,0.09963878989219666,-0.04163525998592377,0.006856262683868408
20,-3.0246001449803126,-0.05384409180141324,1.8502336828104784,-0.11655662953853607,0.053818076848983765,0.9917247295379639,0.020390775054693222,0.9647833704948425,1.899721384048462,-0.062245845794677734,-0.09497103840112686,0.05353271961212158
21,-2.853276350859533,0.02504252635318582,1.652502187576689,-0.28424933552742004,-0.025039909407496452,0.9584235548973083,-2.608539342880249,2.2635326385498047,1.9799846410751343,0.33384034037590027,0.1480257511138916,-0.03998160362243652
22,-2.813573112569912,0.18470303493382856,1.4225839642567224,-0.31668904423713684,-0.18365462124347687,0.930580198764801,-0.402027428150177,-1.63174307346344,1.3822088241577148,0.28679704666137695,0.3649442791938782,-0.3546522855758667
23,-2.9640353619422752,0.09124687442960544,1.283688797010804,-0.17589101195335388,-0.09112031012773514,0.9801833629608154,0.9013383388519287,-1.5852102041244507,2.4261558055877686,-0.049206629395484924,0.22414644062519073,-0.2966201901435852
24,-3.0288866437053685,0.03929408409500484,1.0441169426836863,-0.11238072067499161,-0.03928397223353386,0.9928882718086243,0.22440600395202637,-2.2396504878997803,2.881160259246826,-0.1347048282623291,0.40265679359436035,-0.19467061758041382
25,-3.0671627631669267,-0.07383742026637125,0.8269145946746348,-0.07415858656167984,0.07377034425735474,0.9945143461227417,1.9631426334381104,0.9844443202018738,2.6190810203552246,-0.27093419432640076,-0.05831317603588104,0.48923516273498535
26,-2.974063733545739,-0.22182127760781994,0.5766097082291041,-0.16266080737113953,0.22000664472579956,0.9618411660194397,1.7309846878051758,1.53957200050354,2.9641199111938477,-0.22263887524604797,-0.030919715762138367,0.3617061376571655
27,-2.9229261117039416,-0.4318319935679934,0.40314308644845087,-0.19701425731182098,0.4185353219509125,0.8865742087364197,1.112666130065918,0.8344921469688416,0.621616542339325,-0.2965617775917053,-0.3906269967556,0.3606334924697876
28,-2.902681924150135,-0.44352532553226565,0.3480973341151677,-0.2137477844953537,0.4291263520717621,0.8775890469551086,-0.6110933423042297,0.15983599424362183,1.7565546035766602,0.06378437578678131,-0.2620578110218048,0.05533337593078613
29,-2.9907547564555257,-0.3831254742563729,0.09868488657379966,-0.13937236368656158,0.3738211691379547,0.9169695377349854,-0.7952401638031006,0.2492918223142624,1.3539592027664185,0.06541302800178528,0.0787392258644104,0.05579352378845215
30,-3.0194497629491854,-0.3782650473502504,-0.052328146142249496,-0.11322621256113052,0.3693087100982666,0.9223834276199341,-0.13835899531841278,-0.010015977546572685,1.2682576179504395,-0.00472424179315567,0.020278722047805786,-0.02068042755126953
31,-3.031930746991667,-0.3909217177225009,-0.11469976263395777,-0.10118575394153595,0.3810407519340515,0.9190047979354858,0.11148325353860855,0.3442009687423706,0.5928564071655273,-0.00023943185806274414,-0.07827576994895935,0.05468928813934326
32,-3.017185418683917,-0.39842676026879464,-0.2004562337259902,-0.11436717957258224,0.3879688084125519,0.9145492911338806,0.05489902198314667,0.5085916519165039,0.6895037293434143,0.02379102259874344,-0.07879528403282166,0.0035110116004943848
33,-3.046385765548272,-0.37008647168142195,-0.25014094044146756,-0.08862700313329697,0.3616960644721985,0.9280741810798645,-0.6168302297592163,-0.6956325173377991,0.1556493043899536,-0.02044285088777542,0.07697898149490356,0.07984530925750732
34,-3.0901792236874717,-0.3721806189991072,-0.28816376737151467,-0.047872379422187805,0.36364760994911194,0.9303053617477417,0.8422612547874451,0.2544673979282379,0.48444825410842896,-0.0036870576441287994,-0.003692924976348877,-0.028557002544403076
35,-3.0400251466260304,-0.45384722441501946,-0.2774785014523627,-0.0911286473274231,0.43842652440071106,0.894135057926178,0.01442631520330906,0.6640366315841675,-0.1698949784040451,-0.03794544190168381,-0.14731940627098083,0.03964167833328247
36,-3.0108478648827166,-0.4338553502655139,-0.2818662605757561,-0.11829385906457901,0.4203720688819885,0.8996078968048096,-0.40070319175720215,0.14795418083667755,0.297885537147522,-0.06240074336528778,-0.09926602244377136,0.03040027618408203
37,-3.031896591173233,-0.395141052127891,-0.32572862544069053,-0.10104021430015564,0.38493838906288147,0.9173949360847473,-0.21461093425750732,-0.0018007266335189342,-0.05685538426041603,0.006389930844306946,0.050684839487075806,0.01842665672302246
38,-3.0234625846849497,-0.37832412955030437,-0.3205324151640371,-0.10952137410640717,0.3693636357784271,0.9228087067604065,0.11217391490936279,0.014528945088386536,-0.3718233108520508,0.006707638502120972,0.06375712156295776,-0.08613860607147217
39,-3.0106841471097496,-0.3718961648113226,-0.2980377354792289,-0.1216115802526474,0.36338263750076294,0.9236687421798706,0.05393971502780914,0.29989612102508545,-0.023142430931329727,-0.0719156563282013,0.14629146456718445,-0.045922040939331055
40,-2.9990873374207796,-0.392765635486457,-0.31998554442695853,-0.13120898604393005,0.3827449083328247,0.9144893884658813,-0.3748701214790344,0.4714024066925049,0.2978338599205017,-0.00839368999004364,-0.10236459970474243,0.0637364387512207
41,-2.9698879530711717,-0.38630523920861914,-0.3697255054588716,-0.15827099978923798,0.3767684996128082,0.912686288356781,0.4159470498561859,0.26904311776161194,0.19368962943553925,-0.0658653974533081,0.14673012495040894,-0.07995295524597168
42,-2.943673422397083,-0.411688056129129,-0.3617463097137336,-0.18020054697990417,0.4001569151878357,0.8985556364059448,-0.0813276395201683,0.19506622850894928,0.16900639235973358,-0.036916762590408325,-0.03174877166748047,-0.014613986015319824
43,-2.97648658862195,-0.38133864746218515,-0.41181121908781315,-0.15255072712898254,0.3721632957458496,0.9155449867248535,-0.2608090937137604,-0.1646326780319214,0.2993300259113312,-0.03871817886829376,0.105558842420578,0.09716552495956421
44,-2.9933618701113547,-0.3772710759900645,-0.3916721019278442,-0.13730214536190033,0.36838483810424805,0.919478714466095,0.05033518373966217,-0.2850269079208374,-0.03981435298919678,0.08185169100761414,-0.01120707392692566,0.0076149702072143555
45,-2.9940223732180677,-0.39878088856780763,-0.3718967943120708,-0.13549812138080597,0.38829517364501953,0.9115189909934998,0.43815138936042786,0.12322455644607544,0.30887117981910706,-0.06994619965553284,-0.011601477861404419,-0.0031023621559143066
46,-3.010078033779711,-0.44609130206050723,-0.4975353140025698,-0.11830290406942368,0.43144264817237854,0.8943496942520142,0.6983333826065063,0.3247165083885193,1.0873804092407227,-0.08062589913606644,0.1148982048034668,-0.10527211427688599
47,-2.9641795293264575,-0.5432140711305804,-0.4898122133797023,-0.15107940137386322,0.5168900489807129,0.8426150679588318,1.4596043825149536,0.5549346208572388,-0.28031498193740845,-0.20207004249095917,0.012681543827056885,-0.04097914695739746
48,-2.9282987455661513,-0.6525634480436106,-0.47502048112000383,-0.16818630695343018,0.6072251200675964,0.7765249013900757,0.17494748532772064,0.11316543817520142,0.5435687899589539,0.09262478351593018,-0.1951005458831787,0.18792206048965454
49,-2.948906061667414,-0.6597450119442316,-0.51865561386127,-0.15131060779094696,0.6129153966903687,0.7755253314971924,-0.2126568853855133,-0.028663000091910362,0.13331229984760284,-0.026255905628204346,-0.1075139045715332,0.009462952613830566
50,-2.9264976244468666,-0.6312030846003317,-0.476456397684459,-0.17231419682502747,0.5901164412498474,0.7887144088745117,-0.03009587898850441,-0.10603874921798706,-0.5269145965576172,-0.07989832758903503,0.06064039468765259,-0.010760307312011719
51,-2.8801827488094682,-0.6359165988880606,-0.3669792129559534,-0.20792441070079803,0.5939151644706726,0.777195155620575,0.17504514753818512,-0.2245359718799591,-1.1323350667953491,0.01656392216682434,0.023318111896514893,-0.011798977851867676
52,-2.8574207698474017,-0.6348941592031926,-0.32441227651477655,-0.2257295846939087,0.5930923223495483,0.7728437185287476,0.3249947428703308,0.07801900804042816,0.36137863993644714,0.009466782212257385,0.06753689050674438,-0.025819361209869385
53,-2.883639855164678,-0.6712667374243582,-0.370180252172923,-0.19975340366363525,0.6219784021377563,0.7571273446083069,0.19802488386631012,0.2874835133552551,0.24276210367679596,-0.04157961905002594,0.026825368404388428,0.14321768283843994
54,-2.8885596798974342,-0.6896081682368417,-0.35585857866816245,-0.1931372880935669,0.6362349390983582,0.7469289898872375,0.06131192296743393,-0.4612851142883301,-0.30721765756607056,-0.029366344213485718,-0.04114222526550293,0.014667689800262451
55,-2.9115097919812065,-0.6707053986830335,-0.3303656204265629,-0.17865699529647827,0.6215387582778931,0.7627392411231995,-0.06714921444654465,-0.3589540123939514,0.01452692598104477,0.014655545353889465,-0.0010248422622680664,-0.07224857807159424
56,-3.025026123751914,-0.6086912344988007,-0.42794093660356336,-0.0954144150018692,0.5717942714691162,0.8148296475410461,-1.3193001747131348,-0.23815657198429108,1.3186479806900024,-0.0601184219121933,-0.11508345603942871,0.10219299793243408
57,-3.094717525451854,-0.562938852570044,-0.5340837786923252,-0.03962733969092369,0.533673882484436,0.8447617292404175,0.030286990106105804,-0.47397539019584656,0.0100126126781106,-0.1255795806646347,0.0004601478576660156,-0.009297072887420654
58,-3.094915358422836,-0.5634672340692605,-0.4847751333536918,-0.039447054266929626,0.5341206192970276,0.844487726688385,-0.22843223810195923,-0.12171956896781921,-0.22522349655628204,-0.12911678850650787,-0.023668289184570312,0.09415686130523682
59,-3.07769838377528,-0.5421059114120907,-0.4740173345953032,-0.05469615012407303,0.5159410834312439,0.8548762798309326,-0.26792111992836,-0.29956474900245667,-0.4970930814743042,0.08551890403032303,0.03917372226715088,-0.14528143405914307
60,-3.0912256576067367,-0.5227531845250278,-0.36915043359186056,-0.043621934950351715,0.4992675185203552,0.8653492331504822,-0.22198785841464996,-0.4553647041320801,-0.3757556080818176,-0.009631246328353882,-0.07159417867660522,0.0855633020401001
61,-3.1043917056993195,-0.49916037394286017,-0.3606255322835343,-0.032654330134391785,0.4786885380744934,0.8773772120475769,-0.2619239389896393,-0.21716663241386414,-0.32307854294776917,-0.005782552063465118,0.05555209517478943,-0.057904064655303955
62,-3.084842063060157,-0.44957647269234563,-0.30844722930163787,-0.051083922386169434,0.4345841407775879,0.8991812467575073,-0.2595371901988983,-0.0811225175857544,-0.39239904284477234,0.012311343103647232,0.08488604426383972,-0.0278128981590271
63,-3.0855798087077737,-0.41926410308635714,-0.2830255741275529,-0.051134753972291946,0.40708839893341064,0.911956250667572,-0.38290470838546753,-0.272086501121521,-0.08477849513292313,0.07495373487472534,0.03103715181350708,-0.0347590446472168
64,-3.1098862399773104,-0.3562961204043407,-0.3042044922999305,-0.029710115864872932,0.34880536794662476,0.9367240071296692,-0.9682400822639465,-0.0022394154220819473,0.2851690649986267,0.04498416930437088,-0.03319263458251953,0.01539379358291626
65,-3.1163526837615776,-0.28969341899705714,-0.34708088841179885,-0.024185681715607643,0.28565841913223267,0.9580259323120117,-0.20245827734470367,0.20421984791755676,0.35999977588653564,0.01882985420525074,0.06962713599205017,-0.014605879783630371
66,-3.101429514369094,-0.2832225529429413,-0.39720147750838997,-0.0385526642203331,0.27945125102996826,0.9593855142593384,-0.09633529186248779,0.444683700799942,0.39218178391456604,-0.026205629110336304,-0.005021959543228149,-0.0006300806999206543
67,-3.088579781101731,-0.26345303869234993,-0.40170192394929594,-0.05115977302193642,0.2604160010814667,0.9641401171684265,-0.158216655254364,-0.0264591071754694,-0.5598496794700623,-0.025378312915563583,0.07163050770759583,0.00018477439880371094
68,-3.0975859562491896,-0.2546850287745592,-0.30764579710942247,-0.04257340729236603,0.25194060802459717,0.9668055772781372,0.13498875498771667,-0.43259844183921814,-0.9621057510375977,0.043199025094509125,0.05177026987075806,0.0009676218032836914
69,-3.1140175737961955,-0.2608342104327326,-0.2429793513083423,-0.02663898654282093,0.2578866481781006,0.965808093547821,0.10359285026788712,-0.23306575417518616,-0.30938202142715454,-0.024859432131052017,0.07280188798904419,-0.01796245574951172
70,-3.11723692493053,-0.2856768502238566,-0.20596880571109139,-0.02336631342768669,0.28180694580078125,0.9591867923736572,0.4155770242214203,-0.09841352701187134,-0.5730722546577454,-0.02692665532231331,0.05701446533203125,-0.057636260986328125
71,-3.120729307431106,-0.3345669085115911,-0.1494994779237824,-0.019705094397068024,0.32836011052131653,0.9443469047546387,0.6021716594696045,-0.25392869114875793,-0.5052898526191711,-0.03499765694141388,0.009240478277206421,-0.029567360877990723
72,-3.128248563881861,-0.3749691634063301,-0.09692619543122677,-0.012416559271514416,0.366243839263916,0.9304360747337341,0.22231051325798035,-0.2643499970436096,-0.5358741879463196,0.02054949477314949,-0.0026116669178009033,0.01020723581314087
73,-3.1321961851678592,-0.39843927542711666,-0.011773675105680548,-0.008660292252898216,0.3879803419113159,0.9216268658638,0.29650983214378357,-0.3382050096988678,-0.8282158970832825,-0.0010900720953941345,0.03688532114028931,-0.023586153984069824
74,-3.128384975167114,-0.4256588365303746,0.03874617281140502,-0.012028765864670277,0.41292092204093933,0.9106873869895935,0.2676789164543152,0.07635775208473206,-0.1506725549697876,0.01947505585849285,0.054425209760665894,0.02809429168701172
75,-3.123163800561774,-0.44090261516625856,0.01656805397810538,-0.01666550152003765,0.4267559349536896,0.9042133688926697,0.039856262505054474,0.01859462633728981,0.27739423513412476,0.0727720707654953,0.0093860924243927,-0.0317462682723999
76,-3.1145292457931215,-0.4586038113274685,-0.008141386806068948,-0.024264020845294,0.44269663095474243,0.8963430523872375,0.18378674983978271,0.31881314516067505,0.30157962441444397,-0.011899305507540703,-0.07453262805938721,0.06450283527374268
77,-3.099113297768062,-0.4697784414271973,-0.0274244832729671,-0.03786611929535866,0.4526887536048889,0.8908642530441284,0.09324890375137329,-0.06392411887645721,-0.11451588571071625,0.12421560287475586,-0.08167126774787903,-0.005808711051940918
78,-3.1020508843998336,-0.481116471177765,-0.0054461969526293855,-0.03504381328821182,0.46276918053627014,0.8857860565185547,0.03376050665974617,-0.033605631440877914,0.030109506100416183,-0.027852918952703476,-0.07096919417381287,0.04876911640167236
79,-3.1038500509152858,-0.48124675116435606,0.017563151715472215,-0.03344779089093208,0.46288466453552246,0.8857870101928711,0.13778899610042572,-0.13527892529964447,-0.43522384762763977,-0.00294441357254982,0.02481663227081299,0.042420148849487305
80,-3.088932359339188,-0.48322008265514266,0.04542117640528972,-0.046609316021203995,0.4646329879760742,0.8842757940292358,0.05028359964489937,-0.05450461804866791,-0.2658490836620331,-0.04070147126913071,0.0726289451122284,-0.049681127071380615
81,-3.0830881864727515,-0.48092325409274944,0.06529303003661666,-0.05183863267302513,0.46259790658950806,0.8850516080856323,-0.05930698290467262,0.09046489000320435,-0.007046547718346119,-0.07386328279972076,0.0826292634010315,-0.03857004642486572
82,-3.0626053581452717,-0.47939851205227313,0.061841438592574544,-0.07001042366027832,0.4612455666065216,0.884506344795227,-0.1473710983991623,0.2629672586917877,0.028575768694281578,-0.025357022881507874,0.05991846323013306,0.0030061006546020508
83,-3.0421991176261747,-0.49059335672446425,0.07098001245034452,-0.08752614259719849,0.47114935517311096,0.8777002096176147,0.20967049896717072,0.057936038821935654,-0.10102470964193344,0.02708607167005539,0.0048638880252838135,-0.031081557273864746
84,-3.045660654777239,-0.5237809875945132,0.08308391489289504,-0.08294344693422318,0.5001577734947205,0.8619527816772461,0.34116920828819275,-0.16291406750679016,-0.10896213352680206,0.009319789707660675,-0.02324432134628296,-0.019942283630371094
85,-3.0332531889273726,-0.5465628478118356,0.11378253684249337,-0.09237517416477203,0.5197538733482361,0.849307119846344,0.11198030412197113,0.23377101123332977,-0.059659816324710846,0.03297271579504013,-0.07068777084350586,0.04533088207244873
86,-3.012434606171614,-0.5675030618968878,0.08203670466713689,-0.10860945284366608,0.5375282168388367,0.8362223505973816,0.19227780401706696,0.4081217646598816,0.5767741799354553,0.04008221626281738,-0.03246217966079712,0.0021109580993652344
87,-2.997122958412201,-0.5703799576088957,0.020213899998622935,-0.12117703258991241,0.5399519205093384,0.8329277038574219,-0.054356615990400314,0.31248903274536133,0.2264336198568344,0.03435448557138443,0.025767862796783447,-0.003734409809112549
88,-2.980578310779231,-0.5749819185937869,0.04196560084010857,-0.13454046845436096,0.5438196063041687,0.8283471465110779,0.09902748465538025,-0.06428831815719604,-0.2541157901287079,-0.004146650433540344,-0.04854995012283325,0.04674440622329712
89,-2.9707651360270257,-0.5637210630323038,0.06743983697900381,-0.14369453489780426,0.534335196018219,0.832969069480896,-0.17362287640571594,-0.02969501167535782,-0.28098005056381226,-0.026074737310409546,-0.0021239519119262695,0.0013965964317321777
90,-2.956053254429168,-0.533977928544636,0.08130486593105328,-0.1587955206632614,0.5089614987373352,0.846015214920044,-0.28823986649513245,0.18165652453899384,0.04715491831302643,-0.055880337953567505,0.044703543186187744,-0.03069251775741577
91,-2.9458838898267583,-0.5241683005560511,0.06298762643453074,-0.16835345327854156,0.5004931688308716,0.8492134809494019,0.03959527239203453,0.23189789056777954,0.15368889272212982,-0.04714640974998474,0.05811583995819092,-0.009507179260253906
92,-2.9290955580906153,-0.5313722431800534,0.05026312478423033,-0.1818207949399948,0.5067168474197388,0.8427212238311768,0.14063715934753418,0.16908158361911774,0.08649412542581558,0.014233529567718506,0.005245983600616455,-0.017754852771759033
93,-2.9208597406607395,-0.5531401131048229,0.0655241140592219,-0.1862955093383789,0.5253616571426392,0.830234169960022,0.27550941705703735,-0.1361958384513855,-0.24024510383605957,-0.0377340167760849,-0.033693015575408936,0.0184289813041687
94,-2.9134762291621947,-0.5647730704185441,0.11042302984132563,-0.19102539122104645,0.5352241396903992,0.8228270411491394,0.24242648482322693,-0.17333102226257324,-0.38438576459884644,-0.054900527000427246,-0.01880568265914917,0.04077458381652832
95,-2.8916904427650025,-0.5736971377563672,0.1707393310105586,-0.20771512389183044,0.5427410006523132,0.8138103485107422,0.15648913383483887,-0.1132461279630661,-0.5471080541610718,-0.027285531163215637,-0.027573585510253906,0.01826685667037964
96,-2.8755718836549202,-0.5681090472042586,0.2487937683930831,-0.2215987890958786,0.5380390882492065,0.8132697939872742,0.13442988693714142,-0.45125794410705566,-0.5970763564109802,0.0642043799161911,-0.014326989650726318,0.03931492567062378
97,-2.8931569338817784,-0.5792726430639148,0.30996394230929797,-0.20577400922775269,0.5474153757095337,0.8111675977706909,0.2232619971036911,-0.5447129607200623,-0.5437806844711304,-0.04825425148010254,-0.03819924592971802,0.04134070873260498
98,-2.9223010243291045,-0.5801641445236554,0.4034906943971874,-0.18194301426410675,0.5481612086296082,0.816342830657959,0.3247854709625244,-0.861817479133606,-0.9138047695159912,-0.07573214173316956,0.039912402629852295,-0.017804741859436035
99,-2.9451065451199265,-0.5935707541437959,0.5098178913755232,-0.16183096170425415,0.5593245625495911,0.81299889087677,0.3254108726978302,-0.916755735874176,-0.827616274356842,-0.08121104538440704,-0.01911759376525879,-0.000880122184753418
100,-2.9775868270076082,-0.5886585189039202,0.5806840574170167,-0.13579069077968597,0.5552458167076111,0.8205257654190063,-0.37384846806526184,-0.35262396931648254,-0.10459097474813461,0.007082834839820862,-0.02259218692779541,-0.0261838436126709
101,-3.047513119169818,-0.5784563010115469,0.4935314866132763,-0.078657366335392,0.5467320084571838,0.8336049318313599,-0.02931801602244377,-0.3060596287250519,1.0091067552566528,-0.008531346917152405,0.08559215068817139,-0.022676587104797363
102,-3.08315678441899,-0.5916219962995195,0.4791250039748591,-0.048476360738277435,0.5577080845832825,0.8286206722259521,0.2688683867454529,-0.6098474264144897,-0.5680401921272278,0.05078042671084404,0.06237870454788208,-0.0028606057167053223
103,-3.110418498651695,-0.6054823220993361,0.5518647802187995,-0.025628093630075455,0.5691587328910828,0.8218278884887695,0.18607747554779053,-0.6121851801872253,-0.43134447932243347,-0.04906366765499115,-0.003149271011352539,-0.0020954012870788574
104,-3.1363336045987715,-0.618853061325657,0.5828211453674833,-0.004283708054572344,0.5801013112068176,0.8145328760147095,0.03844035416841507,-0.4436037540435791,-0.0626891553401947,-0.0043680365197360516,-0.021293997764587402,0.0071527957916259766
105,3.1358200762188275,-0.6217209681177924,0.618560597206487,0.004692371003329754,0.5824349522590637,0.8128637671470642,-0.059994522482156754,-0.1799541711807251,-0.27927303314208984,-0.014656350016593933,-0.05167323350906372,0.029329776763916016
106,-3.137288864920221,-0.6019542444517975,0.6456384084366317,-0.003547301748767495,0.5662543177604675,0.8242225646972656,-0.3135186731815338,-0.05979499593377113,-0.29545655846595764,0.017493830993771553,0.02000349760055542,-0.040546715259552
107,3.137824141867397,-0.6000290005278757,0.6789957759380317,0.00311021925881505,0.5646663904190063,0.8253137469291687,0.14499789476394653,-0.3577604293823242,-0.22768031060695648,0.04811352491378784,-0.0048364996910095215,0.0101051926612854
108,3.1295111252823005,-0.6009880791888408,0.7039859902958457,0.00996433012187481,0.5654577016830444,0.8247172832489014,-0.14616717398166656,-0.10178516060113907,-0.3782636523246765,0.002196923829615116,-0.009076416492462158,0.038976073265075684
109,3.132508621116844,-0.5830386939242773,0.733017005951254,0.007583186961710453,0.5505631566047668,0.8347590565681458,-0.11866214126348495,-0.14375215768814087,-0.1303478181362152,0.03155560791492462,0.008991837501525879,-0.014766991138458252
110,3.1240458253840737,-0.570539863274185,0.7428422876518052,0.014766822569072247,0.5400865077972412,0.8414801359176636,-0.16681765019893646,-0.13905417919158936,-0.15565992891788483,0.01283632405102253,0.027174293994903564,0.04168343544006348
111,3.1253060408907163,-0.553010595153282,0.7639520499638363,0.013858436606824398,0.5252514481544495,0.8508344292640686,-0.28605562448501587,0.07528822869062424,-0.10060393065214157,0.009685877710580826,-0.03135484457015991,0.006907999515533447
112,3.140242702164988,-0.5292455018958143,0.7818600562202462,0.0011652617249637842,0.5048822164535522,0.8631873726844788,0.003300609067082405,-0.0987362414598465,-0.32823359966278076,0.06339468061923981,0.06683409214019775,0.021273016929626465
113,-3.1413480766570543,-0.5319465604466088,0.8140106429170013,-0.00021078162535559386,0.5072118639945984,0.8618213534355164,0.04324369505047798,-0.26208582520484924,-0.19958850741386414,0.07607747614383698,-0.012277781963348389,0.020228147506713867
114,3.1136554010808086,-0.5482088794212876,0.8531678859537002,0.023840198293328285,0.5211594104766846,0.8531259894371033,0.18496760725975037,-0.6253155469894409,-0.4559238851070404,0.01763317920267582,-0.07010972499847412,-0.002723395824432373
115,3.0895129780263377,-0.5585941598540323,0.9265430667361303,0.0441436767578125,0.529994547367096,0.846851646900177,-0.00904227513819933,-0.5703638195991516,-0.7070597410202026,-0.032852157950401306,-0.04903733730316162,0.0453452467918396
116,3.095826207131473,-0.5463230948383875,0.9837660506760144,0.0390910767018795,0.5195490717887878,0.8535462617874146,-0.2677771747112274,-0.002561603207141161,-0.1842023879289627,0.006120737642049789,-0.059328556060791016,-0.005508363246917725
117,3.101804938564404,-0.5326084542208964,1.017124841267736,0.034267496317625046,0.5077822208404541,0.8608037233352661,0.05588402599096298,-0.27515366673469543,-0.6014609932899475,0.0010565966367721558,0.0695340633392334,-0.0011388063430786133
118,3.108582883941299,-0.5498462871697595,1.1136795112331668,0.028139181435108185,0.5225561857223511,0.8521404266357422,0.12234057486057281,-0.4815972149372101,-0.8820661306381226,0.006086289882659912,0.025737881660461426,0.008745193481445312
119,3.118387158356486,-0.5566952936918995,1.1686989593264334,0.019699828699231148,0.5283833742141724,0.8487771153450012,-0.05250761657953262,0.07143405824899673,-0.02853202633559704,0.047164186835289,-0.06215113401412964,-0.08737897872924805
120,3.125913735364147,-0.5486384040015322,1.1602811257978747,0.01337725855410099,0.5215259790420532,0.8531304597854614,0.1762203872203827,0.10008303821086884,-0.007916818372905254,0.015202446840703487,0.107532799243927,-0.003612697124481201
121,-3.138600637590964,-0.582257889595273,1.1759804305863086,-0.002498997375369072,0.5499112010002136,0.8352193832397461,0.20565970242023468,0.1907835751771927,-0.034029897302389145,0.07673299312591553,-0.09704560041427612,0.042069435119628906
122,-3.127807300666746,-0.585165601050184,1.1568144233408935,-0.011491389013826847,0.5523374676704407,0.8335413336753845,-0.11378535628318787,0.188762366771698,0.11738790571689606,0.031022638082504272,0.0015260577201843262,0.0797886848449707
123,-3.11881354945295,-0.572594262378199,1.1549715609326605,-0.01914413832128048,0.5418143272399902,0.8402800559997559,-0.19706904888153076,0.10332576930522919,-0.02440517581999302,0.015100570395588875,-0.02225261926651001,-0.00036007165908813477
124,-3.1197921265282758,-0.545925146462315,1.1311860482612286,-0.018630284816026688,0.5192089676856995,0.854444146156311,-0.2114047408103943,0.12352687865495682,0.31577062606811523,0.016997594386339188,0.07751631736755371,-0.04083031415939331
125,-3.121422757891936,-0.5480325767946064,1.1139939130335323,-0.01721487194299698,0.5210089683532715,0.853377640247345,0.21137800812721252,0.021460827440023422,-0.04317273572087288,0.0023985952138900757,0.053499698638916016,-0.019606828689575195
126,-3.1141843742201196,-0.5672861665637076,1.1240153942895044,-0.023112228140234947,0.537345290184021,0.8430460095405579,0.1285000443458557,-0.013312661089003086,-0.07091324031352997,-0.010762294754385948,-0.013739824295043945,0.02940601110458374
127,-3.1069250178295746,-0.5723267083428151,1.1415838896678403,-0.029137270525097847,0.5415894389152527,0.8401379585266113,0.029445309191942215,-0.08159854263067245,-0.22069905698299408,0.022621767595410347,0.00040268898010253906,0.0032457709312438965
128,-3.100934755789189,-0.570986832792662,1.177892383349111,-0.03419884666800499,0.5404626131057739,0.8406730890274048,0.039265044033527374,-0.07639993727207184,-0.2599548101425171,0.015293199568986893,0.0054207444190979,0.008112609386444092
129,-3.098795834047395,-0.5772107609849785,1.187738607762998,-0.03585227206349373,0.5456886887550354,0.8372206091880798,0.01593363657593727,-0.016334131360054016,-0.05580483749508858,0.0017793774604797363,0.023754000663757324,-0.005021572113037109
130,-3.0928475483012816,-0.5838933206727008,1.2011739614491426,-0.0406530499458313,0.5512763857841492,0.833331823348999,0.028093043714761734,0.004161291755735874,-0.029815176501870155,0.0344427190721035,-0.0055609941482543945,-0.0037113428115844727
131,-3.089414895910925,-0.588621091681342,1.204308610336702,-0.043376922607421875,0.5552147030830383,0.8305752277374268,0.07185839116573334,0.0527675524353981,-0.06813330203294754,0.02373887598514557,-0.00666123628616333,0.022818326950073242
132,-3.0915717913707588,-0.5868150266772157,1.2019821490061817,-0.041635435074567795,0.5537116527557373,0.8316670656204224,-0.09089292585849762,-0.04969225078821182,-0.06715871393680573,-0.005025953054428101,0.025542497634887695,-0.0038776397705078125
133,-3.0864698932747787,-0.5835564365363481,1.2220822252616217,-0.04597712308168411,0.5509952902793884,0.8332410454750061,-0.00048028770834207535,0.04287722706794739,-0.19674471020698547,-0.05047369375824928,0.031203866004943848,0.0014454126358032227
134,-3.068936231297236,-0.5878831503985621,1.2329107666772339,-0.060405418276786804,0.5546007752418518,0.8299209475517273,0.0944199189543724,0.10355684906244278,-0.027759887278079987,-0.0102885402739048,0.03312188386917114,-0.02585923671722412
135,-3.0631294502541366,-0.6023482985687539,1.2395260792992935,-0.06458793580532074,0.5665790438652039,0.8214721083641052,0.1388324648141861,-0.11468037962913513,-0.032180942595005035,-0.00857795774936676,0.0037792325019836426,-0.0358734130859375
136,-3.0670245677007544,-0.6207906196042716,1.2532132687858497,-0.06059887260198593,0.5816784501075745,0.8111581802368164,0.16895461082458496,-0.04852558299899101,-0.03622162342071533,-0.06614062190055847,-0.017057597637176514,0.03388869762420654
137,-3.0551918438997694,-0.625468883440378,1.248168730362994,-0.06995705515146255,0.5854774713516235,0.8076647520065308,0.13803230226039886,0.10675998032093048,0.033866558223962784,-0.015263296663761139,0.05218738317489624,-0.03527998924255371
138,-3.0438555208615523,-0.6520003420322606,1.2740642903772084,-0.07756485790014267,0.6067776083946228,0.7910782694816589,0.26249969005584717,-0.11953159421682358,-0.3186503052711487,-0.014094695448875427,-0.0556759238243103,0.05061185359954834
139,-3.0331820476259908,-0.6607201413993263,1.2979889697942333,-0.08542805910110474,0.6136856079101562,0.7849151492118835,-0.07690763473510742,-0.04490722715854645,-0.09287650138139725,0.008401699364185333,-0.062294065952301025,0.0855986475944519
140,-3.0306522978489303,-0.6401464208980361,1.3216971917404658,-0.08879268914461136,0.597312867641449,0.7970778942108154,-0.06032223254442215,-0.16227826476097107,-0.2435506284236908,0.012636050581932068,0.00968170166015625,0.01400303840637207
141,-3.0326306466717154,-0.6319781441906316,1.3526745957957511,-0.08774330466985703,0.5907419919967651,0.8020756840705872,-0.044456422328948975,-0.3140127658843994,-0.3157232701778412,0.01718664914369583,0.04493921995162964,0.000796198844909668
142,-3.038525046024912,-0.6249264329773433,1.4021517343905805,-0.08344055712223053,0.5850375890731812,0.8067023754119873,-0.019430391490459442,-0.31764882802963257,-0.3701307773590088,0.01424194872379303,0.03535425662994385,0.017073869705200195
143,-3.046255563531139,-0.6146672578742386,1.4315255188235638,-0.0777691900730133,0.5766867399215698,0.8132556080818176,-0.10683547705411911,-0.20588229596614838,-0.17615745961666107,0.004069223999977112,0.026081323623657227,-0.046638667583465576
144,-3.0549520425814305,-0.6035955451110847,1.455475184975278,-0.07124202698469162,0.5676063299179077,0.8202120661735535,-0.0413583368062973,-0.19913645088672638,-0.17932115495204926,0.005110442638397217,0.061025261878967285,-0.03290426731109619
145,-3.062554068507441,-0.6060925025234752,1.4714649838359404,-0.06489264219999313,0.5696603059768677,0.8193144202232361,0.00375408586114645,-0.11007530987262726,-0.10881033539772034,0.013485774397850037,0.024989962577819824,0.02690744400024414
146,-3.070577847056305,-0.6078468728183501,1.486659255571269,-0.05824560672044754,0.5711013078689575,0.8188104033470154,0.03898021578788757,-0.21162466704845428,-0.14672574400901794,0.02302832528948784,0.01858973503112793,0.0035924911499023438
147,-3.0834587093537,-0.6105920054171733,1.5053501818623551,-0.047602832317352295,0.573352575302124,0.8179247975349426,0.03414028882980347,-0.2790488004684448,-0.22408688068389893,-0.012730419635772705,0.008632898330688477,-0.02539849281311035
148,-3.096948188996301,-0.6140333138432436,1.5395877285390402,-0.036477185785770416,0.5761687159538269,0.816516637802124,0.02239944040775299,-0.3010810315608978,-0.3295136094093323,-0.04666796699166298,-0.0062680840492248535,-0.0018039941787719727
149,-3.0942020724147934,-0.6095970278223031,1.5708651736805253,-0.03883998095989227,0.5725371241569519,0.818958044052124,-0.03087836131453514,-0.10080908983945847,-0.14744289219379425,-0.002206169068813324,0.03584599494934082,-0.01770395040512085
150,-3.097282811897717,-0.6113181821652212,1.588710752217866,-0.03627311438322067,0.5739474296569824,0.8180884718894958,0.14205925166606903,-0.19850696623325348,-0.10613111406564713,0.06958305835723877,0.056927263736724854,-0.019183993339538574
151,-3.1149281131405164,-0.6357867597131879,1.6130425973912013,-0.021451883018016815,0.5938107371330261,0.8043190240859985,0.2630210816860199,-0.4065861701965332,-0.32343268394470215,0.033674173057079315,-0.005157053470611572,0.015169680118560791
152,-3.12917221927455,-0.6499828084841025,1.6605185031806666,-0.009887578897178173,0.6051726937294006,0.7960326075553894,-0.09615536779165268,-0.33821290731430054,-0.3236367404460907,-0.02836620807647705,-0.10433357954025269,0.02823173999786377
153,-3.1341029583554962,-0.6329883297253205,1.6888787135898402,-0.006038609892129898,0.5915567874908447,0.8062406778335571,-0.18601197004318237,-0.2213447093963623,-0.32930096983909607,-0.0157509446144104,0.031169652938842773,-0.0009275674819946289
154,-3.1374459509893238,-0.6132396061123151,1.719081722725622,-0.0033911133650690317,0.5755198001861572,0.8177808523178101,-0.2791565954685211,-0.1053113341331482,0.28549283742904663,0.2259252965450287,-0.012470483779907227,-0.04229867458343506
155,3.1009212665739265,-0.6076280625643965,1.6844460359749949,0.03338218107819557,0.5709217190742493,0.8203254342079163,0.07320531457662582,-0.25618603825569153,-0.08876341581344604,0.030765768140554428,0.04887503385543823,0.03474646806716919
156,3.082546561446384,-0.6141505952205648,1.6805153750408806,0.048228152096271515,0.5762645602226257,0.8158388137817383,0.0267909187823534,-0.010412152856588364,0.07163605093955994,-0.019099123775959015,-0.05151486396789551,0.03456389904022217
157,3.072378409667986,-0.6048252585348829,1.6753661312170425,0.05689029023051262,0.5686183571815491,0.8206318616867065,-0.0615776926279068,-0.10298965871334076,-0.08416280895471573,-0.01889592409133911,-0.012710154056549072,0.005097508430480957
158,3.0770698658048725,-0.5947203549107876,1.6789114487284498,0.05340749770402908,0.5602771639823914,0.8265818357467651,-0.12078655511140823,0.09679526090621948,0.027338096871972084,0.009336646646261215,-0.019551336765289307,-0.01563805341720581
159,3.0875925545924865,-0.586555803531581,1.6866193308586988,0.04495225101709366,0.5534958243370056,0.8316382765769958,0.0029954020865261555,0.05924723669886589,-0.1683807671070099,0.010772865265607834,0.01635909080505371,0.0167962908744812
160,3.1024091507316314,-0.5894990084613936,1.699084419003258,0.03256174921989441,0.5559446811676025,0.8305812478065491,0.09896220266819,0.13185793161392212,-0.04388904571533203,0.05583241209387779,0.0046021342277526855,-0.021239817142486572
161,3.1007513177360746,-0.6035951173774462,1.6977058207273847,0.033615343272686005,0.5676059722900391,0.8226138949394226,0.13091091811656952,-0.15751272439956665,-0.04245227202773094,0.0552976168692112,0.0001278519630432129,-0.003964543342590332
162,3.0865396842198614,-0.616465552531703,1.699735817851954,0.04489652067422867,0.5781549215316772,0.8146909475326538,0.14158515632152557,0.0565560981631279,0.0880701094865799,-0.02307647466659546,-0.025161147117614746,0.017447233200073242
163,3.0898114170429682,-0.6308940482211861,1.6896143262171914,0.04179471358656883,0.5898669362068176,0.8064185976982117,0.18200217187404633,0.06268031150102615,-0.04987781494855881,0.007811620831489563,-0.045799314975738525,0.05327719449996948
164,3.0968185468870595,-0.620816955643549,1.6855160216188958,0.03640725836157799,0.5816998481750488,0.8125885725021362,-0.18930885195732117,0.09831207990646362,0.1344037503004074,0.03616354614496231,-0.0029186010360717773,0.046435534954071045
165,3.0917525142845927,-0.5934997526999478,1.6602784983127372,0.041299790143966675,0.559265673160553,0.827958881855011,-0.2820018231868744,0.17086806893348694,0.28847646713256836,0.008230231702327728,0.035826921463012695,-0.06158626079559326
166,3.1003384794334132,-0.5737890324643676,1.625704037355519,0.03463749587535858,0.5428181290626526,0.8391355276107788,-0.038146454840898514,0.3831574022769928,0.32581305503845215,0.04527279734611511,0.07513225078582764,-0.00019216537475585938
167,3.0983289601311803,-0.5775133767239374,1.5906677853909168,0.0362359993159771,0.5459423065185547,0.8370387554168701,-0.029175521805882454,-0.05370648205280304,0.07081706076860428,-0.0021173395216464996,-0.0019055008888244629,-0.03599816560745239
168,3.084290242046742,-0.5732281606340327,1.5762030112216836,0.048116534948349,0.5423470139503479,0.8387754559516907,0.059995800256729126,0.05906245484948158,0.12762054800987244,-0.0948847308754921,0.04763394594192505,-0.0005645155906677246
169,3.0982456190977854,-0.5809906323909164,1.5622561088651186,0.036223284900188446,0.5488523244857788,0.8351342678070068,0.017789561301469803,0.17686870694160461,0.15762494504451752,-0.014113303273916245,-0.011300384998321533,0.030039191246032715
170,3.107937272289548,-0.5760257488001373,1.558378529829227,0.02821922115981579,0.5446953177452087,0.8381591439247131,-0.11875095218420029,-0.01411118172109127,-0.05213933438062668,-0.008092880249023438,-0.00903552770614624,0.005499362945556641
171,3.108978811524961,-0.5641922982308901,1.573511672406993,0.027554498985409737,0.5347334742546082,0.8445717096328735,-0.14213694632053375,-0.11568579077720642,-0.167613685131073,-0.011563263833522797,0.021205425262451172,-0.006040036678314209
172,3.1105038783246797,-0.5490247521476572,1.588269396973391,0.026515519246459007,0.5218555331230164,0.8526220917701721,-0.195217102766037,-0.03612957149744034,-0.056111905723810196,-0.008388081565499306,0.0735883116722107,-0.04866677522659302
173,3.1109101339490435,-0.552843579075117,1.604573846262885,0.026107797399163246,0.5251093506813049,0.8506343364715576,0.020827077329158783,-0.11428514122962952,-0.1467277854681015,-0.007019057869911194,0.037878990173339844,-0.031206846237182617
174,3.113322586908443,-0.5562932064486955,1.6186834377224735,0.024004261940717697,0.5280419588088989,0.8488790392875671,-0.03516914322972298,-0.014932277612388134,-0.06753385812044144,-0.006304055452346802,0.042758822441101074,-0.03828632831573486
175,3.1187205497988617,-0.5675512349075382,1.6325823033476854,0.019284531474113464,0.5375688076019287,0.8429993391036987,0.05097240209579468,-0.029884062707424164,-0.21182604134082794,-0.02111557312309742,-0.009126484394073486,-0.01353156566619873
176,3.132117988532739,-0.5712684449702827,1.6503763673111376,0.007970117963850498,0.5406995415687561,0.8411779999732971,-0.03038686141371727,0.08069052547216415,-0.05811859667301178,0.02430221438407898,-0.012241959571838379,0.009468913078308105
177,-3.139413532619299,-0.572774270468766,1.6643686995222597,-0.0018313336186110973,0.5419656038284302,0.8403988480567932,0.14144930243492126,0.042659349739551544,-0.17261278629302979,0.05015590786933899,0.0223807692527771,0.015680432319641113
178,-3.1341311722370393,-0.5850729230698103,1.6687494210590064,-0.006220367271453142,0.552260160446167,0.8336483836174011,0.03542385995388031,0.014499939046800137,0.021215861663222313,0.09697964787483215,-0.03359878063201904,0.040374815464019775
179,3.130197017280851,-0.5777270481802576,1.6603218980688703,0.009545985609292984,0.5461212992668152,0.8376516103744507,0.01611805334687233,-0.11445340514183044,0.06028660759329796,0.022543251514434814,0.01863694190979004,0.004633426666259766
180,3.1110850632208837,-0.5770932012249256,1.652348883022653,0.025562996044754982,0.5455902218818665,0.8376625180244446,0.003426126204431057,-0.1561676263809204,0.022559061646461487,-0.027027839794754982,0.012057662010192871,-0.0051274895668029785
181,3.1078324499102865,-0.5787402156122833,1.6567793254648144,0.028257060796022415,0.5469697117805481,0.8366751670837402,-0.05818687751889229,0.022441454231739044,-0.018491290509700775,-0.04516381770372391,-0.028033733367919922,0.01105719804763794
182,3.124026193906941,-0.5734916545082294,1.6711124078814776,0.01475527510046959,0.5425683856010437,0.8398821949958801,-0.04117541015148163,0.09377003461122513,-0.05535256862640381,0.02131650038063526,-0.022380948066711426,0.0036391019821166992
183,3.1288444760082785,-0.566786671416982,1.668967673806393,0.010754460468888283,0.5369239449501038,0.8435620069503784,-0.034079376608133316,0.005763314664363861,0.07801296561956406,0.06399834156036377,0.03090125322341919,0.006199896335601807
184,3.1172116057438437,-0.5715704201234408,1.6601486602457347,0.020503705367445946,0.540953516960144,0.8408023715019226,0.060579754412174225,-0.04637685418128967,-0.053012166172266006,-0.0025746244937181473,0.005631506443023682,0.0001704096794128418
185,3.1142889456775773,-0.5785521805607731,1.6636476874925668,0.02285733073949814,0.5468122959136963,0.8369431495666504,0.045716919004917145,-0.034165192395448685,0.03523620590567589,0.0035556554794311523,-0.04029679298400879,0.02488851547241211
186,3.110100413641459,-0.5739605351036026,1.6617782451365053,0.02644146792590618,0.5429621934890747,0.8393409252166748,-0.03598695248365402,-0.07674930989742279,0.037373147904872894,0.04287922754883766,-0.012078344821929932,0.011519789695739746
187,3.0971685758290897,-0.5689596155580288,1.6670510408790817,0.03741328790783882,0.5387558341026306,0.8416308164596558,-0.053332746028900146,-0.11682002991437912,-0.09718284010887146,-0.01911798119544983,0.016358911991119385,0.0017071962356567383
188,3.0953933793200896,-0.5712508552831536,1.6673197237876463,0.03885018453001976,0.540684700012207,0.8403279781341553,0.08057621866464615,0.009608259424567223,-0.0171134565025568,-0.008515693247318268,0.01754295825958252,-0.023173868656158447
189,3.098897986294348,-0.5788979186961506,1.6729767653743677,0.03572741895914078,0.5471017360687256,0.8363037109375,0.04577331244945526,0.015590516850352287,-0.012988105416297913,0.001763414591550827,-0.0029121041297912598,0.012665092945098877
190,3.1016177664021822,-0.5835182628557717,1.6699652073305808,0.03335132822394371,0.5509634613990784,0.8338625431060791,0.05829743295907974,0.04452984407544136,0.026190616190433502,0.020069684833288193,-0.01397615671157837,0.015395760536193848
191,3.1011993030826073,-0.5839565485894067,1.671791358184752,0.03369052708148956,0.5513291358947754,0.83360755443573,0.015598333440721035,-0.020179910585284233,-0.02760680392384529,0.01577848568558693,-0.006819188594818115,0.04394078254699707
192,3.100347260566896,-0.5842035772711727,1.673452226850592,0.03439514338970184,0.5515352487564087,0.8334418535232544,0.03750527650117874,-0.00596249382942915,0.003348107449710369,0.018659643828868866,0.0013210773468017578,0.01609092950820923
193,3.100929782115195,-0.587831643223858,1.669130078705861,0.03382807970046997,0.5545579195022583,0.8314571380615234,0.076075479388237,0.06917459517717361,0.07800154387950897,0.02810734137892723,-0.014824092388153076,0.007043719291687012
194,3.0989999111440354,-0.5913872735816093,1.6534257193012987,0.03534844517707825,0.5575132369995117,0.8294151425361633,0.059311650693416595,0.11143718659877777,0.067695751786232,-0.0031676627695560455,-0.016802847385406494,0.01599806547164917
195,3.102529584421552,-0.5902587876079599,1.6388408043243954,0.03244522958993912,0.5565760135650635,0.8301632404327393,0.07567667216062546,0.13899987936019897,0.09280867129564285,-0.0032246336340904236,0.0230291485786438,-0.0023432374000549316
196,3.109521354325625,-0.5998326239614999,1.6276535016157743,0.026468077674508095,0.5645043253898621,0.8250056505203247,0.056670814752578735,0.18972013890743256,0.15915650129318237,0.0037443041801452637,-0.01337212324142456,0.004996180534362793
197,3.114920521507996,-0.6035396942113919,1.6069831996346233,0.021957406774163246,0.5675603747367859,0.8230388164520264,0.041600074619054794,0.0999433696269989,0.08089012652635574,-0.004776002839207649,0.02612859010696411,-0.001810908317565918
198,3.1139197388271724,-0.6087385457377346,1.6011263409442993,0.022699126973748207,0.571833074092865,0.8200557231903076,0.01182899996638298,0.07531243562698364,0.16600997745990753,0.0005552731454372406,-0.0036721229553222656,0.012356877326965332
199,3.1193249185756877,-0.6091883891580037,1.587596156468961,0.018260540440678596,0.5722020268440247,0.8199092745780945,-0.06128353253006935,0.13178256154060364,0.04338637739419937,-0.0074725765734910965,0.03319031000137329,-0.002099275588989258
200,3.1266599543890576,-0.6095187953045029,1.569563740716072,0.01224321685731411,0.5724729895591736,0.8198321461677551,0.017599016427993774,0.1970825344324112,0.1784529834985733,-0.012334794737398624,0.03557443618774414,-0.012611687183380127
201,3.135195671708143,-0.6139093647767725,1.550944067149016,0.005228872876614332,0.5760673880577087,0.817385733127594,0.016487279906868935,0.1794799566268921,0.14424872398376465,-0.007044672500342131,0.020413994789123535,-0.019945979118347168
202,3.1415003608395575,-0.6185298561044997,1.5330002363724837,7.519384234910831e-05,0.5798380374908447,0.8147318363189697,0.06539392471313477,0.18936853110790253,0.15098612010478973,-0.018950313329696655,0.021571874618530273,0.0030324459075927734
203,-3.1305248369955425,-0.6187394516978407,1.5067730017379894,-0.009015772491693497,0.5800087451934814,0.8145603537559509,-0.04305668920278549,0.3209932744503021,0.23879817128181458,-0.010866403579711914,0.006737470626831055,0.012298107147216797
204,-3.116077149705671,-0.6124513239826997,1.4780337413490816,-0.020875565707683563,0.5748749375343323,0.8179746866226196,0.002079801168292761,0.24401459097862244,0.1898575723171234,-0.0024398528039455414,0.0293118953704834,-0.01363825798034668
205,-3.106211306612509,-0.6134783386143545,1.4639713665571954,-0.02892354503273964,0.5757150053977966,0.8171389102935791,-0.01777099445462227,0.14542235434055328,0.09037800878286362,-0.010550949722528458,0.0012961626052856445,-0.01521313190460205
206,-3.0997033253137802,-0.619699579294841,1.4575946599945764,-0.03409014642238617,0.580790638923645,0.813338577747345,0.1403835266828537,0.013361958786845207,-0.05491083860397339,-0.02699076011776924,0.030018508434295654,-0.017455577850341797
207,-3.088717095370992,-0.6330082452856296,1.4736440871449235,-0.042611151933670044,0.5915728211402893,0.8051249980926514,0.05761135369539261,0.05461423099040985,-0.02665892243385315,-0.015860501676797867,-0.02234363555908203,0.036305785179138184
208,-3.080342071387756,-0.628226739976356,1.469852476908711,-0.04952508211135864,0.587710976600647,0.8075537085533142,-0.08992686867713928,0.11022897809743881,0.018447458744049072,-0.0057269856333732605,0.021679222583770752,0.0002617835998535156
209,-3.073159947683299,-0.6157299450145659,1.4607283024840942,-0.055821605026721954,0.5775545835494995,0.8144415616989136,-0.15847520530223846,0.09213701635599136,0.17096790671348572,0.01088445633649826,0.028753459453582764,-0.05099833011627197
210,-3.0725780754858607,-0.6164687679577848,1.44854606071188,-0.056266047060489655,0.5781575441360474,0.8139829039573669,0.0503518283367157,0.15265348553657532,0.11701112985610962,-0.03411177545785904,0.026456773281097412,0.002438664436340332
211,-3.0668500103821157,-0.6193908533924758,1.4086324518176976,-0.060801222920417786,0.5805392861366272,0.8119589686393738,-0.02460770308971405,0.2627865970134735,0.3519027531147003,0.017313674092292786,0.026592671871185303,-0.007027387619018555
212,-3.0704668626596527,-0.6234244680405945,1.383984685437926,-0.05769720301032066,0.5838188529014587,0.8098310828208923,-0.007029123604297638,0.011410202831029892,0.159830704331398,-0.01351555809378624,-0.008776187896728516,0.018217504024505615
213,-3.072546202368087,-0.6248226905182491,1.366762905463191,-0.055956799536943436,0.5849534869194031,0.8091342449188232,0.035691119730472565,0.1382783055305481,0.18040215969085693,-0.04165366291999817,-0.020927608013153076,0.0010311603546142578
214,-3.0655546544497696,-0.6281756196780668,1.359854339350055,-0.061463143676519394,0.5876696109771729,0.8067629933357239,0.0837470293045044,0.01432451605796814,-0.06423118710517883,-0.04742354899644852,0.002387702465057373,0.031097054481506348
215,-3.050100220798123,-0.6317839374194107,1.3759084187182904,-0.07372914254665375,0.5905852913856506,0.8035998344421387,-0.03415866941213608,-0.030232023447752,-0.13587407767772675,0.02003347873687744,-0.039392173290252686,0.023136496543884277
216,-3.046958474776887,-0.6193664797791275,1.394622998951895,-0.0769406110048294,0.580519437789917,0.8106034398078918,-0.028383079916238785,-0.045461803674697876,-0.13956257700920105,-0.010217621922492981,0.03537118434906006,-0.019084036350250244
217,-3.0443594142852493,-0.6236291108600265,1.3996593971623041,-0.07880616933107376,0.5839849710464478,0.807930052280426,0.12714330852031708,-0.08195535093545914,-0.051084671169519424,0.011575944721698761,0.05735713243484497,-0.043388545513153076
218,-3.042392809660935,-0.6521613924478863,1.4337754973171075,-0.07871221005916595,0.6069056391716003,0.7908666729927063,0.3204917311668396,-0.22980454564094543,-0.36291763186454773,-0.028633393347263336,-0.019503235816955566,0.016155481338500977
219,-3.032535367527223,-0.6709440916987144,1.4838064406466835,-0.08524829149246216,0.6217257380485535,0.7785821557044983,0.07889298349618912,-0.16802772879600525,-0.3650727868080139,-0.04074353724718094,-0.06416946649551392,0.048413753509521484
220,-3.013563447339164,-0.6687598736050459,1.5325814537442946,-0.10017640143632889,0.6200134754180908,0.7781697511672974,0.09436994791030884,-0.1206277534365654,-0.4044276475906372,-0.009183347225189209,0.03391718864440918,0.008283495903015137
221,-2.9939737251265486,-0.6751592691982319,1.5877209527278386,-0.11481434106826782,0.6250216364860535,0.7721173763275146,0.07251062989234924,-0.17356526851654053,-0.38438695669174194,0.017890535295009613,-0.005240261554718018,-0.0030745267868041992
222,-2.983549854893192,-0.6798634303714948,1.6395285218626092,-0.12239231169223785,0.6286868453025818,0.767966628074646,0.17318516969680786,-0.3108105957508087,-0.35420501232147217,0.02414100617170334,0.0014705657958984375,-0.027045726776123047
223,-2.986253507521134,-0.6902127331736193,1.6914162499152512,-0.11930251121520996,0.636701226234436,0.7618257403373718,0.15940096974372864,-0.3668615221977234,-0.40841957926750183,-0.012670755386352539,-0.002149224281311035,-0.015411615371704102
224,-2.9858509471045576,-0.6940810561507826,1.747600675964419,-0.11922629177570343,0.6396793723106384,0.7593390941619873,0.023477725684642792,-0.335440069437027,-0.2648870050907135,-0.011800974607467651,-0.0415651798248291,0.02976936101913452
225,-3.002320601323783,-0.6942659712170656,1.760670263375445,-0.10668813437223434,0.639821469783783,0.7610819339752197,-0.024028636515140533,-0.32115858793258667,-0.11055189371109009,0.008833549916744232,-0.032109856605529785,-0.028370261192321777
226,-3.029960035247754,-0.6843157078509797,1.7892012382566824,-0.08631918579339981,0.632142961025238,0.7700287699699402,-0.049629926681518555,-0.5617443919181824,-0.4193512201309204,-0.0581815242767334,0.04110538959503174,0.02158188819885254
227,-3.040460438644189,-0.6765354802225765,1.8322962824034665,-0.07872311025857925,0.6260953545570374,0.775762140750885,0.06997288018465042,-0.2903916537761688,-0.009944849647581577,-0.04049379378557205,0.08969426155090332,0.02874213457107544
228,-3.070944488997998,-0.6970225771153847,1.7952742839892475,-0.05412490665912628,0.6419375538825989,0.7648440599441528,-0.348710834980011,-0.07597386837005615,0.32880470156669617,0.031984422355890274,-0.021240651607513428,0.018236935138702393
229,-3.113477833696758,-0.6732096247628525,1.7917015288727944,-0.02197795733809471,0.6234985589981079,0.7815154790878296,-0.18150857090950012,-0.3786819577217102,-0.1521340161561966,-0.02729266881942749,0.03838193416595459,-0.02965402603149414
230,3.14086476493159,-0.6646227101862487,1.7914905906412704,0.0005729572148993611,0.6167622208595276,0.7871494293212891,0.009186061099171638,-0.20410789549350739,0.16054126620292664,-0.03588181734085083,-0.008317947387695312,-0.06913185119628906
231,3.0947842194868853,-0.6582107408378748,1.7537340677390212,0.03701606020331383,0.6117023825645447,0.7902213335037231,-0.362583726644516,0.10195331275463104,0.07977767288684845,-0.06303229928016663,0.026771068572998047,-0.047576189041137695
232,3.1208710944064237,-0.6248517393709633,1.761179533765108,0.016805019229650497,0.5849770307540894,0.8108759522438049,0.05032408982515335,0.33819690346717834,0.05978124961256981,-0.010228483006358147,0.05844038724899292,-0.049340128898620605
233,3.125919405510704,-0.6437026199975563,1.7199593543597556,0.012536193244159222,0.6001611948013306,0.7997810244560242,0.2689729332923889,0.3733830749988556,0.26087987422943115,0.028387878090143204,0.042401790618896484,-0.00818544626235962
234,3.128722857675959,-0.6526523454575356,1.7208678102195396,0.010224461555480957,0.6072957515716553,0.7944101691246033,0.49580520391464233,-0.18719612061977386,-0.16242806613445282,-0.029694676399230957,0.069477379322052,-0.0979684591293335
235,3.0970017384172763,-0.6990897566229879,1.7145840139065558,0.034119829535484314,0.643521249294281,0.764667272567749,0.2941703796386719,-0.06657667458057404,0.048996634781360626,-0.0029919184744358063,-0.05408954620361328,0.09130489826202393
236,3.096936498001484,-0.7058128735362414,1.7375657133224054,0.033975813537836075,0.6486527323722839,0.7603257298469543,-0.036493930965662,-0.39728623628616333,-0.1111166775226593,0.06355836987495422,-0.07768404483795166,0.04880201816558838
237,3.079672908270081,-0.6983053041066833,1.7575764011387784,0.04739606752991676,0.6429206132888794,0.7644649744033813,-0.060481272637844086,-0.22286896407604218,-0.2868882119655609,0.033765435218811035,-0.01410585641860962,0.0278322696685791
238,3.0757825518501742,-0.696984872179879,1.7988042418298056,0.050425540655851364,0.6419086456298828,0.7651214599609375,-0.1261141449213028,-0.2821800410747528,-0.3047198951244354,0.029286392033100128,-0.020418107509613037,0.02450573444366455
239,3.0775417068445283,-0.6769623244574452,1.8318826419447252,0.04989223554730415,0.6264281272888184,0.7778806090354919,-0.175923153758049,-0.188198983669281,-0.06000267714262009,0.057224445044994354,-0.015344202518463135,0.02595221996307373
240,3.0619927769711968,-0.658680592449242,1.8339353525898225,0.06288117915391922,0.6120740175247192,0.788296639919281,-0.12464772164821625,-0.12784692645072937,0.06131760776042938,0.035797394812107086,0.003053605556488037,0.01935112476348877
241,3.052304590700811,-0.6522179512298223,1.8389565662427279,0.07086651027202606,0.606950581073761,0.791573703289032,-0.14034929871559143,-0.06304287165403366,-0.16333523392677307,-0.006947442889213562,-0.012636005878448486,-0.017663240432739258
242,3.056429891499907,-0.654674744884238,1.8568074004140407,0.0674734115600586,0.6089012622833252,0.7903714179992676,0.05709422007203102,-0.021225955337285995,-0.11332382261753082,0.005219466984272003,-0.01048201322555542,0.03294718265533447
243,3.06286541176362,-0.6511114789485664,1.8729590116083092,0.06255581229925156,0.606070876121521,0.7929468154907227,-0.10609473288059235,-0.10313805937767029,-0.07191824167966843,0.08225008100271225,-0.02968543767929077,-0.001824498176574707
244,3.054765977877431,-0.6461499328400726,1.8808245914493673,0.06923604756593704,0.6021169424057007,0.7954003810882568,0.013810002245008945,-0.0820782408118248,-0.09198305010795593,-0.02483295649290085,0.005396544933319092,-0.009542107582092285
245,3.0544866017416705,-0.6468274729463123,1.8804089321626007,0.06942273676395416,0.6026577949523926,0.7949742078781128,-0.0806836262345314,0.10101902484893799,0.14028340578079224,-0.009272575378417969,-0.026821613311767578,0.0008935928344726562
246,3.056652452255405,-0.6422087310218062,1.8556412620639144,0.06793621927499771,0.598965585231781,0.797887921333313,0.013245830312371254,0.18542250990867615,0.26443561911582947,0.04255267232656479,-0.003369271755218506,0.0077152252197265625
247,3.056797715670312,-0.6477209022661374,1.8337308582390766,0.06753965467214584,0.6033704876899719,0.7945958375930786,0.11304376274347305,0.07287394255399704,0.017930854111909866,-0.015629269182682037,-0.0243910551071167,0.013769090175628662
248,3.063110847575254,-0.6439925686927764,1.8401553237760995,0.0626978799700737,0.6003931164741516,0.7972433567047119,-0.11891236156225204,-0.08665221929550171,-0.10692897439002991,0.0227513387799263,-0.004964709281921387,0.0072762370109558105
249,3.0539137010502357,-0.6326179649427698,1.836992903430038,0.07062096148729324,0.5912581086158752,0.8033843636512756,0.10480712354183197,0.22885242104530334,0.4330558478832245,-0.02740807831287384,0.034184396266937256,0.04074704647064209
250,3.0596559650213657,-0.6260405097993965,1.8105765967058656,0.0663234144449234,0.5859407782554626,0.8076348900794983,-0.3200857937335968,0.12858691811561584,-0.05661989748477936,0.0027988776564598083,0.006374716758728027,0.026242494583129883
251,3.061768446099522,-0.6177465746611863,1.8058805575432972,0.06500249356031418,0.5791996717453003,0.8125902414321899,0.00026030559092760086,0.06877724826335907,-0.055315010249614716,-0.009536787867546082,-0.016440153121948242,0.011827051639556885
252,3.084214691445312,-0.6267739564156232,1.8299852888897576,0.04644627496600151,0.5865349769592285,0.808590829372406,0.03705577552318573,0.12526562809944153,-0.2485973984003067,0.0577407144010067,-0.04745727777481079,0.022005915641784668
253,3.106786397495862,-0.6219712960679216,1.8353560142258387,0.028282439336180687,0.5826384425163269,0.8122395277023315,0.034690648317337036,0.15899713337421417,-0.1510830521583557,-0.02918272465467453,0.054568707942962646,0.027222931385040283
254,3.1259463279958957,-0.6224521965398756,1.8559545397742163,0.0127113563939929,0.5830292105674744,0.8123517036437988,-0.1235428974032402,-0.008969850838184357,-0.005760828033089638,-0.017853587865829468,-0.01395273208618164,-0.024296343326568604
255,3.1253467749901676,-0.6043633337323655,1.8588490392584145,0.013367559760808945,0.5682383179664612,0.8227553367614746,-0.17035908997058868,-0.08338852971792221,-0.1992509961128235,-0.06707850098609924,0.06750380992889404,-0.03361666202545166
256,3.1342303727060443,-0.6003465921070633,1.907622327313394,0.00607485743239522,0.5649284720420837,0.8251176476478577,0.0015320200473070145,-0.27296337485313416,-0.4723917841911316,-0.06286808848381042,0.06307750940322876,-0.05045938491821289
257,3.1394787360458953,-0.5987962171745947,1.9633053860096805,0.001746125752106309,0.563648521900177,0.826012909412384,-0.025997251272201538,-0.2163432389497757,-0.3044090270996094,-0.01651662588119507,0.04615366458892822,-0.018532991409301758
258,3.139008590956918,-0.6067958303985106,1.9788770577837647,0.0021227526012808084,0.5702382326126099,0.8214769959449768,0.12356006354093552,-0.04356899857521057,0.032926447689533234,-0.03122127056121826,0.009580612182617188,-0.033360302448272705
259,3.138280274607173,-0.6124052810398788,1.9767042529347787,0.0027104082982987165,0.5748372673988342,0.8182633519172668,0.03059675171971321,-0.022957995533943176,-0.07411476224660873,-0.016046583652496338,0.016211867332458496,-0.01462864875793457
260,3.1387580973408142,-0.6203489295766442,1.9929011354201767,0.0023064070846885443,0.5813190937042236,0.813672661781311,0.12472227960824966,-0.14472545683383942,-0.15883083641529083,0.02187877893447876,0.010020077228546143,0.0025354623794555664
261,3.1379270725335298,-0.629567346791619,2.0081064755557554,0.0029628181364387274,0.5887951254844666,0.8082770109176636,0.039522796869277954,-0.030717145651578903,-0.04397813603281975,0.03811383247375488,-0.018116354942321777,0.05790352821350098
262,3.128961752270266,-0.6242349080922388,2.0091462470755115,0.010248570702970028,0.5844766497612,0.8113455176353455,-0.02965695969760418,-0.08996856212615967,-0.04242188483476639,0.0435386598110199,-0.007709801197052002,0.022135138511657715
263,3.1125882200435564,-0.6190766191855853,2.0019422021653384,0.02361832559108734,0.5802834033966064,0.8140721917152405,0.01095893606543541,-0.07448258996009827,0.030797380954027176,-0.012235283851623535,0.011574506759643555,0.006392955780029297
264,3.1067614903914453,-0.6111449937273428,2.00222934408954,0.028520651161670685,0.573805570602417,0.8184945583343506,-0.09554465115070343,-0.05412394925951958,0.021335503086447716,0.014661721885204315,0.016205906867980957,0.0009785294532775879
265,3.091323041526814,-0.612726381671543,1.9855789242609714,0.0411074124276638,0.5751000046730042,0.8170498609542847,0.09710370004177094,-0.010692821815609932,0.19399993121623993,0.0002896822988986969,-0.007930755615234375,0.002972841262817383
266,3.07812705368773,-0.6146893087882126,1.973020602222769,0.05181358382105827,0.576704740524292,0.8153077960014343,-0.13221898674964905,-0.018799621611833572,0.013393623754382133,-0.027353737503290176,-0.03224068880081177,0.015777289867401123
267,3.078557360267767,-0.6008740527109891,1.9770706855533289,0.05195970833301544,0.5653636455535889,0.823203444480896,-0.05253227427601814,-0.1032925546169281,-0.04188765212893486,0.022320084273815155,0.005162358283996582,0.0002523660659790039
268,3.0737274572064854,-0.5939626727406689,1.9874573468384813,0.05619874596595764,0.5596494078636169,0.82682204246521,-0.08292203396558762,-0.081094890832901,-0.11757053434848785,-0.009705215692520142,0.008588016033172607,-0.006539881229400635
269,3.0732363804124705,-0.5911159309737488,1.991914628953339,0.056713350117206573,0.5572879314422607,0.828380286693573,-0.07297752797603607,-0.0462346151471138,0.004535657819360495,0.00903676450252533,-0.010702848434448242,-0.0026661157608032227
270,3.072364605481975,-0.5836859715334813,1.996337852691304,0.057720307260751724,0.551103413105011,0.8324381709098816,-0.050043895840644836,-0.026909902691841125,-0.009106243029236794,0.0038031265139579773,0.016035258769989014,-0.009836912155151367
271,3.070809967832674,-0.5808168116523698,2.0008445595621347,0.05912596359848976,0.5487070083618164,0.8339212536811829,0.0023920731619000435,-0.0963686853647232,-0.09478771686553955,0.016038812696933746,0.0038136839866638184,-0.006116747856140137
272,3.0686728210367162,-0.585506862200796,2.027395921001445,0.060719866305589676,0.5526219010353088,0.8312170505523682,-0.0067566921934485435,-0.3240817189216614,-0.3094302713871002,0.018702108412981033,-0.02764338254928589,0.002629876136779785
273,3.0177531430729307,-0.5717445916800872,2.0416285963156007,0.10387790203094482,0.541100025177002,0.8345181941986084,-0.4276110827922821,-0.5834660530090332,0.4035643935203552,0.01034943014383316,-0.0934528112411499,0.028412282466888428
274,2.9503790456014545,-0.5180209938470999,1.9659954550555783,0.165116086602211,0.4951617419719696,0.8529664874076843,-0.29435545206069946,-0.15684016048908234,0.4767572581768036,-0.027039244771003723,0.08961620926856995,-0.029419004917144775
275,2.9331605843968136,-0.48795147138414974,1.9592641543473945,0.18277683854103088,0.46881741285324097,0.8641774654388428,-0.3460814654827118,-0.22351571917533875,-0.038236647844314575,-0.051703885197639465,-0.0021121203899383545,-0.02259427309036255
276,2.927913370485099,-0.47636101724529556,1.997171054552764,0.1884484887123108,0.458548367023468,0.8684585690498352,-0.01166067086160183,-0.29964572191238403,-0.5083417892456055,0.011182233691215515,0.03142651915550232,-0.017247140407562256
277,2.935267463351963,-0.48490697373314884,2.0439631045987685,0.1812472641468048,0.46612605452537537,0.8659535646438599,0.029826898127794266,-0.07989032566547394,-0.41130611300468445,-0.0011935830116271973,0.01713496446609497,0.0076882243156433105
278,2.94682276817994,-0.5032662008100278,2.0738519574546457,0.1695440411567688,0.4822893440723419,0.8594485521316528,0.1978471726179123,0.05764409154653549,-0.11336561292409897,0.022182628512382507,0.005045831203460693,-0.013669133186340332
279,2.9584946838531403,-0.5144015354274376,2.077593413146068,0.15851356089115143,0.49201393127441406,0.8560346364974976,0.023085778579115868,0.10450682789087296,0.09032699465751648,0.053293660283088684,-0.021783918142318726,0.033750951290130615
280,2.961334426367584,-0.5190817295829079,2.0591587945414958,0.1556675285100937,0.49608302116394043,0.854206919670105,0.07603487372398376,0.23796246945858002,0.07359080016613007,0.028551846742630005,-0.0003858804702758789,0.005259692668914795
281,2.9690527534277438,-0.5274948696943036,2.0478706072915793,0.1483481228351593,0.5033702850341797,0.8512412309646606,0.04308496043086052,0.15714791417121887,0.014549528248608112,0.02331329882144928,-0.013273119926452637,0.015030920505523682
282,2.9788932221458024,-0.527848778001737,2.050367619644434,0.13993558287620544,0.5036760568618774,0.852483868598938,0.012205272912979126,0.19045816361904144,0.00042229238897562027,0.0025967955589294434,0.01283407211303711,-0.006063520908355713
283,2.9913737357737484,-0.5336851547299263,2.0265342063384892,0.12884332239627838,0.5087094902992249,0.8512424230575562,0.10487633943557739,0.3244626522064209,0.338011234998703,0.01761050522327423,0.012393355369567871,0.01617377996444702
284,3.007513938656882,-0.5377383119652336,1.9825332019633235,0.11481135338544846,0.512194812297821,0.8511607050895691,0.018207358196377754,0.44295528531074524,0.3197016716003418,-0.00722164660692215,-0.0019714832305908203,0.007069766521453857
285,3.019747786324412,-0.5385312493291418,1.9550778671664177,0.10434065014123917,0.5128756761550903,0.8520981669425964,0.03348657861351967,0.17572350800037384,0.12707555294036865,-0.013993360102176666,0.015917599201202393,-0.0023363232612609863
286,3.0348929069242736,-0.5354663913419775,1.9442707848804386,0.09159102290868759,0.510242223739624,0.8551396131515503,-0.013747252523899078,0.21598893404006958,0.09982582181692123,0.005088649690151215,0.0515100359916687,-0.021903038024902344
287,3.0484278666635847,-0.5373270441476142,1.9200328336189663,0.07992029190063477,0.5118415355682373,0.8553546071052551,0.0347568616271019,0.2903828024864197,0.3645222783088684,-0.004404507577419281,0.019927382469177246,-0.006416380405426025
288,3.0624238469951646,-0.5371440099664689,1.8778925887828195,0.06794869899749756,0.5116842985153198,0.8564823269844055,0.03126721456646919,0.3296320140361786,0.313233882188797,-0.016145117580890656,0.0102882981300354,-0.004874169826507568
289,3.0753575468376653,-0.5316355718760537,1.859380241089599,0.05705155432224274,0.5069438219070435,0.8600891828536987,-0.04634212702512741,0.18116731941699982,0.10218312591314316,-0.020445719361305237,0.04316604137420654,-0.00593256950378418
290,3.0894806765611116,-0.530157293860544,1.8400258474215463,0.0449380949139595,0.5056690573692322,0.8615564107894897,-0.008584779687225819,0.248736172914505,0.20644710958003998,-0.0079202800989151,0.04274708032608032,-0.008345961570739746
291,3.099006984578307,-0.5330370411910578,1.8085199357521735,0.03666657581925392,0.5081514120101929,0.8604868650436401,0.10086711496114731,0.26794567704200745,0.2632642984390259,-0.04151887074112892,0.039654314517974854,-0.009137988090515137
292,3.1081249172577197,-0.5394846928692331,1.780386182181977,0.028709078207612038,0.5136939287185669,0.8574932813644409,0.006389595568180084,0.19186323881149292,0.22433499991893768,-0.04302182421088219,0.02805417776107788,-0.027018189430236816
293,3.1162669507777916,-0.5397066121782658,1.7433494388410937,0.021723581477999687,0.5138843059539795,0.8575847744941711,0.015036096796393394,0.3104262948036194,0.4253370761871338,0.015019586309790611,0.03489816188812256,-0.01590973138809204
294,3.122876696125644,-0.5366990721394084,1.6749174409394987,0.016083577647805214,0.5113019347190857,0.8592507243156433,-0.07276688516139984,0.506151556968689,0.7899311780929565,-0.014954445883631706,0.020649969577789307,-0.010907769203186035
295,3.13061018424324,-0.5226846725479662,1.607830796995186,0.009515923447906971,0.49920815229415894,0.8664299845695496,-0.20672129094600677,0.5926664471626282,0.942156970500946,-0.046762630343437195,0.02300870418548584,-0.015721917152404785
296,3.1374414551549688,-0.5074401335172123,1.5574357455656012,0.003628101898357272,0.4859415292739868,0.8739840388298035,-0.18503519892692566,0.5598770976066589,0.8181270360946655,-0.10009415447711945,0.034566402435302734,-0.018652498722076416
297,-3.1361378368454216,-0.49540752480479566,1.5421302673511401,-0.004798987414687872,0.47539022564888,0.8797618746757507,0.1680964231491089,0.36723628640174866,0.27777937054634094,-0.1292494833469391,0.07269015908241272,0.006956815719604492
298,-3.120944941932576,-0.5028711639502363,1.5802111422845437,-0.01809029094874859,0.4819432497024536,0.8760156631469727,-0.00955883413553238,0.011094759218394756,-0.006595568731427193,0.08417610824108124,0.05367076396942139,0.033087730407714844
299,-3.128901280627549,-0.5065605723409886,1.5719184092343705,-0.011097271926701069,0.4851726293563843,0.874347984790802,0.034978486597537994,0.4009002149105072,0.8946877121925354,-0.0904804915189743,0.020228952169418335,-0.00030928850173950195
300,-3.1318111486060296,-0.5097095386755993,1.4991420332492083,-0.008538004010915756,0.4879237413406372,0.8728443384170532,0.0015147998929023743,0.36142903566360474,0.8335883021354675,-0.09091879427433014,0.04736974835395813,-0.04011136293411255
301,-3.140151636085016,-0.500265520297365,1.444159760643449,-0.0012644281378015876,0.4796585440635681,0.8774545192718506,-0.13804160058498383,0.45695483684539795,0.7691702842712402,-0.11253562569618225,0.02842867374420166,0.013567328453063965
302,3.1355191848813404,-0.4790907784717116,1.371235552630107,0.005389651749283075,0.46097251772880554,0.8873981833457947,-0.10921899974346161,0.27911368012428284,0.7938417792320251,0.003231570590287447,0.04455125331878662,-0.030189871788024902
303,3.1276086437183896,-0.48118487724360737,1.3006661948793288,0.01239568367600441,0.4628298282623291,0.8863605856895447,0.07226672768592834,0.24872784316539764,0.6109445691108704,-0.060796573758125305,0.06932049989700317,-0.0724719762802124
304,3.107396738183094,-0.4930307430085538,1.240593462177323,0.030117396265268326,0.4732978343963623,0.8803874850273132,0.09458573162555695,0.2348119020462036,0.6351988911628723,-0.019543051719665527,-0.006409406661987305,0.029600858688354492
305,3.0992346670434077,-0.49063362208000094,1.1499853035875283,0.037350043654441833,0.4711848497390747,0.8812435865402222,-0.024561693891882896,0.3860935568809509,0.8509602546691895,-0.033611636608839035,0.010474145412445068,0.021848082542419434
306,3.097595301640976,-0.4802178292184624,1.0662316147078887,0.03900841623544693,0.4619723856449127,0.8860360980033875,-0.08127349615097046,0.3819032609462738,0.7525522708892822,-0.0014412812888622284,-0.010403722524642944,-0.011646389961242676
307,3.0941370142852085,-0.47519960528811667,0.9806418698108039,0.04218177869915962,0.4575159549713135,0.8882001638412476,-0.013975704088807106,0.23620577156543732,0.6356480121612549,0.03229636698961258,-0.0018733441829681396,0.027311742305755615
308,3.082093823579385,-0.4807521597223788,0.9449022111304446,0.052723370492458344,0.4624462127685547,0.8850786089897156,0.1726909726858139,-0.09089815616607666,0.1118222177028656,-0.006184060126543045,-0.010923266410827637,-0.02735137939453125
309,3.0672606951048347,-0.4987418015639296,0.9236449063498288,0.06521711498498917,0.47832098603248596,0.875760018825531,0.13495853543281555,-0.02168400213122368,0.17200371623039246,-0.010010816156864166,-0.04736700654029846,0.014178216457366943
310,3.046770917662419,-0.504246567620852,0.8575062138048889,0.08289573341608047,0.48314791917800903,0.8716054558753967,0.2869567573070526,0.18093550205230713,1.2064192295074463,0.053105853497982025,0.011679291725158691,0.014014482498168945
311,2.9991249058601914,-0.515689026734953,0.7331735094729231,0.12352141737937927,0.49313437938690186,0.8611393570899963,0.10352771729230881,0.23114539682865143,0.717633068561554,-0.05052339285612106,0.013671010732650757,0.016271531581878662
312,2.9999487438606587,-0.5212076292312185,0.679452753395961,0.1224258616566658,0.49792778491973877,0.8585333228111267,0.07361616939306259,0.1097579374909401,0.1731644719839096,-0.009953334927558899,-0.020159900188446045,0.013384222984313965
313,3.0116544208436378,-0.5090146227419007,0.6677783288679497,0.11314631253480911,0.4873170256614685,0.8658637404441833,-0.153970867395401,0.26280248165130615,0.11686811596155167,0.044812679290771484,0.012255728244781494,0.020076751708984375
314,3.0312585346846617,-0.500442014967299,0.6007238357120388,0.09660760313272476,0.4798133969306946,0.8720354437828064,0.11688799411058426,0.50169438123703,1.0372068881988525,0.12203556299209595,0.07415685057640076,-0.05952030420303345
315,3.0207331289315715,-0.49264802014060544,0.40831013709289793,0.1062282845377922,0.4729606807231903,0.8746563792228699,0.17030099034309387,0.8421719670295715,1.7321929931640625,-0.012249402701854706,0.07321244478225708,-0.0025250911712646484
316,3.0125754141265286,-0.4910763130626144,0.26676598841490934,0.11345535516738892,0.4715752899646759,0.8744966983795166,-0.00924991350620985,0.31626999378204346,0.5853045582771301,0.00681440532207489,-0.033220887184143066,0.07655304670333862
317,3.009429542549193,-0.48179148393153065,0.24692940155399976,0.11677785962820053,0.4633674621582031,0.8784383535385132,-0.14449934661388397,-0.1343296766281128,-0.1752425581216812,-0.060686513781547546,-0.004337221384048462,-0.04013550281524658
318,3.0061488200767634,-0.4742814128782006,0.2970690346099617,0.1201256513595581,0.45669928193092346,0.8814737200737,-0.12430474907159805,-0.30126363039016724,-0.609244167804718,-0.04256521910429001,0.0022088289260864258,-0.010303497314453125
319,3.018091845748648,-0.47291140897641226,0.3637105955077853,0.1096668615937233,0.45548006892204285,0.8834657073020935,-0.006745971739292145,-0.12532588839530945,-0.5684903264045715,0.01298331469297409,0.005900055170059204,-0.00755000114440918
320,3.039788037328878,-0.4730631835193243,0.41656481851349786,0.0904676541686058,0.45561519265174866,0.885567843914032,-0.060264185070991516,0.12726227939128876,-0.24097655713558197,0.034837521612644196,-0.004901081323623657,-0.0016720294952392578
321,3.0556941660378807,-0.46254535392880236,0.42650188339565326,0.07677774131298065,0.44622743129730225,0.8916200399398804,-0.04439176991581917,-0.01894541084766388,-0.17133119702339172,0.008961386978626251,0.09674131870269775,-0.06068742275238037
322,3.059979720132193,-0.47335484508615744,0.45119694210940486,0.07255849987268448,0.45587480068206787,0.8870815634727478,0.012642763555049896,-0.09057676047086716,-0.1288795918226242,0.028683580458164215,0.057858169078826904,-0.09147298336029053
323,3.061041466801339,-0.47995065422391936,0.44743474540001094,0.07137306779623032,0.46173539757728577,0.8841413259506226,0.014643194153904915,0.22328706085681915,0.268748015165329,0.0664290338754654,0.005351245403289795,0.06431424617767334
324,3.0630599410195516,-0.47600761111942463,0.3929234786199906,0.06973060965538025,0.4582342803478241,0.8860918879508972,-0.004811422899365425,0.2571258246898651,0.3673366904258728,0.013780735433101654,-0.010999202728271484,0.003953158855438232
325,3.065215711174884,-0.47229702184886774,0.373745706996105,0.06794954091310501,0.4549330472946167,0.8879297971725464,0.06744122505187988,0.07853475213050842,-0.01144400518387556,-0.08241485804319382,0.031685054302215576,-0.012441277503967285
326,3.0817734310688434,-0.4861511556804211,0.3804589463941195,0.05285690724849701,0.46722644567489624,0.8825565576553345,0.10844509303569794,0.07672542333602905,-0.02565748058259487,-0.017044510692358017,-0.0032065510749816895,0.09043562412261963
327,3.107338201199566,-0.4892870195915182,0.4018593715206567,0.03022940084338188,0.46999669075012207,0.8821503520011902,-0.19480706751346588,0.13202053308486938,-0.13102082908153534,0.07412545382976532,-0.05160066485404968,0.01906418800354004
328,3.1094962509624855,-0.46683858288215885,0.42096874838952786,0.02865702286362648,0.45006540417671204,0.8925355672836304,-0.16065095365047455,-0.14073269069194794,-0.19982874393463135,-0.01104838028550148,0.09239974617958069,-0.00023221969604492188
329,3.1054554861620964,-0.44336864568582296,0.4237773807226016,0.03263602778315544,0.4289848208427429,0.902722179889679,-0.2934776842594147,0.010597599670290947,0.19501952826976776,-0.0019353441894054413,0.06747519969940186,-0.04999983310699463
330,3.09865204954527,-0.4182710911060435,0.4092718612084594,0.039226748049259186,0.4061811864376068,0.9129502177238464,-0.2685878872871399,-0.03808915987610817,0.04412065073847771,-0.048412542790174484,0.09774026274681091,-0.055345237255096436
331,3.0994210620651397,-0.4015360361078192,0.4054130489592645,0.03880583494901657,0.39083266258239746,0.9196434617042542,0.031852226704359055,0.06816684454679489,0.0802101194858551,-0.022372115403413773,0.14102774858474731,-0.055461883544921875
332,3.097704781407055,-0.4176814498861315,0.3886232649607008,0.040102049708366394,0.4056423306465149,0.9131520390510559,-0.06034659966826439,0.007500378414988518,0.17075666785240173,0.059583622962236404,0.018964052200317383,0.04868590831756592
333,3.081846553080832,-0.3947411884521108,0.3801661426049436,0.05511859431862831,0.38456928730010986,0.9214491844177246,-0.35158291459083557,-0.36398544907569885,-0.15898054838180542,0.11874004453420639,0.11994731426239014,-0.03918588161468506
334,3.055908711281134,-0.38557933717873266,0.39444276131159267,0.07929600775241852,0.3760960102081299,0.9231817722320557,0.2101869434118271,-0.2258899062871933,0.11472158133983612,0.03554167598485947,0.09642305970191956,-0.05474269390106201
335,3.0326079079952675,-0.40536836539586446,0.3047315002901962,0.09995418041944504,0.394357293844223,0.9135051369667053,0.18712645769119263,0.4149516224861145,1.293160080909729,-0.025857485830783844,-0.08377984166145325,0.08004045486450195
336,3.027957264344247,-0.40611316240256207,0.1806717093608151,0.1041681170463562,0.3950416147708893,0.9127381443977356,0.19589665532112122,0.5135341882705688,1.0890237092971802,-0.03535100072622299,-0.09101033210754395,-0.0058168768882751465
337,3.0271954397866105,-0.4075158911983874,0.09372378846237656,0.10480009019374847,0.3963298797607422,0.9121072292327881,0.09318266063928604,0.10048335790634155,0.3102605938911438,-0.052645549178123474,-0.013746261596679688,-0.031873464584350586
338,3.0229187945127194,-0.4222057093959319,0.08428999154888173,0.10799884796142578,0.40977346897125244,0.9057712554931641,0.24357661604881287,0.001697653904557228,0.006731649860739708,0.010119423270225525,0.008988678455352783,0.01964360475540161
339,3.02102391135713,-0.4456060566824895,0.04759913718065328,0.10853180289268494,0.4310048222541809,0.8957992792129517,0.21834883093833923,0.26867324113845825,0.615562915802002,0.013843722641468048,-0.06187933683395386,0.05409115552902222
340,3.015595407857146,-0.45115671607734736,-0.02715145985599517,0.11309059709310532,0.4360068142414093,0.8928093314170837,0.05537746101617813,0.19136278331279755,0.5645932555198669,-0.02693948894739151,-0.03187784552574158,0.018842220306396484
341,3.0219600478245887,-0.4542794175795705,-0.06221637372524364,0.10724291950464249,0.4388149380683899,0.89215487241745,-0.0261820238083601,0.15511666238307953,0.10011884570121765,0.01115000993013382,-0.03898894786834717,-0.0035440921783447266
342,3.0321869134295194,-0.44541890115157823,-0.08258192857958152,0.09853421896696091,0.43083593249320984,0.8970348834991455,-0.08428330719470978,0.28440773487091064,0.37059029936790466,-0.03200588375329971,-0.01662081480026245,0.027037501335144043
343,3.0479611789262355,-0.43990443055235684,-0.11252179901976722,0.08459330350160599,0.4258529841899872,0.9008290767669678,-0.021115485578775406,0.2915100157260895,0.25485748052597046,-0.022337451577186584,-0.006785660982131958,-0.02050381898880005
344,3.0614881191516483,-0.4387899820403894,-0.13659335771299405,0.07243843376636505,0.4248443841934204,0.9023637771606445,0.01987592503428459,0.16618317365646362,0.11948946863412857,0.05926018953323364,-0.016152888536453247,0.05401158332824707
345,3.074825911650624,-0.43847682135089133,-0.1475814761619436,0.060405660420656204,0.42456087470054626,0.9033820033073425,-0.05650725215673447,0.1817825883626938,0.09297904372215271,0.014545507729053497,-0.025238394737243652,-0.00163346529006958
346,3.0847091811213803,-0.43272735517244054,-0.15698737002076202,0.05161241814494133,0.4193483293056488,0.9063571095466614,0.09590169042348862,0.11137726157903671,-0.03459412604570389,0.0022205859422683716,0.0034574568271636963,-0.04411345720291138
347,3.0949148434682563,-0.4400012297837153,-0.14949310892534765,0.0422164611518383,0.4259405732154846,0.9037655591964722,-0.04344124346971512,0.12180234491825104,-0.1274080127477646,0.013645961880683899,-0.024024128913879395,-0.0020933151245117188
348,3.116828046963531,-0.43087930753985126,-0.15902085935567298,0.02249879390001297,0.4176698923110962,0.9083203077316284,0.05143081769347191,0.34622782468795776,0.4014168679714203,0.01065855473279953,-0.0002809762954711914,0.002293705940246582
349,3.1373563838949154,-0.4388513163367707,-0.22261377933168586,0.0038348303642123938,0.4248999059200287,0.9052321314811707,0.11358816921710968,0.49862760305404663,0.6263673901557922,0.005396734923124313,-0.019779086112976074,-0.011463940143585205
350,-3.1221957724131326,-0.43939978163872667,-0.2959123051194707,-0.017553215846419334,0.4253963530063629,0.9048369526863098,-0.13369326293468475,0.5503389835357666,0.5959210395812988,-0.024667851626873016,-0.032207876443862915,-0.00026535987854003906
351,-3.097175859517153,-0.41308346752982966,-0.35127368066645487,-0.04066740348935127,0.40143534541130066,0.9149839878082275,-0.18960177898406982,0.42926496267318726,0.46342021226882935,-0.017972122877836227,0.019554615020751953,-0.01711118221282959
352,-3.072583008509163,-0.4078029187877047,-0.3942571926390555,-0.06330019235610962,0.3965933918952942,0.9158092737197876,-0.0169159397482872,0.3227424919605255,0.3866194188594818,-0.03737729787826538,0.012052178382873535,-0.02011847496032715
353,-3.065844674967976,-0.40022265825041364,-0.4188909510888104,-0.06969523429870605,0.38962340354919434,0.9183331727981567,-0.10683304816484451,0.03752994164824486,0.10978035628795624,-0.08968279510736465,0.06994074583053589,0.0033432841300964355
354,-3.0614573815543347,-0.4072185476706842,-0.4277580896144075,-0.0735035389661789,0.3960568606853485,0.9152790307998657,0.19103150069713593,0.10598751157522202,0.09817153215408325,-0.11186021566390991,0.02873244881629944,-0.012508273124694824
355,-3.0494626589744342,-0.43306213907363783,-0.43102012982122456,-0.0835067555308342,0.41965222358703613,0.9038354158401489,0.1662733256816864,0.0084221251308918,-0.007378047797828913,-0.0747726634144783,-0.05995678901672363,0.05789542198181152
356,-3.043453830501703,-0.43721655373227547,-0.4217428357604708,-0.08876463025808334,0.4234195053577423,0.9015746712684631,-0.01731189899146557,-0.08065728843212128,-0.061565183103084564,-0.03423647582530975,-0.09169334173202515,0.06052255630493164
357,-3.0465289202140453,-0.41981686089040393,-0.40371658244684405,-0.08667806535959244,0.4075932204723358,0.9090406894683838,-0.03396341949701309,-0.16230282187461853,-0.2184167355298996,-0.06891579926013947,-0.017349720001220703,0.01776301860809326
358,-3.051408950066804,-0.40694828446454673,-0.38834518284020486,-0.08270644396543503,0.39580869674682617,0.9146009087562561,-0.1670248806476593,-0.15546894073486328,-0.04005458578467369,-0.05747605115175247,-0.021449625492095947,-0.01747584342956543
359,-3.072867035170193,-0.3892229217920772,-0.40497528167316055,-0.06353519856929779,0.3794695734977722,0.9230201840400696,-0.1755264550447464,-0.1572152078151703,0.2008931189775467,-0.1348595768213272,0.06872683763504028,0.0028069019317626953
360,-3.077955618835466,-0.3939481760763396,-0.3926805413443205,-0.058722835034132004,0.38383713364601135,0.9215316772460938,0.05382785201072693,-0.039958760142326355,-0.4071517586708069,-0.036842960864305496,-0.01820605993270874,-0.012291014194488525
361,-3.1059479703473145,-0.3729552826660448,-0.39782149523922244,-0.03318724036216736,0.36436915397644043,0.9306628704071045,-0.44640108942985535,-0.5833449363708496,0.05854940041899681,0.06819090992212296,0.07062837481498718,-0.015227258205413818
362,3.1408831942046183,-0.33837149799828997,-0.3357960803475315,0.0006692302995361388,0.331951379776001,0.943295955657959,-0.15237855911254883,-0.47351372241973877,-0.6869123578071594,0.12195039540529251,0.06491437554359436,-0.02949315309524536
363,3.1192427354125383,-0.32958748002440624,-0.33464436234347733,0.021145202219486237,0.3236527442932129,0.9459400177001953,0.016981743276119232,-0.07905787229537964,0.3311789929866791,-0.01095232367515564,0.08455049991607666,-0.06517183780670166
364,3.1100936440612985,-0.32294976183252355,-0.35118797707163946,0.029865670949220657,0.31736519932746887,0.9478327631950378,-0.23116526007652283,0.09471005201339722,-0.008140874095261097,0.051967211067676544,-0.007108330726623535,0.03666406869888306
365,3.119970481778223,-0.30398752051623185,-0.37040006087389865,0.020629195496439934,0.2993272840976715,0.9539273977279663,-0.02593984454870224,0.108901247382164,0.0988178476691246,0.05500862002372742,0.07741221785545349,-0.056527554988861084
366,3.12534543102432,-0.3065995193525383,-0.34732926404292597,0.015488854609429836,0.30181849002838135,0.9532393217086792,-0.10131210833787918,-0.009092718362808228,-0.231913223862648,0.05467105284333229,-0.01376315951347351,0.050224125385284424
367,3.1164675706183504,-0.29641903594926344,-0.3487247842035998,0.024026816710829735,0.2920973002910614,0.9560868144035339,-0.03318389877676964,-0.12000175565481186,-0.08570937812328339,0.10050016641616821,0.019655048847198486,-0.01345980167388916
368,3.09270899117551,-0.30242885842186135,-0.3134113385211289,0.04664652794599533,0.2978397011756897,0.953475296497345,0.12477963417768478,-0.2849579453468323,-0.4988711178302765,-0.017944753170013428,0.030453085899353027,-0.05021625757217407
369,3.0800764510188614,-0.32207749527697244,-0.26912194559945707,0.058316245675086975,0.31653791666030884,0.9467857480049133,0.18588048219680786,-0.21131785213947296,-0.44935253262519836,-0.014035232365131378,0.00778767466545105,0.011176347732543945
370,3.085708010702888,-0.33011997536761895,-0.23902015137464894,0.05283954739570618,0.3241565227508545,0.9445265531539917,-0.019723450765013695,0.03617951273918152,-0.08227609843015671,0.06437847018241882,-0.02723577618598938,-0.015830934047698975
371,3.0926086117183025,-0.348659240288775,-0.21709196865930436,0.04601835086941719,0.3416380286216736,0.9387044310569763,0.29314467310905457,-0.0321381650865078,-0.3317875862121582,0.024675626307725906,-0.019936949014663696,-0.015684962272644043
372,3.0928671972964614,-0.3637556817169032,-0.1772668391795201,0.04551919177174568,0.35578668117523193,0.9334579110145569,0.08404915034770966,-0.336882084608078,-0.4945109784603119,0.09000936150550842,-0.006986051797866821,0.028074562549591064
373,3.097723498198742,-0.3646411142974774,-0.15788251622033472,0.04097169265151024,0.35661402344703674,0.9333529472351074,-0.373291015625,0.20788072049617767,0.3288840651512146,0.16084104776382446,-0.20643702149391174,0.18621492385864258
374,3.11193674381948,-0.2761845216434241,-0.1912950669216029,0.02852785959839821,0.27268674969673157,0.961679995059967,-1.0366216897964478,0.3926827907562256,0.5506055355072021,0.06737364083528519,-0.03594660758972168,0.12596666812896729
375,3.1213006385808293,-0.17183599497123908,-0.2759351231095989,0.019991794601082802,0.17099158465862274,0.985069751739502,-0.942710280418396,0.20575003325939178,0.4936702251434326,-0.06941501051187515,0.19468531012535095,-0.0956958532333374
376,3.094879434123745,-0.11618305247666562,-0.25361982440695724,0.04638141393661499,0.11592184752225876,0.9921746850013733,-0.14183470606803894,-0.3670273721218109,-0.9771966338157654,-0.20398946106433868,0.18406590819358826,0.07365155220031738
377,3.134678676738669,-0.12940499861362723,-0.1843545786198467,0.0068561118096113205,0.12904414534568787,0.9916148781776428,0.17996570467948914,0.8380729556083679,-0.125120148062706,-0.14650455117225647,-0.018387436866760254,0.2665635347366333
378,-3.055464370087854,-0.1352997695428471,-0.1445693564149907,-0.08523568511009216,0.13488735258579254,0.9871881008148193,-0.05475430190563202,0.3761620819568634,-0.5849516987800598,-0.003280550241470337,0.09329257905483246,0.013574838638305664
379,-3.065536759368552,-0.12925889988153566,-0.0930264607649221,-0.07534873485565186,0.12889926135540009,0.9887911081314087,0.043387457728385925,-0.4906542897224426,-0.7016199827194214,0.01750265061855316,0.1691964566707611,-0.18106698989868164
380,-3.096872418801249,-0.14885558902841442,-0.035327323437246545,-0.044210970401763916,0.1483064740896225,0.9879530668258667,0.04536083713173866,0.09062010794878006,-0.10331512242555618,0.011251971125602722,-0.03256849944591522,-0.18192243576049805
381,-3.063228672847617,-0.13401900142899542,-0.034112531266028506,-0.07758180797100067,0.13361817598342896,0.9879913926124573,-0.05269218608736992,-0.03438294306397438,0.016010941937565804,0.10103457421064377,0.10376279056072235,-0.0452730655670166
382,-3.0587868614406384,-0.130245974786392,-0.007382553352680412,-0.08201061934232712,0.12987804412841797,0.9881324768066406,0.018790865316987038,0.10911114513874054,-0.12570442259311676,0.008081793785095215,-0.018748298287391663,0.11100375652313232
383,-3.0601510075034266,-0.10277816277311645,-0.011652692494274895,-0.08092235773801804,0.10259731113910675,0.9914259910583496,-0.3551592230796814,-0.06305838376283646,0.26994848251342773,0.008748285472393036,0.08273594081401825,0.1657700538635254
384,-3.0472083467391493,-0.1315441061000959,-0.012853087763149428,-0.0934300348162651,0.1311650574207306,0.9869482517242432,0.1949499547481537,0.6771712899208069,0.3470422029495239,-0.09965468943119049,-0.1009831577539444,0.2729700803756714
385,-2.953377026852745,-0.11899596669105351,-0.007684223085853897,-0.18578317761421204,0.1187153309583664,0.9753928780555725,-0.299350380897522,0.7175513505935669,-0.7449543476104736,0.02428416907787323,0.1506022810935974,0.1716713309288025
386,-2.9523497116856006,-0.07377292196913449,0.062130242185304524,-0.1876036822795868,0.07370602339506149,0.979475200176239,-0.4278644025325775,-0.19251392781734467,-0.6500803828239441,-0.016116365790367126,0.031030289828777313,0.1342940330505371
387,-2.9494332891977475,-0.05442336550609871,0.1165874532666041,-0.19069620966911316,0.054396502673625946,0.9801408648490906,0.20290085673332214,0.10171450674533844,-0.22337475419044495,-0.03130394220352173,0.03828538581728935,-0.1225053071975708
388,-2.921562003209874,-0.05972252703501628,0.13657367906708584,-0.21787044405937195,0.05968702957034111,0.9741510152816772,-0.05691078305244446,0.38693785667419434,-0.36410897970199585,-0.03771430253982544,0.014684312045574188,-0.1374809741973877
389,-2.88627726473205,-0.03300649236584853,0.14346939848101334,-0.25241297483444214,0.03300049901008606,0.9670565128326416,-0.1703656017780304,0.06678617745637894,-0.3535168170928955,0.12564301490783691,-0.026820696890354156,-0.2663273215293884
390,-2.912297346957558,-0.01509565808229615,0.1386523727140572,-0.22726549208164215,0.01509508490562439,0.9737160801887512,-0.05206996202468872,-0.5851864814758301,-0.1543438583612442,0.10432536900043488,-0.02530321106314659,-0.1899482011795044
391,-2.9634167494539403,0.0030901250169709338,0.12261438899719164,-0.17723381519317627,-0.00309012015350163,0.9841639399528503,-0.28021547198295593,-0.44037702679634094,-0.0972660705447197,0.03802788257598877,-9.896676056087017e-05,-0.04791516065597534
392,-2.9851791865067687,0.033911427083411626,0.11367604762019436,-0.1556869000196457,-0.03390492871403694,0.9872243404388428,-0.01098217535763979,0.27219608426094055,-0.31973662972450256,0.0011611580848693848,0.08653249591588974,-0.031093478202819824
393,-2.8993313994568397,0.014452458584418132,0.142168052478189,-0.23987343907356262,-0.014451955445110798,0.970696747303009,0.2886405885219574,0.9801428318023682,-0.5245948433876038,0.12772130966186523,-0.03771784529089928,-0.12401700019836426
394,-2.8596969919470157,0.007568296765485873,0.16323458853065778,-0.27816903591156006,-0.007568224333226681,0.9605023860931396,0.24551813304424286,0.09512625634670258,-0.29707857966423035,0.010148406028747559,0.07431016862392426,-0.02609992027282715
395,-2.835260074862675,-0.00150393382038643,0.17116287413995762,-0.30156365036964417,0.0015039332211017609,0.9534448981285095,0.19622662663459778,0.21651402115821838,0.12387261539697647,0.10440483689308167,-0.03156374767422676,-0.015807628631591797
396,-2.83861090592143,-0.006905443203504316,0.1487049709281936,-0.2983604073524475,0.006905388552695513,0.9544285535812378,-0.12356150150299072,0.00878645945340395,0.2606148421764374,-0.045267581939697266,-0.018471548333764076,0.04853188991546631
397,-2.830123472802501,-0.0009012125328695491,0.12535738079014933,-0.30645737051963806,0.0009012123919092119,0.9518840909004211,-0.09516991674900055,0.08112834393978119,0.0174235999584198,0.037261784076690674,-0.02061556838452816,-0.049494385719299316
398,-2.826742192670021,-0.002995142879582845,0.09975044186903936,-0.30967283248901367,0.0029951382894068956,0.9508382678031921,-0.05168340355157852,-0.009695397689938545,0.05937981605529785,-0.03928038477897644,0.028941506519913673,-0.014681220054626465
399,-2.8269213745655484,0.0015021105114388514,0.08325991425657982,-0.30950355529785156,-0.0015021099243313074,0.9508970975875854,-0.08452706038951874,-0.20049475133419037,0.22695232927799225,0.09293556213378906,0.012427402660250664,-0.10975635051727295
400,-2.9238310072280003,0.02237080347556677,-0.006865684753832649,-0.2159905880689621,-0.022368937730789185,0.9761390686035156,-0.8070656657218933,-1.4930298328399658,0.8553310036659241,0.18196351826190948,0.003188641741871834,-0.3087502717971802
401,-3.0965178905517323,0.09915329686706653,-0.09070165744086144,-0.04483819380402565,-0.09899090975522995,0.9940778613090515,-0.9227775931358337,-1.5390796661376953,0.33964499831199646,-0.04151129350066185,0.13306376338005066,-0.2142162322998047
402,3.027208505611984,0.15793322232518248,-0.1508093954506851,0.11271438747644424,-0.15727749466896057,0.981100857257843,-0.4476989507675171,-1.7307519912719727,0.4342662990093231,-0.07285845279693604,0.060552045702934265,-0.13779360055923462
403,2.9305810323650143,0.19365781399508303,-0.18681832554277664,0.2055339366197586,-0.19244961440563202,0.9595410823822021,0.44315487146377563,-0.10245588421821594,0.17788410186767578,-0.1737651526927948,0.13060574233531952,0.08226799964904785
404,2.9831088026935655,0.0857964646783139,-0.20351970867530278,0.15724076330661774,-0.08569124341011047,0.9838356971740723,1.3939770460128784,0.8791245818138123,-0.09148310869932175,-0.09759414196014404,-0.03473112732172012,0.07689440250396729
405,3.0535018620629315,-0.04513839069360454,-0.20006318925181524,0.08788727968931198,0.045123063027858734,0.9951077699661255,0.8989590406417847,0.2260187715291977,0.026814991608262062,0.06489896774291992,-0.14137551188468933,0.06228041648864746
406,3.0608017837395503,-0.08701090931610295,-0.220219349327665,0.08039771020412445,0.08690115809440613,0.9929675459861755,-0.04119204357266426,-0.41173848509788513,0.1620999574661255,0.04777611792087555,-0.03982779383659363,-0.01568782329559326
407,3.015265102363043,-0.04890121323376643,-0.23836688228528236,0.1258411854505539,0.04888172447681427,0.9908453226089478,-0.6288374066352844,-0.3317500948905945,0.6162728071212769,0.09425157308578491,-0.09207935631275177,0.04545527696609497
408,3.001059532205954,-0.049593109040708315,-0.24632544305443818,0.13989877700805664,0.04957278445363045,0.9889240264892578,0.3537735641002655,0.002842429094016552,-0.18311291933059692,-0.048223987221717834,0.016879238188266754,0.06896770000457764
409,3.0127461392656345,-0.10215262647208082,-0.2572792578665601,0.12782052159309387,0.10197505354881287,0.986541211605072,0.5139204263687134,-0.19772493839263916,-0.07198575139045715,-0.0016913414001464844,0.020247869193553925,0.08810508251190186
410,3.064569531993018,-0.14549273939029242,-0.29010981590066076,0.07613401859998703,0.14497998356819153,0.986501157283783,1.0271707773208618,0.5208296179771423,0.4318050146102905,-0.01320677250623703,0.16010424494743347,0.08690893650054932
411,-3.1040758185505815,-0.18596660613493718,-0.3454446916482465,-0.036861322820186615,0.1848965585231781,0.9820665121078491,0.6262906193733215,1.6905955076217651,1.4825681447982788,0.10306920856237411,-0.2413845956325531,0.07365858554840088
412,-3.067774076371638,-0.279767051845898,-0.3967640651014084,-0.0708840861916542,0.2761317789554596,0.958502471446991,0.9323373436927795,0.1413135677576065,0.18496215343475342,0.1829446405172348,-0.018059849739074707,-0.011801362037658691
413,-3.063592165665142,-0.35467900906768157,-0.48284467884341226,-0.0730714276432991,0.34728938341140747,0.9349066615104675,0.37286704778671265,0.36763834953308105,0.48792293667793274,0.2538575828075409,0.06317201256752014,0.0689384937286377
414,-3.1245850372409985,-0.41695273437179664,-0.5250911012096121,-0.015549774281680584,0.40497612953186035,0.9141948223114014,0.029045719653367996,-0.8560163974761963,-0.20045311748981476,0.005219573155045509,0.029609382152557373,0.21999073028564453
415,3.125723673647763,-0.4379091766439239,-0.5251249499242572,0.014370981603860855,0.4240468740463257,0.9055260419845581,0.41224169731140137,0.4705309271812439,0.6135327816009521,-0.15223415195941925,-0.06412261724472046,0.07413381338119507
416,-3.1364261127717765,-0.4702929117238073,-0.5670939940093487,-0.004605618305504322,0.45314741134643555,0.891423761844635,0.5518470406532288,-0.11133871227502823,-0.007475829683244228,-0.062075287103652954,-0.06462806463241577,0.10459375381469727
417,-3.104993936970524,-0.48951314025574444,-0.5927463323694202,-0.032293420284986496,0.4701962471008301,0.8819708824157715,0.03948118910193443,0.15227727591991425,-0.10513237118721008,0.031210049986839294,-0.06553316116333008,0.026751041412353516
418,-3.09859611482656,-0.4855098796056613,-0.5561014961644289,-0.03801600635051727,0.4666593670845032,0.8836194276809692,-0.013206101953983307,-0.3456685543060303,-0.32749035954475403,0.030554477125406265,0.04307559132575989,-0.00237882137298584
419,-3.0991323477585864,-0.48148575749553424,-0.4935601193051514,-0.03762158751487732,0.4630965292453766,0.8855088353157043,-0.051437314599752426,-0.35929664969444275,-0.7496544122695923,0.021020032465457916,0.03943634033203125,-0.04874753952026367
420,-3.0996288970414203,-0.4822381823810664,-0.4312503632601219,-0.0371672697365284,0.4637632668018341,0.885179340839386,-0.034389037638902664,0.020691290497779846,-0.35073602199554443,0.023312285542488098,0.010037392377853394,0.02230668067932129
421,-3.059670124414958,-0.4907665179960003,-0.3986255363018969,-0.07217257469892502,0.4713020622730255,0.8790139555931091,0.3234318196773529,0.1539429873228073,-0.15989144146442413,-0.023561060428619385,0.0311545729637146,-0.1216745376586914
422,-3.0400247435490497,-0.5027694767151589,-0.4170254194427303,-0.0888461023569107,0.4818541407585144,0.8717357516288757,-0.104646235704422,0.33567818999290466,0.5166395306587219,0.020700350403785706,-0.0011565089225769043,0.03404128551483154
423,-3.0379791764401114,-0.5051455810919582,-0.45243592413501893,-0.09051044285297394,0.48393484950065613,0.8704109787940979,-0.057664573192596436,-0.11810140311717987,0.11944039911031723,-0.037739694118499756,0.05769118666648865,-0.021106600761413574
424,-3.0572537924900893,-0.48674973836449037,-0.4697602921966671,-0.07445524632930756,0.46775558590888977,0.8807165622711182,-0.10180673003196716,0.02029135636985302,0.04458986222743988,-0.06038668751716614,0.05765038728713989,0.010412216186523438
425,-3.0674376601489985,-0.4941684860378407,-0.47338173303846603,-0.06522353738546371,0.4742997884750366,0.8779441714286804,0.07648451626300812,-0.024563737213611603,-0.003831034293398261,-0.08852402865886688,0.028568923473358154,-0.013976097106933594
426,-3.049668284425229,-0.4915465552342859,-0.464254220729441,-0.0809268206357956,0.4719898998737335,0.8778820037841797,-0.1506834775209427,0.1688062846660614,-0.055649783462285995,-0.0657559186220169,-0.020192354917526245,-0.004026293754577637
427,-3.0240153347105676,-0.4771235247805542,-0.4631287502144915,-0.10420576483011246,0.4592258632183075,0.8821865320205688,0.03160693496465683,0.22367602586746216,0.02394045516848564,0.009021423757076263,0.06285369396209717,0.015961170196533203
428,-3.002963983141097,-0.48496618616656395,-0.45158989388356113,-0.12225104868412018,0.46617844700813293,0.8762033581733704,-0.07624301314353943,0.10123580694198608,-0.04934635013341904,0.06451179832220078,-0.03523975610733032,0.03856098651885986
429,-2.9977648655818943,-0.4745547646911301,-0.4427016350239529,-0.1274937093257904,0.45694246888160706,0.8803122043609619,0.008922872133553028,-0.08417219668626785,-0.05953372269868851,0.07385903596878052,0.023907870054244995,-0.0050830841064453125
430,-3.0112316798587897,-0.47992088494667307,-0.4404496230044401,-0.11530705541372299,0.46170899271965027,0.8795050978660583,0.03772837668657303,-0.07290632277727127,0.08405051380395889,0.006679728627204895,0.03546819090843201,-0.011188387870788574
431,-3.0179897997684004,-0.47946403546719296,-0.45306078237696107,-0.10938667505979538,0.4613037109375,0.8804736137390137,0.010319609194993973,-0.05842236801981926,0.14084944128990173,0.034908510744571686,0.050842344760894775,-0.04677903652191162
432,-3.0364443656537135,-0.5000101519434583,-0.46730713128095297,-0.09210585802793503,0.47943446040153503,0.8727309107780457,0.11006268858909607,-0.06852952390909195,0.03776564821600914,-0.024822235107421875,-0.024341046810150146,0.013347029685974121
433,-3.0387531783791077,-0.507893940519824,-0.4694742615670803,-0.08969979733228683,0.4863381087779999,0.869154155254364,0.08288207650184631,-0.17241084575653076,-0.07299311459064484,-0.03230947256088257,-0.009317904710769653,-0.0077193379402160645
434,-3.0533233973320355,-0.5059680484744122,-0.4632068787671038,-0.07710938155651093,0.48465442657470703,0.8713001012802124,0.15803653001785278,-0.1788206398487091,-0.055434729903936386,-0.07663816213607788,0.040354639291763306,-0.009331285953521729
435,-3.0577956361455407,-0.5122329386680828,-0.44755432366399783,-0.0729563906788826,0.49012482166290283,0.8685935735702515,-0.12128518521785736,-0.05754760652780533,-0.2484854757785797,-0.060924217104911804,-0.0016605257987976074,0.056088924407958984
436,-3.0443947168490326,-0.4937430224376133,-0.42663576995188046,-0.08545438945293427,0.4739251732826233,0.8764086961746216,-0.5874310731887817,0.12143003940582275,0.28556278347969055,0.06877654790878296,-0.16859686374664307,0.09008288383483887
437,-3.0264249043590787,-0.4213613583577618,-0.4983819021629189,-0.10486220568418503,0.4090031087398529,0.9064880013465881,-0.5136711001396179,0.7316794991493225,0.5340496301651001,-0.031032569706439972,0.057305485010147095,0.03084421157836914
438,-2.982732249523715,-0.4071624042897487,-0.5450428751434788,-0.1452604979276657,0.3960053026676178,0.9066858291625977,-0.48613324761390686,0.4994433522224426,-0.028473274782299995,0.08221116662025452,0.07813102006912231,-0.10160160064697266
439,-2.940833826313677,-0.3674834933070962,-0.5427832807724638,-0.18609903752803802,0.35926806926727295,0.914490818977356,-0.1690574735403061,0.3291911780834198,0.23479725420475006,-0.02003192901611328,0.0008088052272796631,0.04925423860549927
440,-2.874924841299517,-0.3290633027415612,-0.6232249906605107,-0.24937951564788818,0.3231567442417145,0.9128961563110352,-0.5224190950393677,1.1705477237701416,0.2664763331413269,-0.04134616255760193,0.08197936415672302,0.020560145378112793
441,-2.8151464646052444,-0.2489175338239314,-0.575961734190207,-0.31079551577568054,0.24635499715805054,0.9179953932762146,-0.5179042220115662,-0.1216171532869339,-0.9069371223449707,0.10559529066085815,0.11559876799583435,-0.050121188163757324
442,-2.776050758557018,-0.18448504107743427,-0.5434866699162065,-0.3513897657394409,0.18344034254550934,0.9180822372436523,-0.4895256459712982,0.8297109007835388,0.09438546746969223,0.03843200206756592,-0.042113423347473145,0.06269168853759766
443,-2.717598977483599,-0.15204090934451386,-0.6297193145123656,-0.4066578149795532,0.1514558047056198,0.9009386301040649,-0.6583364009857178,0.30090129375457764,1.208787202835083,0.09693494439125061,-0.053265511989593506,-0.04720950126647949
444,-2.688129756443111,-0.10526653726765714,-0.6698842182285647,-0.43565598130226135,0.10507223755121231,0.8939592242240906,-0.5528284311294556,-0.3681933283805847,-0.9771456122398376,0.07179498672485352,-0.013565294444561005,-0.05435991287231445
445,-2.7774681745347567,-0.05941455528961546,-0.606896941153394,-0.3555028438568115,0.05937960371375084,0.9327869415283203,-0.010962007567286491,-1.7495187520980835,-0.4311700165271759,0.062473177909851074,-0.04579930007457733,0.012311756610870361
446,-2.8891259174004342,0.0010553064303734786,-0.5582957466350243,-0.2497931718826294,-0.001055306289345026,0.9682988524436951,-0.6293627023696899,-0.7821699976921082,-0.5953947901725769,0.03322514891624451,-0.012525014579296112,0.04102444648742676
447,-2.921242955060239,0.06584227968197494,-0.5438374430367541,-0.2180972844362259,-0.06579471379518509,0.9737066626548767,-0.46515870094299316,-0.11322446912527084,0.005537787918001413,0.0018192082643508911,-0.045136675238609314,-0.10076659917831421
448,-2.9367729746866233,0.0912959416018446,-0.5567236480934818,-0.20254361629486084,-0.09116917103528976,0.9750203490257263,-0.2072993963956833,-0.3381059467792511,-0.10877540707588196,0.04710228741168976,0.025342732667922974,0.002656221389770508
449,-2.9205533185024897,0.14154815889874214,-0.5448954617494947,-0.21705110371112823,-0.1410759538412094,0.9659123420715332,-0.6061871647834778,0.5182488560676575,-0.3401523530483246,0.07531218230724335,0.04059681296348572,-0.008301138877868652
450,-2.877404163127387,0.1647928544221975,-0.531204721233885,-0.2575884759426117,-0.1640480011701584,0.9522275328636169,-0.49527716636657715,1.0044926404953003,0.027784202247858047,0.059056252241134644,-0.03614738583564758,0.16042852401733398
451,-2.8780231053229492,0.1765777160469986,-0.5132990560351061,-0.256477415561676,-0.17566153407096863,0.9504537582397461,0.1353011280298233,-0.2621690630912781,-0.19385352730751038,-0.025993287563323975,0.04619070887565613,-0.1599874496459961
452,-2.8977941143073345,0.16550191106638212,-0.5173670580071892,-0.23809218406677246,-0.16474740207195282,0.9571679830551147,-0.0781724750995636,-0.17491479218006134,0.24100361764431,-0.03534531593322754,0.01244942843914032,0.054215073585510254
453,-2.890634041262529,0.19514697703096304,-0.5489506883197254,-0.2436191588640213,-0.19391071796417236,0.9502887725830078,-0.312423974275589,0.10885286331176758,0.26255691051483154,0.01037326455116272,0.042863935232162476,-0.03595149517059326
454,-2.8869215922935036,0.16907554406383404,-0.5484041953099356,-0.2483348399400711,-0.16827115416526794,0.9539470076560974,0.47218820452690125,0.03879440575838089,-0.11339940130710602,0.03494065999984741,-0.04045385122299194,0.030855298042297363
455,-2.8909791120117263,0.12470589652531401,-0.5261348393476912,-0.24607253074645996,-0.12438292056322098,0.9612374901771545,0.5365148186683655,0.00580661091953516,0.1446799635887146,0.09128731489181519,-0.03342351317405701,-0.014688849449157715
456,-2.9106345958037463,0.053898857043601804,-0.5449329607475267,-0.22857780754566193,-0.053872764110565186,0.9720338582992554,0.7137851119041443,-0.30629098415374756,0.5162725448608398,0.09813043475151062,-0.08968191593885422,0.025524675846099854
457,-2.9291539052194997,-0.05873018424359454,-0.6043566664003716,-0.2104809582233429,0.05869642645120621,0.9758344292640686,1.2959346771240234,-0.16616562008857727,1.3071759939193726,0.14874385297298431,-0.05811657756567001,-0.05847585201263428
458,-2.9337958371728288,-0.12813132422976536,-0.7418200972816378,-0.20461341738700867,0.1277810037136078,0.9704666137695312,-0.16130250692367554,-0.29480448365211487,1.007550597190857,0.08145974576473236,0.026576906442642212,-0.04563140869140625
459,-3.0187959744688726,-0.18851751511017245,-0.732510342006168,-0.12031818181276321,0.1874028742313385,0.974886417388916,1.0450725555419922,-1.31400728225708,-0.5934313535690308,0.08183552324771881,0.1021326333284378,-0.12945806980133057
460,3.1278694597359804,-0.32576021073332734,-0.6520827902182946,0.013001053594052792,0.3200291097164154,0.9473186731338501,1.3041020631790161,-1.5785164833068848,-0.5182850360870361,-0.07200679183006287,0.08121603727340698,0.05474138259887695
461,3.006155804914845,-0.45602631965377294,-0.6193121143101273,0.12122508883476257,0.4403839707374573,0.8895877599716187,0.9958237409591675,-1.1047892570495605,-0.3609085977077484,-0.17115184664726257,-0.07890325784683228,0.17082178592681885
462,2.9810774380605887,-0.4885510313425869,-0.5977227103342485,0.14112931489944458,0.46934691071510315,0.8716628551483154,0.3282642960548401,0.1746481955051422,-0.09593283385038376,-0.11663894355297089,-0.07734858989715576,0.09966599941253662
463,3.036830183785044,-0.4694842394778627,-0.5787370560155184,0.09325657784938812,0.45242640376091003,0.8869126439094543,-0.02565055713057518,0.4325602352619171,-0.1298758089542389,0.03905240446329117,-0.037722885608673096,0.0009201765060424805
464,3.066296526428161,-0.5045798740432925,-0.5580555404317038,0.06585028767585754,0.48343971371650696,0.8728973865509033,0.6181991100311279,-0.15924715995788574,-0.5155400037765503,0.06996820122003555,0.03361961245536804,-0.06782841682434082
465,3.061699247747378,-0.5537196693143416,-0.5001973184068033,0.06788302958011627,0.5258547067642212,0.8478614091873169,0.19811464846134186,-0.2839052975177765,-0.32298874855041504,0.06041286885738373,0.02166116237640381,0.007805824279785156
466,3.063061137047823,-0.5912943492901507,-0.4580634299899993,0.06513143330812454,0.5574361085891724,0.8276610970497131,0.29216238856315613,-0.17651139199733734,-0.22953231632709503,0.04485391825437546,-0.014238476753234863,-0.02976381778717041
467,3.067793566830012,-0.6148054160806526,-0.45397395007328184,0.06023073568940163,0.5767995715141296,0.814662516117096,0.3677273392677307,0.027338281273841858,-0.019825506955385208,0.035792842507362366,0.023725390434265137,-0.005961716175079346
468,3.0810234054378807,-0.6527682931794212,-0.457470415837373,0.048087138682603836,0.607387900352478,0.7929489016532898,0.2866774797439575,0.1708296537399292,0.07738040387630463,0.013360008597373962,-0.0064203739166259766,-0.02775108814239502
469,3.0881970309762514,-0.673391135965603,-0.4552013293750642,0.04172014072537422,0.6236404776573181,0.7805973887443542,0.1866130828857422,0.012075421400368214,-0.15136516094207764,-0.00557207316160202,0.00648653507232666,0.004894614219665527
470,3.103553919885915,-0.6872108426732818,-0.44379189954725523,0.02939755842089653,0.6343835592269897,0.7724594473838806,0.05040821060538292,0.07848693430423737,-0.04608093947172165,0.004766881465911865,6.175041198730469e-05,-0.0014479756355285645
471,3.1258372457118524,-0.688429528208063,-0.4423305579139626,0.0121665233746171,0.6353251934051514,0.772148609161377,0.04199015721678734,0.2849566638469696,0.02410963550209999,0.006662820465862751,0.020894110202789307,-0.05007237195968628
472,-3.1382042255755693,-0.6883198053759104,-0.4573512879975722,-0.00261692819185555,0.6352404356002808,0.7723103761672974,-0.00848292000591755,0.3696940243244171,0.20243659615516663,0.0028915845323354006,-0.008195579051971436,0.011915385723114014
473,3.1410999860033946,-0.6820209350520178,-0.5015980723170754,0.00038245791802182794,0.6303631663322449,0.7763000726699829,-0.18296271562576294,0.16289862990379333,0.418142169713974,-0.0009317845688201487,-0.002708256244659424,0.06027817726135254
474,3.105342681622685,-0.6213013340392598,-0.5904515719754604,0.029469182714819908,0.5820937752723694,0.8125874996185303,-0.6673060059547424,0.1901780068874359,0.8009439706802368,-0.03531329333782196,0.014540135860443115,0.018390893936157227
475,3.0671909705169176,-0.565357974984877,-0.6326431064524475,0.06276660412549973,0.5357181429862976,0.8420608043670654,-0.448609858751297,-0.26409977674484253,0.03159588947892189,-0.03700977563858032,0.017916500568389893,0.01237034797668457
476,3.09025454472489,-0.5253032117275712,-0.6102050206494863,0.0443967767059803,0.5014753341674805,0.8640319108963013,-0.2656686305999756,0.1066201850771904,0.06627427786588669,0.0186525397002697,0.0062302350997924805,-0.01886296272277832
477,3.104717125371497,-0.5559689863711241,-0.5725513586266575,0.03131457790732384,0.5277665853500366,0.8488118052482605,0.10948541760444641,-0.4213779866695404,-0.4712957441806793,-0.10692188143730164,0.0006757378578186035,-0.07589328289031982
478,3.1159590309802425,-0.5923771287646378,-0.5286307563580958,0.02126372419297695,0.5583347082138062,0.8293430805206299,0.8215557336807251,-0.14543452858924866,-0.3733689785003662,-0.00820220448076725,0.016662180423736572,0.005083680152893066
479,3.107649348524428,-0.5999674797897568,-0.5246098976690201,0.02800985984504223,0.5646156072616577,0.8248785138130188,-0.4479261040687561,0.12876738607883453,0.47430551052093506,0.016332177445292473,0.013402462005615234,0.0420801043510437
480,3.0957565346628844,-0.5820838993498676,-0.5690484215545539,0.0382743664085865,0.5497658252716064,0.8344414830207825,-0.12383421510457993,-0.026153258979320526,-0.03450004383921623,0.056284353137016296,0.01262730360031128,-0.001052260398864746
481,3.092620256642183,-0.5658910238727609,-0.5599447426536636,0.041321635246276855,0.5361681580543518,0.8430993556976318,-0.04055801406502724,-0.05211193859577179,-0.011051672510802746,0.02598489448428154,0.01865673065185547,-0.009740471839904785
482,3.0877538252833188,-0.5675728753131238,-0.5692145783921709,0.045375410467386246,0.53758704662323,0.841986358165741,0.024544809013605118,0.12117993831634521,0.2396879941225052,0.018909867852926254,-0.021809518337249756,-0.0005100369453430176
483,3.0846126069841384,-0.5764003692625663,-0.6048900878393925,0.04774794727563858,0.545009434223175,0.837069571018219,0.29243922233581543,0.09060873091220856,0.24570484459400177,-0.008487079292535782,0.010975182056427002,0.0002872347831726074
484,3.079481087473462,-0.5833437109419419,-0.6237366848884173,0.05180657282471657,0.5508177280426025,0.8330160975456238,0.1349431872367859,-0.03934343531727791,0.17150068283081055,0.0016144439578056335,0.022775352001190186,0.025443315505981445
485,3.0620547501192785,-0.6045521070731877,-0.6251638968626883,0.06537135690450668,0.5683936476707458,0.8201554417610168,0.18146537244319916,-0.30713269114494324,-0.08284962922334671,-0.01846584677696228,-0.0127907395362854,0.02428114414215088
486,3.039824263680485,-0.6239660007480189,-0.6141718028665413,0.08244943618774414,0.5842584371566772,0.8073685765266418,0.13871616125106812,-0.1819896697998047,-0.10854305326938629,-0.05879832059144974,-0.05345100164413452,0.02435743808746338
487,3.0354739840304905,-0.6234567801756453,-0.608283883996094,0.08599243313074112,0.5838450789451599,0.8072981238365173,-0.07998042553663254,-0.07246524095535278,0.06606893241405487,-0.04985962063074112,0.007631361484527588,0.05021524429321289
488,3.0493534954764656,-0.6155564056947173,-0.6027353889034754,0.07520214468240738,0.5774129033088684,0.8129817247390747,0.014460637234151363,0.1758967936038971,-0.12040980905294418,-0.05171886086463928,0.007288694381713867,0.004858970642089844
