,attitude.roll,attitude.pitch,attitude.yaw,gravity.x,gravity.y,gravity.z,rotationRate.x,rotationRate.y,rotationRate.z,userAcceleration.x,userAcceleration.y,userAcceleration.z
0,3.106440421133275,-0.6350321444954711,-0.09254018984079963,0.02829357050359249,0.5932033658027649,0.8045552968978882,-0.42601919174194336,0.958361804485321,2.0526559352874756,0.14179614186286926,0.03138464689254761,-0.004979491233825684
1,0.07452758116770451,0.045249696135192564,-1.0834592961844816,0.07438239455223083,-0.045234255492687225,-0.9962033629417419,0.26362213492393494,0.05460396036505699,0.03165382146835327,-0.007258981466293335,0.0011058375239372253,0.06466954946517944
2,0.0526106717747311,0.05853026357446915,-1.1140968406943517,0.05249635502696037,-0.05849685147404671,-0.9969063401222229,0.25712651014328003,-0.2299513965845108,-0.28385525941848755,0.008264139294624329,0.007303614169359207,0.0065041184425354
3,0.0582795302971891,0.04685513580585831,-1.163642542161695,0.058182619512081146,-0.04683799296617508,-0.9972065687179565,-0.3687249720096588,0.10835294425487518,-0.27885106205940247,0.047637078911066055,0.002129744738340378,0.0020436644554138184
4,0.10136855660055413,0.024990787551521725,-1.2171514856024597,0.10116344690322876,-0.024988185614347458,-0.9945559501647949,-0.2568650543689728,0.02917795442044735,-0.46181339025497437,0.13928455114364624,0.013605128973722458,-0.006771564483642578
5,0.025732209794072515,0.05380926925964996,-1.2729926187159273,0.025692129507660866,-0.05378330498933792,-0.9982220530509949,0.5725504159927368,-1.4602975845336914,-0.4264282286167145,0.023776862770318985,0.02656162530183792,0.10459107160568237
6,-0.29004022613734814,0.06906327006098886,-1.208285842303972,-0.28530898690223694,-0.06900838017463684,-0.955947995185852,0.9588170647621155,-5.446353912353516,1.2938971519470215,0.16293349862098694,0.06739094853401184,-0.09451282024383545
7,-0.7682990438371533,0.13047100320643787,-1.0691903123528992,-0.6890068054199219,-0.13010115921497345,-0.7129819393157959,0.6823940873146057,-3.3559486865997314,0.5197539925575256,0.00851064920425415,-0.02080826461315155,-0.014175593852996826
8,-1.058660520481253,0.13802368452100228,-0.9913132023282614,-0.8634098768234253,-0.1375858634710312,-0.48537981510162354,0.7507400512695312,-1.7223265171051025,0.27846458554267883,-0.03705704212188721,0.015683412551879883,-0.048097968101501465
9,-1.0835039648319567,0.10467479701918693,-0.9776942252699139,-0.8787676095962524,-0.10448375344276428,-0.4656722843647003,0.8546392321586609,-0.022049885243177414,0.2601780891418457,0.03983938694000244,0.0734015703201294,-0.2278243899345398
10,-1.1039436243986585,0.09925640257012767,-0.9175463430859412,-0.8885940909385681,-0.09909350425004959,-0.44786280393600464,0.7067257761955261,-0.2826201617717743,0.5470598340034485,0.13862460851669312,0.009661741554737091,-0.08466890454292297
11,-1.2229305959804468,0.08000555067000588,-0.8265931496534744,-0.9370952248573303,-0.0799202248454094,-0.33980172872543335,0.945055365562439,-0.7044356465339661,0.13669367134571075,-0.008430838584899902,-0.013829760253429413,-0.07091906666755676
12,-1.249767973395851,0.06682895545013955,-0.760065489879612,-0.9467933177947998,-0.06677921861410141,-0.3148382008075714,0.32847559452056885,-0.6272255778312683,0.0064382110722362995,-0.034789323806762695,0.012106984853744507,-0.0379907488822937
13,-1.305792229196251,0.080629912774871,-0.7360078945621973,-0.9619560241699219,-0.08054257929325104,-0.2610623240470886,0.2771274447441101,-0.26822561025619507,0.07137205451726913,0.019313812255859375,0.0053167641162872314,-0.006836235523223877
14,-1.3161353859593268,0.07398344377251682,-0.7192201547604764,-0.9651015400886536,-0.07391597330570221,-0.2512281835079193,0.07507219165563583,0.07463966310024261,0.12702588737010956,-0.02398848533630371,0.033480189740657806,0.014228671789169312
15,-1.3437968704094334,0.07821449758587824,-0.7060580883032093,-0.9713672399520874,-0.07813477516174316,-0.2243669182062149,-0.04462931305170059,-0.37140533328056335,-0.019468408077955246,0.0037311911582946777,0.02033448964357376,0.1103227287530899
16,-1.3803981210508594,0.0798653802109803,-0.7123911060225552,-0.978799045085907,-0.07978050410747528,-0.18864668905735016,-0.03434501960873604,-0.37727558612823486,0.007701636292040348,-0.026892483234405518,0.04058066010475159,0.07907330989837646
17,-1.4095922534943726,0.07839282387575235,-0.7086151579384601,-0.9840033650398254,-0.07831255346536636,-0.1600138396024704,-0.07086002826690674,-0.1769273728132248,0.061829932034015656,-0.004186272621154785,0.02393025904893875,0.06876631081104279
18,-1.413470082822935,0.07337537074469587,-0.7125951022567123,-0.9849921464920044,-0.07330954819917679,-0.15625645220279694,0.02819100022315979,0.15954507887363434,0.070164255797863,-0.00739365816116333,0.009878754615783691,0.05974459648132324
19,-1.417017413757373,0.06978688946314969,-0.7203143628487719,-0.9857937693595886,-0.0697302594780922,-0.15280067920684814,-0.08253860473632812,-0.14479798078536987,-0.01439520064741373,0.01025378704071045,-0.0069756656885147095,0.023146778345108032
20,-1.4222903244261242,0.06564289798185419,-0.7272318670441785,-0.9868633151054382,-0.06559576839208603,-0.1476420909166336,-0.1549520045518875,0.19266851246356964,0.0738554373383522,-0.006468594074249268,-0.027284473180770874,0.025281846523284912
21,-1.4241388614986252,0.05719960725381108,-0.7225586628578504,-0.9876471161842346,-0.057168420404195786,-0.14589330554008484,-0.010706653818488121,0.011511006392538548,0.08729629218578339,0.027075886726379395,-0.05328994616866112,0.009769633412361145
22,-1.4174546085413113,0.051362392758978366,-0.7183877749723557,-0.9869628548622131,-0.05133981257677078,-0.15254005789756775,0.1687876284122467,0.04418397694826126,0.0943555235862732,-0.00458371639251709,-0.046438515186309814,-0.019533276557922363
23,-1.4083275535681765,0.04424199526813801,-0.6946378404378142,-0.9858653545379639,-0.044227562844753265,-0.16159668564796448,0.2218974530696869,0.03234747052192688,0.13972337543964386,0.016062498092651367,-0.036796629428863525,0.024343907833099365
24,-1.4135278252249956,0.04375124742375971,-0.6717102274015158,-0.9867136478424072,-0.04373729228973389,-0.1564711332321167,0.30207109451293945,-0.013364659622311592,0.12302813678979874,-0.03695273399353027,-0.010934978723526001,-0.006218075752258301
25,-1.3987936027610235,0.03480997564408987,-0.6431730891922058,-0.9846470952033997,-0.03480294719338417,-0.17105217278003693,0.4241971969604492,0.04900244623422623,0.10161464661359787,0.017758667469024658,0.001233607530593872,-0.04312014579772949
26,-1.398628025439208,0.03395411115638892,-0.6019546975304906,-0.984647810459137,-0.03394758701324463,-0.17122025787830353,0.3352258801460266,0.060515377670526505,0.06362013518810272,0.011091291904449463,0.03184187412261963,-0.026472628116607666
27,-1.404086452718053,0.040945322293446836,-0.5658225753616021,-0.9853096008300781,-0.04093388095498085,-0.16579967737197876,0.5267431735992432,0.05855955556035042,-0.09481318295001984,0.02940744161605835,0.06894901394844055,-0.07536549866199493
28,-1.406266584025039,0.04174368393741765,-0.5068156019204502,-0.9856360554695129,-0.041731562465429306,-0.16364574432373047,0.5297662615776062,-0.12289773672819138,0.14363960921764374,0.024591803550720215,0.0607897974550724,-0.026768669486045837
29,-1.4071364543567273,0.04931965346339064,-0.4360965831721881,-0.98543781042099,-0.049299661070108414,-0.16273213922977448,1.1322637796401978,0.17972998321056366,-0.01521080732345581,-0.013585567474365234,0.08909459412097931,-0.11783117055892944
30,-1.3532618639736456,0.0712175444607475,-0.3174579027774903,-0.9739574193954468,-0.07115735858678818,-0.21527576446533203,1.317162036895752,0.49242469668388367,-0.20941755175590515,0.011204123497009277,0.10321607440710068,-0.08503246307373047
31,-1.4234577519493645,0.14579760921858384,-0.14677374923061143,-0.9786706566810608,-0.1452816277742386,-0.14524851739406586,2.467910051345825,-1.4747354984283447,0.05872524157166481,0.09070062637329102,0.03544884920120239,-0.18626393377780914
32,-1.4877206023212988,0.11857687658955564,0.02974133361562366,-0.9895533919334412,-0.11829919368028641,-0.08239751309156418,0.9979706406593323,0.1367434710264206,0.1685793697834015,-0.07462501525878906,-0.0905630961060524,0.005874700844287872
33,-1.5083700581551676,0.13623204476995238,0.09522156223629082,-0.9888049960136414,-0.13581104576587677,-0.06180771812796593,1.007522463798523,-0.9080376625061035,-0.10893398523330688,-0.024836480617523193,-0.022239506244659424,-0.14331620931625366
34,-1.607399706455411,0.15970941985474515,0.19457757492463856,-0.9866123795509338,-0.15903133153915405,0.036129485815763474,0.6925098896026611,-0.1664813905954361,0.005755807273089886,0.025400102138519287,-0.008815363049507141,-0.02311372384428978
35,-1.600629201740138,0.1466744849997451,0.2641395713277791,-0.9888222813606262,-0.146149143576622,0.029508166015148163,0.4849914610385895,0.23644733428955078,0.19479529559612274,0.04889625310897827,-0.002151012420654297,-0.003797058016061783
36,-1.599652430325839,0.134527623778007,0.30666482091787844,-0.9905524253845215,-0.13412222266197205,0.028591418638825417,0.37481847405433655,0.02167006954550743,0.15110641717910767,0.023770689964294434,-0.028475448489189148,-0.023647543042898178
37,-1.604449507853461,0.12291495154716324,0.33357948337348065,-0.9918935298919678,-0.12260568141937256,0.03339298069477081,0.30192244052886963,-0.006710288114845753,0.12250036746263504,0.01717740297317505,-0.06608451157808304,-0.047736287117004395
38,-1.6222320298742774,0.10126152777178025,0.37067751517742437,-0.9935616254806519,-0.10108856111764908,0.051149655133485794,0.31966567039489746,-0.29621371626853943,0.14305761456489563,0.00897306203842163,-0.10264678299427032,-0.03149641305208206
39,-1.6427844040893722,0.07743075725761542,0.3977286188668448,-0.9944215416908264,-0.07735341042280197,0.07171041518449783,0.45426130294799805,-0.20170451700687408,0.17216862738132477,-0.055795133113861084,-0.07529550790786743,-0.08710646629333496
40,-1.6722790418536122,0.0555932182086435,0.45312152073309575,-0.9933180809020996,-0.05556458607316017,0.10115210711956024,0.606623113155365,-0.3138074576854706,0.054940011352300644,-0.021864354610443115,0.02013367787003517,-0.03941500931978226
41,-1.7063989942831184,0.04923299059499344,0.5093082402036747,-0.9896194934844971,-0.04921310395002365,0.13502366840839386,0.41226035356521606,-0.31474757194519043,0.035321567207574844,0.00835728645324707,0.07702988386154175,-0.034742966294288635
42,-1.7299449635006987,0.045128760301973714,0.5470074511735554,-0.9863573908805847,-0.045113444328308105,0.15831631422042847,0.3552291989326477,-0.05441396310925484,-0.00984949804842472,-0.017808377742767334,0.1191643476486206,-0.008856520056724548
43,-1.733836092559504,0.03974856937473496,0.5764190785886151,-0.985958993434906,-0.03973810374736786,0.16219019889831543,0.3310653865337372,0.05327220261096954,0.02896343357861042,0.03016376495361328,0.10104791820049286,0.0046188682317733765
44,-1.7290780445337415,0.021885148327216494,0.6045706599052346,-0.9872632026672363,-0.02188340201973915,0.15758390724658966,0.2086239755153656,0.035528745502233505,0.1761406511068344,0.0011790990829467773,0.05009692907333374,0.03104521334171295
45,-1.7317059437838145,0.007179947003938779,0.6231560374316172,-0.9870563745498657,-0.007179885171353817,0.16021199524402618,0.25997111201286316,-0.12610413134098053,0.14704930782318115,0.011699438095092773,0.04581514000892639,-0.02530910074710846
46,-1.7303010821822327,-0.004957640127004974,0.633615926727908,-0.9872939586639404,0.004957619588822126,0.15882731974124908,0.004641491919755936,-0.2944009304046631,0.08409625291824341,0.04523158073425293,-0.023771703243255615,-0.021559253334999084
47,-1.7397433220852192,-0.010606691485169231,0.6553568579459254,-0.9857070446014404,0.01060649286955595,0.16813498735427856,0.3670172393321991,0.22607752680778503,-0.05643188953399658,-0.003306746482849121,-0.009858786128461361,-0.036405786871910095
48,-1.72158622640828,-0.013030551300941011,0.698067884429238,-0.9885687232017517,0.01303018257021904,0.15020635724067688,0.4871341586112976,0.14918062090873718,-0.04839088395237923,0.0038428306579589844,-0.006774068810045719,0.014680013060569763
49,-1.7168390891196157,-0.015428461056846742,0.7437593004344923,-0.9892369508743286,0.015427849255502224,0.1455068588256836,0.415492445230484,0.056871622800827026,-0.1251399964094162,-0.012945055961608887,-0.022492647171020508,0.026078224182128906
50,-1.71082230467264,-0.014805957153902321,0.7909999163540072,-0.9901037812232971,0.014805416576564312,0.13955353200435638,0.5307885408401489,0.159962460398674,-0.05384725332260132,0.008444905281066895,-0.013661027885973454,0.014987453818321228
51,-1.7042974324380231,-0.02225083644697219,0.8408194680831175,-0.9908565878868103,0.022249000146985054,0.13307194411754608,0.5232416391372681,-0.16962243616580963,0.06483523547649384,-0.06615018844604492,0.01565384678542614,0.022872909903526306
52,-1.717593385837329,-0.023000564034770073,0.8941855108794436,-0.9889828562736511,0.022998536005616188,0.14623169600963593,0.5530461668968201,-0.07050110399723053,-0.015750998631119728,0.09669482707977295,0.029171256348490715,-0.03974057734012604
53,-1.6872196819507101,-0.022058622088997597,0.9374939071241146,-0.9929887056350708,0.022056832909584045,0.11613225191831589,0.3851511776447296,0.5657539963722229,-0.0696343183517456,0.014839410781860352,0.02046939544379711,0.04083488881587982
54,-1.666018162389252,-0.02705779919764945,0.9835534560700617,-0.9951054453849792,0.027054497972130775,0.09504319727420807,0.42196375131607056,-0.10678158700466156,-0.07856321334838867,-0.05021309852600098,-0.02482670545578003,0.10202407836914062
55,-1.6751556199460156,-0.025606003108009805,1.032132920690085,-0.9942335486412048,0.02560320496559143,0.10413582623004913,0.5510140657424927,-0.1211073026061058,-0.1098991259932518,-0.06655746698379517,0.05250653624534607,0.050084710121154785
56,-1.6922355017173876,-0.01311752523865795,1.0492023517878266,-0.9925499558448792,0.013117149472236633,0.12113048881292343,0.05527547746896744,-0.2703488767147064,-0.08855646848678589,0.03947073221206665,0.06566396355628967,-0.0059113577008247375
57,-1.7282485911612406,-0.017265243442264683,1.0430060715928733,-0.9874827265739441,0.017264384776353836,0.15677912533283234,-0.055331189185380936,-0.26847419142723083,0.09634149074554443,-0.04395031929016113,-0.02077391929924488,-0.08166016638278961
58,-1.7283001948599825,-0.009479648372948174,1.0235415046828062,-0.9875773787498474,0.009479505941271782,0.15684640407562256,-0.13180011510849,0.08195513486862183,-0.03649682551622391,0.011930525302886963,-0.04883190989494324,-0.08964671194553375
59,-1.7296309750702044,-0.00849515821517349,1.0283124291166272,-0.9873765110969543,0.008495056070387363,0.15816190838813782,0.137357696890831,-0.12905648350715637,0.05910124629735947,0.003444194793701172,0.01022747065871954,-0.10496975481510162
60,-1.7161238419590141,-0.01852683480842019,1.0484316328595764,-0.9892886877059937,0.018525775521993637,0.1447916477918625,0.23278449475765228,0.03291107714176178,0.1161464974284172,0.0029911398887634277,-0.023500146344304085,-0.0666513592004776
61,-1.7076198500401667,-0.023037069718420167,1.06313209996194,-0.9903914332389832,0.02303503267467022,0.13636082410812378,0.08406943082809448,-0.021409057080745697,-0.06979084759950638,-0.027613937854766846,-0.033441513776779175,-0.0736318975687027
62,-1.7007787954097837,-0.015579211955424848,1.0774570644376986,-0.9914439916610718,0.01557858195155859,0.12960104644298553,0.173167884349823,0.06473048031330109,0.009376545436680317,-0.014507055282592773,-0.0010217111557722092,-0.07390640676021576
63,-1.692122259408036,-0.012583083134952345,1.0977219229476511,-0.9925704598426819,0.012582750990986824,0.1210189163684845,0.19948776066303253,-0.033074021339416504,-0.08638802170753479,-0.008619725704193115,-0.023553818464279175,-0.01475667953491211
64,-1.6925249261989377,-0.0008843856331101378,1.1116383163678893,-0.9925997853279114,0.000884385546669364,0.12142813950777054,0.06789352744817734,-0.036200426518917084,-0.10125268995761871,0.017044425010681152,-0.03295835852622986,-0.012556679546833038
65,-1.6962711906120527,0.01192798384515705,1.118038624703028,-0.9920675754547119,-0.011927700601518154,0.12513694167137146,0.0126875638961792,0.035309404134750366,-0.12645919620990753,-0.01849132776260376,-0.02153482846915722,-0.026565223932266235
66,-1.6956334444730004,0.01715747006822561,1.1306248867040432,-0.9920717477798462,-0.017156628891825676,0.1244947761297226,0.15174712240695953,0.04350988566875458,-0.0540924146771431,-0.005486667156219482,-0.029611553996801376,-0.03669574111700058
67,-1.6924875297142725,0.018783061993849985,1.1485573070467614,-0.9924296140670776,-0.018781958147883415,0.12136965245008469,0.2289373129606247,-0.013736968860030174,-0.03674449399113655,-0.05072218179702759,-0.011918721720576286,-0.012208230793476105
68,-1.6860833325539575,0.02750071591190519,1.1605846082565408,-0.992986261844635,-0.027497248724102974,0.1149883046746254,0.05810215324163437,-0.18894310295581818,-0.03469763323664665,0.03740459680557251,0.0065316855907440186,7.82012939453125e-05
69,-1.6930158092003085,0.031117567863782843,1.167638166640183,-0.9920599460601807,-0.0311125461012125,0.12185640633106232,0.23392601311206818,-0.05017402395606041,-0.049882419407367706,0.02598029375076294,0.004730077460408211,-0.063918836414814
70,-1.6890302176577063,0.03187837349463387,1.1910472325125245,-0.9925140738487244,-0.03187297284603119,0.11789869517087936,0.19657227396965027,0.160005122423172,-0.0016770514193922281,0.01730954647064209,0.020169496536254883,0.02504563331604004
71,-1.6835376583156614,0.028964356654223915,1.204022985758422,-0.9932347536087036,-0.02896030619740486,0.11245547235012054,0.0896972194314003,0.017825284972786903,-0.025458132848143578,-0.009893417358398438,0.03642186149954796,0.059526339173316956
72,-1.6883746673284543,0.02360276576679003,1.2107783024358332,-0.9928191304206848,-0.02360057458281517,0.1172749474644661,-0.014046698808670044,-0.033591799437999725,0.09134232252836227,0.011083841323852539,0.03275585174560547,0.07350564002990723
73,-1.6969480223404987,0.01486357658797907,1.2146829967639716,-0.9919437170028687,-0.0148630291223526,0.12580344080924988,0.14427150785923004,0.038965385407209396,0.07602345198392868,-0.016311168670654297,0.0743875801563263,0.04675815999507904
74,-1.7003165238113827,-0.0009112237830447344,1.231029140830759,-0.9916234612464905,0.000911223643925041,0.12915830314159393,0.266552209854126,-0.0558227077126503,0.1683124601840973,0.04199284315109253,0.06586122512817383,0.05500003695487976
75,-1.7071785141624096,-0.020606106459848884,1.244342247356707,-0.9905040264129639,0.02060464769601822,0.13593092560768127,0.03494858741760254,0.064202219247818,0.08928096294403076,0.005594968795776367,0.00936359167098999,0.06771290302276611
76,-1.7075508887168345,-0.023620474480933223,1.2470713426077493,-0.9903873205184937,0.02361827902495861,0.13629066944122314,0.06936445087194443,0.048506274819374084,0.01798255555331707,0.03547704219818115,0.01677173376083374,0.055420756340026855
77,-1.7209433289670855,-0.03422904940884657,1.2605228629388745,-0.9881699681282043,0.03422236442565918,0.14949586987495422,0.17364594340324402,-0.048246826976537704,0.046646829694509506,0.010554611682891846,0.01890873908996582,0.020181894302368164
78,-1.7206069218568874,-0.03793085225807341,1.276933144813168,-0.9880880117416382,0.037921756505966187,0.14914348721504211,0.04768603295087814,0.09976952522993088,-0.0659489780664444,-0.0028939247131347656,0.017650749534368515,0.06635640561580658
79,-1.7174772005001984,-0.029006158260746314,1.2746858688808207,-0.9888454079627991,0.02900209091603756,0.1460939645767212,-0.0908944308757782,0.061561714857816696,-0.12415868043899536,0.019591927528381348,0.012669650837779045,0.054147109389305115
80,-1.721885495717376,-0.020675687467133618,1.278844110935768,-0.9883965253829956,0.020674213767051697,0.15048281848430634,0.043811291456222534,0.055093929171562195,-0.14064614474773407,0.024773359298706055,0.020509274676442146,0.03279043734073639
81,-1.7180959511561213,-0.023319734937394598,1.2885425897995926,-0.9889021515846252,0.023317622020840645,0.14672763645648956,0.12520647048950195,0.04942592605948448,0.0504097044467926,1.055002212524414e-05,0.023526877164840698,0.07099997997283936
82,-1.7207384280748006,-0.02250072825290601,1.2988846583536373,-0.9885295629501343,0.022498829290270805,0.1493430882692337,0.14667274057865143,-0.007750071119517088,-0.35587078332901,-0.09154868125915527,0.015159877017140388,0.03779079020023346
83,-1.7254015378868353,-0.011037347938731429,1.3194455218806058,-0.9880120754241943,0.011037123389542103,0.15398062765598297,0.1557835042476654,-0.14123030006885529,0.010218128561973572,0.024099290370941162,0.013087032362818718,0.033137887716293335
84,-1.734567500930639,-0.011819292264343428,1.3167972303989433,-0.9865505695343018,0.011819017119705677,0.16302868723869324,-0.08166002482175827,-0.1711653172969818,0.029745496809482574,0.008172214031219482,0.0015171486884355545,0.0016746670007705688
85,-1.74698620621643,-0.011579796018280035,1.3029743512861576,-0.9844526648521423,0.011579536832869053,0.17526796460151672,-0.18434765934944153,0.0028930427506566048,-0.0071425409987568855,0.013795316219329834,-0.014890700578689575,-0.045705556869506836
86,-1.7431940922921068,-0.00940614196851445,1.2837503122139942,-0.9851325750350952,0.009406003169715405,0.17153744399547577,-0.21977417171001434,0.0009683407843112946,0.080779068171978,0.02462249994277954,-0.01238146610558033,-0.062131911516189575
87,-1.7315606085190611,-0.017738906215044793,1.2682753707058267,-0.9869498014450073,0.01773797534406185,0.1600474715232849,-0.09753867238759995,0.09515824168920517,0.10713551193475723,-0.000782012939453125,-0.025794627144932747,-0.04058648645877838
88,-1.7275108338054268,-0.025949861121030142,1.2548003885874652,-0.9874129891395569,0.025946948677301407,0.15602129697799683,-0.12362391501665115,0.03741500899195671,0.16330060362815857,0.021180570125579834,-0.02938016876578331,-0.06182883679866791
89,-1.7190633519672223,-0.03517386672293897,1.237348815164742,-0.9884166121482849,0.03516661375761032,0.14763298630714417,-0.17915455996990204,0.0017283521592617035,0.13342592120170593,-0.019548237323760986,-0.040690310299396515,-0.057819873094558716
90,-1.70786947617099,-0.03233006401052734,1.2120163681766367,-0.9901024699211121,0.03232443332672119,0.13657289743423462,-0.41964054107666016,0.1042373776435852,-0.03927592560648918,0.006536245346069336,-0.03296530619263649,-0.0036993175745010376
91,-1.7011545898383376,-0.03047092633251458,1.1651297500687667,-0.9910550713539124,0.030466211959719658,0.12992903590202332,-0.5101337432861328,0.10468776524066925,0.06577114760875702,-0.007678389549255371,-0.01670280285179615,-0.0382847934961319
92,-1.69047198469231,-0.03200228958660131,1.1222488900919232,-0.992339015007019,0.03199682757258415,0.1193290576338768,-0.4168544411659241,0.1621403843164444,0.1260656714439392,0.04370015859603882,-0.019576195627450943,-0.03191149979829788
93,-1.6943278067174787,-0.050815827288023634,1.0808785557691651,-0.9910986423492432,0.05079396069049835,0.12305847555398941,-0.3197568356990814,-0.1824081838130951,0.3625989556312561,-0.0063683390617370605,-0.046475742012262344,-0.11130917817354202
94,-1.7093862502261437,-0.07391271184383369,1.058807949366318,-0.987707793712616,0.07384543120861053,0.13776953518390656,-0.16243645548820496,0.09286891669034958,0.04416850209236145,-0.11913436651229858,-0.04575400799512863,-0.08071683347225189
95,-1.713943549281873,-0.06276048275545329,1.0448186853956067,-0.9878233075141907,0.06271929293870926,0.14237798750400543,0.041985101997852325,-0.30728644132614136,-0.11472131311893463,-0.006073176860809326,-0.03319355845451355,-0.10667240619659424
96,-1.7162594047510196,-0.06294015017629483,1.058353557466358,-0.9874796867370605,0.06289860606193542,0.14466361701488495,-0.02412601374089718,-0.1747305691242218,0.04947306960821152,-0.030205190181732178,-0.05990789085626602,-0.04888416826725006
97,-1.7403905785395446,-0.05385599897607211,1.0594299701912366,-0.984224259853363,0.053829967975616455,0.16853772103786469,-0.1038554459810257,-0.012419180013239384,-0.10040748119354248,0.010469377040863037,-0.056958019733428955,-0.05589735507965088
98,-1.7474261069473591,-0.049558701129090554,1.0371749960070702,-0.9832327961921692,0.049538418650627136,0.17549705505371094,-0.21141661703586578,-0.3270953297615051,0.07865586876869202,-0.05535668134689331,-0.03661420941352844,-0.09454917907714844
99,-1.764372851392057,-0.04779820864654463,1.0164624743426682,-0.9802017211914062,0.04778001084923744,0.19215013086795807,-0.26465097069740295,-0.19853146374225616,0.1260209083557129,0.02736663818359375,0.028132468461990356,-0.034832000732421875
100,-1.7598842703118915,-0.042012812447646514,0.9848881656595417,-0.9813095927238464,0.04200045391917229,0.18779735267162323,-0.4432026445865631,0.2888224422931671,-0.016549354419112206,0.06997823715209961,0.07001432776451111,0.01670101284980774
101,-1.7552935357311297,-0.041244756798610886,0.9407455551465562,-0.9821926355361938,0.041233062744140625,0.1832962930202484,-0.4061606228351593,0.02221980318427086,0.04457152634859085,-0.03654515743255615,0.06711959838867188,0.0028303861618041992
102,-1.7397516580011954,-0.027754659764588494,0.8704701468353452,-0.9853814244270325,0.027751097455620766,0.168087899684906,-0.9262378215789795,0.05644186586141586,0.026897119358181953,0.045302629470825195,0.04781043902039528,0.06262494623661041
103,-1.7461378182310063,-0.03356550909969314,0.7963535560009666,-0.9841124415397644,0.03355920687317848,0.17434614896774292,-0.6169233322143555,0.05475668981671333,0.2961724102497101,0.019100844860076904,0.060557007789611816,0.037598371505737305
104,-1.7438481503712924,-0.05109608538949836,0.729781651170398,-0.9837782979011536,0.05107385292649269,0.17196467518806458,-0.7443476915359497,-0.034517545253038406,0.24444013833999634,0.040846168994903564,-0.01263698935508728,0.08154487609863281
105,-1.7525725376784331,-0.07131408385669474,0.653387095083944,-0.9810242652893066,0.07125364989042282,0.18031731247901917,-0.7298279404640198,0.06766283512115479,0.3848074972629547,0.01965951919555664,0.011189572513103485,0.04124020040035248
106,-1.7564680755817852,-0.09224204978993254,0.5782887447591023,-0.978634238243103,0.09211129695177078,0.18382196128368378,-0.6482383608818054,-0.03507978841662407,0.36768725514411926,0.021831929683685303,-0.04201669245958328,-0.01092459261417389
107,-1.762397017319011,-0.12015193780543416,0.519904947360904,-0.9746231436729431,0.11986304819583893,0.1890576332807541,-0.4678942859172821,0.12050236016511917,0.4083999693393707,-0.07437288761138916,-0.04047156870365143,0.027861356735229492
108,-1.7632805702131085,-0.13675647891933182,0.4815022568999679,-0.972368061542511,0.13633060455322266,0.18951180577278137,-0.36825937032699585,-0.0946166068315506,0.08457120507955551,0.034700095653533936,-0.025216087698936462,0.029741793870925903
109,-1.7762846961248022,-0.14721204970472393,0.4459515161094449,-0.9683729410171509,0.14668090641498566,0.20183831453323364,-0.3017307221889496,0.0372660867869854,0.19201533496379852,-0.03434312343597412,0.07014648616313934,0.010319948196411133
110,-1.775123169104314,-0.14960253049260844,0.3916712850598102,-0.968260645866394,0.14904510974884033,0.2006416767835617,-0.6575436592102051,-0.05448303371667862,0.1576157808303833,0.04714846611022949,0.07969941198825836,0.015789061784744263
111,-1.7856480346032997,-0.15408523169088317,0.3182499734313103,-0.9654327630996704,0.15347623825073242,0.21067659556865692,-0.8106101155281067,0.04487365111708641,0.23707056045532227,0.03173220157623291,0.04528474807739258,-0.04281473159790039
112,-1.7843985774128341,-0.1563504105764844,0.24337187943446886,-0.9653529524803162,0.15571418404579163,0.20939593017101288,-0.6089470982551575,0.2810204029083252,0.15171213448047638,0.012624740600585938,0.05737479031085968,-0.03501845896244049
113,-1.7734579788873697,-0.15992184985731664,0.1756792346514206,-0.9670352339744568,0.15924105048179626,0.19870887696743011,-0.6475681066513062,0.22582049667835236,0.12590771913528442,0.0012454390525817871,0.031844764947891235,-0.017831087112426758
114,-1.7763806782016773,-0.15927674607566633,0.11772408764644386,-0.9665506482124329,0.15860414505004883,0.2015552967786789,-0.5184193253517151,0.18944545090198517,0.005070372484624386,-0.03599750995635986,0.006694287061691284,-0.059724822640419006
115,-1.7550204731720196,-0.14126194334650605,0.0672608335666254,-0.9732862710952759,0.1407925933599472,0.1813591718673706,-0.547172486782074,0.10709226876497269,-0.052396006882190704,0.059834182262420654,0.0263369083404541,-0.0124443918466568
116,-1.7520413350599533,-0.1374607114772166,0.013451357526336274,-0.9743415713310242,0.13702821731567383,0.1785539984703064,-0.5430454611778259,0.11759255826473236,0.2823207378387451,-0.12427586317062378,0.03629635274410248,0.0019421428442001343
117,-1.748048940470768,-0.12363820449062465,-0.0461855120766259,-0.9768180847167969,0.12332344800233841,0.17497994005680084,-0.5324456095695496,0.06377223134040833,-0.1667015701532364,0.0711631178855896,-0.06035042554140091,-0.03975653648376465
118,-1.7570739661024766,-0.10744033392713867,-0.10475580770220944,-0.9770338535308838,0.10723374783992767,0.18413428962230682,-0.6650004982948303,0.03334798663854599,-0.0693177655339241,-0.040177881717681885,-0.007380254566669464,-0.05119982361793518
119,-1.7715533195004547,-0.08961833751313093,-0.15919822898249686,-0.9759835600852966,0.08949842303991318,0.19861096143722534,-0.5835045576095581,0.058658666908741,0.07452641427516937,0.07698148488998413,-0.018072038888931274,-0.06688177585601807
120,-1.7478038558789153,-0.08432458252477143,-0.21255788014556684,-0.9808774590492249,0.08422468602657318,0.17545901238918304,-0.35844701528549194,0.16265563666820526,0.014081336557865143,-0.013141214847564697,-0.07377240806818008,-0.045438751578330994
121,-1.7369913922317584,-0.07373574541753886,-0.2475915137117814,-0.9835415482521057,0.0736689493060112,0.16498152911663055,-0.3343331813812256,0.19707433879375458,-0.0817171111702919,-0.03539460897445679,-0.0418696328997612,-0.029101967811584473
122,-1.7165260432051683,-0.06260987510193936,-0.2716399767163895,-0.987461507320404,0.06256897747516632,0.1449299156665802,-0.21685495972633362,0.14936114847660065,-0.03968769311904907,0.009846270084381104,-0.006126731634140015,0.035078033804893494
123,-1.7223760504235417,-0.060193417776626255,-0.28935210350085455,-0.9867432713508606,0.06015707552433014,0.15072643756866455,-0.11332189291715622,-0.1942683905363083,0.00340748461894691,-0.011257648468017578,-0.046241071075201035,-0.03892531991004944
124,-1.7265354526760373,-0.05012796688695336,-0.29736744535419174,-0.9866561889648438,0.05010697618126869,0.1549154669046402,-0.047914180904626846,0.10488848388195038,-0.06198573485016823,-0.004142701625823975,0.008395213633775711,-0.0514151006937027
125,-1.6991278288712448,-0.046390159743825474,-0.306618632963106,-0.9907097220420837,0.04637352377176285,0.12784184515476227,-0.19148840010166168,0.21830052137374878,0.04983506724238396,0.02876526117324829,0.02660926803946495,0.03634272515773773
126,-1.6980478495915172,-0.05452517883566258,-0.32887778653496774,-0.9904404282569885,0.05449816584587097,0.12671978771686554,-0.23534676432609558,0.06121823191642761,0.042451415210962296,-0.02486419677734375,-0.037301503121852875,-0.010508880019187927
127,-1.6847609681924,-0.05183995865495299,-0.355588644730468,-0.9921783208847046,0.05181674286723137,0.11356533318758011,-0.25703901052474976,0.2440596967935562,0.002302663866430521,-0.02652883529663086,-0.013410381972789764,0.018011197447776794
128,-1.6714144379941391,-0.05090691172692869,-0.37761447527655906,-0.9936534762382507,0.050884928554296494,0.1003183051943779,-0.07112719118595123,0.014978033490478992,-0.017022287473082542,0.008576452732086182,-0.02015370875597,0.007958069443702698
129,-1.6726011731905222,-0.05211011395001331,-0.38796535353840583,-0.9934719800949097,0.05208653211593628,0.10149113088846207,-0.07328207045793533,-0.0639982745051384,0.06054224073886871,0.03869903087615967,-0.05414646863937378,-0.009831547737121582
130,-1.6829636118247095,-0.062307677817966776,-0.3973352443480351,-0.9917874336242676,0.06226737052202225,0.11171501129865646,-0.155219167470932,-0.1729644387960434,0.26574307680130005,-0.02853715419769287,-0.017650671303272247,0.01819835603237152
131,-1.699838120024114,-0.07267464033847512,-0.42685948269457746,-0.9890679717063904,0.07261068373918533,0.12834428250789642,-0.3855656683444977,-0.06403875350952148,0.09997185319662094,-0.04976564645767212,0.02341286838054657,-0.027987241744995117
132,-1.7072953805725342,-0.0724334192080933,-0.47428772669586833,-0.9881005883216858,0.07237009704113007,0.13571874797344208,-0.6571979522705078,0.07960443198680878,0.09936706721782684,0.020159363746643066,0.018312878906726837,-0.004859462380409241
133,-1.704189545259778,-0.0812593095360129,-0.5510173512084536,-0.9878460168838501,0.08116991072893143,0.132559135556221,-0.7840070724487305,0.4954146444797516,0.006881939247250557,-0.020058155059814453,0.06098096817731857,-0.001104697585105896
134,-1.6696482468469616,-0.08663256688491826,-0.5889817656723442,-0.9913861155509949,0.08652424067258835,0.09832088649272919,0.06862697005271912,-0.39271384477615356,0.3926334083080292,0.13899970054626465,0.02101970463991165,-0.027199633419513702
135,-1.6939835863012445,-0.11871367111728538,-0.616738003859017,-0.9854372143745422,0.11843503266572952,0.12201111018657684,-0.5755401849746704,0.19122444093227386,0.1394677460193634,-0.10823649168014526,0.01413331925868988,0.023481369018554688
136,-1.6911852643652716,-0.11633465837102729,-0.6648718559681184,-0.9860517382621765,0.11607243120670319,0.11928657442331314,-0.33938348293304443,0.107279472053051,-0.018373236060142517,-0.008531391620635986,0.061661943793296814,-0.009255409240722656
137,-1.6861009265026656,-0.11259738394741686,-0.671295122860516,-0.9870693683624268,0.11235961318016052,0.11432072520256042,0.043971482664346695,-0.0994100421667099,-0.03584691882133484,0.05765664577484131,0.03233945369720459,0.031949982047080994
138,-1.698802763923787,-0.10552451758984492,-0.6823668801366869,-0.9863011240959167,0.10532878339290619,0.12694703042507172,-0.2732020318508148,-0.017286423593759537,-0.23803848028182983,-0.02291494607925415,0.07750198990106583,0.024648994207382202
139,-1.699960383610221,-0.08792359952344021,-0.6992370311585618,-0.9878394603729248,0.08781035989522934,0.12830768525600433,-0.11384511739015579,-0.005109923891723156,-0.16260826587677002,0.02513176202774048,0.14276522397994995,0.05516400933265686
140,-1.7142290325097178,-0.0847703931515617,-0.7093565719443465,-0.9861770868301392,0.08466890454292297,0.14242811501026154,-0.22828587889671326,-0.23224933445453644,-0.062044963240623474,-0.0021041035652160645,0.08906766027212143,0.07716105878353119
141,-1.7362974686795334,-0.07411167360954314,-0.7501881306361821,-0.9836283922195435,0.07404384762048721,0.16429440677165985,-0.48629230260849,-0.15336835384368896,-0.13640856742858887,0.013398349285125732,0.04199924319982529,-0.0003081709146499634
142,-1.7597513988609286,-0.05561327038784043,-0.8002449325122011,-0.9806824922561646,0.055584609508514404,0.18754225969314575,-0.5298354625701904,-0.02703865058720112,-0.1045389398932457,-0.011581242084503174,-0.004864398390054703,-0.03353537619113922
143,-1.772927039618102,-0.04275218071616976,-0.8391600848912735,-0.9787458777427673,0.04273916035890579,0.20057366788387299,-0.2310427874326706,-0.3134312629699707,-0.04528036341071129,0.01396322250366211,-0.020720724016427994,-0.07670286297798157
144,-1.7987441590630704,-0.03487975536360439,-0.8683109340639333,-0.9735395908355713,0.03487268462777138,0.2258414477109909,-0.5516203045845032,-0.09009005129337311,-0.00133912090677768,-0.00496065616607666,-0.04878870025277138,-0.06074133515357971
145,-1.8062768843014743,-0.0258980301983403,-0.925029678048275,-0.9720762372016907,0.02589513547718525,0.2332320660352707,-0.48121801018714905,-0.072689488530159,0.09751620143651962,-0.04772961139678955,-0.050095561891794205,-0.108857661485672
146,-1.8072894313653045,-0.025426779124816692,-0.9545796703833938,-0.9718512892723083,0.025424038991332054,0.2342190444469452,-0.10454041510820389,-0.016559358686208725,0.01062348484992981,-0.0033988356590270996,-0.0730772316455841,-0.09550145268440247
147,-1.808051104640331,-0.01752436947166043,-0.9711421080671027,-0.9718377590179443,0.017523473128676414,0.2349991500377655,-0.2575205862522125,0.00335868913680315,-0.009843593463301659,0.023198723793029785,-0.06404751539230347,-0.0741409957408905
148,-1.7928039257824357,-0.007168643026256845,-0.9964375923445332,-0.9754323959350586,0.007168581709265709,0.22018276154994965,-0.2238648384809494,0.1149376630783081,-0.11677569895982742,-0.09195053577423096,-0.0052917590364813805,-0.05488428473472595
149,-1.7691953203592403,0.007593033882866377,-1.0102639174273533,-0.9803551435470581,-0.007592960726469755,0.19709430634975433,-0.06673847883939743,0.07997811585664749,-0.021186579018831253,0.0646294355392456,-0.030828654766082764,-0.005810141563415527
150,-1.7798738508531553,-0.00308712212251053,-1.0131444451767093,-0.9782181978225708,0.0030871171038597822,0.2075566202402115,0.09884762763977051,-0.05825754627585411,0.1393590271472931,-0.0551069974899292,-0.0024157464504241943,-0.07640731334686279
151,-1.7680718413120504,-0.015235870559265596,-0.9907083887935606,-0.9804903268814087,0.01523528154939413,0.195975661277771,0.4304855465888977,0.09579166769981384,0.1260065883398056,-0.002557098865509033,-0.03223356604576111,-0.04761447012424469
152,-1.7635084238605463,-0.032523361191577005,-0.956397913396696,-0.9809694886207581,0.032517626881599426,0.19142022728919983,0.32774144411087036,0.09720822423696518,0.051813337951898575,-0.041277945041656494,-0.04914971813559532,-0.013701051473617554
153,-1.7574996338334095,-0.03726397630108296,-0.9154239820545821,-0.9819392561912537,0.03725535422563553,0.1854916214942932,0.45991820096969604,0.00988693255931139,-0.08505574613809586,-0.003442704677581787,-0.04424387589097023,-0.03395666182041168
154,-1.7565146547618242,-0.03800793643533385,-0.8716119132387687,-0.9820940494537354,0.037998784333467484,0.1845191866159439,0.44359755516052246,-0.07233074307441711,-0.03616700321435928,0.012199699878692627,-0.020329121500253677,-0.04427565634250641
155,-1.759734873143523,-0.04230821549315753,-0.827008878277509,-0.981325089931488,0.04229559376835823,0.18764835596084595,0.4220163822174072,0.0719960555434227,-0.06362186372280121,-0.014875292778015137,-0.029981769621372223,-0.05187562108039856
156,-1.7464496603778683,-0.04173867185705739,-0.7849892944507807,-0.9837550520896912,0.04172655567526817,0.17459926009178162,0.36192625761032104,-0.017263229936361313,-0.09873101115226746,-0.027902662754058838,-0.02990100160241127,-0.0381246954202652
157,-1.7333977725605056,-0.03413403730621879,-0.7461594169921064,-0.986234724521637,0.034127410501241684,0.16179159283638,0.4348103404045105,0.36830365657806396,-0.16575060784816742,0.05589109659194946,0.007361233234405518,-0.024065732955932617
158,-1.715354912557594,-0.03622393896073634,-0.7102538053786057,-0.988920271396637,0.03621601685881615,0.143961101770401,0.2724405527114868,-0.20813943445682526,0.014627845957875252,0.012296915054321289,-0.03903890401124954,-0.0192510187625885
159,-1.7187110062957787,-0.033895893541789984,-0.6821535853909759,-0.9885125160217285,0.03388940170407295,0.14729127287864685,0.3712655007839203,0.1336410790681839,-0.1672620326280594,-0.009366631507873535,0.01646459475159645,-0.042982086539268494
160,-1.717656988471036,-0.03795584821258955,-0.6287942969502832,-0.9885228872299194,0.037946734577417374,0.14622792601585388,0.6080796718597412,-0.09315744042396545,-0.009147044271230698,-0.0032678842544555664,0.037202805280685425,0.005963325500488281
161,-1.71200815888541,-0.03961052803854567,-0.5783650807546097,-0.9892695546150208,0.03960017114877701,0.14063258469104767,0.556327760219574,-0.06923054903745651,-0.04137112945318222,0.010784447193145752,0.055126383900642395,0.01973724365234375
162,-1.716710951138045,-0.04447972924762714,-0.5330597041036395,-0.9883947372436523,0.044465065002441406,0.14525358378887177,0.4960569143295288,-0.19606120884418488,-0.006166535895317793,-0.01552671194076538,0.0733633041381836,0.022104725241661072
163,-1.7240921008329975,-0.04441341526989958,-0.49155433260901915,-0.9872985482215881,0.04439881443977356,0.1525454968214035,0.3393681049346924,0.0262198094278574,-0.12102711200714111,-0.007986366748809814,0.08887144923210144,0.006618961691856384
164,-1.7282582739000945,-0.039631916592027076,-0.4571592501928303,-0.9868531227111816,0.039621543139219284,0.15668895840644836,0.3283635973930359,-0.1817040741443634,-0.09708941727876663,0.01589047908782959,0.06358891725540161,0.011493459343910217
165,-1.7245957852401255,-0.039283668371159826,-0.42956099573336815,-0.9874338507652283,0.03927356377243996,0.1530756652355194,0.3838678300380707,-0.10353071242570877,0.08673055469989777,0.01718848943710327,0.06514233350753784,-0.011413097381591797
166,-1.7231172702819961,-0.04128683232994723,-0.40539324677819943,-0.9875792860984802,0.04127510264515877,0.1516033113002777,0.16283413767814636,0.019086578860878944,0.0020808549597859383,0.030502259731292725,0.05714409053325653,-0.0025707483291625977
167,-1.7254589907579807,-0.049506158986440646,-0.38170442893544504,-0.9868530035018921,0.0494859404861927,0.15385806560516357,0.17188550531864166,0.14783737063407898,-0.04961525276303291,-0.02044069766998291,0.0504743866622448,0.027217969298362732
168,-1.7242830204559967,-0.04927778708089664,-0.3784598435218231,-0.9870443940162659,0.04925784468650818,0.15269917249679565,0.014106333255767822,-0.04257866367697716,-0.006258860230445862,0.01863008737564087,0.08491267263889313,-0.01681959629058838
169,-1.716228592838579,-0.057447025270414134,-0.3938080338627879,-0.9878111481666565,0.0574154332280159,0.14468108117580414,-0.39567896723747253,0.0980762243270874,0.028335610404610634,0.006609976291656494,0.0661197155714035,0.09155547618865967
170,-1.726509783795053,-0.0588491028196451,-0.45094096642382175,-0.986190915107727,0.05881514027714729,0.15481647849082947,-0.5934207439422607,-0.032916709780693054,0.07812069356441498,0.008072078227996826,0.061164699494838715,0.005171880125999451
171,-1.7331813284501152,-0.059872325950836636,-0.5106871598641016,-0.9850762486457825,0.05983656272292137,0.16138260066509247,-0.5782792568206787,-0.026403147727251053,0.10847444832324982,-0.002930283546447754,0.047524284571409225,-0.02457226812839508
172,-1.724527711045142,-0.0552691035794531,-0.5794991642504129,-0.9866976737976074,0.055240970104932785,0.15289275348186493,-0.7287687063217163,0.08227620273828506,0.09558188915252686,0.007403850555419922,0.05331006646156311,0.00047338008880615234
173,-1.7249336583745363,-0.05310344757432457,-0.6547041750279506,-0.98675137758255,0.05307849124073982,0.15331128239631653,-0.65898597240448,-0.039508312940597534,0.14266301691532135,-0.015094935894012451,0.0008308291435241699,-0.04187643527984619
174,-1.7252449009741628,-0.0554839983401384,-0.7205082905597529,-0.9865759611129761,0.055455535650253296,0.15359853208065033,-0.6781728863716125,0.12749959528446198,0.0817079022526741,0.00976938009262085,-0.015996310859918594,-0.03905083239078522
175,-1.7206851346812242,-0.051445199666016156,-0.7905914070261268,-0.987479567527771,0.05142251029610634,0.14913062751293182,-0.6460515260696411,0.15627135336399078,0.09701826423406601,0.028144240379333496,0.02265891432762146,-0.06854903697967529
176,-1.7092455538649671,-0.054276549166884194,-0.8549038588028445,-0.9889728426933289,0.05424990504980087,0.13780413568019867,-0.6806641221046448,0.12550653517246246,0.11577737331390381,-0.00043767690658569336,0.04418454319238663,0.005353823304176331
177,-1.7123011914246706,-0.05627602758066374,-0.9295833162185094,-0.9884375929832458,0.056246329098939896,0.1408098340034485,-0.8238266110420227,0.016006097197532654,0.14495347440242767,0.044055938720703125,0.06074279546737671,0.013502359390258789
178,-1.7290592273181689,-0.07450794032881454,-1.0299027627926625,-0.9847627282142639,0.07443901896476746,0.1571657806634903,-0.8497634530067444,-0.3931851387023926,0.5415413975715637,0.18840664625167847,0.05556585639715195,-0.0808413177728653
179,-1.7347569536978424,-0.0991044200601369,-1.132405719424822,-0.981747567653656,0.09894227236509323,0.16242606937885284,-1.175826907157898,-0.014079095795750618,0.00676147174090147,0.2262696623802185,0.06888914108276367,-0.08819198608398438
180,-1.7143357559957135,-0.0243316240617431,-1.2347402493531956,-0.9894230961799622,0.02432922273874283,0.14300471544265747,-1.5119160413742065,0.7937585711479187,-0.8274987936019897,0.020352542400360107,0.14095398783683777,-0.0563957542181015
181,-1.7038156339214492,0.0059865269594058124,-1.319654282931736,-0.991148054599762,-0.005986491218209267,0.13262498378753662,-0.4454921782016754,0.3045431077480316,0.6241291761398315,-0.2515122890472412,-0.009302823804318905,-0.10076464712619781
182,-1.6178548117398468,-0.009829157943606032,-1.4346976879738074,-0.9988448023796082,0.009828999638557434,0.04703884944319725,-1.21462082862854,0.5280041694641113,0.11254309862852097,-0.010158002376556396,0.0035529742017388344,-0.13863730430603027
183,-1.6363821317619112,-0.030947957057887825,-1.5129471182599619,-0.9973721504211426,0.030943017452955246,0.06550741195678711,-0.9480850696563721,0.2503888010978699,0.8140004873275757,0.07079750299453735,-0.04363831877708435,-0.0666670873761177
184,-1.561117657454157,-0.08362921029629422,-1.6526270833704209,-0.9964584112167358,0.08353175967931747,-0.00964469276368618,-1.4313368797302246,1.1274399757385254,0.4741341471672058,0.028685033321380615,0.038187555968761444,-0.07154732942581177
185,-1.5079962646369072,-0.18271950913492505,-1.7597500147291725,-0.981414794921875,0.18170447647571564,-0.061714060604572296,-1.041408896446228,0.44481801986694336,0.5063061714172363,-0.1729888916015625,-0.08873265981674194,-0.0568467378616333
186,-1.4328194020615512,-0.2518612593228913,-1.8696407750307475,-0.9592463970184326,0.24920693039894104,-0.13320021331310272,-1.3853729963302612,0.8212870359420776,0.31130847334861755,-0.08904767036437988,-0.05288735032081604,-0.05089712142944336
187,-1.4196681161119475,-0.28682444095151305,-1.9690703532673512,-0.948214590549469,0.2829078137874603,-0.14440302550792694,-1.1004269123077393,0.29440662264823914,0.12722718715667725,-0.07175910472869873,-0.10338819026947021,-0.04833076894283295
188,-1.4361010331740156,-0.27679883427553953,-2.043454366685385,-0.9532222747802734,0.27327772974967957,-0.12917670607566833,-0.17647182941436768,-1.1687029600143433,-0.20307298004627228,0.06818199157714844,-0.048042744398117065,-0.07307857275009155
189,-1.4739126689946334,-0.31788834859831455,-2.080788338847151,-0.9454429149627686,0.31256139278411865,-0.09188564121723175,-0.4681681990623474,0.4618678390979767,0.43921783566474915,-0.04950636625289917,-0.05943340063095093,-0.007861070334911346
190,-1.5062488616662955,-0.33436998770295057,-2.148544099188182,-0.9426500201225281,0.3281741142272949,-0.060930315405130386,-0.6872011423110962,-0.3643645644187927,0.5796006321907043,0.15000176429748535,0.0553249716758728,0.028780106455087662
191,-1.5417047798158658,-0.36906689219571476,-2.219232375694007,-0.9322696924209595,0.36074531078338623,-0.02712882123887539,-0.6976262927055359,-0.031979888677597046,-0.35946008563041687,-0.08659011125564575,0.16563710570335388,-0.15167367458343506
192,-1.566096357121199,-0.372937897884527,-2.277226010599897,-0.9312506318092346,0.3643529415130615,-0.004376881755888462,-1.1999486684799194,0.8299923539161682,0.06039852648973465,0.1190253496170044,0.08768865466117859,0.04609435796737671
193,-1.5247937892167691,-0.3983035094354598,-2.4037076744726438,-0.920745313167572,0.38785520195961,-0.04238652437925339,-0.7180245518684387,0.1545611470937729,0.49664077162742615,0.12425166368484497,0.01268807053565979,-0.030001167207956314
194,-1.5240877290998953,-0.40885931398686237,-2.5203773750100362,-0.916574239730835,0.3975629210472107,-0.042843058705329895,-1.5461241006851196,0.9413425326347351,0.5333206653594971,0.041192710399627686,0.11926758289337158,-0.022022012621164322
195,-1.454998643625102,-0.42597128924889943,-2.641028919318716,-0.9045393466949463,0.41320547461509705,-0.10521426051855087,-1.1240191459655762,1.1535452604293823,-0.3227790296077728,0.01811039447784424,0.02772781252861023,0.031377002596855164
196,-1.3616749025866488,-0.43462276616775924,-2.786632205896123,-0.8872681260108948,0.4210682809352875,-0.18829971551895142,-1.0382159948349,0.9593458771705627,-0.3695809245109558,0.09452831745147705,-0.010439008474349976,-0.050301969051361084
197,-1.433432358890792,-0.3024391873111425,-2.88528022348207,-0.9456207156181335,0.2978495657444,-0.1307174116373062,-0.64362633228302,0.20365281403064728,-1.6323988437652588,-0.12800288200378418,0.1848011612892151,0.06141199171543121
198,-1.4505518844743959,-0.28416380942049557,-2.9826667767773682,-0.9529653787612915,0.28035488724708557,-0.1151442751288414,-0.9173600077629089,-0.1844254434108734,-0.4309689998626709,-0.031134963035583496,0.06571441888809204,0.01439046859741211
199,-1.4440102801621182,-0.24350761079747132,-3.068804920239976,-0.9627084136009216,0.241108238697052,-0.12271624058485031,-1.2692058086395264,0.38463062047958374,-0.12799562513828278,0.1131753921508789,0.015742942690849304,0.004231758415699005
200,-1.4201916178351257,-0.258523519982586,3.1256061549135703,-0.9558252692222595,0.25565341114997864,-0.14505010843276978,-0.8337309956550598,0.6395720839500427,0.10396543890237808,0.06472724676132202,0.03899380564689636,0.017303526401519775
201,-1.4189811037906725,-0.3542569766184777,3.013348469620276,-0.9271169900894165,0.3468935787677765,-0.14184187352657318,-1.7840933799743652,0.41722050309181213,0.2582498788833618,-0.073996901512146,0.05361911654472351,0.07847213745117188
202,-1.4615365290328461,-0.30532831115285836,2.8912321144210766,-0.9480611681938171,0.30060631036758423,-0.10399913787841797,-0.15389078855514526,-0.39256763458251953,-0.48583054542541504,0.06601166725158691,-0.13337001204490662,-0.05139635503292084
203,-1.493337222011841,-0.2640890546474234,2.876348649928628,-0.9624361395835876,0.26103001832962036,-0.07469889521598816,0.16531211137771606,-0.058100901544094086,-0.33752086758613586,-0.012585163116455078,-0.004239857196807861,-0.02117210626602173
204,-1.5087025333505988,-0.23558772328392005,2.908256330735961,-0.9705033898353577,0.23341451585292816,-0.060339804738759995,0.17781737446784973,0.0014560967683792114,-0.1384960114955902,-0.06494277715682983,0.003996983170509338,0.07526290416717529
205,-1.498878523696324,-0.2358219229955039,2.8801925684963723,-0.9698092341423035,0.23364223539829254,-0.06986704468727112,-0.2720504403114319,0.18964220583438873,-0.09049703180789948,0.004309356212615967,0.03398166596889496,0.049649178981781006
206,-1.5098476563267298,-0.24274710970438615,2.862821254485353,-0.968878984451294,0.24037009477615356,-0.05912511795759201,-0.06137653812766075,0.04061759635806084,0.11535564064979553,-0.024986982345581055,0.06517188251018524,0.022320926189422607
207,-1.5069189592455507,-0.2513837901802609,2.8908862732172684,-0.9665938019752502,0.24874448776245117,-0.061827585101127625,0.0006602266803383827,0.04300444945693016,0.16951580345630646,0.025324881076812744,0.07899905741214752,0.04782003164291382
208,-1.4851924661506588,-0.26609130352192506,2.8574795142120415,-0.9612731337547302,0.26296231150627136,-0.08249028772115707,-0.2102741301059723,0.37721407413482666,0.27981555461883545,0.0759735107421875,0.05989837646484375,-0.09765493124723434
209,-1.480111195048984,-0.27897286388951903,2.8643111084889075,-0.9573886394500732,0.2753683626651764,-0.08705969899892807,0.1753232777118683,-0.05966203659772873,0.3083069622516632,0.03696322441101074,0.04257902503013611,-0.08788228034973145
210,-1.4612588195732752,-0.2821569892305836,2.8582468488994,-0.9547009468078613,0.27842798829078674,-0.10499582439661026,-0.33541613817214966,0.17058317363262177,-0.09858392179012299,0.05960506200790405,0.006651967763900757,-0.01997363567352295
211,-1.4895307879580513,-0.30024404471858934,2.842269478935938,-0.9521118402481079,0.2957533299922943,-0.07754465937614441,0.12671992182731628,-0.3902924656867981,0.3626057207584381,-0.01666879653930664,0.031624019145965576,-0.09672600775957108
212,-1.4942493735744955,-0.30929830362139804,2.8702648086143374,-0.9497580528259277,0.3043903112411499,-0.07284341752529144,-0.03061513788998127,0.19449597597122192,-0.27026981115341187,-0.06069415807723999,0.015937447547912598,0.010831654071807861
213,-1.4626075349841716,-0.29331781216299996,2.827212660279511,-0.9516929388046265,0.28912991285324097,-0.10336612164974213,-0.29382240772247314,0.06100261211395264,0.11156520992517471,0.07980573177337646,0.07056552171707153,-0.03468012809753418
214,-1.4779100023190352,-0.30806056248821817,2.8412347095098767,-0.9488155841827393,0.3032110631465912,-0.08838633447885513,0.21888016164302826,-0.27194634079933167,0.04289165884256363,0.004067599773406982,0.034221768379211426,-0.025551021099090576
215,-1.4604661480420031,-0.30238418361039504,2.7947382974561434,-0.9488247632980347,0.2977970540523529,-0.10511084645986557,-0.8729355335235596,0.4352462589740753,-0.07920543104410172,0.08906841278076172,0.028283238410949707,-0.04361651837825775
216,-1.4733259258377105,-0.3158341455585903,2.712747800163537,-0.9460259675979614,0.31060945987701416,-0.0925026535987854,-0.5562030076980591,0.08273082226514816,0.08544833958148956,-0.020725131034851074,0.07118067145347595,-0.03362642973661423
217,-1.4926487139387508,-0.34319327059890786,2.660081088348021,-0.9388108849525452,0.33649584650993347,-0.07351554185152054,-0.49359413981437683,-0.08956186473369598,0.26697102189064026,-0.03019845485687256,0.016180485486984253,-0.02145516127347946
218,-1.505326215742244,-0.3672659855967605,2.5995939271761856,-0.9313129186630249,0.35906508564949036,-0.061060428619384766,-0.9886808395385742,0.1724889576435089,0.16369782388210297,-0.028068125247955322,-0.017085134983062744,0.011652473360300064
219,-1.5296507592972597,-0.3870438808752647,2.4828384841603626,-0.9252451062202454,0.3774526119232178,-0.03809123486280441,-1.0474307537078857,0.09410438686609268,0.08977997303009033,-0.026155591011047363,-0.03355008363723755,-0.04203271493315697
220,-1.5752863382996654,-0.39387370841475783,2.379021558194951,-0.9234201908111572,0.38376837968826294,0.004146195016801357,-0.7222710847854614,0.26527172327041626,-0.0535864382982254,-0.14408481121063232,0.055211782455444336,-0.09217417240142822
221,-1.557716791005314,-0.3923026216258615,2.3099789123210854,-0.9239521026611328,0.38231712579727173,-0.012085553258657455,-0.5682825446128845,0.27405858039855957,0.001138861756771803,0.06132704019546509,-0.012535661458969116,0.060227036476135254
222,-1.6175517719963226,-0.3968250443336496,2.208899111291421,-0.9212847948074341,0.3864920437335968,0.04310649633407593,-1.0737876892089844,-0.16256028413772583,0.008346226997673512,-0.017466366291046143,0.06283345818519592,-0.0955052375793457
223,-1.6370991634785172,-0.37637032659331027,2.1260519666829083,-0.9279615879058838,0.36754727363586426,0.06161680445075035,-0.5673812031745911,-0.004029474686831236,-0.3098255693912506,0.05926334857940674,0.01688268780708313,-0.0016039535403251648
224,-1.6384332537592816,-0.3513078172311958,2.027564774180414,-0.9367764592170715,0.34412604570388794,0.06345747411251068,-1.0257667303085327,0.5712398886680603,-0.07906223088502884,0.06850576400756836,0.07898479700088501,0.02484510838985443
225,-1.6352339562029468,-0.34713979776646015,1.9513063711190024,-0.9383980631828308,0.34020960330963135,0.060551974922418594,-0.648981511592865,-0.040888357907533646,0.1589030921459198,0.05672997236251831,0.032471030950546265,0.04581713303923607
226,-1.6562342389372877,-0.3530809287203346,1.8838141266439858,-0.9348890781402588,0.3457903265953064,0.0800698921084404,-0.5936347246170044,0.008791272528469563,-0.06692205369472504,-0.052232325077056885,0.031116992235183716,0.01705227792263031
227,-1.65222369772383,-0.3438803217081267,1.8200880322035213,-0.9383342266082764,0.3371427655220032,0.07657540589570999,-0.6161432862281799,0.26307252049446106,0.11800902336835861,0.07151293754577637,0.019394099712371826,0.0780266523361206
228,-1.6821093027473797,-0.35923369771098085,1.7670515532598208,-0.9303725957870483,0.3515569567680359,0.10399240255355835,-0.3788406550884247,-0.29541975259780884,0.21927562355995178,0.0016769766807556152,0.0030877888202667236,0.022548668086528778
229,-1.7115150158476815,-0.3695339437774557,1.7143018708654552,-0.9232785105705261,0.3611808717250824,0.1307869553565979,-0.6682888865470886,0.08814220875501633,0.013419919647276402,-0.004410088062286377,-0.025380700826644897,0.010128006339073181
230,-1.7256367714071843,-0.3579710482908204,1.6609715454734943,-0.9254043698310852,0.35037460923194885,0.1444462686777115,-0.37304335832595825,0.013497861102223396,-0.011006537824869156,0.04245436191558838,-0.0026573240756988525,-0.0196140855550766
231,-1.7344966472406478,-0.35526607501408536,1.632157599011758,-0.9250196814537048,0.3478398323059082,0.1527933031320572,-0.20826540887355804,0.0725211352109909,-0.002386318286880851,0.01909029483795166,0.014007031917572021,0.015389055013656616
232,-1.7354480483105774,-0.35781947073785186,1.610936059315955,-0.923994779586792,0.35023266077041626,0.15352723002433777,-0.20075549185276031,0.1362529993057251,0.049201082438230515,0.015639126300811768,0.00021591782569885254,0.03356073796749115
233,-1.7374328569581567,-0.3597054907828073,1.5867869384177415,-0.923035204410553,0.35199859738349915,0.15525104105472565,-0.27938759326934814,0.09595703333616257,0.029639212414622307,0.017807602882385254,-0.020928651094436646,0.04605817794799805
234,-1.7383011338294359,-0.3589150085338102,1.5554811235159247,-0.9231740832328796,0.3512585759162903,0.15609876811504364,-0.005538635887205601,0.07852420210838318,0.03370868042111397,-0.02299278974533081,0.001860290765762329,-0.014619246125221252
235,-1.7224617919872343,-0.360264938872607,1.5713829864818472,-0.9250611662864685,0.3525221645832062,0.14138557016849518,-0.1046404018998146,0.013031195849180222,0.04496314376592636,0.09145832061767578,-0.015959084033966064,0.06271599233150482
236,-1.7263695679067483,-0.36257279781017143,1.5737174094531756,-0.9236953854560852,0.3546809256076813,0.14487296342849731,0.20124255120754242,0.08254306763410568,-0.05499120056629181,0.0052536725997924805,-0.03424638509750366,-0.01177060604095459
237,-1.7039537164146281,-0.3541490423546325,1.5962025086411589,-0.9296389222145081,0.3467923402786255,0.12452514469623566,0.30315935611724854,0.23078316450119019,-0.08452203124761581,0.017010748386383057,-0.005575329065322876,0.026201240718364716
238,-1.678968432008567,-0.340344151907326,1.6380826192987534,-0.9371301531791687,0.33381152153015137,0.10176859050989151,0.21025018393993378,0.11560570448637009,-0.24807500839233398,-0.009250402450561523,0.03198742866516113,0.0905836671590805
239,-1.6512456601275003,-0.3187748357402322,1.657259570360955,-0.9465488791465759,0.3134033679962158,0.07631393522024155,0.19885115325450897,0.1914709508419037,-0.18499165773391724,0.010376274585723877,0.06478574872016907,0.07287121564149857
240,-1.6344127818183987,-0.31403819324229265,1.6557102282293965,-0.9491699934005737,0.308901846408844,0.060464419424533844,0.059398651123046875,0.09334424883127213,0.04789526388049126,0.02755439281463623,0.058392465114593506,-0.04140615463256836
241,-1.625958111588525,-0.31944191162261026,1.6749773047113858,-0.9479668736457825,0.3140367567539215,0.05234464630484581,0.19348767399787903,-0.004136248026043177,0.02947913482785225,0.048033952713012695,0.026051104068756104,-0.062049269676208496
242,-1.6192797732247408,-0.3321778735145533,1.693220347631984,-0.9442235827445984,0.326102614402771,0.0458151176571846,-0.02629035711288452,0.026468148455023766,0.08918263763189316,-0.009145617485046387,-0.01978239417076111,-0.047279953956604004
243,-1.600735332167786,-0.33107628973057107,1.7126909207579606,-0.9452693462371826,0.32506105303764343,0.02830888144671917,0.4081459641456604,0.0901205837726593,-0.06117037311196327,-0.010175108909606934,0.0004242062568664551,-0.029651638120412827
244,-1.5871589828111061,-0.331125527813323,1.7539451838408127,-0.9455505609512329,0.3251076340675354,0.015473099425435066,0.3948137164115906,-0.04356905445456505,-0.030561955645680428,-0.01250314712524414,0.0020866096019744873,-0.040512800216674805
245,-1.572856506395946,-0.33082119583711167,1.8009741716972714,-0.9457738399505615,0.32481980323791504,0.001948466757312417,0.37882110476493835,0.035475216805934906,0.10121816396713257,0.0318945050239563,0.038232505321502686,-0.0056258440017700195
246,-1.5681509169660732,-0.3453658388476671,1.8440196882757411,-0.9409484267234802,0.3385409414768219,-0.0024892000947147608,0.3964115381240845,-0.08799202740192413,0.044856976717710495,-0.03118908405303955,0.010595440864562988,-0.005002856254577637
247,-1.564931620466999,-0.35235898411685174,1.8740114020985348,-0.9385449886322021,0.3451128304004669,-0.005504353903234005,0.20082193613052368,-0.07762954384088516,0.057677462697029114,-0.0080186128616333,0.002375572919845581,-0.007114648353308439
248,-1.5607023016134567,-0.3538258715004995,1.8977440784904158,-0.9380061626434326,0.34648922085762024,-0.009468579664826393,0.14842696487903595,-0.06799116730690002,-0.01848668046295643,0.004961729049682617,-0.01714351773262024,0.027138233184814453
249,-1.5692291910494678,-0.3533062656461567,1.9076138959342968,-0.9382327198982239,0.3460017442703247,-0.0014703392516821623,0.15071074664592743,-0.08133427798748016,0.03307214751839638,-0.03492701053619385,-0.004510045051574707,-0.023798227310180664
250,-1.565750516790387,-0.35535729934605464,1.948582727178073,-0.9375103116035461,0.3479253649711609,-0.004730538930743933,0.5213786959648132,-0.023445267230272293,-0.022072359919548035,0.0023296475410461426,-0.043192148208618164,-0.024459481239318848
251,-1.5666076104844067,-0.3577897583964214,2.0249685072844144,-0.9366648197174072,0.35020482540130615,-0.0039234459400177,0.7404499650001526,-0.35423317551612854,0.07193992286920547,-0.027553200721740723,-0.02569618821144104,-0.021634995937347412
252,-1.570109761040269,-0.35509345716422736,2.0874103701499687,-0.937613844871521,0.347678005695343,-0.0006437336560338736,0.5651715397834778,-0.23796087503433228,-0.08070283383131027,-0.023079514503479004,0.027230441570281982,-0.05022907257080078
253,-1.5781117254539307,-0.34869734731616997,2.1553367676316273,-0.9397934675216675,0.3416738510131836,0.006875086575746536,0.5947961211204529,-0.29002922773361206,0.008220765739679337,0.020558297634124756,0.025422096252441406,-0.022011756896972656
254,-1.5975726868075955,-0.3496828848449048,2.2212386300652516,-0.9391446709632874,0.34259989857673645,0.025152888149023056,0.5110637545585632,-0.479319304227829,0.013729311525821686,0.0044217705726623535,0.019201219081878662,-0.012411832809448242
255,-1.6215483125347756,-0.35248158698970883,2.250894613562476,-0.9373105764389038,0.3452278971672058,0.047611258924007416,0.16212178766727448,-0.29616010189056396,0.0022466008085757494,-0.04895663261413574,0.04455795884132385,-0.05369948595762253
256,-1.619364232461309,-0.3612005271672796,2.297523991175646,-0.9343701004981995,0.35339754819869995,0.04541611298918724,0.915837824344635,-0.06887596100568771,0.09790971875190735,0.06941044330596924,-0.03230684995651245,-0.06697678565979004
257,-1.6342541543187588,-0.3762401967271732,2.4099335747170163,-0.9281806945800781,0.3674262464046478,0.058979518711566925,0.7956246733665466,-0.8981190323829651,0.09564586728811264,-0.019115447998046875,0.008458733558654785,0.07456541061401367
258,-1.6973982538507946,-0.38533142359351635,2.4905197299778212,-0.9192573428153992,0.37586626410484314,0.11700554192066193,1.0695372819900513,-0.9441955089569092,-0.15975306928157806,-0.03260105848312378,0.012820780277252197,-0.0473797470331192
259,-1.7352895386953782,-0.3821141771071767,2.586701934530279,-0.9153532981872559,0.37288299202919006,0.15194229781627655,0.4064171314239502,-0.5019832849502563,0.024953987449407578,0.06969606876373291,0.02801111340522766,0.033085793256759644
260,-1.7638096082943822,-0.39494483773371475,2.592734726058053,-0.905877947807312,0.38475728034973145,0.17705057561397552,-0.014239205978810787,-0.17758908867835999,0.10472330451011658,0.022409379482269287,0.012200117111206055,-0.03602887690067291
261,-1.7897071855520246,-0.4045626504293284,2.604901713056232,-0.8973358273506165,0.39361676573753357,0.19963577389717102,0.08578446507453918,-0.3177902102470398,0.06773961335420609,0.009411513805389404,0.007536858320236206,-0.006795138120651245
262,-1.8045493247548803,-0.39638899757005,2.5977200312263835,-0.8973738551139832,0.38608986139297485,0.2136697620153427,-0.08294565975666046,0.009023244492709637,-0.2691613733768463,-0.02590489387512207,0.05614033341407776,0.06252966821193695
263,-1.809288419260067,-0.3741824794175178,2.6201674906166303,-0.904460608959198,0.3655116856098175,0.21989162266254425,0.37079471349716187,-0.24896639585494995,-0.08048916608095169,0.0759846568107605,0.060208529233932495,0.08288848400115967
264,-1.8227252456112424,-0.36579627389091546,2.6105209067692083,-0.9043611288070679,0.35769298672676086,0.23278041183948517,-0.3628154397010803,0.0038208365440368652,-0.1336323767900467,0.02212846279144287,0.07283371686935425,0.0094834566116333
265,-1.835676867234654,-0.35518063411761425,2.6011866099385714,-0.9048844575881958,0.3477597236633301,0.24545380473136902,0.08633474260568619,-0.1653098464012146,-0.01837732642889023,0.02338409423828125,0.10310700535774231,-0.03207489848136902
266,-1.8424689046184242,-0.3559123301668639,2.581400243081066,-0.9029510617256165,0.3484456539154053,0.25152572989463806,-0.49028342962265015,0.07481510937213898,0.0023663616739213467,0.0655791163444519,0.12663674354553223,0.013794094324111938
267,-1.8482205953725244,-0.35885039778572225,2.5138678151719005,-0.9005008339881897,0.35119807720184326,0.25643351674079895,-0.7489518523216248,0.14481762051582336,0.33002135157585144,0.0825229287147522,0.16836369037628174,0.015386462211608887
268,-1.866214982915725,-0.3702716712012821,2.4336717870792737,-0.8918451070785522,0.3618687093257904,0.2714095115661621,-0.6928719282150269,0.29091474413871765,0.3620992600917816,0.0383601188659668,0.1287165880203247,0.004682987928390503
269,-1.8678579898486207,-0.39311802223835035,2.3485649197684735,-0.8832608461380005,0.3830704391002655,0.2703835070133209,-0.7895992994308472,0.2512325346469879,0.4605301022529602,0.012548625469207764,0.04255816340446472,-0.002027183771133423
270,-1.867745081209657,-0.4024002447106055,2.238584897468726,-0.8798531293869019,0.3916279971599579,0.2692316770553589,-0.878937840461731,0.4338383078575134,0.3503499925136566,0.011384069919586182,0.01646825671195984,-0.04494279623031616
271,-1.864406890775046,-0.4182447301116962,2.1542428518128633,-0.874697208404541,0.40615710616111755,0.2644639313220978,-0.6123045086860657,0.2750890552997589,0.3881152272224426,0.016375064849853516,-0.025023072957992554,0.0029463768005371094
272,-1.8516857820154984,-0.42718818163457994,2.074299002367193,-0.8744656443595886,0.41431331634521484,0.2522987127304077,-0.7225919365882874,0.45153191685676575,0.12862522900104523,-0.025085866451263428,-0.03526964783668518,0.08760610222816467
273,-1.8565353450120439,-0.43326653812423416,2.0136798603226467,-0.8707994222640991,0.41983774304389954,0.25582191348075867,-0.4201948642730713,0.043530844151973724,0.22540780901908875,-0.01140284538269043,-0.0071942806243896484,0.08861473202705383
274,-1.872501522597112,-0.43580855312697114,1.9676080949430657,-0.8655821681022644,0.42214351892471313,0.2693740129470825,-0.4594038724899292,0.13864880800247192,0.14150060713291168,0.01842951774597168,-0.03981932997703552,0.04053196310997009
275,-1.86668405157925,-0.4378168206870068,1.9167647717162652,-0.8663216829299927,0.4239632189273834,0.26408618688583374,-0.4179075360298157,0.24002104997634888,0.17532122135162354,-0.019282996654510498,0.024828195571899414,0.02166503667831421
276,-1.852888406051071,-0.43106135938502116,1.876841384922223,-0.8726136088371277,0.4178352952003479,0.25290152430534363,-0.18809078633785248,0.2932458519935608,0.049719929695129395,0.050485312938690186,0.012569308280944824,-0.025408297777175903
277,-1.850207579683555,-0.4355987937796154,1.8585393076235457,-0.8714571595191956,0.42195335030555725,0.2500358819961548,-0.22381240129470825,0.23403377830982208,0.16819486021995544,0.028988778591156006,0.03796184062957764,0.0042060911655426025
278,-1.8369633080478434,-0.4446515685827515,1.8128157182928768,-0.8709707856178284,0.4301433563232422,0.23745790123939514,-0.2909856140613556,0.2586318254470825,0.1574309766292572,-0.0015265941619873047,-0.0007306039333343506,-0.08137576282024384
279,-1.8323838209516257,-0.45893005177134816,1.8086743549363908,-0.86602783203125,0.4429891109466553,0.23185479640960693,0.2739900052547455,-0.07125070691108704,0.03244584798812866,-0.07687389850616455,-0.034358710050582886,-0.10943350195884705
280,-1.8108229458444438,-0.4540738981598678,1.8219031191209334,-0.872904360294342,0.43863025307655334,0.21363890171051025,-0.39991840720176697,0.5427989959716797,-0.10442965477705002,-0.05728667974472046,-0.026932895183563232,0.018416762351989746
281,-1.7672288499048594,-0.43669414312107535,1.800694011200199,-0.8887286186218262,0.42294615507125854,0.17685577273368835,0.20659014582633972,0.2340797334909439,-0.101376011967659,0.03606754541397095,-0.03674623370170593,-0.029928937554359436
282,-1.7666455603316178,-0.4416839728587818,1.8103706548874867,-0.8867504000663757,0.4274624288082123,0.17592446506023407,0.03851515054702759,-0.07361169904470444,0.0811677798628807,-0.03976315259933472,-0.007296442985534668,-0.06998278200626373
283,-1.7578949499598149,-0.43894348887814966,1.8316206342738688,-0.8894037008285522,0.42498335242271423,0.16837552189826965,0.03176368027925491,0.12593302130699158,-0.08792182058095932,-0.0036169886589050293,-0.008494645357131958,-0.025080189108848572
284,-1.7194556868025155,-0.43883932751975296,1.813947722240313,-0.8952609896659851,0.42488905787467957,0.13407807052135468,-0.150029718875885,0.5112941861152649,0.07047959417104721,0.007199525833129883,0.010657787322998047,-0.014571204781532288
285,-1.683399637601337,-0.44562398320788793,1.8144868861358154,-0.8966273069381714,0.4310210049152374,0.10139209777116776,0.09251736104488373,0.14799001812934875,0.11227980256080627,-0.05227100849151611,0.018106192350387573,0.015505433082580566
286,-1.6704884556124722,-0.4477815096601483,1.8319462292515505,-0.8969342112541199,0.43296682834625244,0.08971469104290009,0.015522568486630917,0.14657887816429138,0.012372240424156189,-0.04607415199279785,0.04785284399986267,0.051306962966918945
287,-1.6669736042386267,-0.4520619910280315,1.8101621784237174,-0.8953909873962402,0.436821311712265,0.08638278394937515,-0.32270798087120056,0.08941550552845001,0.059375956654548645,0.03018718957901001,-0.00130501389503479,-0.010607607662677765
288,-1.6928174324090564,-0.45977272737444985,1.7742584734277305,-0.8894903063774109,0.4437444508075714,0.10907848924398422,-0.20162537693977356,-0.2678212821483612,0.15619589388370514,-0.07144725322723389,0.05128118395805359,-0.09156131744384766
289,-1.6922961777272665,-0.4597223256134329,1.7657401532488017,-0.889569103717804,0.44369927048683167,0.10861752182245255,0.003743994515389204,0.45598000288009644,-0.14023230969905853,0.10635077953338623,-0.03581660985946655,0.06537842750549316
290,-1.6824423519447154,-0.4498850837294226,1.7173958143218682,-0.8948906660079956,0.43486204743385315,0.10032819211483002,-1.0255595445632935,0.15546302497386932,0.06654505431652069,0.0895928144454956,0.06411558389663696,0.09406876564025879
291,-1.712608458436376,-0.455520021731972,1.6424223177089001,-0.8890174627304077,0.43992936611175537,0.12692545354366302,-0.16134144365787506,-0.0191273745149374,0.19126182794570923,-0.06796801090240479,0.06564006209373474,-0.03756999969482422
292,-1.702999014038034,-0.4559955764643765,1.646917865293531,-0.8899886608123779,0.44035637378692627,0.11834918707609177,-0.23250631988048553,0.15282028913497925,-0.14913511276245117,0.03352808952331543,-0.03584590554237366,0.11924540996551514
293,-1.7071695971567586,-0.4402650955672465,1.572365743596159,-0.896239697933197,0.42617928981781006,0.12298650294542313,-0.8376625180244446,0.45012718439102173,-0.06748876720666885,0.02453559637069702,0.017500489950180054,0.062178850173950195
294,-1.711508916810014,-0.42656304519398025,1.502811107212355,-0.9013952016830444,0.4137442708015442,0.12768146395683289,-0.4538912773132324,0.12982721626758575,-0.02199558913707733,0.019589781761169434,0.02467125654220581,0.018604516983032227
295,-1.723621570770964,-0.4247531586390588,1.4350557630985274,-0.9005211591720581,0.4120958745479584,0.13870388269424438,-0.7711309194564819,0.09262219816446304,0.1198449581861496,0.032997965812683105,0.003095775842666626,0.00840616226196289
296,-1.7388135644905311,-0.4267681037260975,1.3651879031712475,-0.8974895477294922,0.4139309525489807,0.15222887694835663,-0.6154628992080688,0.25344598293304443,0.0974237397313118,0.017866194248199463,-0.0102597177028656,-0.01357223093509674
297,-1.7351125667908522,-0.41900841100494374,1.2780030994039504,-0.9011886119842529,0.4068548381328583,0.14942719042301178,-0.8049992322921753,0.3972014784812927,0.060960546135902405,0.02516615390777588,0.012365162372589111,0.011202111840248108
298,-1.7195204566318416,-0.4081898098349488,1.1713259357873502,-0.9077087044715881,0.39694851636886597,0.13600240647792816,-1.0594345331192017,0.6428189873695374,-0.06452877074480057,0.010614097118377686,0.014611542224884033,0.05294714868068695
299,-1.700896452526072,-0.393223406948359,1.0475241432369895,-0.9158726930618286,0.3831678032875061,0.11983201652765274,-1.1257989406585693,0.8446427583694458,0.12940680980682373,0.04868519306182861,-0.02460154891014099,0.02221202850341797
300,-1.6802598624340168,-0.4035319194003289,0.9364966795882954,-0.9141752123832703,0.39266902208328247,0.10047046095132828,-0.6105730533599854,0.2739142179489136,0.38063687086105347,-0.040277063846588135,-0.025557905435562134,-0.019232772290706635
301,-1.6693193419941494,-0.420534177891219,0.8932157264445987,-0.9084439873695374,0.4082481563091278,0.0897933691740036,-0.5510669946670532,0.48185452818870544,0.061877042055130005,-0.02083146572113037,-0.1060173511505127,0.062275759875774384
302,-1.6513382029462702,-0.4224656737044797,0.8229915893380121,-0.9091238975524902,0.41001057624816895,0.07338128983974457,-0.521776020526886,0.38702666759490967,0.010951835662126541,-0.06582105159759521,-0.036994338035583496,0.015119664371013641
303,-1.639123623878701,-0.41437329793325317,0.7841039360324726,-0.9132327437400818,0.40261635184288025,0.06249601021409035,-0.193243607878685,0.060397569090127945,-0.05631791055202484,-0.014318346977233887,-0.014737993478775024,0.008899793028831482
304,-1.6479371750742593,-0.4080819705766126,0.7912507118288181,-0.915153980255127,0.39684954285621643,0.0707361176609993,0.3060985207557678,-0.15960100293159485,-0.07729149609804153,-0.06915998458862305,0.06524759531021118,-0.023433804512023926
305,-1.6478576516306849,-0.3917133879038306,0.8276561738969974,-0.9215131998062134,0.38177257776260376,0.07115393131971359,0.24160553514957428,-0.2664395272731781,-0.2573675215244293,0.05977320671081543,0.033693671226501465,-0.04080427438020706
306,-1.6630501260823118,-0.383189959193017,0.8313504272007104,-0.9235329031944275,0.3738809823989868,0.0854419469833374,-0.1986927092075348,0.020025797188282013,0.12198099493980408,0.03008490800857544,0.08698025345802307,-0.1114734336733818
307,-1.647699949544452,-0.3907112043953797,0.8109950079090488,-0.9219056367874146,0.3808461129665375,0.07103797793388367,-0.37804433703422546,0.2905590236186981,-0.07740508764982224,0.0573883056640625,0.028257310390472412,-0.03960477560758591
308,-1.6290423000509884,-0.3864798544262943,0.730595721037595,-0.9246707558631897,0.37693026661872864,0.053919337689876556,-0.8596296310424805,0.7877907752990723,-0.01861141435801983,-0.018093347549438477,0.0633314847946167,-0.03360987827181816
309,-1.5832699969098063,-0.4060290779405693,0.6413794511857417,-0.9186248779296875,0.3949643671512604,0.011459218338131905,-0.5520714521408081,0.5683066844940186,0.495610773563385,0.007064938545227051,0.006051838397979736,0.012161373160779476
310,-1.5793094474567382,-0.4507632018310724,0.5967622405943477,-0.9000823497772217,0.43565264344215393,0.007662694901227951,-0.5021942257881165,0.15142400562763214,0.3882524371147156,-0.05717790126800537,-0.07272225618362427,0.06518280506134033
311,-1.5935953687531104,-0.47618622097791363,0.545445731317257,-0.8885185122489929,0.45839303731918335,0.020260881632566452,-0.3998868763446808,0.029800329357385635,0.21039317548274994,-0.05897587537765503,-0.07405471801757812,0.004687188193202019
312,-1.60339495283071,-0.4932544309515783,0.48577188016449974,-0.8803288340568542,0.47349488735198975,0.028707679361104965,-0.4220079779624939,0.15209151804447174,0.11094652861356735,-0.0490078330039978,-0.09371882677078247,-0.02733432874083519
313,-1.6092867226901757,-0.4991562297141902,0.44473078713020564,-0.8773365020751953,0.4786849021911621,0.03378571569919586,-0.39298367500305176,0.23565492033958435,0.026543714106082916,-0.08125114440917969,-0.05893084406852722,0.001477360725402832
314,-1.6068944432090206,-0.49682101853353994,0.40853320328110065,-0.87852942943573,0.47663331031799316,0.03172703832387924,-0.2903272807598114,0.12655054032802582,0.008317671716213226,-0.052256643772125244,-0.04577091336250305,0.039790865033864975
315,-1.616063278965316,-0.5046169923932028,0.36332948597672504,-0.8744629621505737,0.48347219824790955,0.0396113321185112,-0.3322952687740326,0.25057661533355713,0.1552063524723053,-0.0900450348854065,-0.022870421409606934,0.004745956510305405
316,-1.6113452118024099,-0.5064709146578571,0.377756848262694,-0.8737431168556213,0.48509421944618225,0.03544873744249344,0.5037034749984741,-0.27986034750938416,-0.248935267329216,0.011423170566558838,-0.09364524483680725,0.029599428176879883
317,-1.6413674861049694,-0.47728809306442016,0.3561203922199993,-0.8860330581665039,0.45937204360961914,0.06263238936662674,-0.8198825120925903,0.058413680642843246,-0.18079829216003418,-0.049086570739746094,0.14277029037475586,-0.010401494801044464
318,-1.634826028863952,-0.4660115127421828,0.2725586783916479,-0.8915368318557739,0.44932669401168823,0.05716297775506973,-0.6065269112586975,0.678217351436615,0.19695143401622772,0.1604730486869812,0.10114938020706177,0.03562581539154053
319,-1.6730937834066089,-0.48459809134772625,0.23746400652314234,-0.8802363872528076,0.4658527672290802,0.09036136418581009,-0.042918723076581955,-0.8158876299858093,0.07218954712152481,-0.013592958450317383,0.016630172729492188,-0.002180814743041992
320,-1.7279739157119138,-0.5004743314607366,0.20605373901335053,-0.8665400147438049,0.4798417389392853,0.1373334676027298,-0.17333513498306274,-0.17423857748508453,0.24927808344364166,-0.06407833099365234,-0.014708101749420166,-0.11894655227661133
321,-1.7320811448416737,-0.5147093886362172,0.24911883898866402,-0.8591389656066895,0.4922819137573242,0.1397802084684372,0.3652568459510803,-0.37815582752227783,-0.05585114657878876,0.014732956886291504,-0.1230192482471466,0.019521459937095642
322,-1.747200403747407,-0.5001894019343509,0.25638234439534946,-0.8638739585876465,0.4795917570590973,0.15399153530597687,-0.145629420876503,0.002202398143708706,-0.2104819416999817,0.0026679635047912598,-0.061317890882492065,-0.003509417176246643
323,-1.7528619901125064,-0.48121162934133493,0.27633121545527645,-0.8717836737632751,0.4628535509109497,0.1604992002248764,0.46543851494789124,-0.2513803541660309,-0.20968382060527802,0.017443954944610596,-0.03113657236099243,-0.042182549834251404
324,-1.7482390637414231,-0.4711054955298169,0.3259539133898805,-0.8770759105682373,0.45387163758277893,0.15728497505187988,0.38660240173339844,-0.08100100606679916,-0.1929890513420105,0.004242599010467529,-0.06967055797576904,-0.04530072212219238
325,-1.722773008340402,-0.45784068545456846,0.3870590236865912,-0.8866696953773499,0.442012220621109,0.13580025732517242,0.49117472767829895,0.12653321027755737,-0.2562495768070221,-0.02238774299621582,-0.07491633296012878,0.07042226195335388
326,-1.6983829454476984,-0.4535868681589464,0.43685956294459954,-0.8915748000144958,0.4381925165653229,0.11437429487705231,0.9098087549209595,-0.1256067305803299,-0.00023338175378739834,-0.0179252028465271,-0.07715436816215515,0.0011194795370101929
327,-1.681201660022135,-0.4626075445468726,0.5579525588034119,-0.8894433379173279,0.44628310203552246,0.09860023856163025,0.9332004189491272,-0.4237059950828552,-0.10019074380397797,-0.14273744821548462,-0.03423476219177246,0.05494892597198486
328,-1.6789783091854535,-0.4447548756338653,0.650671126398423,-0.8974389433860779,0.4302366077899933,0.09746725112199783,0.7446457147598267,-0.4024551808834076,-0.37202563881874084,-0.08150392770767212,-0.0060117244720458984,-0.05759596824645996
329,-1.6812103061965609,-0.422548305131218,0.7800809951805439,-0.906493067741394,0.4100859463214874,0.1004982441663742,1.7185964584350586,-0.7757076025009155,-0.46018722653388977,-0.04792892932891846,0.053369224071502686,-0.08780288696289062
330,-1.671639701313755,-0.40262106854786284,0.9196295133255994,-0.9153630137443542,0.3918311595916748,0.09262248128652573,0.928511381149292,-0.2905615270137787,-0.12992005050182343,0.04866379499435425,0.0694725513458252,-0.06962740421295166
331,-1.6689713883995563,-0.4023829738379341,1.0740917884420447,-0.91569983959198,0.39161211252212524,0.09018883109092712,1.6593773365020752,-0.7673225402832031,-0.028718581423163414,0.08520960807800293,0.03223136067390442,-0.09853541105985641
332,-1.6705831864604257,-0.4141435120295555,1.2189635007244666,-0.9109072685241699,0.4024060070514679,0.09119947999715805,0.8836078643798828,-0.3753567636013031,-0.03099147416651249,0.03309965133666992,0.0054766833782196045,-0.07084417343139648
333,-1.671183470081613,-0.42048715234845424,1.3125568715060865,-0.9082942605018616,0.40820521116256714,0.09148859977722168,0.9277759790420532,-0.3371051847934723,0.047099389135837555,-0.017090260982513428,0.03722935914993286,-0.12699580192565918
334,-1.6505301847869704,-0.43659182996839174,1.4244620286875949,-0.9033190011978149,0.4228534400463104,0.07217813283205032,1.0832667350769043,-0.2618071138858795,-0.018711533397436142,-0.030030548572540283,-0.013902664184570312,-0.042438752949237823
335,-1.640728848961968,-0.42541162710834673,1.503552792482249,-0.9086424708366394,0.4126957654953003,0.06364744901657104,0.6094775199890137,-0.17448437213897705,-0.2176460474729538,-0.01019597053527832,0.0016718804836273193,-0.03215337544679642
336,-1.6323043352728763,-0.40820035319431863,1.5663913742370252,-0.9161010980606079,0.39695820212364197,0.05641872063279152,0.6328696608543396,-0.20065546035766602,-0.20830167829990387,0.00736391544342041,0.03681868314743042,-0.056372880935668945
337,-1.6176717394475069,-0.3972365834638628,1.6087450022237926,-0.9211207032203674,0.3868715763092041,0.043209563940763474,0.500556230545044,-0.07792732864618301,-0.027466382831335068,0.04209238290786743,0.02902194857597351,-0.03986788168549538
338,-1.6137467680525244,-0.4083087430517696,1.6712432123715522,-0.9169471263885498,0.3970576822757721,0.03940751776099205,0.837341845035553,-0.3172432482242584,0.10374688357114792,-0.052641987800598145,0.02974584698677063,-0.02993178740143776
339,-1.603703472974439,-0.410827112323047,1.717090005376102,-0.9162946343421936,0.3993677496910095,0.030163530260324478,0.4997151494026184,-0.04300382360816002,-0.07672573626041412,-0.029613018035888672,0.043961167335510254,-0.03100275620818138
340,-1.6030623963221522,-0.4024727535044143,1.773175591486269,-0.9196164011955261,0.39169469475746155,0.029682708904147148,0.41746753454208374,-0.22300785779953003,-0.14131921529769897,0.0022121667861938477,0.03086698055267334,0.00936448946595192
341,-1.6080176866768852,-0.39145508333211626,1.7931022866934117,-0.9237146973609924,0.38153383135795593,0.034397803246974945,0.3726120591163635,-0.22351662814617157,-0.0812215581536293,8.487701416015625e-05,0.06943964958190918,-0.07974696159362793
342,-1.614920797568403,-0.390186601931669,1.819739634709471,-0.923937976360321,0.38036099076271057,0.04079475253820419,0.15956954658031464,-0.1878352016210556,0.07381703704595566,0.008120715618133545,0.05398041009902954,0.013038158416748047
343,-1.6325316184009537,-0.39742430594308326,1.814898785168053,-0.9203044176101685,0.38704466819763184,0.05688755214214325,-0.14327900111675262,-0.2076278179883957,0.07701177150011063,0.011216282844543457,0.025705575942993164,-0.002154231071472168
344,-1.6603858678043197,-0.4108778587729994,1.7960694677901934,-0.9130938649177551,0.3994142711162567,0.08202322572469711,-0.19803033769130707,-0.22884874045848846,0.16817836463451385,-0.029014229774475098,0.005080968141555786,-0.04378461837768555
345,-1.6833715535993965,-0.41560304892051675,1.7565837794369334,-0.9090820550918579,0.403741717338562,0.10277464985847473,-0.23492282629013062,0.003447555936872959,-0.0752868801355362,-0.05196237564086914,-0.016702473163604736,-0.07585810124874115
346,-1.687015535296478,-0.3968185359470408,1.7253896793729997,-0.9160736203193665,0.3864860534667969,0.10694729536771774,-0.27344948053359985,0.015635382384061813,-0.13643117249011993,0.037655651569366455,-0.016201049089431763,-0.021772749722003937
347,-1.6998298133723397,-0.3838624350014505,1.7118095596405172,-0.9195166230201721,0.37450459599494934,0.11931133270263672,-0.07671354711055756,-0.28768813610076904,-0.061752308160066605,0.022528886795043945,0.007468611001968384,0.08947466313838959
348,-1.7477652417931835,-0.35625864696249665,1.6671060376082067,-0.9225707650184631,0.34877026081085205,0.16499236226081848,-1.0640188455581665,0.1915496438741684,-0.2174752801656723,0.02234804630279541,0.05751022696495056,0.10742281377315521
349,-1.7601851261777193,-0.3326161864859541,1.6171645231280682,-0.9282909035682678,0.32651692628860474,0.1779404729604721,0.018137063831090927,-0.3038884103298187,0.20222313702106476,0.07172346115112305,0.035909801721572876,0.0125960111618042
350,-1.7609251484730988,-0.36090402058471754,1.627484577985732,-0.918718695640564,0.3531201481819153,0.17681056261062622,-0.06862785667181015,0.23241795599460602,0.2673286497592926,-0.0012030601501464844,-0.03280764818191528,0.04781411588191986
351,-1.748829718127514,-0.3735891766737154,1.6152602746781144,-0.9163075685501099,0.36495938897132874,0.16487902402877808,0.3692335784435272,-0.06262633204460144,0.07198666781187057,-0.04560649394989014,-0.03865015506744385,-0.0056078433990478516
352,-1.714481104216371,-0.3904438398230558,1.6605350462748165,-0.9152109026908875,0.38059890270233154,0.13241437077522278,0.3259285092353821,0.3125327527523041,0.35064616799354553,0.047214627265930176,-0.03320208191871643,0.08390951156616211
353,-1.7038317945673904,-0.4132626817979734,1.7180064056917275,-0.9077231287956238,0.4015994668006897,0.12147686630487442,0.7675589919090271,-0.6052094101905823,0.00659915478900075,-0.0020058751106262207,-0.03256571292877197,0.015455476939678192
354,-1.695592330202742,-0.4222643921143725,1.815549747877436,-0.9050694704055786,0.40982699394226074,0.11353909224271774,0.8682798743247986,0.116477832198143,0.04945700615644455,-0.019033312797546387,-0.002615690231323242,-0.00465238094329834
355,-1.648141011314296,-0.4210610746141872,1.8992502917134786,-0.909927248954773,0.40872907638549805,0.07051870971918106,0.5344255566596985,0.005226712673902512,-0.09544806182384491,0.056411683559417725,-0.04038196802139282,0.07604192942380905
356,-1.6298462647196008,-0.42722397440610343,1.958570644625909,-0.9085333943367004,0.4143458902835846,0.05371128395199776,0.6132163405418396,-0.15450534224510193,0.020995404571294785,-0.021291613578796387,-0.01645761728286743,0.07987941801548004
357,-1.6245982821947766,-0.42079715056415296,2.018219926473175,-0.9114428162574768,0.4084881842136383,0.049084775149822235,0.3824620246887207,-0.09430816769599915,-0.2115759253501892,-0.06360900402069092,0.021657049655914307,0.06590545177459717
358,-1.626791405626606,-0.39576782754765355,2.0532122348797106,-0.9212546944618225,0.3855167627334595,0.05163970962166786,0.21436768770217896,-0.3586842715740204,-0.27331796288490295,-0.00750201940536499,0.05721697211265564,0.0037802420556545258
359,-1.6335582172378247,-0.3696819751798929,2.0928441718632014,-0.9306064248085022,0.3613189160823822,0.05848342925310135,0.48820096254348755,0.088280089199543,-0.31451550126075745,0.06836283206939697,0.043939292430877686,-0.015636801719665527
360,-1.6252994380076082,-0.35370869126551274,2.169092424521919,-0.9367014169692993,0.34637928009033203,0.051103755831718445,0.6163085699081421,-0.6120153665542603,-0.03127880021929741,0.19883233308792114,0.03470891714096069,0.03457438200712204
361,-1.685393454291289,-0.3754978680672659,2.1718004702133196,-0.9242230653762817,0.3667357563972473,0.10637938976287842,-0.07748181372880936,-0.17733092606067657,0.31547820568084717,-0.11132985353469849,0.10424202680587769,-0.18967711925506592
362,-1.633807504971867,-0.37391221472475816,2.2107176564027116,-0.9290581345558167,0.36526012420654297,0.05861864984035492,0.2222319394350052,0.5433254837989807,-0.2734927535057068,0.07302480936050415,0.07725998759269714,0.12454783916473389
363,-1.6206781689100789,-0.38347993527437885,2.205629179179659,-0.9262147545814514,0.3741499185562134,0.04623965546488762,-0.22178588807582855,0.16851569712162018,0.33275094628334045,-0.003182828426361084,0.07288682460784912,0.055338144302368164
364,-1.6178527162355052,-0.42399126599510156,2.2484850006030808,-0.9104452133178711,0.41140156984329224,0.042873915284872055,1.2192304134368896,-0.7427436709403992,0.30353429913520813,-0.05441373586654663,0.02243626117706299,-0.011044029146432877
365,-1.6328829969430738,-0.4385758051938334,2.319009807029837,-0.9036130905151367,0.42465049028396606,0.05617452785372734,-0.33295920491218567,0.1849975287914276,-0.045109257102012634,-0.029538273811340332,-0.02361893653869629,0.07741618901491165
366,-1.6267381204798659,-0.43227950982550567,2.2973923140747696,-0.9065927863121033,0.4189417064189911,0.05076939985156059,-0.05117383971810341,0.018763937056064606,0.12478713691234589,0.04466944932937622,0.008258640766143799,-0.0030399486422538757
367,-1.6280607699780572,-0.45290787156658513,2.2998520885910594,-0.8977046012878418,0.4375820755958557,0.051462821662425995,0.06734607368707657,-0.10068581998348236,0.12946096062660217,-0.0500340461730957,-0.027181684970855713,-0.07653307914733887
368,-1.625062881268635,-0.45357626389836225,2.3082185630630563,-0.8975626230239868,0.4381829798221588,0.048755500465631485,-0.08840404450893402,0.14200885593891144,-0.035148922353982925,0.03272491693496704,-0.053005337715148926,-0.05641543120145798
369,-1.6082454322911612,-0.46406784048871413,2.3335852590856265,-0.8936122059822083,0.4475894272327423,0.033480629324913025,0.5583837032318115,-0.21374188363552094,0.2684831917285919,-0.03567856550216675,-0.04269745945930481,-0.04208660498261452
370,-1.5975269743307245,-0.48879972197471183,2.38294291063681,-0.8825817108154297,0.4695664942264557,0.023597601801156998,0.22403913736343384,-0.04854873940348625,0.08708611130714417,-0.07782173156738281,-0.08577743172645569,0.0012894868850708008
371,-1.5841103121562863,-0.4961286987405159,2.4605142765417307,-0.8793541193008423,0.4760245680809021,0.011708399280905724,0.9051266312599182,-0.4209013879299164,0.15162234008312225,-0.046442389488220215,-0.0369376540184021,-0.025456547737121582
372,-1.5950869132959913,-0.5054330253022431,2.5679615510298985,-0.8747068047523499,0.4841863811016083,0.021251320838928223,0.8537477850914001,-0.7802680134773254,-0.14448988437652588,-0.02901017665863037,-0.05063837766647339,-0.03591501712799072
373,-1.632334953653673,-0.4876816912691192,2.627976444999505,-0.8817492723464966,0.46857911348342896,0.054330240935087204,0.2626798450946808,-0.31311818957328796,-0.20576739311218262,-0.028864741325378418,-0.005291759967803955,-0.09011209011077881
374,-1.6503661154660278,-0.47561382570822763,2.6670784918251624,-0.8861990571022034,0.4578842222690582,0.07066386938095093,0.29993537068367004,-0.344049870967865,-0.05356428772211075,-0.03341764211654663,0.014710962772369385,-0.028824329376220703
375,-1.660121210993469,-0.46864137369345144,2.7132493400232796,-0.8886257410049438,0.45167455077171326,0.07958818227052689,0.3392595946788788,-0.2277456521987915,-0.1379116028547287,0.023925483226776123,0.03187641501426697,0.015580885112285614
376,-1.6754415786769485,-0.4604656187990845,2.797968246416806,-0.8909451365470886,0.4443652629852295,0.09357499331235886,0.9571651220321655,-0.6854189038276672,-0.060429636389017105,0.05371063947677612,0.03650021553039551,-0.007439136505126953
377,-1.6940082113375534,-0.44703440508425596,2.9111449156693037,-0.8948971033096313,0.43229326605796814,0.11082333326339722,0.6480089426040649,-0.5437061786651611,-0.4866519570350647,-0.0027621984481811523,0.05827677249908447,0.03593575954437256
378,-1.7020049845376344,-0.3914872328199153,2.9905920952305,-0.9163973927497864,0.38156354427337646,0.12093405425548553,0.6455666422843933,-0.4033607542514801,-0.6525184512138367,0.07466155290603638,0.11097490787506104,-0.002617478370666504
379,-1.7167766886677567,-0.34802486200456395,3.0809510519983974,-0.9300497770309448,0.3410417437553406,0.13674171268939972,0.8128020167350769,-0.3383203446865082,-0.5036332011222839,0.011958837509155273,0.1510237157344818,0.014305129647254944
380,-1.710698676956609,-0.3023991698406453,-3.137789767961968,-0.94529789686203,0.297811359167099,0.13311903178691864,0.36113065481185913,-0.0035126982256770134,-0.44646143913269043,0.08725029230117798,0.1307165026664734,0.07961906492710114
381,-1.7206673007588307,-0.28111077594130013,-3.090387958686953,-0.9499783515930176,0.2774229943752289,0.1434498131275177,0.5426162481307983,-0.5547528862953186,-0.046393416821956635,0.1070522665977478,0.15147104859352112,0.03463554382324219
382,-1.7508064535413237,-0.2938058697967695,-3.0386001072493216,-0.9416830539703369,0.2895970940589905,0.17136746644973755,0.27592140436172485,-0.12395872175693512,0.17508544027805328,0.07690638303756714,0.09504646062850952,0.012409448623657227
383,-1.7386618148431394,-0.3060877310657165,-3.041173229856815,-0.9401166439056396,0.3013305366039276,0.15931236743927002,-0.32275354862213135,0.453561931848526,0.02357524447143078,0.0558241605758667,0.0320281982421875,0.013844355940818787
384,-1.6649582232719013,-0.2956810827327361,-3.1147976152945205,-0.9523664116859436,0.29139143228530884,0.08994261175394058,-0.9626578092575073,1.2599455118179321,-0.12780380249023438,0.016086876392364502,-0.03643226623535156,0.03780402988195419
385,-1.586426201107137,-0.27264258349113346,3.099760481387707,-0.9629451036453247,0.26927733421325684,0.015051936730742455,-0.4669371247291565,0.9570932388305664,-0.2737409472465515,0.05281937122344971,-0.041921377182006836,0.032189249992370605
386,-1.4415508326742639,-0.23973542491876926,3.0385707335465875,-0.9632987380027771,0.2374456226825714,-0.12519992887973785,-0.8689286708831787,2.3773770332336426,-0.4361148178577423,-0.001178741455078125,-0.0015294849872589111,0.10485994815826416
387,-1.2747411946301004,-0.2139667263714599,2.998137315527312,-0.9346833229064941,0.21233783662319183,-0.28509631752967834,0.42134422063827515,0.5465495586395264,-0.14325743913650513,-0.005639553070068359,0.060672417283058167,-0.05053597688674927
388,-1.2379353152104557,-0.19600972928709337,3.041949946428881,-0.9270138740539551,0.19475702941417694,-0.32049158215522766,0.5177199244499207,0.14332705736160278,0.21983715891838074,0.052227556705474854,0.030706822872161865,-0.05978795886039734
389,-1.2174203132095742,-0.21318740979522854,3.087595002474812,-0.9169700741767883,0.21157622337341309,-0.33823272585868835,0.7887486219406128,0.02238006889820099,0.05233616754412651,-0.00281447172164917,0.10991120338439941,-0.06258511543273926
390,-1.1847291671881404,-0.19714503805243552,3.12906523748815,-0.9084526896476746,0.19587047398090363,-0.3692542016506195,-0.056713301688432693,0.39481961727142334,0.11495067179203033,0.12056505680084229,0.021902993321418762,0.013525992631912231
391,-1.138531687657901,-0.21468091409291631,3.1239963090430174,-0.8871752023696899,0.2130356729030609,-0.409311443567276,0.3580969572067261,-0.03080206736922264,0.22801588475704193,0.09641903638839722,0.03264607489109039,-0.07109621167182922
392,-1.1593723994115448,-0.18656932839691773,-3.086347948958395,-0.9006468057632446,0.18548884987831116,-0.392974853515625,0.5170140862464905,-0.22853700816631317,-0.1718730330467224,0.02929365634918213,0.11813053488731384,0.0590057373046875
393,-1.202060031261537,-0.1844232028735367,-3.0639833382524553,-0.916965663433075,0.18337954580783844,-0.3543247580528259,-0.0797276645898819,-0.16784250736236572,0.21534942090511322,-0.02321988344192505,0.13714656233787537,0.014740407466888428
394,-1.1706505861200647,-0.18747807136773997,-3.0389076164052806,-0.9048658609390259,0.1863817572593689,-0.38272660970687866,0.5068967938423157,0.4277063012123108,0.25879666209220886,0.05269300937652588,0.0823407769203186,-0.016168653964996338
395,-1.1345421450275168,-0.19542555023651234,-2.995795340111309,-0.8890887498855591,0.19418400526046753,-0.4145043194293976,0.15404048562049866,-0.2286468893289566,-0.10946166515350342,0.03659546375274658,0.07884150743484497,0.0033867955207824707
396,-1.1174978956371562,-0.20586323850567564,-2.988932582934733,-0.8800248503684998,0.20441225171089172,-0.4286862313747406,0.09815532714128494,-0.006599362939596176,0.026070035994052887,-0.03493785858154297,0.028375834226608276,-0.025888383388519287
397,-1.1286417826224866,-0.19983040593204676,-2.9430055113916187,-0.8858458399772644,0.19850312173366547,-0.41937294602394104,0.46281698346138,-0.22325503826141357,0.6006709933280945,-0.02194535732269287,-0.0020004063844680786,-0.008590340614318848
398,-1.1381799500763081,-0.23119216297863607,-2.8999296933432195,-0.8837170004844666,0.22913813591003418,-0.40809300541877747,0.15446050465106964,-0.3513299822807312,0.11966955661773682,0.03140687942504883,0.03027653694152832,-0.005664318799972534
399,-1.1509714353359788,-0.2411642857793497,-2.9185484283860634,-0.8867340087890625,0.23883338272571564,-0.39580482244491577,-0.399232417345047,0.06794888526201248,0.24560992419719696,0.0532684326171875,0.03141503036022186,-0.03913170099258423
400,-1.1559025621264867,-0.274909512058132,-2.897928534988233,-0.8807947635650635,0.2714598476886749,-0.38795652985572815,0.6532862782478333,-0.6638959646224976,0.2930714786052704,0.027477502822875977,0.008874624967575073,-0.06713688373565674
401,-1.214071041294083,-0.2743064848794742,-2.8307350144708265,-0.9020124077796936,0.2708794176578522,-0.3361518383026123,-0.028004169464111328,-0.135397806763649,0.29243847727775574,-0.1002153754234314,0.05156931281089783,0.05172806978225708
402,-1.2167505359086388,-0.32074829566525964,-2.846257568479293,-0.8901407122612,0.31527677178382874,-0.3290139436721802,0.09421873092651367,-0.05194276198744774,0.2749457061290741,-0.11570340394973755,-0.018127143383026123,-0.051799654960632324
403,-1.2363995764748477,-0.31619060631830515,-2.8209315702404743,-0.897781252861023,0.31094828248023987,-0.31192952394485474,0.28922292590141296,-0.5642967224121094,-0.08886364102363586,0.05096423625946045,-0.03947916626930237,0.0014284253120422363
404,-1.3266742408017016,-0.2952674965601539,-2.771244065589512,-0.9283573627471924,0.2909957766532898,-0.23124460875988007,0.48921647667884827,-0.8370718955993652,-0.18425123393535614,-0.03888201713562012,0.048710644245147705,-0.06166309118270874
405,-1.4106282551718121,-0.2559439123105104,-2.725942767777528,-0.9550421833992004,0.25315868854522705,-0.1542888879776001,0.6895643472671509,-0.9856159090995789,-0.4599173665046692,0.09830701351165771,0.20196518301963806,0.03295101225376129
406,-1.4497094551647631,-0.24359836611626182,-2.762268046765064,-0.9633705019950867,0.24119630455970764,-0.11722499877214432,-1.0075916051864624,-0.03368224576115608,0.033542778342962265,0.01601332426071167,0.17071470618247986,0.0031350255012512207
407,-1.5006324258960086,-0.23178462847019077,-2.8041776279481523,-0.9708632826805115,0.2297147959470749,-0.06823156028985977,-0.10080503672361374,-0.6466774344444275,-0.4007217586040497,-0.09191131591796875,0.13024002313613892,-0.01546286791563034
408,-1.5181981543837644,-0.21179418901403002,-2.86378623450124,-0.976303219795227,0.21021433174610138,-0.051399171352386475,-0.7365745306015015,0.21991480886936188,-0.018180346116423607,0.09524554014205933,0.003561258316040039,-0.013557486236095428
409,-1.5270819342333752,-0.21596040392042956,-2.9083244639377512,-0.9758379459381104,0.21428562700748444,-0.04268535599112511,-0.12946800887584686,-0.22479774057865143,0.01087102945894003,-0.02451300621032715,-0.016501203179359436,-0.05494034290313721
410,-1.55508016786891,-0.20106470317748829,-2.9158677197493534,-0.9797334671020508,0.19971269369125366,-0.01539891492575407,0.2749752998352051,-0.3882206976413727,-0.13823005557060242,0.03890711069107056,0.02318766713142395,-0.08724695444107056
411,-1.5811652530101572,-0.18303707105126069,-2.8669456367677735,-0.9832426905632019,0.1820167452096939,0.010195535607635975,0.4743322432041168,-0.22346416115760803,-0.15636907517910004,0.07223182916641235,0.057515740394592285,-0.019778013229370117
412,-1.57642059136422,-0.16589591004296322,-2.833765260236329,-0.9862552285194397,0.16513600945472717,0.005547018721699715,0.13724975287914276,-0.022367384284734726,-0.16984699666500092,0.0902743935585022,0.09783394634723663,0.05052900314331055
413,-1.5851831839248203,-0.1719691654181184,-2.8206250212154274,-0.9851477146148682,0.17112280428409576,0.014174157753586769,0.3042081892490387,-0.028808923438191414,0.14368422329425812,0.01218634843826294,0.06410667300224304,-0.025816679000854492
414,-1.568474624385355,-0.1873977360806239,-2.7879471634100566,-0.9824898838996887,0.18630282580852509,-0.0022810532245785,0.19150742888450623,0.32874181866645813,0.006719688884913921,0.00830763578414917,0.004813522100448608,0.0255049467086792
415,-1.5219351484952564,-0.19801636875215461,-2.7621279953029645,-0.9792886972427368,0.19672484695911407,-0.04788731411099434,0.5361603498458862,0.4662597179412842,0.20312267541885376,0.028345584869384766,-0.004525125026702881,-0.007883556187152863
416,-1.4793825835555703,-0.19885070701004406,-2.6976832451310435,-0.9762012958526611,0.19754281640052795,-0.08948761969804764,0.46938952803611755,0.3228059411048889,-0.08633845299482346,0.012303531169891357,0.001798003911972046,0.06022125482559204
417,-1.4511333483393352,-0.2126014544868353,-2.6646627860697705,-0.9704951643943787,0.21100349724292755,-0.11668984591960907,0.4970654249191284,-0.07284928113222122,0.21033993363380432,-0.026651322841644287,0.032511502504348755,-0.0029085129499435425
418,-1.4365577774492033,-0.23034702710595764,-2.6213015581025627,-0.9648282527923584,0.22831539809703827,-0.13030076026916504,0.22309339046478271,0.2289046347141266,0.06972555071115494,-0.038009703159332275,-0.004362180829048157,0.04065540432929993
419,-1.4218386955243978,-0.22786888669950756,-2.5906225702065755,-0.9633626341819763,0.2259020209312439,-0.14457106590270996,0.5563967227935791,0.026242876425385475,0.08647072315216064,-0.05195719003677368,0.026264742016792297,-0.015157938003540039
420,-1.4235789191153347,-0.21312874810020713,-2.5179250849571964,-0.9668017029762268,0.21151888370513916,-0.14336727559566498,0.8607227206230164,-0.3476552367210388,-0.21402135491371155,-0.03744024038314819,0.07761991024017334,-0.014729082584381104
421,-1.445974554384476,-0.1945138383358909,-2.4429795277490456,-0.9735082387924194,0.19328956305980682,-0.12215007096529007,0.23460985720157623,-0.1984388679265976,0.106953464448452,0.047727108001708984,0.09719198942184448,0.0039097219705581665
422,-1.4501341846499707,-0.22289517627268743,-2.399785209391535,-0.9681706428527832,0.2210541069507599,-0.11739180982112885,0.914223313331604,-0.1862800419330597,0.45155495405197144,0.0480198860168457,0.06997677683830261,-0.13794875144958496
423,-1.4507953784106455,-0.2572049248164514,-2.290028440544169,-0.9601497650146484,0.25437840819358826,-0.11577514559030533,0.8730902075767517,-0.3625601530075073,0.4920995235443115,0.05008512735366821,0.015442699193954468,-0.09505557268857956
424,-1.444124428245891,-0.28662272942483646,-2.198979745661112,-0.9515189528465271,0.2827143371105194,-0.12117955088615417,0.867929220199585,-0.15597113966941833,0.2762722671031952,0.022411227226257324,0.013077318668365479,-0.15396691858768463
425,-1.410642730725067,-0.28445790315485275,-2.0846466987967154,-0.94753098487854,0.2806371748447418,-0.1530613750219345,0.9009682536125183,0.19071567058563232,0.04254002869129181,-0.003686666488647461,0.0017572641372680664,-0.03396564722061157
426,-1.3811722601900285,-0.2795608627090271,-2.0298909353248713,-0.9439477920532227,0.2759335935115814,-0.18117192387580872,0.5665860772132874,0.13120600581169128,0.03240785375237465,0.025017738342285156,0.02567163109779358,-0.056926190853118896
427,-1.3680176478551607,-0.2774238169018862,-1.9630883939878878,-0.9420584440231323,0.27387887239456177,-0.19369149208068848,0.6105082631111145,-0.12307077646255493,0.08239554613828659,-0.032673001289367676,0.04551810026168823,-0.021564245223999023
428,-1.3645531502371562,-0.28087595385711,-1.8959474174851023,-0.9404506683349609,0.27719739079475403,-0.19675926864147186,0.6362705826759338,-0.1796087771654129,0.2825588285923004,-0.029581069946289062,0.050698697566986084,-0.023211419582366943
429,-1.3776996052314328,-0.29702359520284205,-1.816592350389741,-0.9384403824806213,0.2926754355430603,-0.18349608778953552,0.5687933564186096,-0.29489603638648987,0.31371310353279114,-0.05830949544906616,-0.00632902979850769,0.0006805658340454102
430,-1.3682729748262283,-0.30148839096558355,-1.8147749695832023,-0.9353795647621155,0.2969417870044708,-0.19206936657428741,-0.025474831461906433,-0.2932322025299072,-0.05055209621787071,0.037781357765197754,-0.020818740129470825,-0.0860220193862915
431,-1.423453963970411,-0.2963239876397796,-1.7471471461811436,-0.9460533261299133,0.29200640320777893,-0.14041130244731903,0.9282436966896057,-0.7707120776176453,0.2009681910276413,0.048210978507995605,0.01779279112815857,-0.19256602227687836
432,-1.4371985619113137,-0.287136237810481,-1.712459530774263,-0.9505126476287842,0.28320688009262085,-0.1277472972869873,-0.4419313371181488,0.2405119687318802,-0.36240968108177185,0.02416694164276123,0.021175384521484375,-0.165541872382164
433,-1.4406692507786487,-0.2496092507019842,-1.7113404082606682,-0.9608164429664612,0.24702534079551697,-0.1257387399673462,0.9589713215827942,-0.46447011828422546,-0.20793604850769043,0.13160806894302368,0.10368265211582184,-0.21537147462368011
434,-1.4643200473518088,-0.23903838262833227,-1.5896364217606123,-0.9660639762878418,0.2367684543132782,-0.10325339436531067,0.9719827771186829,-0.5783129334449768,0.21431222558021545,0.053542494773864746,0.09747534990310669,-0.021288886666297913
435,-1.4822784663215869,-0.25877748631586683,-1.5284169898282103,-0.9629188179969788,0.25589892268180847,-0.08545882999897003,0.5208247900009155,-0.26180073618888855,0.18055763840675354,0.01113659143447876,-0.004312008619308472,0.021921217441558838
436,-1.5043482772826415,-0.25467485343556556,-1.444743768246889,-0.9656097292900085,0.25193077325820923,-0.06425748020410538,0.6711840033531189,-0.4441179037094116,-0.20458684861660004,0.0005065202713012695,-0.020164966583251953,0.08143889158964157
437,-1.5409159223085576,-0.22171950537918966,-1.4346455697226275,-0.9750853776931763,0.21990735828876495,-0.029144618660211563,-0.027925614267587662,-0.31836628913879395,-0.30980318784713745,-0.01614081859588623,0.09010544419288635,-0.028060555458068848
438,-1.573742357432388,-0.21267553569030134,-1.418219205002243,-0.9774656295776367,0.21107590198516846,0.0028796519618481398,0.5367345809936523,-0.3770406246185303,0.16550412774085999,0.03705108165740967,0.07926836609840393,-0.07488584518432617
439,-1.596071673816182,-0.23517419602993503,-1.3386643680914039,-0.9721630811691284,0.233012393116951,0.02457699365913868,0.7746460437774658,-0.4105318486690521,0.14418844878673553,0.04287236928939819,0.015644848346710205,-0.017237544059753418
440,-1.6300252213765383,-0.24389406421762314,-1.2562776616997364,-0.9687034487724304,0.24148327112197876,0.05744241923093796,0.9227805137634277,-0.5331902503967285,0.035382866859436035,-0.08639609813690186,0.09256210923194885,-0.028832197189331055
441,-1.6400044443482353,-0.246910016256903,-1.1791761392793978,-0.9673509001731873,0.24440886080265045,0.06705562770366669,0.6528538465499878,-0.053033728152513504,-0.052739884704351425,-0.02764415740966797,0.04656098783016205,0.0585089847445488
442,-1.6283667537323572,-0.24923917208991025,-1.1174510218014981,-0.9674948453903198,0.24666671454906464,0.055760707706213,0.4206793010234833,-0.09161869436502457,0.17898103594779968,0.08333957195281982,0.017508715391159058,0.10909521579742432
443,-1.6510593235253401,-0.29166999188011516,-1.0765496689691147,-0.9546816945075989,0.2875520884990692,0.07679058611392975,0.6168924570083618,-0.4982944130897522,0.49724647402763367,0.005218803882598877,-0.042709559202194214,-0.06694865226745605
444,-1.6781103831503585,-0.3381809575298788,-1.0006524772269598,-0.9379330277442932,0.3317716419696808,0.10104157030582428,0.7609834671020508,-0.43952858448028564,0.16613207757472992,-0.05520063638687134,-0.11154147982597351,-0.09672330319881439
445,-1.680954677942453,-0.34035397375763765,-0.9160840477251836,-0.9369228482246399,0.33382079005241394,0.10362938791513443,0.9733452200889587,-0.23705236613750458,-0.15387088060379028,0.015383660793304443,-0.08707097172737122,-0.11334921419620514
446,-1.6598270412250684,-0.34712765197523915,-0.8065504633308657,-0.9366294145584106,0.34019818902015686,0.08360981196165085,1.111241102218628,-0.17753466963768005,0.0672367513179779,-0.039933085441589355,-0.06567731499671936,-0.046500444412231445
447,-1.6380708700735436,-0.34812131636842986,-0.6742957676550809,-0.9378889203071594,0.34113243222236633,0.06319141387939453,1.2079211473464966,-0.2337409406900406,-0.1990986168384552,-0.025642573833465576,-0.055335283279418945,0.006297111511230469
448,-1.6101506077087255,-0.34136645333822196,-0.5481442095210785,-0.9415685534477234,0.33477500081062317,0.03707389533519745,1.238518238067627,-0.21937163174152374,-0.00989754032343626,0.07149714231491089,-0.03361228108406067,-0.04340636730194092
449,-1.5931384037819936,-0.34590021078509403,-0.41863684207845153,-0.940535843372345,0.3390437066555023,0.02101702243089676,0.9783087968826294,-0.25240498781204224,-0.007615730632096529,-0.02621525526046753,0.007529169321060181,-0.022893905639648438
450,-1.5684890249277783,-0.3370020962717149,-0.33490614854832157,-0.9437476992607117,0.33065930008888245,-0.0021775146014988422,0.6797112226486206,0.1266254484653473,-0.3347533047199249,-0.03269273042678833,-0.014390379190444946,0.04740452766418457
451,-1.5496238856621478,-0.2917992336517485,-0.330960885008955,-0.9575132131576538,0.2876758575439453,-0.020275922492146492,0.005405060946941376,0.06014034524559975,-0.34857404232025146,-0.019995391368865967,0.09765437245368958,-0.02342522330582142
452,-1.5409820392351126,-0.2740868068812765,-0.25289352321770886,-0.9622449278831482,0.2706679403781891,-0.028697151690721512,1.0485416650772095,-0.11330771446228027,-0.13151203095912933,-0.03036975860595703,0.11521157622337341,0.02476036548614502
453,-1.528800881690794,-0.2598656334065551,-0.20461540771350048,-0.9655722379684448,0.256950706243515,-0.040573492646217346,0.13380080461502075,0.014364208094775677,-0.07646174728870392,0.044796109199523926,0.11759147047996521,-0.0025325939059257507
454,-1.5261207571058495,-0.2766283865370422,-0.14798000865268549,-0.9610217809677124,0.27311378717422485,-0.042962782084941864,0.5619540214538574,-0.15136875212192535,0.4379177689552307,0.06446123123168945,0.09895646572113037,-0.03600143641233444
455,-1.5100108738688174,-0.33616019904210226,-0.09059900882658461,-0.942284882068634,0.32986465096473694,-0.0573478639125824,0.7656742930412292,-0.09836645424365997,0.5780825614929199,0.04068869352340698,-0.0009614229202270508,-0.07305372506380081
456,-1.5087269984259544,-0.3789259372301688,-0.02386645775536356,-0.9272733926773071,0.36992281675338745,-0.057629264891147614,0.3450351059436798,-0.2023743987083435,0.4156213402748108,-0.021960556507110596,-0.014423578977584839,-0.0900147557258606
457,-1.5112568765936918,-0.4089448836430929,0.002901527245656207,-0.9159149527549744,0.39764145016670227,-0.054597605019807816,0.00130496546626091,-0.08035238087177277,0.07640840858221054,-0.049142301082611084,-0.08860522508621216,-0.10795425623655319
458,-1.5034555122404953,-0.3919900924663053,0.0003747247140148495,-0.9220558404922485,0.3820283114910126,-0.062186021357774734,0.030863406136631966,0.18957741558551788,-0.21688783168792725,0.012418568134307861,-0.04706743359565735,-0.08654139935970306
459,-1.4746629476505106,-0.3802443452489338,0.012019223514983303,-0.9242864847183228,0.37114736437797546,-0.08912951499223709,0.19245365262031555,0.1712178885936737,0.0553557313978672,-0.050551772117614746,-0.003441065549850464,-0.02775275707244873
460,-1.454772614558885,-0.3936162645081598,0.0643677995429253,-0.9173190593719482,0.3835306465625763,-0.10691092163324356,0.792313277721405,-0.2835489809513092,0.14583638310432434,-0.10596579313278198,-0.048768073320388794,0.016517825424671173
461,-1.4694683987983568,-0.37999121780620226,0.1704407368226842,-0.9239044785499573,0.3709123134613037,-0.09393904358148575,0.9272611737251282,-0.5624184608459473,-0.09992475807666779,-0.02763354778289795,-0.006990224123001099,0.018438592553138733
462,-1.4798770622741595,-0.36279134879497077,0.2249524550954252,-0.9310485124588013,0.3548852801322937,-0.08488426357507706,0.01971696875989437,-0.18317736685276031,-0.049826834350824356,0.068850576877594,0.001956760883331299,0.010329842567443848
463,-1.4968168031219518,-0.3670387029937576,0.23261892557170283,-0.9308410882949829,0.35885295271873474,-0.06898908317089081,0.17646755278110504,-0.18920232355594635,0.12777754664421082,0.05106508731842041,0.01738300919532776,-0.0900532603263855
464,-1.5013672895385521,-0.3847773068276545,0.2583798597147498,-0.9246490001678467,0.37535274028778076,-0.06430084258317947,0.12103234231472015,-0.06761711835861206,0.13770529627799988,-0.03029179573059082,-0.006196856498718262,-0.05268830060958862
465,-1.4990876853768778,-0.3868271357529666,0.21470070386787218,-0.9237304925918579,0.37725189328193665,-0.06635323166847229,-0.9858582615852356,0.5067992210388184,-0.044394977390766144,0.003717184066772461,-0.06441628932952881,0.0103534534573555
466,-1.5074587063480411,-0.3994872493662933,0.11348876142917041,-0.9194133877754211,0.3889460265636444,-0.058311451226472855,-0.7349575757980347,0.08610981702804565,0.20896828174591064,-0.08023571968078613,-0.024108290672302246,-0.10478974133729935
467,-1.5179250016278778,-0.4090692870514537,0.0810007657881451,-0.9162092208862305,0.39775559306144714,-0.0484863817691803,0.022254060953855515,0.0065414030104875565,-0.14876791834831238,-0.09624183177947998,-0.11272144317626953,0.020654328167438507
468,-1.522248492961277,-0.39081632953273315,0.05948699879115282,-0.9235090017318726,0.38094332814216614,-0.044869616627693176,-0.20323941111564636,0.03988916799426079,-0.20797188580036163,-0.026289522647857666,-0.09490206837654114,0.011986915022134781
469,-1.5503265165159015,-0.3535842930461951,0.07384498707116623,-0.9379411339759827,0.3462625741958618,-0.019202157855033875,0.611297607421875,-0.6590737700462341,-0.37086886167526245,0.028914034366607666,-0.012369751930236816,-0.05628305673599243
470,-1.608289442242776,-0.32117530608866,0.1761860139264814,-0.9481983184814453,0.31568199396133423,0.03556757792830467,1.0967903137207031,-1.1300996541976929,-0.24857425689697266,0.03462398052215576,0.13060709834098816,0.0459296740591526
471,-1.6621156925153973,-0.3031703972013719,0.17175067404676558,-0.9504180550575256,0.29854750633239746,0.08703363686800003,-1.4117405414581299,0.33139878511428833,-0.17648479342460632,-0.00205075740814209,0.12578412890434265,0.16810858249664307
472,-1.6548501738964052,-0.25028083239988347,0.05596439900632778,-0.9654223918914795,0.2476760447025299,0.08133911341428757,-0.8348767757415771,0.025256182998418808,-0.39827629923820496,0.06655770540237427,0.1415909081697464,-0.004419572651386261
473,-1.6537195475882407,-0.22679125147778031,-0.004998559190026763,-0.9710446000099182,0.22485210001468658,0.08070721477270126,-0.6825156211853027,0.4755828380584717,0.04374760389328003,0.08690476417541504,0.07257217168807983,0.009228095412254333
474,-1.6193600691636492,-0.23581662695397365,-0.07910065052696351,-0.9711775779724121,0.23363709449768066,0.04720113053917885,-0.6357579231262207,0.47012200951576233,0.33378472924232483,0.04541158676147461,0.023778676986694336,-0.008367538452148438
475,-1.612299721291169,-0.2932115223130815,-0.09704592688704469,-0.9564961791038513,0.2890281677246094,0.039720647037029266,0.4324774444103241,-0.11035630106925964,0.35813313722610474,-0.0652322769165039,-0.10454943776130676,0.004682417958974838
476,-1.59680091164801,-0.3258915761342238,-0.08402303228800559,-0.9470453262329102,0.3201535642147064,0.024633072316646576,-0.08768141269683838,0.1938501000404358,0.29181328415870667,-0.02985280752182007,-0.09801614284515381,0.007425663992762566
477,-1.593394421301982,-0.35020554956727806,-0.0519547961767119,-0.939062237739563,0.34309089183807373,0.021224630996584892,0.6839034557342529,-0.07075703889131546,0.1882919818162918,-0.07116103172302246,-0.11764231324195862,-0.005660654976963997
478,-1.5660813704353935,-0.3519659044569329,-0.004285793308961557,-0.9386864900588989,0.34474384784698486,-0.004425898659974337,0.3494132161140442,-0.0004909178242087364,-0.04070115461945534,0.01484304666519165,-0.12628373503684998,0.050156474113464355
479,-1.5645050476810483,-0.35527874261077974,0.06027671600010216,-0.9375308752059937,0.3478517234325409,-0.005898346193134785,0.7712570428848267,-0.1796981543302536,0.06984448432922363,-0.1634058952331543,-0.03201007843017578,0.01073539350181818
480,-1.534161573561141,-0.3320454620808375,0.12412275421451842,-0.9447433352470398,0.3259774446487427,-0.03462592884898186,0.6313730478286743,0.10587811470031738,-0.4581511616706848,0.018595755100250244,-0.04478845000267029,0.01750558242201805
481,-1.546811320365247,-0.2871005409885194,0.22033298177253052,-0.958793044090271,0.2831726372241974,-0.023001069203019142,1.0844758749008179,-0.5551682114601135,-0.35331782698631287,-0.07852989435195923,0.11663815379142761,-0.02106630802154541
482,-1.5349936309402514,-0.25960270999904056,0.2881556778539871,-0.9658727645874023,0.25669658184051514,-0.03459563106298447,0.5011575222015381,-0.054052166640758514,-0.20257343351840973,0.039923667907714844,0.09512531757354736,0.042591214179992676
483,-1.550302741957999,-0.2561352839148856,0.35630235081487677,-0.967173159122467,0.2533438205718994,-0.019823620095849037,0.4180055856704712,-0.15055115520954132,0.1784733384847641,0.006784975528717041,0.09650969505310059,0.012880861759185791
484,-1.540337454369896,-0.2791114633161114,0.3971314148712476,-0.9608546495437622,0.2755016088485718,-0.029275603592395782,0.5704319477081299,-0.24313312768936157,0.13644008338451385,0.03858298063278198,0.06702765822410583,-0.010580359026789665
