,attitude.roll,attitude.pitch,attitude.yaw,gravity.x,gravity.y,gravity.z,rotationRate.x,rotationRate.y,rotationRate.z,userAcceleration.x,userAcceleration.y,userAcceleration.z
0,-3.050353373447303,-0.08934714948276469,0.12783343410883563,-0.09074932336807251,0.0892283245921135,0.9918684959411621,-0.13774488866329193,0.2821640074253082,0.2023945450782776,0.02264934778213501,0.005162551999092102,0.03446829319000244
1,2.745157063900885,0.15865041945242506,0.47245839945430446,0.38128355145454407,-0.15798571705818176,0.9108586311340332,0.085402712225914,-1.0376274585723877,0.029449932277202606,0.05923768877983093,-0.05057141184806824,-0.0518345832824707
2,2.594396441283345,0.18168204901958054,0.4875473135288738,0.5117315053939819,-0.1806841939687729,0.8399311304092407,-0.36998528242111206,-2.209878921508789,0.04918615520000458,0.010012328624725342,0.0012713223695755005,-0.0008959770202636719
3,2.4680932550657273,0.16070685051238684,0.42726368214904537,0.615688145160675,-0.1600159853696823,0.7715720534324646,0.3974313735961914,-1.0054032802581787,0.26013368368148804,-0.05533957481384277,-0.04757983982563019,0.11398720741271973
4,2.427444683033562,0.14345009237121942,0.3527701093392771,0.6482463479042053,-0.1429586112499237,0.7478899955749512,1.0363690853118896,0.31741756200790405,0.26395440101623535,-0.0906749963760376,0.0274801105260849,-0.03206974267959595
5,2.4204403206891287,0.12957028365097856,0.2993697872937519,0.6547160148620605,-0.129208043217659,0.7447497844696045,0.6192193627357483,0.20362164080142975,0.4975655674934387,-0.007270336151123047,0.0446895956993103,-0.03478884696960449
6,2.5442541339266733,0.060780465565932515,0.20858204939259023,0.5614054203033447,-0.060743048787117004,0.8253089189529419,0.011803874745965004,0.3717234432697296,0.17473635077476501,0.052821993827819824,-0.007967296987771988,0.13726145029067993
7,2.662398667571386,0.005722774477948264,0.15770319501540456,0.461056649684906,-0.005722743459045887,0.8873525261878967,1.3936388492584229,1.9438096284866333,0.08765864372253418,0.03338921070098877,0.05546639487147331,0.029975533485412598
8,2.8159194867494564,-0.037659192757716856,0.11421188530434873,0.3197198510169983,0.03765029087662697,0.9467639923095703,0.2985948920249939,1.099924087524414,0.24741189181804657,-0.005587100982666016,0.09685593843460083,-0.09304976463317871
9,2.919970429316118,-0.11329736970337244,0.08260892341716902,0.2184031754732132,0.11305513978004456,0.9692876935005188,0.5618444681167603,1.5072261095046997,0.12743014097213745,0.029460594058036804,-0.036349207162857056,0.2797204256057739
10,3.0060215947370725,-0.10113201716141627,0.07287298443962509,0.1344655454158783,0.10095971077680588,0.9857615232467651,0.029964828863739967,0.7217300534248352,0.24329663813114166,0.06241859495639801,0.07242588698863983,-0.04870426654815674
11,3.079547123956158,-0.06501739391855557,0.08144993462848402,0.06187470629811287,0.06497159600257874,0.9959667921066284,-0.6543812155723572,0.991283655166626,-0.4296574294567108,-0.051544517278671265,0.02911408245563507,0.061970651149749756
12,-3.1413025539115984,-0.012072490963101454,0.0989663652709728,-0.00029007851844653487,0.01207219809293747,0.9999270439147949,-0.3686411380767822,0.4269368052482605,0.001978810876607895,0.018249673768877983,-0.05617009848356247,-0.0473361611366272
13,3.1265664202964873,0.028642907092487242,0.09050756502040228,0.015019501559436321,-0.028638990595936775,0.9994767904281616,-0.12051481753587723,-0.6790712475776672,-0.022965990006923676,-0.01053342130035162,-0.009843669831752777,-0.11298710107803345
14,3.0322851084559086,0.036477621023406334,0.07926082236089164,0.10901746153831482,-0.03646953031420708,0.9933708906173706,-0.14600670337677002,-1.317901849746704,-0.11773639917373657,-0.08205515891313553,0.01437479630112648,-0.003319382667541504
15,2.884607234505203,0.09287484528869736,0.11714536808121662,0.25307077169418335,-0.09274138510227203,0.9629925489425659,-0.9390498399734497,-1.2814475297927856,-0.18401631712913513,-0.03239813446998596,-0.007676728069782257,0.08696496486663818
16,2.696441292409683,0.18507205626160075,0.19905973269174948,0.42324134707450867,-0.1840173602104187,0.8871329426765442,-0.8800913691520691,-1.9242883920669556,-0.4437136948108673,-0.02539888024330139,0.03351990878582001,-0.07211506366729736
17,2.5212488069109567,0.22727027388006416,0.26501715011983934,0.5663665533065796,-0.22531883418560028,0.7927550077438354,-0.963811457157135,-1.1907312870025635,-0.21954300999641418,0.0013672709465026855,-0.0305863618850708,0.1883852481842041
18,2.4515690288324183,0.300541733881712,0.31784188915541983,0.6080224514007568,-0.2960377037525177,0.7366613149642944,-0.5743302702903748,-0.4781220853328705,0.05595427751541138,-0.017568469047546387,0.06181532144546509,-0.07352983951568604
19,2.439647444278122,0.2998487207120201,0.3156850913107921,0.6168935298919678,-0.29537567496299744,0.7295170426368713,0.4091610014438629,-0.0679401159286499,-0.10307753086090088,-0.030254244804382324,0.020366579294204712,-0.060495615005493164
20,2.4349676527403963,0.2409760228326738,0.3095480985283095,0.6305102705955505,-0.23865056037902832,0.7385815978050232,0.9623411893844604,0.12795092165470123,-0.6365050673484802,-0.07319831848144531,0.03218388557434082,-0.0923108458518982
21,2.4132231955822165,0.13489578691340098,0.3141611374471266,0.6596065163612366,-0.13448704779148102,0.7394812703132629,0.45954152941703796,-0.34549275040626526,-0.5880072116851807,0.0319676399230957,-0.08057034015655518,0.12596666812896729
22,2.389859005430468,0.11208987029003224,0.3228351460950265,0.6786206364631653,-0.11185529828071594,0.7259217500686646,0.006243965122848749,-0.271525502204895,-0.03813908249139786,0.020704925060272217,0.006111890077590942,-0.01777660846710205
23,2.3687304757081873,0.10215654677294599,0.3176566045407968,0.694547176361084,-0.10197895765304565,0.712182879447937,0.1871095448732376,-0.03661203756928444,0.04755207151174545,0.00023120641708374023,-0.03289346396923065,0.023519694805145264
24,2.375558003501684,0.10212475695525007,0.3080683014746294,0.6896708607673645,-0.10194732993841171,0.7169106006622314,0.09348444640636444,0.18024854362010956,0.11617515981197357,-0.013386070728302002,0.0005374178290367126,0.018273115158081055
25,2.4059510246532545,0.09229667980631295,0.29508929917485704,0.6682067513465881,-0.09216569364070892,0.7382447123527527,0.2761573791503906,0.39595258235931396,0.04695739224553108,0.00470578670501709,0.0021998733282089233,0.0051787495613098145
26,2.447714920576907,0.07893753315131495,0.2738824487936007,0.6375316977500916,-0.07885558158159256,0.7663780450820923,0.20372575521469116,0.2116997241973877,0.04606024920940399,-0.026249289512634277,0.02917296439409256,0.011957526206970215
27,2.4613214009419178,0.06376066005149714,0.26557510279676255,0.6277257800102234,-0.06371746957302094,0.7758224606513977,0.19341732561588287,0.19136179983615875,-0.05196302756667137,-0.007196605205535889,0.0008359923958778381,0.02074742317199707
28,2.4837284724847253,0.04943030489190375,0.2560589770753941,0.610681414604187,-0.04941017925739288,0.7903335094451904,0.2123316079378128,0.13613350689411163,-0.017270483076572418,-0.002420365810394287,0.010362938046455383,-0.005360245704650879
29,2.490787704459318,0.035421150219607,0.24387380272660944,0.6054469347000122,-0.03541374206542969,0.7950972318649292,0.10707947611808777,0.14225125312805176,-0.014307448640465736,-0.020775973796844482,-0.001573558896780014,0.05251312255859375
30,2.4970532569472046,0.029148171044144355,0.24242207812991706,0.6005751490592957,-0.02914404310286045,0.7990370988845825,0.11749450862407684,0.09161192178726196,-0.04885835200548172,-0.010655105113983154,0.008788816630840302,0.01170814037322998
31,2.501596150898588,0.023234434033867934,0.24114096078492303,0.5970315337181091,-0.023232344537973404,0.8018814325332642,0.04960896447300911,0.03964630141854286,-0.028334705159068108,-0.0046395063400268555,0.012581704184412956,0.0022110939025878906
32,2.508080140030419,0.01793084000731606,0.23867087741987988,0.5918842554092407,-0.01792987994849682,0.8058236837387085,0.01369547750800848,-0.00037108175456523895,-0.04502062126994133,-0.010539531707763672,0.0014046113938093185,0.015602827072143555
33,2.513352812488889,0.013920376727464906,0.23807421924842267,0.5876646637916565,-0.013919927179813385,0.8089848756790161,0.1254880279302597,0.1376608908176422,0.0007900837808847427,-0.014712393283843994,-0.007305048406124115,-0.0037480592727661133
34,2.5181568660644555,0.008863772148320785,0.23463152891474956,0.58380526304245,-0.008863655850291252,0.8118456602096558,0.01670684851706028,0.04398195818066597,-0.01924411579966545,-0.0236397385597229,0.0013868492096662521,0.018766701221466064
35,2.5248904940847567,-0.0032818367698088935,0.2242896485702145,0.5783449411392212,0.003281830810010433,0.8157859444618225,0.24470354616641998,0.0015440955758094788,0.0650685578584671,-0.01538705825805664,-0.015382046811282635,-0.004964292049407959
36,2.5257403279670507,-0.023451551910038115,0.21041110836949276,0.5774957537651062,0.023449402302503586,0.8160570859909058,0.33004266023635864,0.18613030016422272,-0.20386110246181488,-0.05248647928237915,-0.016033627092838287,0.01624894142150879
37,2.5372469843246916,-0.02885525278150971,0.19816200797432085,0.5679870843887329,0.02885124832391739,0.8225313425064087,-0.10925506800413132,-0.036740176379680634,0.04380455240607262,-0.05266737937927246,0.029086368158459663,-0.014929592609405518
38,2.5850015297738764,-0.04041279951657288,0.19161361637522664,0.5278637409210205,0.040401801466941833,0.8483679294586182,0.24048805236816406,1.007578730583191,-0.21295247972011566,-0.04640305042266846,0.04314007982611656,0.031148850917816162
39,2.6683681888965625,-0.0726231628295818,0.22537108248347007,0.4545574486255646,0.07255934178829193,0.8877571225166321,0.396840363740921,1.0681949853897095,-0.37869158387184143,0.06067085266113281,0.008922591805458069,0.0038291215896606445
40,2.7617495129828975,-0.09737404654677798,0.2305425188139346,0.3690183758735657,0.09722024202346802,0.924323320388794,0.21228574216365814,0.7355648875236511,-0.2502436637878418,0.02885451912879944,0.029748134315013885,-0.05365687608718872
41,2.821331333790645,-0.15608864951645696,0.2561553484529733,0.3109874427318573,0.1554556041955948,0.9376145005226135,0.743311882019043,0.30311742424964905,-0.5002601146697998,0.06340232491493225,0.006836935877799988,-0.06873297691345215
42,2.850658019063074,-0.24851161389441054,0.2598602978097295,0.2780356705188751,0.24596157670021057,0.9285469651222229,0.9342066049575806,0.06450539827346802,-0.3177320063114166,0.05169150233268738,-0.015187621116638184,-0.051273226737976074
43,2.859954963947574,-0.33953457226512457,0.25078231452229516,0.26206210255622864,0.3330482840538025,0.9057604670524597,0.5737554430961609,0.2767593562602997,-0.11931417882442474,0.025276124477386475,-0.00042197108268737793,0.15028494596481323
44,2.877417209488217,-0.3718754230931529,0.2556301700789428,0.24326561391353607,0.3633632957935333,0.899326741695404,0.2982730567455292,0.1665102243423462,-0.0808539018034935,0.023396939039230347,0.006311267614364624,-0.04057753086090088
45,2.876030158309406,-0.4190344507336003,0.2621718700604081,0.23974528908729553,0.40687862038612366,0.8814600706100464,0.43654948472976685,-0.0839829295873642,-0.3447526693344116,-0.05947801470756531,0.03216245770454407,0.03942304849624634
46,2.910769165753762,-0.4596082786795213,0.3026375991010312,0.20503808557987213,0.44359707832336426,0.8724573254585266,0.20944862067699432,0.22705143690109253,-0.3475516736507416,0.058237120509147644,0.014212489128112793,0.02677386999130249
47,2.9427883086331303,-0.47831175602346093,0.32490173245727594,0.17533287405967712,0.46028104424476624,0.8702871203422546,0.10561242699623108,0.22335931658744812,-0.13733437657356262,0.02829568088054657,-0.017104774713516235,0.014188528060913086
48,2.967567451849616,-0.4885386542472828,0.3370953085525367,0.15289317071437836,0.46933600306510925,0.8696821331977844,0.06369542330503464,0.21409769356250763,-0.10615512728691101,0.010253757238388062,-0.008398652076721191,0.02291107177734375
49,2.9889081867990073,-0.4643361546421029,0.3348545936043948,0.13598830997943878,0.44782933592796326,0.8837173581123352,-0.28841784596443176,0.2295440137386322,0.12284256517887115,0.011091157793998718,0.010209053754806519,-0.03088831901550293
50,3.0042074886110246,-0.4304860079015885,0.3161486174523308,0.12445817142724991,0.41731250286102295,0.9002001881599426,-0.37404343485832214,0.2882218360900879,0.4160670340061188,0.0319596529006958,-0.011550843715667725,0.0790935754776001
51,3.0197413773041486,-0.3406266809836537,0.296728885932056,0.1145663782954216,0.3340778350830078,0.9355568885803223,-0.9745080471038818,0.5150399804115295,0.2060997188091278,-0.021030008792877197,0.04640007019042969,0.055516719818115234
52,3.094647215608256,-0.22711148201497225,0.2927204989992429,0.04572311416268349,0.22516413033008575,0.973247230052948,-1.3762699365615845,0.8881121873855591,-0.04510805010795593,-0.06285873800516129,0.03759218752384186,0.049625515937805176
53,-3.1088337721260464,-0.08892920969741401,0.31185716152279125,-0.03262360021471977,0.08881203830242157,0.9955141544342041,-1.2017426490783691,0.9151003956794739,0.06981480121612549,0.055343933403491974,0.04493124783039093,-0.05775463581085205
54,-3.0406028739003856,0.014311634697816874,0.3365510064957848,-0.10080788284540176,-0.01431114599108696,0.9948030114173889,-0.8356848359107971,0.24693989753723145,-0.45862877368927,0.027245238423347473,0.06942588835954666,-0.14794015884399414
55,-2.9996007529822886,0.08899400084801194,0.359989511214097,-0.14095525443553925,-0.08887657523155212,0.9860188364982605,-0.7078271508216858,0.5644094347953796,-0.4281961917877197,0.006311669945716858,0.023126430809497833,-0.14116990566253662
56,-2.729257028486572,0.20402693272365813,0.24789411132399067,-0.3924380838871002,-0.20261436700820923,0.8971840739250183,-1.1184935569763184,1.4237456321716309,0.3061537742614746,-0.015642911195755005,-0.1615060716867447,-0.04926872253417969
57,-2.678284879556493,0.24273601535099731,0.19070446333403912,-0.43380802869796753,-0.2403593361377716,0.8683536648750305,-0.2783212661743164,0.788752019405365,1.0396132469177246,0.04724186658859253,-0.022274941205978394,-0.007513761520385742
58,-2.6221848788781426,0.19639055700970687,0.14006539448764022,-0.48682454228401184,-0.19513055682182312,0.8514257073402405,0.2763800621032715,0.07750938832759857,0.2856752276420593,-0.09720554947853088,-0.004622220993041992,0.04366999864578247
59,-2.572347123671985,0.19497427366434478,0.12646171678879414,-0.5287842750549316,-0.19374129176139832,0.826348602771759,0.34676915407180786,0.4060923457145691,-0.23831333220005035,-0.09020388126373291,0.07133521139621735,-0.09865671396255493
60,-2.524178563680195,0.15903424622140808,0.16122000855723972,-0.5716230273246765,-0.15836471319198608,0.8050888776779175,0.5266268849372864,0.28741616010665894,-0.05956818163394928,0.08694279193878174,0.02427046000957489,0.02236485481262207
61,-2.5133315057643175,0.11526807454027195,0.20407864106763954,-0.5838386416435242,-0.115012988448143,0.8036819696426392,0.8386667370796204,-0.12127967178821564,-0.17680345475673676,0.0940314531326294,-0.010536342859268188,0.02380228042602539
62,-2.57304787942028,0.07988850388138695,0.2581833360308511,-0.536689043045044,-0.07980355620384216,0.8399975895881653,0.40994787216186523,-0.8363415002822876,-0.43182843923568726,-0.03812474012374878,-0.16622915863990784,-0.07225179672241211
63,-2.667547028545776,0.05839467481336153,0.29711113981741427,-0.4557115435600281,-0.058361493051052094,0.8882124423980713,0.32703080773353577,-1.1160213947296143,-0.3962715268135071,0.026130735874176025,0.021313142031431198,-0.04539299011230469
64,-2.7437042279455546,0.023507924300776015,0.343641888413564,-0.3873656094074249,-0.023505758494138718,0.9216266870498657,0.6269922852516174,-0.20432932674884796,-0.17221061885356903,-0.013543874025344849,0.03510243445634842,0.04626893997192383
65,-2.7525783295210795,-0.019220890547123438,0.3825763735692806,-0.3792065382003784,0.01921970769762993,0.9251124858856201,0.2588498890399933,0.0952100157737732,-0.2356681376695633,0.02691158652305603,-0.004815414547920227,0.09142804145812988
66,-2.74995142266935,-0.013294279440432485,0.4077855911905331,-0.3816721737384796,0.013293887488543987,0.9242022037506104,0.16798292100429535,0.22505506873130798,-0.154485821723938,0.01817724108695984,-0.07857099175453186,0.0009229183197021484
67,-2.727216067964655,-0.028374170204215468,0.43653567227609913,-0.40245726704597473,0.028370363637804985,0.9149989485740662,0.17070883512496948,0.1830020546913147,-0.2836529016494751,-0.007302224636077881,-0.016026007011532784,-0.06651884317398071
68,-2.7063389719579187,-0.043299226364741594,0.46235641663172544,-0.421245276927948,0.04328569769859314,0.905913233757019,0.31991681456565857,0.05718424543738365,-0.19288469851016998,0.0037495195865631104,0.02800336480140686,0.00030624866485595703
69,-2.696909635194321,-0.04824516710767464,0.4993747255049653,-0.4296710789203644,0.048226453363895416,0.9016963839530945,0.04634431377053261,0.014547511003911495,-0.3762691915035248,0.005904078483581543,0.08751572668552399,0.03227853775024414
70,-2.675843496446491,-0.03333476626750087,0.5319222356336124,-0.44884276390075684,0.0333285927772522,0.892988920211792,-0.16349202394485474,0.07818581908941269,-0.5548168420791626,0.036351948976516724,0.010006364434957504,0.017029881477355957
71,-2.6787372115596044,0.008374855511501132,0.5347328223344567,-0.44648921489715576,-0.008374758064746857,0.8947497010231018,-0.26837360858917236,-1.006311297416687,-0.16125725209712982,0.03035154938697815,0.0016761505976319313,-0.07016485929489136
72,-2.6989387772310702,0.03688063221504372,0.5282197344255142,-0.42804771661758423,-0.036872271448373795,0.9030035138130188,-0.0678509920835495,0.4242461025714874,0.20909219980239868,-0.01937037706375122,-0.00295315682888031,0.07960134744644165
73,-2.6712333614413217,0.030144207459202703,0.5334574441136337,-0.45300063490867615,-0.03013964183628559,0.8910003900527954,-0.297555148601532,0.15365004539489746,0.000800546258687973,0.03024071455001831,0.01793261431157589,-0.013116657733917236
74,-2.659110216352573,0.07923812823748395,0.5060683968058811,-0.4625239372253418,-0.07915523648262024,0.8830665349960327,-0.3754383623600006,0.12851808965206146,0.13295495510101318,0.035476088523864746,0.03122735768556595,-0.05175220966339111
75,-2.6304080685812075,0.06812666439928959,0.5015463305900434,-0.4880759119987488,-0.06807398051023483,0.87014240026474,0.16523180902004242,0.4893157482147217,0.0652582049369812,-0.02448207139968872,0.0028884336352348328,0.08597326278686523
76,-2.608838195024382,0.07605316068223797,0.49076085038642286,-0.5064396858215332,-0.07597986608743668,0.8589211106300354,-0.07206706702709198,-0.18706588447093964,0.10824702680110931,0.05616825819015503,0.007666289806365967,-0.08057045936584473
77,-2.655822763192483,0.06359100369701579,0.5000784314231588,-0.46594566106796265,-0.06354815512895584,0.8825283646583557,-0.17090299725532532,-0.3269813358783722,-0.05659301578998566,-0.042339861392974854,-0.006077699363231659,0.1484622359275818
78,-2.6594501861043653,0.08431936863060056,0.4764710756234185,-0.4620310962200165,-0.08421948552131653,0.8828557133674622,0.044948384165763855,0.003208149690181017,0.005991121754050255,-0.002232760190963745,0.017447039484977722,-0.032742857933044434
79,-2.665796118548448,0.07613057608815037,0.47999584781019883,-0.4567199647426605,-0.0760570541024208,0.8863534331321716,-0.13504824042320251,-0.08481857180595398,0.02395745739340782,0.009912043809890747,0.00748404860496521,0.021239399909973145
80,-2.672328275446658,0.08488986879973862,0.47697914826337334,-0.4506019651889801,-0.08478794991970062,0.8886897563934326,0.021472088992595673,-0.06251759827136993,0.0006951596587896347,-0.006246298551559448,0.017984949052333832,0.0015692710876464844
81,-2.677158227036547,0.09430152416703967,0.47729766152061054,-0.4459271728992462,-0.09416181594133377,0.8901028037071228,-0.20646795630455017,-0.06467168033123016,-0.09044118225574493,-0.00469544529914856,0.016143612563610077,0.009967565536499023
82,-2.6900472769092194,0.11074951827087944,0.4817548930897031,-0.4336833357810974,-0.11052326112985611,0.8942615985870361,-0.0842597708106041,-0.09683254361152649,-0.06941206753253937,0.011930316686630249,-0.013805381953716278,0.01894664764404297
83,-2.7018699878636623,0.1238231522439562,0.4877821735298049,-0.4224293529987335,-0.12350697815418243,0.8979418873786926,-0.21532189846038818,-0.09883051365613937,-0.16038092970848083,0.006963074207305908,-0.001813456416130066,0.02799201011657715
84,-2.715832052491235,0.14317101641678978,0.49801448295598677,-0.40878790616989136,-0.14268240332603455,0.9014069437980652,-0.10050543397665024,-0.14498692750930786,-0.23801149427890778,0.0017444193363189697,-0.007036849856376648,0.01187753677368164
85,-2.7269409894845236,0.15727250652174818,0.5109825931562869,-0.39789891242980957,-0.1566249579191208,0.9039605855941772,-0.044067662209272385,-0.07364079356193542,-0.14117585122585297,0.005214005708694458,-0.013693630695343018,0.00036662817001342773
86,-2.7400991844285305,0.16378094450115624,0.5223737225177967,-0.38556376099586487,-0.16304971277713776,0.9081602692604065,-0.04915184900164604,-0.20926401019096375,-0.17517204582691193,0.0006608963012695312,0.018106520175933838,-0.00967717170715332
87,-2.777329384982393,0.1997705692648388,0.5487121815963627,-0.34917566180229187,-0.19844447076320648,0.9158033728599548,-0.53485107421875,-0.41197946667671204,-0.5145599842071533,-0.003012418746948242,0.01744474470615387,0.00486600399017334
88,-2.820971928520084,0.24072981477129787,0.5692673305563449,-0.30606809258461,-0.23841145634651184,0.9216740131378174,-0.022093838080763817,-0.33884498476982117,-0.2044791430234909,0.020957499742507935,-0.016196787357330322,0.0018645524978637695
89,-2.8665355298699833,0.25186782895399495,0.595534589698195,-0.2630324363708496,-0.2492132931947708,0.9320440888404846,-0.09784364700317383,-0.45683854818344116,-0.21936477720737457,0.009645044803619385,-0.0139550119638443,0.0011984705924987793
90,-2.9175053075630704,0.2742224503067654,0.6202553843164736,-0.21391375362873077,-0.27079853415489197,0.9385676383972168,-0.07497082650661469,-0.492902547121048,-0.2991035282611847,-0.00024333596229553223,-0.013960987329483032,-0.020034313201904297
91,-2.943949166019672,0.27248044004747923,0.6440302917857315,-0.18911483883857727,-0.2691211998462677,0.9443566203117371,0.03244660794734955,-0.1691802442073822,-0.20483087003231049,0.0051243603229522705,0.0103473961353302,0.005197763442993164
92,-2.9374539807349307,0.2762328969143487,0.6360869074277962,-0.19503845274448395,-0.27273330092430115,0.9421126842498779,-0.1286623328924179,0.398732990026474,0.3428443670272827,0.031128570437431335,-0.07068097591400146,0.07323753833770752
93,-2.886538953643714,0.2594673303930071,0.6095640317488163,-0.2438521534204483,-0.25656574964523315,0.9352593421936035,0.23052702844142914,0.5557126998901367,0.363165020942688,0.018281489610671997,-0.03168800473213196,0.006696164608001709
94,-2.850838055339547,0.2467782109119295,0.5812794653022686,-0.27799034118652344,-0.24428105354309082,0.9290041327476501,-0.15685389935970306,0.04676011949777603,0.17476655542850494,-0.004221051931381226,0.019534260034561157,0.0062226057052612305
95,-2.845316778927708,0.259796627321843,0.5628462033347649,-0.2821629047393799,-0.25688400864601135,0.9243349432945251,-0.1011471077799797,-0.07363149523735046,-0.02599029242992401,-0.004687130451202393,0.00013956427574157715,0.0014617443084716797
96,-2.892440762307618,0.2766448129755796,0.5765263410564491,-0.23720645904541016,-0.27312958240509033,0.9322734475135803,-0.21542994678020477,-0.8444841504096985,-0.4679606556892395,-0.022025153040885925,0.027051061391830444,-0.049064040184020996
97,-2.9302950237209897,0.2790080397893302,0.6029942771746962,-0.2016184777021408,-0.2754021883010864,0.9399489164352417,0.08457732945680618,-0.05591178312897682,-0.11698807030916214,0.004658013582229614,0.03480157256126404,-0.02835822105407715
98,-2.9414689803154306,0.2699660583675908,0.6168172613720495,-0.1915903240442276,-0.2666987180709839,0.944544792175293,0.19151848554611206,-0.05429745838046074,-0.037188731133937836,0.016877219080924988,-0.006403058767318726,-0.004557669162750244
99,-2.9460930011152686,0.26478912341659255,0.6243243041559248,-0.1874864399433136,-0.26170575618743896,0.9467625021934509,-0.027701281011104584,-0.02201986126601696,-0.009289836511015892,0.021318212151527405,-0.005201011896133423,-0.0023654699325561523
100,-2.9486948540731506,0.2607470411803897,0.6269659135525171,-0.18522372841835022,-0.25780242681503296,0.948277473449707,0.03726426512002945,0.024970058351755142,0.03029029630124569,0.01528659462928772,-0.000895082950592041,0.007166862487792969
101,-2.9477411205871804,0.2616259284895025,0.6266192495241535,-0.1860843002796173,-0.2586514949798584,0.9478775262832642,0.0015263892710208893,0.003025708720088005,0.029212210327386856,0.0034518390893936157,-0.0069582462310791016,0.002516031265258789
102,-2.9468408329248943,0.26434566925686537,0.6267341765955324,-0.1868007928133011,-0.2612777352333069,0.947016179561615,-0.007727993652224541,0.001810354646295309,-0.029726166278123856,-0.004468128085136414,0.0030379891395568848,0.003697991371154785
103,-2.9463357403961337,0.26555158801910095,0.6308827335484415,-0.1872178018093109,-0.26244157552719116,0.946611762046814,-0.06062307953834534,0.034423790872097015,-0.040266506373882294,0.005210995674133301,0.0002040863037109375,0.00959545373916626
104,-2.9458086478584153,0.26771577035909705,0.6323071675390678,-0.1876058131456375,-0.2645292580127716,0.9459537267684937,0.01447831466794014,-0.009244510903954506,-0.047611579298973083,-0.011200934648513794,0.004962027072906494,0.00033533573150634766
105,-2.947477811948664,0.2673589965513953,0.6348346152167174,-0.18604476749897003,-0.26418519020080566,0.9463579654693604,0.03926243633031845,-0.012016188353300095,0.008490459062159061,0.00910387933254242,-0.010884970426559448,-0.001076042652130127
106,-2.9516444387931653,0.26830124734360494,0.6387571228214413,-0.18205296993255615,-0.2650938332080841,0.946880042552948,-0.04719889163970947,-0.03455953672528267,-0.05758237838745117,0.0019077211618423462,-0.0018891692161560059,-0.0014302730560302734
107,-2.9566009420072987,0.2663936677442527,0.643944174516565,-0.17745019495487213,-0.2632540464401245,0.9482659101486206,0.005729821976274252,-0.05900448560714722,-0.08602653443813324,0.00034148991107940674,-0.005804121494293213,0.012625575065612793
108,-2.9661599584672254,0.2678758711579598,0.6502092295437234,-0.16830946505069733,-0.26468366384506226,0.9495335817337036,0.014184705913066864,-0.1051281988620758,-0.067082978785038,0.007863342761993408,-0.004145622253417969,0.008962273597717285
109,-2.9822807208206292,0.27713218895435215,0.6554027655859616,-0.15258587896823883,-0.27359840273857117,0.9496639370918274,-0.1637204885482788,-0.2740723788738251,-0.1413296014070511,-0.020647138357162476,0.02202671766281128,0.011349916458129883
110,-3.0364800166756227,0.31622909636411584,0.6827102875011952,-0.09971673041582108,-0.31098484992980957,0.9451690912246704,-0.7527835965156555,-0.5841271877288818,-0.44266337156295776,-0.015883833169937134,0.012736588716506958,0.05150425434112549
111,-3.110439560543286,0.40224136941864863,0.72642777326687,-0.02866199240088463,-0.39148178696632385,0.9197391867637634,-0.5439537763595581,-0.5787991285324097,-0.5017997622489929,-0.0051056984812021255,-0.0009741783142089844,-0.011917650699615479
112,3.0750124088786204,0.42825150381197374,0.7884297141506721,0.060522858053445816,-0.41528084874153137,0.9076776504516602,-0.06727894395589828,-0.5871228575706482,-0.3911367356777191,0.024193931370973587,0.0017219185829162598,-0.014367163181304932
113,3.044533924642366,0.40987295086118863,0.8012297721503242,0.0888797789812088,-0.39849281311035156,0.9128546118736267,0.23004065454006195,-0.04154505580663681,0.013536084443330765,0.001467488706111908,0.013498365879058838,0.004640936851501465
114,3.0216575838054327,0.3967485360582949,0.8092118421727125,0.11035376042127609,-0.3864215016365051,0.9156965613365173,-0.08497045934200287,-0.29955732822418213,-0.08761419355869293,-0.028047889471054077,0.0035022497177124023,-0.00506746768951416
115,3.01770991385506,0.3856188915293986,0.8075403428381129,0.11449214071035385,-0.37613266706466675,0.9194649457931519,0.47754937410354614,0.1551961451768875,0.0035766959190368652,0.007684983313083649,0.00967755913734436,-0.0012215375900268555
116,3.024615332705417,0.3500231045475916,0.8038603077993417,0.1096339225769043,-0.3429194986820221,0.9329449534416199,-0.08366566896438599,-0.06595145165920258,-0.055896908044815063,0.008270710706710815,-0.012625426054000854,0.0574418306350708
117,2.994086860652243,0.37476547384766123,0.8215154166321375,0.13677068054676056,-0.3660542964935303,0.9204877614974976,-0.312188982963562,-0.39127564430236816,-0.16806355118751526,0.004632517695426941,-0.010471582412719727,0.009443700313568115
118,2.9524678644074926,0.3901571581756632,0.8423140602991777,0.17387111485004425,-0.3803337812423706,0.908358633518219,0.00017455965280532837,-0.32212135195732117,-0.23019158840179443,-0.05360129475593567,0.03275373578071594,-0.06782805919647217
119,2.934037449037027,0.3623477957771076,0.8553103716295045,0.19268758594989777,-0.35447055101394653,0.9149983525276184,0.6943398118019104,0.02287197858095169,-0.07287649065256119,-0.025008782744407654,0.002786010503768921,-0.044743895530700684
120,2.9419520005525817,0.2806612084473304,0.8551806333613624,0.19055746495723724,-0.2769910395145416,0.9417874813079834,0.5981788635253906,0.04380076751112938,-0.07161092758178711,0.06496620178222656,-0.054033100605010986,0.07615679502487183
121,2.9331217369293263,0.25218753137934746,0.8522560482107228,0.20041772723197937,-0.24952289462089539,0.9474025964736938,0.193527489900589,-0.4003458023071289,-0.1912507712841034,-0.010308429598808289,0.008388176560401917,-0.050307631492614746
122,2.9085359149275463,0.21825945266237654,0.8586787616367875,0.22547346353530884,-0.2165306955575943,0.949881911277771,0.44818374514579773,0.0016214947681874037,-0.15652456879615784,-0.04397024214267731,0.049309685826301575,-0.04888123273849487
123,2.9306899724294992,0.14780781735006931,0.8479132796211046,0.2070600986480713,-0.14727020263671875,0.9671804308891296,0.582703173160553,0.5569709539413452,0.3702627718448639,0.10026721656322479,-0.11655427515506744,0.2907390594482422
124,2.9273242468731455,0.14008373907805652,0.8448168111291334,0.2105497270822525,-0.13962604105472565,0.9675604701042175,-0.3418900966644287,-0.07418586313724518,0.0603993684053421,0.023382768034934998,-0.025901302695274353,0.039763689041137695
125,2.918693527331726,0.15452397856684186,0.8477093816082952,0.2184240221977234,-0.15390977263450623,0.9636403322219849,0.06793206185102463,-0.212631955742836,-0.12714064121246338,-0.036005228757858276,0.02187548577785492,-0.10061848163604736
126,2.937528172809734,0.128109411395076,0.8404349678103099,0.2009904384613037,-0.12775927782058716,0.971226155757904,0.34366267919540405,0.4865082800388336,0.32314804196357727,0.1170942485332489,-0.08034005761146545,0.2016405463218689
127,2.9370613910509213,0.13037379614753528,0.8361824116941234,0.20138446986675262,-0.13000477850437164,0.9708463549613953,-0.4631419777870178,-0.27195993065834045,-0.014414414763450623,0.018357321619987488,-0.013748258352279663,0.005868494510650635
128,2.920985973108685,0.14430419897582558,0.8428939901666427,0.21654726564884186,-0.1438038945198059,0.9656230211257935,0.41454002261161804,0.12823663651943207,0.02588280476629734,-0.027612924575805664,0.03609210252761841,-0.09381210803985596
129,2.9569565367110724,0.11355807845506287,0.8227357288408529,0.18240641057491302,-0.1133141741156578,0.9766719341278076,0.10850442200899124,0.06998071819543839,-0.1417667716741562,0.02308371663093567,0.024675846099853516,0.10575616359710693
130,2.938423340746269,0.13686887253941274,0.8319098065018877,0.1998874843120575,-0.13644194602966309,0.970272421836853,-0.3763938248157501,-0.20518480241298676,-0.04892471432685852,-0.03867840766906738,0.03245331346988678,-0.08593404293060303
131,2.923019125994898,0.11963879683013433,0.8335142589767203,0.21528729796409607,-0.11935359239578247,0.969229519367218,0.6999999284744263,0.030860507860779762,-0.022614875808358192,-0.05133165419101715,0.02857907861471176,-0.07546132802963257
132,2.95725657234455,0.08732955896214961,0.8142963169001936,0.1825953871011734,-0.08721859753131866,0.9793118238449097,0.06881720572710037,-0.4556911289691925,-0.43044671416282654,0.010107859969139099,0.020583465695381165,0.04589557647705078
133,2.936497664305485,0.114567369764113,0.8250409799159688,0.20232506096363068,-0.1143169030547142,0.9726235270500183,0.014498399570584297,-0.19018496572971344,-0.1057666540145874,-0.03943745791912079,0.05045883357524872,-0.15939092636108398
134,2.966058483804237,0.08906752059716035,0.8031250084732755,0.17394189536571503,-0.08894980698823929,0.9807304739952087,0.1642996370792389,0.03296587988734245,0.32794323563575745,0.12818212807178497,-0.059731848537921906,0.06939470767974854
135,2.937316670638649,0.08421568120255843,0.815570701756982,0.20213933289051056,-0.08411616832017899,0.9757378697395325,-0.04537126049399376,-0.009821012616157532,0.025816064327955246,-0.03038637340068817,-0.010473072528839111,-0.054915666580200195
136,2.9526434340471313,0.07858040895817499,0.8084036564886549,0.18724733591079712,-0.07849956303834915,0.9791713356971741,0.04111453518271446,-0.008882753551006317,0.0004224460572004318,0.010064080357551575,0.0019309520721435547,0.0368351936340332
137,2.9481670961939597,0.07267511586775238,0.8100021350283299,0.19171425700187683,-0.07261116057634354,0.9787608981132507,0.15529949963092804,-0.018279802054166794,-0.018955133855342865,0.0012636184692382812,-0.0037133023142814636,0.0009752511978149414
138,2.9284302999342913,0.05321774919275018,0.803642907453265,0.21125228703022003,-0.053192634135484695,0.9759833812713623,0.3520691394805908,-0.38442978262901306,-0.00998975895345211,0.019399598240852356,0.015945915132761,0.0321192741394043
139,2.9021226211875333,0.027950188551437074,0.7787585911148069,0.2370951771736145,-0.027946550399065018,0.9710844159126282,0.23187142610549927,-0.2962769865989685,0.26489245891571045,0.021724402904510498,-0.042838968336582184,0.0866396427154541
140,2.879734264337829,0.019596093055588893,0.7469647824312841,0.2588263750076294,-0.019594838842749596,0.965725302696228,0.011671500280499458,-0.3161463737487793,0.4814656376838684,0.03496637940406799,-0.007169077172875404,0.0066869258880615234
141,2.8267071492228593,0.029483892121113322,0.700554875103163,0.3095729947090149,-0.0294796209782362,0.9504185914993286,0.12482301890850067,-0.42165645956993103,0.32670602202415466,-0.09411889314651489,0.06535302847623825,-0.04464161396026611
142,2.8048149750258897,0.00984175982644525,0.657111267414932,0.33043158054351807,-0.009841601364314556,0.9437788724899292,0.3845476508140564,-0.23478935658931732,0.39067739248275757,-0.0397820770740509,-0.01635773852467537,-0.006278634071350098
143,2.7835134960965866,0.008378745386002232,0.6159357333267873,0.35046347975730896,-0.008378647267818451,0.936538577079773,0.02020721137523651,-0.08860916644334793,0.23833398520946503,-0.025954872369766235,0.0135971549898386,0.029128849506378174
144,2.785129143309698,0.011913606575186664,0.5930600719290149,0.3489374816417694,-0.01191332470625639,0.9370702505111694,-0.037222400307655334,-0.0189573485404253,0.3906981945037842,0.015381336212158203,0.00495531503111124,0.05975586175918579
145,2.783407255516638,0.029966969569922824,0.5979710257016012,0.3504180610179901,-0.029962483793497086,0.9361142516136169,-0.18928958475589752,0.12859147787094116,-0.11342643201351166,-0.01959213614463806,-0.00876433402299881,-0.004778623580932617
146,2.8000416629435447,0.032032927740955515,0.606948212617089,0.33477702736854553,-0.03202744945883751,0.9417527914047241,0.0937512144446373,0.1895361691713333,-0.06910758465528488,0.02537614107131958,-0.035797860473394394,-0.03254270553588867
147,2.8094536510231607,0.02858016749411037,0.5972270061128012,0.3259328007698059,-0.028576277196407318,0.9449611902236938,-0.027217887341976166,0.0872114822268486,-0.011545874178409576,0.003992855548858643,0.011959448456764221,-0.006194472312927246
148,2.8124153675325605,0.02882598601480034,0.5852269658636877,0.32313036918640137,-0.028821993619203568,0.9459156394004822,0.08441048115491867,-0.012658623978495598,0.24121324717998505,-0.021372467279434204,0.009641692042350769,0.03322577476501465
149,2.8225874590019497,0.029328025980729217,0.5819458135399843,0.31348732113838196,-0.029323821887373924,0.9491398334503174,0.021845387294888496,0.1554940938949585,-0.037575170397758484,-0.006373584270477295,-0.015109788626432419,-0.01057136058807373
150,2.833978685467186,0.021319446905408986,0.5777379658824242,0.3027166426181793,-0.02131783217191696,0.952842116355896,0.16901792585849762,0.1081208884716034,0.04384421557188034,0.006655275821685791,-0.012770300731062889,8.165836334228516e-06
151,2.836059865720801,0.010458265356876394,0.5636159160874934,0.30078476667404175,-0.010458074510097504,0.9536343216896057,0.04209555685520172,0.04808393865823746,0.07038664817810059,-0.005466252565383911,0.025747384876012802,0.004937708377838135
152,2.8380549250107436,0.0011897532284844505,0.5481981376851551,0.2988978326320648,-0.0011897529475390911,0.9542843103408813,0.1801217943429947,-0.013418351300060749,0.12823963165283203,0.008734524250030518,0.02154497802257538,-0.002303779125213623
153,2.8325780294289946,0.007770948634606917,0.5122952483763604,0.3041108250617981,-0.007770870346575975,0.9526047110557556,-0.3011518716812134,-0.2551955282688141,0.4124375283718109,0.01824626326560974,-0.02291455678641796,0.04573184251785278
154,2.7665392571591956,0.08727899877275946,0.4942900449727845,0.36492785811424255,-0.08716823160648346,0.9269462823867798,-0.6772505044937134,-0.9204372763633728,0.5936617851257324,0.06607189774513245,-0.0026450008153915405,-0.016896843910217285
155,2.6454207760547748,0.11595811622927941,0.4643481245286336,0.47286558151245117,-0.1156984269618988,0.8735057711601257,0.35701116919517517,-1.4500573873519897,-0.13667279481887817,-0.05430164933204651,0.10851152241230011,-0.03218185901641846
156,2.554667012394279,0.0381853672613214,0.45908393772344686,0.5534001588821411,-0.03817608952522278,0.8320403695106506,1.0809258222579956,-0.40487244725227356,-0.45495566725730896,-0.10088545083999634,0.00970318540930748,0.05136740207672119
157,2.5054235825871767,-0.09160351106804646,0.46331802285423107,0.591627299785614,0.0914754569530487,0.8010051250457764,1.148945689201355,-0.6746093034744263,-1.1661287546157837,-0.06432938575744629,0.0851907953619957,-0.06272399425506592
158,2.4981532862940496,-0.26244339515016485,0.43437179182134994,0.5794077515602112,0.2594410479068756,0.7726430296897888,1.474565863609314,0.6538515090942383,-0.13688896596431732,0.0878286361694336,-0.14017832279205322,0.188920259475708
159,2.5293472805614585,-0.2760091178512242,0.42270565477761785,0.552954375743866,0.27251800894737244,0.7873855233192444,-0.9371066689491272,-0.13231214880943298,0.10407315194606781,0.04819631576538086,-0.02465417981147766,0.10079830884933472
160,2.5336614160214617,-0.21676470883482787,0.43418711927737164,0.5578042268753052,0.2150711715221405,0.8016225695610046,-0.02889583632349968,0.39175063371658325,0.34576258063316345,-0.04442232847213745,0.03077840805053711,-0.06283783912658691
161,2.5859678093389595,-0.19153313099397246,0.408705213959591,0.517828643321991,0.19036421179771423,0.8340354561805725,-0.4641355872154236,0.4430526793003082,0.30310729146003723,-0.03998440504074097,-0.0029557645320892334,0.06441736221313477
162,2.6285523742249812,-0.12672437843596485,0.41557518870968296,0.48689261078834534,0.12638546526432037,0.864270031452179,-0.5962780117988586,0.46644991636276245,0.37616416811943054,0.014312893152236938,0.018130525946617126,0.01690995693206787
163,2.700388636226962,-0.04959300510450126,0.3903042254116674,0.42650356888771057,0.04957268014550209,0.90312659740448,-0.6014108657836914,0.7679906487464905,0.5476695895195007,0.007898956537246704,0.011599812656641006,0.01902318000793457
164,2.744998265539484,0.027318535694959723,0.39023026026779767,0.38613516092300415,-0.027315137907862663,0.9220376014709473,-0.5573378205299377,0.47045910358428955,0.4684082567691803,0.010547518730163574,0.005434039980173111,-0.053797364234924316
165,2.802688234760744,0.04904642969336904,0.3572533189862356,0.3320542573928833,-0.049026768654584885,0.9419854283332825,0.3551044762134552,0.6439707279205322,0.3604130446910858,0.004096865653991699,-0.015716273337602615,-0.019255876541137695
166,2.870931768483487,0.02885245593781805,0.3043467541936808,0.26725703477859497,-0.028848452493548393,0.9631933569908142,0.20195108652114868,0.5671102404594421,0.40308547019958496,-0.015319228172302246,0.00040606968104839325,0.02620178461074829
167,2.9596890890255034,0.03767390735005976,0.24898625376184064,0.18077372014522552,-0.037664994597435,0.9828033447265625,0.04978461563587189,1.085333228111267,0.6309452652931213,0.01788046956062317,0.021338090300559998,0.02459716796875
168,3.0566335862594145,0.040537134599470136,0.19145817543601376,0.08478718250989914,-0.04052603244781494,0.9955745339393616,-0.023364264518022537,0.6770414710044861,0.328031450510025,0.00847453624010086,0.01647818088531494,-0.013640999794006348
169,3.088745472958774,0.04774610964305147,0.17694167144010525,0.05276239663362503,-0.04772797226905823,0.9974660277366638,-0.028986070305109024,0.03290911391377449,0.0037715937942266464,0.031115178018808365,0.005552664399147034,-0.028349637985229492
170,3.042325078358258,0.06620033716038197,0.20311770033069088,0.09888755530118942,-0.06615199148654938,0.9928975105285645,-0.4898892045021057,-0.7889893054962158,-0.3908383846282959,0.010914698243141174,0.02385462075471878,0.010810494422912598
171,2.9588894729450597,0.10472257662505369,0.24386562039896087,0.18069306015968323,-0.10453126579523087,0.9779689311981201,-0.24929839372634888,-0.8066058158874512,-0.319654643535614,-0.026274114847183228,0.010888077318668365,-0.007357358932495117
172,2.895346080666872,0.09823466359696723,0.273335911987698,0.24259020388126373,-0.09807674586772919,0.9651582837104797,0.10887851566076279,-0.33442193269729614,-0.1531504988670349,-0.009771645069122314,-0.01181703805923462,0.026891648769378662
173,2.874166983486967,0.08956877328282424,0.2784529059969637,0.26319026947021484,-0.08944906294345856,0.9605884552001953,0.010015579871833324,-0.12699644267559052,-0.08561212569475174,-0.011084496974945068,0.008363835513591766,0.02564835548400879
174,2.871973625314298,0.09086256632585317,0.281224262103519,0.26526540517807007,-0.09073758870363235,0.9598961472511292,0.03219715505838394,0.02256505936384201,-0.0015910211950540543,0.0017328262329101562,0.0074551403522491455,0.0074651241302490234
175,2.875674890566595,0.08783380706043355,0.2785263253461812,0.26178178191185,-0.08772091567516327,0.9611321687698364,-0.009746799245476723,0.09017951041460037,0.041048113256692886,-7.835030555725098e-05,0.013334333896636963,0.011951148509979248
176,2.8843502257101807,0.08476249054086286,0.2728703885653206,0.253501296043396,-0.08466102927923203,0.9636232256889343,0.017149321734905243,0.12327620387077332,0.06719614565372467,-0.013572096824645996,-0.006281353533267975,0.02035510540008545
177,2.9058362205523096,0.08304549190979865,0.25515357609470746,0.232773557305336,-0.08295007050037384,0.9689868688583374,0.17089606821537018,0.33125150203704834,0.21086493134498596,-0.02212601900100708,0.009326420724391937,0.00012922286987304688
178,2.9361627901953185,0.06957460676219349,0.23768665997802801,0.20349450409412384,-0.06951849162578583,0.9766050577163696,0.0885830968618393,0.23289741575717926,0.10447411984205246,0.003674060106277466,0.008651182055473328,0.004504680633544922
179,2.96390040949348,0.06534603950524788,0.22093849088722356,0.17638133466243744,-0.06529954075813293,0.9821532964706421,0.0991351455450058,0.18552207946777344,0.09338615834712982,0.0026652514934539795,-0.005272336304187775,-5.2094459533691406e-05
180,2.98075677492591,0.06343324049650133,0.20807864526507652,0.1598212867975235,-0.06339070945978165,0.9851086735725403,0.011604806408286095,0.20882992446422577,0.18799389898777008,0.003295212984085083,0.003835633397102356,0.010069727897644043
181,3.0034490922650487,0.062139449623997194,0.1905794652431223,0.1374388188123703,-0.06209946796298027,0.9885616302490234,0.054635725915431976,0.28558167815208435,0.12303124368190765,-0.0014830231666564941,0.02161790430545807,0.0014132857322692871
182,3.027991501744495,0.05588809986150875,0.17954351598182794,0.11317996680736542,-0.05585901066660881,0.9920029044151306,0.09016428887844086,0.2880355417728424,0.15387675166130066,0.009912669658660889,-0.008700914680957794,0.009507536888122559
183,3.057537908010426,0.0491001726004637,0.16015636865683194,0.08385460823774338,-0.04908044636249542,0.9952684044837952,0.011187730357050896,0.23354360461235046,0.1986604630947113,-0.0005416274070739746,-0.006904043257236481,0.017533540725708008
184,3.0834854324151824,0.05719152230875783,0.14458292335531145,0.057979561388492584,-0.05716035142540932,0.9966797828674316,-0.04386815428733826,0.10750513523817062,-0.022992493584752083,0.002338416874408722,0.019944176077842712,-0.019644498825073242
185,3.0885761635453406,0.0599235214531823,0.1470261909074979,0.052896544337272644,-0.05988766625523567,0.996802568435669,-0.022326551377773285,0.11359803378582001,0.009620759636163712,0.008977852761745453,0.008541829884052277,0.0004050731658935547
186,3.084859191621108,0.06496559945746119,0.14995619324650908,0.056583404541015625,-0.06491991132497787,0.9962847828865051,-0.12236781418323517,0.10855456441640854,0.11788567900657654,0.016353599727153778,0.011163204908370972,0.008903026580810547
187,3.0911959366142754,0.06500805194049684,0.14329523411645959,0.0502689890563488,-0.06496227532625198,0.9966209530830383,-0.033524271100759506,0.1647515445947647,0.11657814681529999,-0.0038517452776432037,0.02094065397977829,0.010306715965270996
188,3.1031882023244854,0.06443814150752665,0.13953658757760515,0.038315337151288986,-0.0643935576081276,0.9971891045570374,-0.023901639506220818,0.12057632952928543,0.06540481746196747,-0.005737815052270889,-0.0073532834649086,0.0070226192474365234
189,3.116137708301632,0.06264790761270417,0.1347210753749921,0.025402264669537544,-0.06260693818330765,0.9977149367332458,0.07245266437530518,0.10083024203777313,0.04270628094673157,0.0014684628695249557,-0.004684321582317352,-0.000507354736328125
190,3.126791880385884,0.058992967005229026,0.12720236593734108,0.014774487353861332,-0.0589587539434433,0.9981511235237122,0.007775641046464443,0.0638941302895546,0.0627245381474495,0.003215624950826168,0.003599870949983597,0.018175780773162842
191,3.131722140566383,0.06281248576389725,0.12490270785761337,0.009850888513028622,-0.06277119368314743,0.9979794025421143,-0.015473492443561554,-0.005147916730493307,0.03741738572716713,0.004324526526033878,-0.01051677018404007,-0.019952058792114258
192,3.134220674027058,0.06140994932233035,0.12419354375724517,0.007358018308877945,-0.06137135997414589,0.9980881214141846,0.06289085000753403,0.05954059213399887,0.000254693441092968,0.00474220234900713,0.011902358382940292,0.01828479766845703
193,-3.1402225414072205,0.05882057932325431,0.1177428691372151,-0.0013677425449714065,-0.05878666788339615,0.99826979637146,-0.07728254795074463,0.06673060357570648,0.028986016288399696,-0.010122125968337059,0.021097443997859955,0.00754392147064209
194,-3.1307746911449494,0.05990803056436469,0.11105377416789969,-0.010798346251249313,-0.05987220257520676,0.9981477856636047,0.022982656955718994,0.17963121831417084,0.15657196938991547,-0.0032702600583434105,0.007885493338108063,-0.0006042718887329102
195,-3.09958690043398,0.04907550148321998,0.09544813595669989,-0.04194284602999687,-0.0490558035671711,0.9979150295257568,0.07878851890563965,0.4621928036212921,0.18785244226455688,-0.009006258100271225,-0.0303356796503067,0.06847596168518066
196,-3.0523315654616776,0.06381941767447469,0.08838931693624509,-0.08896112442016602,-0.06377610564231873,0.9939911365509033,-0.29912224411964417,0.4066641330718994,0.03159903734922409,0.026842601597309113,0.0032902732491493225,0.017712295055389404
197,-3.009375909490386,0.08823487704394437,0.07412709862040062,-0.13131900131702423,-0.08812043070793152,0.9874157309532166,-0.13962912559509277,0.45196467638015747,0.14098894596099854,-0.006940856575965881,0.00964450091123581,-0.006291031837463379
198,-2.9532288328913365,0.09533191397094877,0.05446829156622795,-0.1864016205072403,-0.09518758207559586,0.977851390838623,-0.04220873862504959,0.5198701024055481,0.16054564714431763,0.020233452320098877,0.0063509270548820496,0.007911920547485352
199,-2.908530038725373,0.1055839065252486,0.03565095388854138,-0.22967231273651123,-0.105387844145298,0.9675456285476685,-0.20756207406520844,0.4149964153766632,0.2234550416469574,0.013531491160392761,0.0031081587076187134,-0.014466166496276855
200,-2.8817761634691634,0.1139610619401694,0.027569875810612637,-0.25523683428764343,-0.1137145534157753,0.9601684808731079,-0.11093579232692719,0.06050612032413483,-0.010455012321472168,0.026980578899383545,-0.0031525343656539917,-0.02835988998413086
201,-2.876418184201891,0.11706332880037888,0.0221207729351571,-0.2602840065956116,-0.11679614335298538,0.9584420919418335,0.022431988269090652,0.0650441125035286,0.06475082784891129,0.008285075426101685,0.0016227886080741882,0.009102582931518555
202,-2.8669161931530924,0.11840883530548175,0.01561347700731954,-0.2693362534046173,-0.1181323379278183,0.9557731747627258,-0.038383085280656815,0.12960943579673767,-0.005029475316405296,0.002719491720199585,0.024565458297729492,-0.00017648935317993164
203,-2.860570468569273,0.11897943576624108,0.016325951818575875,-0.27537718415260315,-0.11869891732931137,0.9539800882339478,-0.014210271649062634,0.002693143207579851,-0.01631111651659012,0.009630143642425537,0.01452716439962387,-0.031540513038635254
204,-2.8624193765713155,0.11226575393189354,0.01740290726664817,-0.2738262712955475,-0.11203007400035858,0.9552319645881653,0.007089151069521904,-0.053952161222696304,0.004804092459380627,0.01441165804862976,0.00788886845111847,-0.0017714500427246094
205,-2.8627304334285903,0.10327978295178064,0.015934103283765468,-0.2737951874732971,-0.10309626907110214,0.9562463164329529,-0.008106887340545654,0.019398633390665054,-0.020200319588184357,-0.011391520500183105,0.015053078532218933,0.027991175651550293
206,-2.8629070523719937,0.10360511457853418,0.01660418788787512,-0.27361705899238586,-0.10341986268758774,0.9562624096870422,0.046377554535865784,0.014661157503724098,-0.007052529603242874,-0.020267188549041748,0.003963083028793335,0.007741987705230713
207,-2.8639382901199424,0.09936833062241543,0.020138816362736255,-0.27274855971336365,-0.099204882979393,0.9569572806358337,0.0755448117852211,-0.06504660099744797,-0.02491849474608898,0.00015023350715637207,-0.0012132301926612854,-0.005388379096984863
208,-2.868375405268115,0.08745055084242244,0.024300641176280037,-0.2687996029853821,-0.0873391255736351,0.9592280387878418,0.12019792199134827,-0.0768449679017067,-0.0022609587758779526,-0.0003196597099304199,0.005918242037296295,0.007156729698181152
209,-2.8712249127714915,0.08318488444317776,0.02637492416147878,-0.26616230607032776,-0.08308897912502289,0.9603404998779297,0.027784235775470734,-0.020111553370952606,-0.014029363170266151,0.008181959390640259,-0.004298098385334015,0.012666702270507812
210,-2.8733259220093483,0.0831894769882672,0.024974432245387014,-0.2641439735889435,-0.08309356123209,0.9608973860740662,-0.014729812741279602,-0.024132758378982544,0.011985496617853642,-0.013657599687576294,0.0024508535861968994,-5.4836273193359375e-06
211,-2.875394276503968,0.08381533106659084,0.026174856835446028,-0.262142151594162,-0.0837172344326973,0.9613910913467407,-0.006585337221622467,-0.020378099754452705,0.03352920711040497,0.011058807373046875,-0.006050221621990204,-0.002238929271697998
212,-2.878792279503966,0.08375120812898672,0.024951666034065345,-0.2588752210140228,-0.08365333080291748,0.9622814655303955,0.03024369291961193,-0.022828849032521248,-0.031693119555711746,-0.012288719415664673,0.0053604841232299805,-0.0019239187240600586
213,-2.8853661837991775,0.08033568158592666,0.025848162768502214,-0.25261473655700684,-0.08024929463863373,0.9642335176467896,0.08420780301094055,-0.09667137265205383,-0.0119136031717062,-0.01276618242263794,0.011569477617740631,-0.0127410888671875
214,-2.892651747884316,0.07126381392509179,0.03221109597744057,-0.24575233459472656,-0.07120350748300552,0.9667141437530518,0.07971350848674774,-0.0991932600736618,-0.06979969143867493,0.008752807974815369,0.016088761389255524,0.006796717643737793
215,-2.8988234212152255,0.06580332507653093,0.03571117716516675,-0.2398713380098343,-0.06575584411621094,0.9685753583908081,0.05036128684878349,-0.03400782123208046,0.008039494976401329,0.008624359965324402,0.0027217790484428406,0.011344194412231445
216,-2.9016563904962154,0.05797757479639414,0.03448298671264432,-0.2372414469718933,-0.05794509872794151,0.9697210788726807,0.11725002527236938,0.049931690096855164,0.10742367804050446,0.01936119794845581,-0.009514007717370987,0.017629384994506836
217,-2.917936052583079,0.06669224742990934,0.04004990038405737,-0.2213035672903061,-0.06664282083511353,0.9729253053665161,-0.3709535598754883,-0.4360117018222809,-0.3639882504940033,-0.007013693451881409,0.020271360874176025,-0.0003606081008911133
218,-3.0478604135685727,0.13545917290698156,0.1405246703150888,-0.09273768216371536,-0.13504528999328613,0.9864901900291443,-0.41624146699905396,-1.6266998052597046,-1.2141345739364624,0.034998416900634766,-0.001841321587562561,-0.02111220359802246
219,3.0537284173703276,0.14428066040174262,0.2639484913324497,0.0868394672870636,-0.14378060400485992,0.9857922196388245,-0.06168175861239433,-1.6531062126159668,-1.1600072383880615,-0.0016496405005455017,-0.05504143238067627,0.04385566711425781
220,2.916569081928374,0.16189644189670102,0.31961066059176885,0.22021156549453735,-0.16119013726711273,0.9620419144630432,-0.2683846056461334,-1.0229359865188599,-0.18916594982147217,-0.026806414127349854,-0.020694628357887268,0.03002345561981201
221,2.819321018161115,0.17870443066822608,0.3627910735358655,0.31167832016944885,-0.17775478959083557,0.9334133863449097,-0.24969470500946045,-0.6182385683059692,-0.15971142053604126,-0.0476248562335968,-0.012919098138809204,0.039411067962646484
222,2.7780308634714888,0.17866221427988963,0.38601876400849766,0.3499450981616974,-0.17771324515342712,0.9197590947151184,0.082283154129982,-0.3009284436702728,-0.3018679916858673,-0.048248291015625,0.01499350368976593,0.003428339958190918
223,2.725240200706896,0.1575127766984061,0.42800785178833317,0.39942052960395813,-0.1568622589111328,0.903248131275177,-0.05952858924865723,-0.6099042296409607,-0.676546573638916,-0.04643908143043518,0.001314207911491394,0.003810405731201172
224,2.661694854182878,0.1272849793288996,0.48601264597631105,0.4579536020755768,-0.12694156169891357,0.8798661828041077,0.24746328592300415,-0.44430607557296753,-0.5470584034919739,0.03231129050254822,-0.017543911933898926,0.01446676254272461
225,2.597463869439696,0.09749749513378228,0.5296700826099392,0.5152145624160767,-0.09734310209751129,0.8515155911445618,-0.08779937773942947,-0.7284274101257324,-0.393304705619812,0.01432657241821289,-0.0349353551864624,0.015565335750579834
226,2.5502370422151315,0.07723017439881884,0.5514012925516284,0.5558253526687622,-0.07715342193841934,0.8277113437652588,0.41632500290870667,-0.16724546253681183,-0.4493838846683502,-0.055047035217285156,0.0007526576519012451,-0.018781721591949463
227,2.53548270858586,0.011257755529911788,0.5600661495407716,0.5696384906768799,-0.011257518082857132,0.8218181133270264,0.5678123831748962,-0.0165733490139246,-0.2798979878425598,0.023531615734100342,-0.03538858890533447,0.05495178699493408
228,2.5301135051964714,-0.013354039665556774,0.5642594836210658,0.5740281343460083,0.013353643007576466,0.8187268972396851,-0.0209825299680233,-0.03752163052558899,-0.06047987937927246,0.020179688930511475,-0.037294670939445496,0.03616213798522949
229,2.525369070651705,-0.009449892603223594,0.5667814429882044,0.5779315233230591,0.009449752047657967,0.8160302042961121,0.050789110362529755,-0.10749385505914688,-0.12452463805675507,-0.023183107376098633,0.030940262600779533,-0.028280198574066162
230,2.532819378856478,-0.019972665828524746,0.5599729628854332,0.5717476010322571,0.019971337169408798,0.8201866745948792,0.015922298654913902,0.05487905442714691,-0.0764067992568016,-0.00975102186203003,0.001772439107298851,0.0345497727394104
231,2.5372926167479117,-0.021868899303121057,0.5631114075022281,0.5680504441261292,0.02186715602874756,0.8227034211158752,0.04640762507915497,0.1410338133573532,0.03653576970100403,0.003223419189453125,-0.008988732472062111,0.017705023288726807
232,2.540189065843072,-0.018260198554775193,0.5624989156039141,0.5657060742378235,0.018259184435009956,0.8244048953056335,0.017610983923077583,-0.004873418249189854,0.06830652058124542,0.001920938491821289,-0.002176417037844658,-0.00793755054473877
233,2.5455999421337023,-0.014491230416201154,0.5554510266260003,0.5612716674804688,0.014490723609924316,0.8275048136711121,-0.06827455759048462,0.06044638156890869,0.03632526099681854,-0.02176666259765625,0.015477538108825684,0.015009284019470215
234,2.566362247516136,-0.0034266151026570196,0.5389094640098544,0.5440249443054199,0.003426608396694064,0.8390620350837708,-0.04065481573343277,0.17799802124500275,0.14733551442623138,-0.023532450199127197,0.01578420400619507,0.007983863353729248
235,2.5765475654416297,-0.0011577968958439609,0.5309790695502985,0.5354536175727844,0.001157796592451632,0.8445640206336975,0.05409669876098633,0.064508818089962,0.1446167677640915,-0.004081428050994873,-0.006925627589225769,0.02010589838027954
236,2.6102111560128995,0.0061536541918495195,0.5086380784177039,0.5067152976989746,-0.006153615191578865,0.862091600894928,0.054937027394771576,0.49522316455841064,0.46406450867652893,0.020796358585357666,-0.013102971017360687,-0.010223865509033203
237,2.6268757221465493,0.006492076568008964,0.4942648550008059,0.4922780692577362,-0.006492030806839466,0.8704137206077576,0.1000949889421463,-0.026597367599606514,-0.02205221727490425,0.003876715898513794,0.00449313223361969,0.010109901428222656
238,2.628869703177339,0.0058956524015648035,0.49352221618686776,0.49054330587387085,-0.005895618349313736,0.8713967800140381,-0.009159017354249954,0.061337269842624664,-0.022812893614172935,-0.006916046142578125,-0.008478157222270966,0.0018636584281921387
239,2.6328774803464245,0.0009253018551130619,0.49363371301788056,0.4870552122592926,-0.0009253017487935722,0.8733704686164856,0.1497996598482132,0.0331704318523407,-0.050102684646844864,0.0013174712657928467,-0.0009362695273011923,-0.0064730048179626465
240,2.6342120369930244,-0.008656685469288864,0.4855385156740962,0.48587125539779663,0.008656577207148075,0.8739873766899109,0.12837131321430206,0.11557136476039886,0.04975154623389244,-0.014237433671951294,0.0018872451037168503,0.00826042890548706
241,2.6600836339459817,-0.01799059192615469,0.46287212259750626,0.46304216980934143,0.017989620566368103,0.8861535787582397,0.16933105885982513,0.3671392798423767,0.2314237356185913,-0.0023488402366638184,0.005981935188174248,0.014740526676177979
242,2.753729587344388,-0.03695548196587932,0.38650938324557266,0.37795290350914,0.03694707155227661,0.9250874519348145,0.6237484216690063,0.7211244106292725,0.29780182242393494,-0.03459957242012024,0.03129023686051369,-0.008827567100524902
243,2.857725419589588,-0.04566608526751113,0.3170166480163687,0.27977821230888367,0.045650213956832886,0.9589787125587463,0.3029613494873047,1.296265959739685,0.9512909054756165,0.023612290620803833,-0.019145697355270386,0.004751086235046387
244,2.9557977388526973,-0.05434105321046641,0.24923380198029857,0.18445517122745514,0.05431431159377098,0.981339156627655,0.10467076301574707,0.996627688407898,0.6139568090438843,0.012047529220581055,0.0036690905690193176,0.004287123680114746
245,3.014237801785008,-0.05619529050002771,0.21259521191499398,0.12681035697460175,0.05616571754217148,0.9903355240821838,0.03822406381368637,0.6265337467193604,0.42419713735580444,0.01529473066329956,0.0018634498119354248,0.013219714164733887
246,3.0566382034732493,-0.06433475245086144,0.18613325202351175,0.08467677235603333,0.06429038196802139,0.9943324327468872,0.06659397482872009,0.3394063413143158,0.2556619644165039,0.027154915034770966,-0.008427940309047699,0.010886192321777344
247,3.0869061504300794,-0.06489242421373581,0.1605214213033199,0.05454421043395996,0.06484688818454742,0.9964035153388977,0.07884727418422699,0.34609895944595337,0.2565167546272278,0.001333482563495636,-0.004574663937091827,0.0016739368438720703
248,3.1220132893607175,-0.07324958084034089,0.1323809475503696,0.019525615498423576,0.07318409532308578,0.99712735414505,0.05327565222978592,0.41996878385543823,0.31720978021621704,-0.004587259143590927,0.009945794939994812,0.015995264053344727
249,-3.1237614287752353,-0.0787697807717363,0.10824243583292506,-0.017774999141693115,0.07868834584951401,0.9967410564422607,0.04043342173099518,0.3821430206298828,0.20448826253414154,0.0077347103506326675,0.002076447010040283,0.01093435287475586
250,-3.091323173388853,-0.08281454574272686,0.08925580975316708,-0.05007610842585564,0.08271991461515427,0.9953140616416931,0.05027540400624275,0.270759254693985,0.147271990776062,0.014340024441480637,-0.009492993354797363,7.784366607666016e-05
251,-3.066757835603927,-0.08509936209347642,0.07196894273306245,-0.07449441403150558,0.08499668538570404,0.9935922622680664,0.0029539880342781544,0.24336323142051697,0.1654415875673294,0.0036326125264167786,0.0006813928484916687,0.004561126232147217
252,-3.046948952351173,-0.08499022979034349,0.057242661442707884,-0.09416134655475616,0.08488794416189194,0.991931140422821,-0.03923632204532623,0.13375823199748993,0.0796302855014801,0.006087645888328552,0.012630946934223175,-0.004596114158630371
253,-3.037221231829946,-0.07922404416998624,0.05366626550368528,-0.10385527461767197,0.07914119958877563,0.9914389252662659,-0.16241396963596344,0.22982539236545563,0.11710436642169952,0.011097073554992676,-0.021676577627658844,0.04271042346954346
254,-3.037077416534812,-0.03829808334392861,0.0645369751744007,-0.10424857586622238,0.038288719952106476,0.9938141107559204,-0.6808559894561768,-0.21842817962169647,-0.21596162021160126,0.01503041386604309,0.011714339256286621,0.01097726821899414
255,-3.0704930320432595,0.023512355947487507,0.079313857276977,-0.07102010399103165,-0.023510189726948738,0.9971978664398193,-0.42883893847465515,-0.4079197347164154,-0.11712239682674408,-0.0002384483814239502,0.00869390182197094,-0.020665764808654785
256,-3.090553115867078,0.02018445288077473,0.08354627165687158,-0.0510069876909256,-0.020183082669973373,0.9984942674636841,0.3671260178089142,-0.3664361238479614,-0.28008177876472473,-0.015719696879386902,0.026683326810598373,-0.03456616401672363
257,-3.124411666624608,-0.008269158285678316,0.10199956933262154,-0.01717955432832241,0.008269064128398895,0.9998182058334351,0.3697395920753479,-0.3946167528629303,-0.20805326104164124,-0.01848023757338524,-0.022825948894023895,-0.010453581809997559
258,3.1097709760489938,-0.04335919410130696,0.13174994647224894,0.03178640082478523,0.043345607817173004,0.9985542893409729,0.2692609131336212,-0.39829936623573303,-0.18181194365024567,0.013654269278049469,-0.0021621398627758026,0.035182833671569824
259,3.0821507910883077,-0.0626914529919507,0.14990111150605973,0.05929017812013626,0.0626503974199295,0.9962731003761292,0.1267901510000229,-0.21824440360069275,-0.2617202401161194,-0.010233163833618164,0.011232666671276093,0.015140652656555176
260,3.0640010252265055,-0.0767038469879004,0.16349313862140089,0.07728589326143265,0.0766286551952362,0.9940599799156189,0.18757764995098114,-0.16849417984485626,-0.1532313972711563,-0.021423451602458954,0.007462546229362488,-0.00941014289855957
261,3.0517068863214543,-0.10376545830285082,0.17703359600316573,0.08928196132183075,0.10357934981584549,0.9906060099601746,0.29433494806289673,0.1372407227754593,0.04567086324095726,-0.0074948519468307495,-0.015307247638702393,0.044885993003845215
262,3.0778595691605557,-0.12064458249594903,0.16763963772470658,0.06322702020406723,0.1203521266579628,0.9907160401344299,0.049517758190631866,0.39744865894317627,0.07180005311965942,0.011586837470531464,0.009683296084403992,0.032309770584106445
263,3.1180374471333883,-0.11540713530782877,0.16082135277529136,0.023396359756588936,0.11515112221240997,0.9930727481842041,-0.1327105164527893,0.3773053288459778,-0.007382005453109741,0.0004073549062013626,0.0017922595143318176,0.00750732421875
264,-3.1280222965629387,-0.10058603907541548,0.15345627265461234,-0.013501351699233055,0.10041651129722595,0.9948539733886719,-0.18731814622879028,0.3367885649204254,0.053128018975257874,0.011899178847670555,0.022233635187149048,-0.015316009521484375
265,-3.1075830362167696,-0.0879754207636988,0.15185168065940682,-0.03387156501412392,0.08786197751760483,0.9955567121505737,-0.09743064641952515,0.2756365239620209,0.10657614469528198,0.012814436107873917,0.012189902365207672,0.0059233903884887695
266,-3.0968495520683423,-0.0839361312815743,0.14848627872830092,-0.04457070678472519,0.0838376060128212,0.9954822063446045,-0.05792418494820595,0.07921528071165085,0.04582995921373367,-0.0004884973168373108,-0.014425374567508698,0.013947725296020508
267,-3.080985775798946,-0.05659630564115647,0.13981436298883654,-0.060472819954156876,0.05656609684228897,0.9965660572052002,-0.6299022436141968,0.3268914222717285,0.005364900454878807,-0.014905616641044617,0.008924640715122223,0.0965280532836914
268,-3.046744513318097,0.020203038499679957,0.12877995067758471,-0.09468665719032288,-0.0202016644179821,0.9953020215034485,-0.8413209915161133,0.2536304295063019,0.11358782649040222,0.016454853117465973,-0.0409402996301651,0.05787473917007446
269,-3.027655660308237,0.12899275668891963,0.10950739914561365,-0.11274606734514236,-0.12863533198833466,0.9852617979049683,-1.1766993999481201,-0.14332935214042664,-0.12784819304943085,0.010283336043357849,0.04689402878284454,-0.04306232929229736
270,-3.0297789977589327,0.23188043015638402,0.09536589738528721,-0.10859445482492447,-0.2298080325126648,0.9671583771705627,-0.49976396560668945,0.17795412242412567,0.17945148050785065,-0.009188130497932434,0.0037033110857009888,-0.035487353801727295
271,-3.0201656565663053,0.26747718816689664,0.09190203617325252,-0.11682160198688507,-0.2642991840839386,0.9573396444320679,-0.6441384553909302,-0.06420817226171494,-0.13121390342712402,-0.01509065181016922,0.014878958463668823,0.01469123363494873
272,-3.034302915203345,0.34353835282453987,0.09823099151573286,-0.10082697123289108,-0.3368208110332489,0.9361547827720642,-0.7055606842041016,0.021626267582178116,-0.1352311223745346,-0.010775819420814514,0.032926708459854126,-0.0003331899642944336
273,-3.0247037958516474,0.40098697542612954,0.10211461692254296,-0.10737190395593643,-0.39032721519470215,0.9143938422203064,-0.6171703338623047,0.08751046657562256,-0.045101843774318695,0.03307684510946274,0.026893317699432373,0.01665174961090088
274,-3.0319287331050773,0.4665747164148277,0.10624191832149822,-0.09774624556303024,-0.44982975721359253,0.8877495527267456,-0.619259774684906,0.12004987895488739,0.033152930438518524,1.3671815395355225e-05,-0.010314404964447021,0.014121413230895996
275,-3.0220832530873722,0.5157705788460636,0.0996380605006451,-0.10371549427509308,-0.49320533871650696,0.8637081980705261,-0.4157468378543854,-0.08959610015153885,-0.13387234508991241,-0.015181005001068115,0.03333589434623718,-0.024444103240966797
276,-3.0315870051179754,0.5387238270727606,0.10722955828546334,-0.09423461556434631,-0.5130409598350525,0.8531761169433594,-0.013460335321724415,0.011605145409703255,-0.1661393642425537,-0.044086337089538574,0.033365488052368164,-0.022960364818572998
277,-3.013137193865404,0.5398407880491134,0.1066550541180055,-0.1098850890994072,-0.5139994025230408,0.8507230877876282,-0.09797345101833344,0.13232854008674622,0.003827945329248905,0.010550379753112793,0.022864878177642822,0.013656795024871826
278,-3.0045250392717744,0.547354242498615,0.10124383199577454,-0.116676464676857,-0.5204298496246338,0.8458953499794006,0.06299754232168198,0.16621033847332,0.1702064722776413,-0.0004347264766693115,-0.00538790225982666,-0.015344440937042236
279,-2.959697050942611,0.5127553420833787,0.07679305471072224,-0.1576305329799652,-0.49058011174201965,0.857020378112793,0.3465098738670349,0.32004407048225403,0.3064914345741272,0.00052604079246521,-0.009511470794677734,0.0018053054809570312
280,-2.8780778061673824,0.46428105116939106,0.028999020275272337,-0.23290269076824188,-0.4477800726890564,0.8632782697677612,0.5313163995742798,0.6069137454032898,0.5177636742591858,0.032219111919403076,0.005992412567138672,-0.01995551586151123
281,-2.830165795627157,0.4091394446657246,-0.002980223762079423,-0.2811265289783478,-0.3978199362754822,0.8733309507369995,0.4411507844924927,0.3216361999511719,0.4311290681362152,-0.015443235635757446,-0.02553504705429077,0.004522383213043213
282,-2.795758893557594,0.36463492414052534,-0.023709958512041305,-0.3166945278644562,-0.35660824179649353,0.8789397478103638,0.19049088656902313,0.20433665812015533,0.2558109760284424,-0.0018936991691589355,0.009135127067565918,0.001644909381866455
283,-2.7663135252140383,0.3254658386615936,-0.043485648826122894,-0.3472899794578552,-0.31975018978118896,0.8815608024597168,0.3894164562225342,0.1658630669116974,0.23649714887142181,-0.004486113786697388,-0.00010451674461364746,0.0032352805137634277
284,-2.7421854162104644,0.27003026693772714,-0.052196016308897995,-0.37478068470954895,-0.26676061749458313,0.8879067301750183,0.9143433570861816,0.10187695920467377,0.3202807903289795,0.03225135803222656,-0.009789735078811646,-0.055860161781311035
285,-2.7261966128361896,0.1539580441934047,-0.04100892248420829,-0.3987790644168854,-0.15335054695606232,0.9041343331336975,0.7448025941848755,0.10015811771154404,0.2804422676563263,-0.017450183629989624,-0.012039467692375183,0.038462042808532715
286,-2.7184915622772463,0.1108236306690638,-0.04179021578524351,-0.4080713093280792,-0.1105969175696373,0.9062265157699585,0.33846142888069153,0.12417811900377274,0.14633388817310333,0.0032403171062469482,0.006592996418476105,0.017769575119018555
287,-2.7093579002094668,0.0853988130642417,-0.044811454404592846,-0.41737446188926697,-0.08529505133628845,0.9047227501869202,0.1974388062953949,0.06326130032539368,0.15052741765975952,0.005875438451766968,0.009458862245082855,-0.010847687721252441
288,-2.6966945836194083,0.05604938847373744,-0.04668201861844107,-0.42969003319740295,-0.05602004751563072,0.9012370109558105,0.22007176280021667,0.07080814242362976,0.0711195319890976,0.003527343273162842,-0.0040232837200164795,-0.007438242435455322
289,-2.7017341604769487,0.0350453861578069,-0.04501789587655041,-0.42555004358291626,-0.035038214176893234,0.9042565226554871,0.19318808615207672,-0.15671418607234955,0.06547053158283234,0.0009284019470214844,-0.013149049133062363,-0.012715816497802734
290,-2.7262162114422726,0.01516354581367437,-0.04211369286348556,-0.40348806977272034,-0.015162964351475239,0.914859414100647,0.21934746205806732,-0.3012236952781677,0.06474676728248596,-0.013031184673309326,-0.0013470491394400597,-0.015857219696044922
291,-2.7642995810337965,-0.012569060524970163,-0.03617682243188919,-0.368376225233078,0.012568729929625988,0.929591953754425,0.3027876615524292,-0.5206316113471985,0.06340602040290833,-0.005296260118484497,0.003834468312561512,-0.04444479942321777
292,-2.828280748198932,-0.05431226799387076,-0.02912741720083588,-0.3077565133571625,0.05428557097911835,0.9499152302742004,0.5274008512496948,-0.6649984121322632,0.11968664824962616,-0.0010814070701599121,0.0015921145677566528,-0.024088263511657715
293,-2.881224913303683,-0.10045584917561093,-0.02307909971207489,-0.25613805651664734,0.10028697550296783,0.9614238142967224,0.28985220193862915,-0.42400673031806946,0.03166072815656662,-0.0055196285247802734,-0.0021729767322540283,0.06312751770019531
294,-2.9191125921084375,-0.12307029627371448,-0.021864163227545814,-0.21898037195205688,0.1227598562836647,0.9679762721061707,0.1721993386745453,-0.3936516046524048,0.03238730877637863,-0.01663060486316681,0.01006791740655899,0.012874126434326172
295,-2.953559830790759,-0.14423417623745535,-0.017086141756870222,-0.18498575687408447,0.14373460412025452,0.9721731543540955,0.21471090614795685,-0.4351547360420227,-0.03491571545600891,-0.00040850043296813965,0.0051759034395217896,-0.02716583013534546
296,-2.9786181321038914,-0.1690627855246464,-0.0122827250867977,-0.15994079411029816,0.16825857758522034,0.9726811051368713,0.1520269364118576,-0.17534518241882324,-0.07306800782680511,-0.017732590436935425,0.010238781571388245,0.04344761371612549
297,-2.994504609596835,-0.1775802383165811,-0.00516867820915878,-0.14425352215766907,0.17664837837219238,0.9736462235450745,0.05807630717754364,-0.15345413982868195,0.007935145869851112,-0.00567936897277832,-0.011136248707771301,0.004625558853149414
298,-3.018740647772924,-0.18406177372200228,0.0025544396766508087,-0.12047326564788818,0.18302424252033234,0.9756988883018494,0.16584224998950958,-0.38711196184158325,-0.1276121884584427,-0.019541382789611816,0.016362354159355164,-0.05245065689086914
299,-3.0508565119807693,-0.21010529999909988,0.015339062036574744,-0.08861904591321945,0.20856288075447083,0.9739857912063599,0.295438289642334,-0.3737189471721649,-0.13096462190151215,-0.007572360336780548,0.009500473737716675,0.005369067192077637
300,-3.0826028229726203,-0.23431803715064764,0.02752070908135598,-0.057344529777765274,0.23217971622943878,0.9709808826446533,0.2383277267217636,-0.29338040947914124,-0.10746771842241287,-0.01318158209323883,-0.009294629096984863,0.019970476627349854
301,-3.1091368671449606,-0.2498827277796558,0.0360602467618452,-0.03144222870469093,0.24729032814502716,0.9684309959411621,0.19798490405082703,-0.04633740335702896,-0.01245320774614811,-0.02718202769756317,0.0015041530132293701,0.036787331104278564
302,-3.1200034688299034,-0.2628357327589621,0.04228678158660717,-0.020846130326390266,0.2598199248313904,0.9654320478439331,0.05153360217809677,-0.1958734095096588,-0.038655027747154236,-0.0017216186970472336,-0.00045105814933776855,0.010687947273254395
303,-3.13441267785774,-0.27103944360190474,0.045797711682220854,-0.006917799357324839,0.26773306727409363,0.9634685516357422,0.10381893068552017,-0.21452665328979492,-0.04238852113485336,-0.0037023192271590233,0.0012031197547912598,-0.009092092514038086
304,3.1332649504758705,-0.2865158510904928,0.0495056431971096,0.007988126948475838,0.28261181712150574,0.9592011570930481,0.18617157638072968,-0.13807016611099243,-0.04739905893802643,-0.006797940470278263,0.00899893045425415,0.01209712028503418
305,3.1169916505111646,-0.29778481952216435,0.05556485454425082,0.023515917360782623,0.2934032380580902,0.9556998014450073,0.1820206493139267,-0.24134545028209686,-0.0856899544596672,-0.0037710387259721756,0.009254902601242065,-0.028743386268615723
306,3.095855086399593,-0.3212291683972889,0.059636188261112756,0.04338287189602852,0.3157331049442291,0.9478557705879211,0.11533237993717194,-0.25262048840522766,-0.056298960000276566,-0.018541567027568817,-0.004301220178604126,0.04669684171676636
307,3.075206714769108,-0.33276687680516565,0.06936514293352714,0.06269806623458862,0.3266593813896179,0.9430601000785828,0.13251937925815582,-0.22951282560825348,-0.06233669072389603,0.01826506108045578,-0.004805773496627808,0.0067231059074401855
308,3.052744858023695,-0.3428841790574513,0.07294683387935418,0.08356583118438721,0.33620476722717285,0.9380741715431213,0.12898299098014832,-0.23537011444568634,-0.08142037689685822,-0.012871861457824707,0.008506536483764648,-0.0030919313430786133
309,3.027286986087818,-0.35794632554257183,0.08469368159406689,0.10682778805494308,0.3503514528274536,0.9305061101913452,0.22350811958312988,-0.18466432392597198,-0.12450544536113739,-0.018815092742443085,0.0161493718624115,0.0013939142227172852
310,2.999956601516723,-0.37550363645033225,0.11320057030350791,0.13132712244987488,0.3667411208152771,0.9210068583488464,0.05769898742437363,-0.3200591206550598,-0.21765518188476562,0.007985591888427734,-0.0020714104175567627,0.03742790222167969
311,2.985610487051127,-0.379191094468948,0.11893118239457771,0.14431500434875488,0.37016913294792175,0.9176861643791199,-0.0261592585593462,-0.31458431482315063,-0.15667589008808136,-0.01566813886165619,0.016976863145828247,0.01596856117248535
312,2.96696721625857,-0.3783310815616865,0.13145771321404395,0.16145285964012146,0.36937010288238525,0.9151495695114136,0.07750900089740753,-0.09670807421207428,-0.08125049620866776,-0.023864373564720154,0.012267440557479858,-0.003742039203643799
313,2.958115078508327,-0.385063493330955,0.1411828556098183,0.1690898984670639,0.37561798095703125,0.9112187623977661,0.14632973074913025,-0.05342447757720947,-0.03420857712626457,0.012550726532936096,0.00620269775390625,-0.001306772232055664
314,2.950998936622281,-0.39271646303821106,0.14222677971699585,0.175020232796669,0.38269948959350586,0.9071434140205383,0.09350024908781052,0.07974385470151901,0.039376914501190186,-0.0031757503747940063,0.001745760440826416,0.018500566482543945
315,2.9454810604061468,-0.39830841659023286,0.14154114754213273,0.1796032190322876,0.3878597319126129,0.9040505290031433,0.03237135708332062,-0.13262346386909485,-0.07446275651454926,-0.017036110162734985,0.0017123520374298096,0.01643580198287964
316,2.9434396004145356,-0.4069668593947788,0.1427111716773259,0.18078048527240753,0.39582574367523193,0.9003553986549377,0.07257138192653656,-0.10737646371126175,-0.0322783924639225,0.004506945610046387,-0.004315823316574097,0.012333512306213379
317,2.939506225398091,-0.40856694860519216,0.1419829606257972,0.18419326841831207,0.39729464054107666,0.8990163207054138,0.051012784242630005,-0.014375803992152214,-0.02324880100786686,-0.004963472485542297,0.012297123670578003,-0.0019060373306274414
318,2.938520804612786,-0.41047849573152756,0.14226475594221344,0.18492555618286133,0.3990481197834015,0.8980887532234192,0.03381549194455147,-0.010220559313893318,0.0024761203676462173,0.005198970437049866,0.006118565797805786,-0.006212353706359863
319,2.93314313735846,-0.413168279609364,0.14187759351761006,0.1895296424627304,0.401513010263443,0.8960278034210205,0.03371801972389221,-0.04913027957081795,0.010581915266811848,0.0019529014825820923,0.008902639150619507,0.004301786422729492
320,2.931577284917999,-0.4140633745198479,0.14025512231175882,0.19085747003555298,0.4023326337337494,0.8953781127929688,-0.0125966751947999,0.08874907344579697,0.06726428866386414,-0.006241366267204285,0.00968518853187561,0.01712799072265625
321,2.943837593152815,-0.4124384661545938,0.13604751818544178,0.17999394237995148,0.4008445143699646,0.8982902765274048,-0.005251992493867874,0.3174540400505066,0.09556570649147034,-0.010346755385398865,0.013217896223068237,0.027322888374328613
322,2.992457089775817,-0.4014843300109661,0.13386246505852997,0.13676826655864716,0.3907850682735443,0.9102643132209778,-0.15565072000026703,0.44557031989097595,-0.05652697756886482,0.01710134744644165,0.016975492238998413,-0.02043294906616211
323,3.021184471571329,-0.3956071509803771,0.13844304295943508,0.11083989590406418,0.3853685259819031,0.9160816073417664,0.07673937827348709,0.1527986228466034,-0.04496859014034271,0.016906671226024628,0.004600316286087036,-0.028462648391723633
324,3.0350491851002355,-0.3970854733728691,0.1359131233798819,0.09806773066520691,0.38673222064971924,0.9169626235961914,-0.09464786946773529,0.18027299642562866,0.005409104749560356,-0.002547726035118103,0.001115560531616211,0.028319120407104492
325,3.0685167882701943,-0.38710311847362633,0.12609285310879298,0.0676085352897644,0.3775074779987335,0.9235353469848633,-0.14820607006549835,0.4479444921016693,0.12011389434337616,0.0043671876192092896,0.008600980043411255,0.03239738941192627
326,3.1138546984029056,-0.37246076574959747,0.11554667525837473,0.025832785293459892,0.363908588886261,0.9310765266418457,-0.09384597092866898,0.47509992122650146,0.08814658969640732,-0.009276993572711945,0.01736283302307129,-0.0010226964950561523
327,-3.1243434174892335,-0.35340252966623636,0.11294052870690104,-0.016182437539100647,0.3460920453071594,0.9380607604980469,-0.2935066819190979,0.44423437118530273,-0.018132759258151054,0.003090398386120796,0.009330838918685913,0.016193151473999023
328,-3.074403496816078,-0.3140401767062445,0.10904940613082381,-0.06385508179664612,0.3089037239551544,0.9489472508430481,-0.45211276412010193,0.4724940061569214,0.01823168806731701,0.032071031630039215,0.012431055307388306,-0.005175948143005371
329,-3.0342368237709065,-0.2825076025537677,0.10040656079945061,-0.10290226340293884,0.2787647247314453,0.9548306465148926,-0.23570577800273895,0.3785840570926666,0.052553944289684296,0.009655788540840149,0.009809523820877075,-0.013439536094665527
330,-2.9967092042455445,-0.2616361452455723,0.09376826564964158,-0.13946369290351868,0.2586613595485687,0.9558475613594055,-0.2477331906557083,0.5307462811470032,0.012191488407552242,-0.004731893539428711,-0.0019322037696838379,0.05721414089202881
331,-2.947538032879891,-0.21419751244853658,0.09456817284650676,-0.18843205273151398,0.21256335079669952,0.9588063955307007,-0.3543979227542877,0.46561118960380554,-0.07112675905227661,0.03190743923187256,0.011511921882629395,-0.041753411293029785
332,-2.9149295795662686,-0.190619234573289,0.0852362555078294,-0.22065676748752594,0.1894669532775879,0.9567722082138062,-0.3164934813976288,0.2555011212825775,0.03289319574832916,-0.020767822861671448,0.0007643997669219971,0.0359036922454834
333,-2.8877176005906398,-0.15918111775889493,0.07813830994699851,-0.24798144400119781,0.1585097312927246,0.9557092785835266,-0.30809637904167175,0.2706383764743805,0.013679923489689827,0.01896226406097412,0.0060868412256240845,0.005533576011657715
334,-2.8701974552863736,-0.136081062665825,0.06808155440874093,-0.26559755206108093,0.13566145300865173,0.9544914364814758,-0.22070257365703583,0.041852161288261414,0.024994483217597008,0.00953984260559082,0.013828873634338379,-0.01792222261428833
335,-2.8732466631190747,-0.12825738305097004,0.06299509579480568,-0.26295924186706543,0.12790603935718536,0.9562910795211792,0.04804297164082527,-0.10121100395917892,-0.014322187751531601,-0.0034897327423095703,0.01587754487991333,-0.0463331937789917
336,-2.8701304867186557,-0.1273877988904663,0.06490529922922951,-0.26596760749816895,0.12704354524612427,0.955573558807373,-0.1729256510734558,0.10876080393791199,-0.09884878247976303,-0.000649183988571167,0.017914921045303345,0.05400878190994263
337,-2.853879684680931,-0.10445572495707184,0.06186123541028914,-0.2822133004665375,0.10426587611436844,0.9536688327789307,-0.27349793910980225,0.16416265070438385,-0.0021276045590639114,0.021791547536849976,-0.0020167306065559387,0.003057241439819336
338,-2.8383155082365303,-0.07840712129045903,0.05231567004736115,-0.29773184657096863,0.07832680642604828,0.9514307975769043,-0.2122778743505478,0.20438647270202637,0.013943085446953773,0.010134190320968628,0.016857504844665527,-0.015502512454986572
339,-2.822883101557246,-0.06089825448893378,0.04985835640516136,-0.31276050209999084,0.06086061894893646,0.947880208492279,-0.12173577398061752,0.15950702130794525,0.01923479698598385,0.017960727214813232,0.00046445056796073914,-0.013706624507904053
340,-2.8151543701665727,-0.05092519906715686,0.05168007505358144,-0.32025566697120667,0.050903189927339554,0.9459623694419861,-0.06873039156198502,0.08434651046991348,-0.035801611840724945,0.016865253448486328,-0.0005949735641479492,0.01587522029876709
341,-2.807964778790844,-0.04007643469394131,0.05128974229918815,-0.3272099792957306,0.0400657057762146,0.9441016316413879,-0.1994861215353012,0.10158151388168335,0.017747066915035248,0.010086685419082642,-0.013133954256772995,0.02921050786972046
342,-2.8030097289986236,-0.02124290546399972,0.04751007591534167,-0.332075834274292,0.021241307258605957,0.9430134296417236,-0.15842205286026,0.1385115683078766,-0.05502833425998688,-0.0009624361991882324,0.00031935982406139374,0.003199279308319092
343,-2.8004938255758858,0.0006091547549684608,0.052432433067147344,-0.3345227837562561,-0.0006091546965762973,0.942387580871582,-0.21917541325092316,-0.11311440169811249,-0.24343040585517883,-0.010142773389816284,-0.003541235812008381,0.0007888078689575195
344,-2.8596420927068666,0.04737501185407483,0.07847749163900139,-0.2779175639152527,-0.04735729098320007,0.9594368934631348,-0.6443466544151306,-1.159021258354187,-0.5796914100646973,-0.008489906787872314,0.012323111295700073,-0.033335208892822266
345,-2.9938381417048716,0.14636601728831766,0.12515164215647942,-0.14564335346221924,-0.1458439826965332,0.9785281419754028,-0.7807434797286987,-1.353836178779602,-0.7503752112388611,-0.011567935347557068,0.025467395782470703,-0.029782533645629883
346,-3.0788325983947677,0.19208560509967681,0.15941843765686237,-0.0615653432905674,-0.1909065544605255,0.9796755313873291,-0.2305116504430771,-0.29292425513267517,-0.208778977394104,-0.018940020352602005,-0.0240134596824646,0.05487018823623657
347,-3.0996847039219144,0.21028189956054855,0.16819812604305387,-0.04097280278801918,-0.2087356001138687,0.9771133065223694,-0.0008124057203531265,-0.0760718360543251,-0.020378828048706055,-0.006268400698900223,-0.0027359575033187866,-0.019410789012908936
348,-3.0951641596697015,0.20294463420891162,0.16340418450387068,-0.0454593189060688,-0.20155440270900726,0.9784218072891235,0.059687741100788116,-0.06007637083530426,-0.04173346236348152,-0.0091671422123909,0.005921468138694763,0.0015739202499389648
349,-3.0977746993713153,0.2006812338221464,0.16464171634002986,-0.04292483255267143,-0.1993369460105896,0.9789904356002808,0.1081022173166275,0.09777387976646423,0.0363306924700737,-0.010801363736391068,-0.008609846234321594,0.0030804872512817383
350,-3.0980189140172,0.1975100778730901,0.17009582226092837,-0.04271307960152626,-0.19622842967510223,0.9796276688575745,0.0890781432390213,0.05061253532767296,0.0556165874004364,0.015796564519405365,-0.012618660926818848,-0.026182055473327637
351,-3.0685377231555324,0.15967810004099237,0.15286591539148336,-0.07206141948699951,-0.15900041162967682,0.9846450090408325,0.531772792339325,0.3331955373287201,0.11577179282903671,-0.00043307989835739136,-0.004360169172286987,0.01457667350769043
352,-3.039910226822691,0.12290716194975641,0.14227181787035,-0.10074158012866974,-0.12259795516729355,0.9873303174972534,0.29705047607421875,0.27594342827796936,0.10414157807826996,-0.029156506061553955,0.019814729690551758,-0.008723020553588867
353,-2.979962534399583,0.07535497232221162,0.12441076252733724,-0.1604706346988678,-0.07528367638587952,0.984165608882904,0.590052604675293,0.6922419667243958,0.24338282644748688,0.009729012846946716,-0.0027650445699691772,0.0071370601654052734
354,-2.9587135180867494,0.0477425966960353,0.12676255477700824,-0.18165422976016998,-0.047724463045597076,0.9822037220001221,-0.030361220240592957,0.03306908160448074,0.07069608569145203,0.021528512239456177,-0.026402726769447327,0.02792811393737793
355,-2.957615458708852,0.04291294923211664,0.12314424720802969,-0.1827726662158966,-0.042899779975414276,0.9822188019752502,0.07754112780094147,-0.0329224094748497,-0.01483895443379879,0.012164175510406494,-0.007759395986795425,-0.008067190647125244
356,-2.953507348059636,0.03409079048552266,0.11632628051518004,-0.18686965107917786,-0.03408418595790863,0.9817931652069092,0.0991610661149025,-0.05409209802746773,-0.060263052582740784,-0.01971907913684845,-0.0006448142230510712,-0.0066498517990112305
357,-2.929743022883243,0.016448893138912606,0.09846282566290743,-0.21024009585380554,-0.01644815132021904,0.9775114059448242,0.5129302740097046,0.7090895175933838,0.5077321529388428,0.005451872944831848,-0.00294576957821846,0.007794380187988281
358,-2.873228671976405,-0.030806497078789043,0.07605843519315984,-0.26502856612205505,0.030801624059677124,0.9637486338615417,0.11870730668306351,0.5921483635902405,0.35888803005218506,-0.013062894344329834,-0.014123763889074326,0.027172565460205078
359,-2.8344082884235986,-0.03595879350706883,0.06109877018753879,-0.30218061804771423,0.03595104441046715,0.9525728225708008,-0.050307709723711014,0.2549237012863159,0.09966360777616501,0.028300553560256958,0.006819348782300949,0.00773930549621582
360,-2.8212153608544788,-0.0409835247129433,0.048726177588668845,-0.31466028094291687,0.04097205400466919,0.9483198523521423,0.052155978977680206,-0.05624427646398544,0.10347860306501389,0.010003238916397095,-0.005342770367860794,-0.018998384475708008
361,-2.840064753854097,-0.05594991709918066,0.0399385702865162,-0.2965148687362671,0.05592073127627373,0.9533898234367371,0.2191767543554306,-0.2143765389919281,0.15330944955348969,-0.004846245050430298,-0.0061465539038181305,-0.017125606536865234
362,-2.873128027512483,-0.07329361419899978,0.03819749702350098,-0.26453930139541626,0.07322800904512405,0.9615909457206726,0.2457495778799057,-0.2533356249332428,0.10076693445444107,-0.005465030670166016,0.000624537467956543,-0.00048530101776123047
363,-2.904824570967498,-0.09386615079554941,0.03739785442193422,-0.2335294783115387,0.09372837096452713,0.9678215980529785,0.1291482150554657,-0.40576064586639404,-0.013680966570973396,-0.009848162531852722,0.012716926634311676,-0.019152343273162842
364,-2.9474153930089733,-0.12116957540837063,0.04821184529836656,-0.1915445774793625,0.12087328732013702,0.9740126729011536,0.29419785737991333,-0.2889087200164795,0.016611838713288307,-0.0127401202917099,-0.02533799409866333,0.03996455669403076
365,-2.973791921545337,-0.14138427130006176,0.05136588886907273,-0.16534791886806488,0.1409137099981308,0.9761166572570801,0.15487773716449738,-0.15313602983951569,0.11092755943536758,0.020450443029403687,-0.010863035917282104,0.012652993202209473
366,-3.00662985737498,-0.1633292237089602,0.05171583327603842,-0.13276274502277374,0.16260401904582977,0.9777188897132874,0.29006311297416687,-0.4543227255344391,-0.024955470114946365,-0.02986544370651245,0.008797973394393921,-0.030148029327392578
367,-3.0400472377483236,-0.18832090935740403,0.06258082630220811,-0.09957876056432724,0.18720975518226624,0.9772598147392273,0.16240538656711578,-0.3112810254096985,-0.18330180644989014,-0.027908436954021454,0.013229712843894958,0.04120337963104248
368,-3.0641126849118097,-0.19985884086397473,0.07708417391286708,-0.07586173713207245,0.19853098690509796,0.9771541357040405,0.02692849189043045,-0.2819771468639374,-0.08875709772109985,0.010142140090465546,-0.003813609480857849,0.03784513473510742
369,-3.1048343321538803,-0.19930060029647337,0.09599068706029626,-0.03602258116006851,0.19798383116722107,0.9795429110527039,-0.12407898902893066,-0.8840939402580261,-0.44126972556114197,-0.03796727582812309,0.024184077978134155,-0.03268951177597046
370,3.047141340431738,-0.15790438472212331,0.16143991086934048,0.09313761442899704,0.15724900364875793,0.983157217502594,-0.5859930515289307,-1.7776618003845215,-0.5971806049346924,-0.10592448711395264,0.015663594007492065,-0.01047050952911377
371,2.874440280630723,-0.09237336627348232,0.24328100115790663,0.26286041736602783,0.0922420546412468,0.9604144096374512,-1.0413929224014282,-1.9296196699142456,-0.8027663230895996,-0.29581940174102783,-0.052233509719371796,-0.05726194381713867
372,2.776088025038726,-0.04819513126453467,0.3853742037535015,0.3570055365562439,0.04817647486925125,0.9328588843345642,-0.6216229200363159,0.5287073850631714,-1.591444730758667,-0.14852479100227356,0.17191629111766815,-0.016919732093811035
373,2.8830032308185203,0.008807861871219028,0.544438723528923,0.2557072341442108,-0.00880774762481451,0.9667142629623413,-1.9367012977600098,0.24679839611053467,-1.3100982904434204,0.019179880619049072,0.2543064057826996,-0.22182583808898926
374,2.9281311749725156,0.1115191853978074,0.715957780042919,0.21052812039852142,-0.1112881749868393,0.971232533454895,-1.7852495908737183,1.0379074811935425,-1.0697489976882935,0.2705814838409424,-0.09018886089324951,0.31280970573425293
375,2.824304704759519,0.3332534536868657,0.8749609227206366,0.2948262095451355,-0.32711920142173767,0.8978142142295837,-0.24939695000648499,1.9565521478652954,-0.30906128883361816,0.14473369717597961,-0.16816580295562744,0.07450628280639648
376,2.8809816531109713,0.33083531804361893,0.9235448516177964,0.24369783699512482,-0.3248331546783447,0.9138352870941162,0.7232738733291626,1.4988669157028198,0.2662773132324219,0.07319669425487518,-0.11005759239196777,-0.03337264060974121
377,3.0643100864229034,0.24880332576161554,0.8485539408983419,0.07482831925153732,-0.24624431133270264,0.9663147330284119,0.26796087622642517,0.4248199760913849,0.20014145970344543,-0.10810773819684982,-0.015626996755599976,0.03107583522796631
378,3.1073997253646573,0.211353794386095,0.8565489180014315,0.03342554345726967,-0.20978376269340515,0.9771762490272522,-0.6750667095184326,-0.21180510520935059,0.3134476840496063,0.12354160845279694,-0.09763503074645996,0.12623250484466553
379,3.0589303418473714,0.28162667167909433,0.7290466226251555,0.07931540906429291,-0.27791860699653625,0.9573246836662292,-0.7299483418464661,-0.20769158005714417,1.878014087677002,-0.03727743774652481,0.13527941703796387,-0.00018656253814697266
380,3.1049078030906405,0.25689744388130237,0.5504972677151179,0.03547300770878792,-0.25408104062080383,0.9665323495864868,0.7200772762298584,0.5577709674835205,1.0968880653381348,0.11235414445400238,0.020652025938034058,-0.15049219131469727
381,-3.13393973355292,0.19193651240848394,0.42731428437082575,-0.007512312848120928,-0.19076021015644073,0.9816078543663025,0.18816666305065155,-0.1626843810081482,0.904446542263031,0.08273814618587494,0.12291963398456573,-0.061655521392822266
382,3.1138320722631527,0.16275093868508367,0.35522964163535636,0.027390219271183014,-0.16203340888023376,0.9864052534103394,0.2756151556968689,-0.9702262282371521,0.6598594188690186,0.049514081329107285,0.03341704607009888,-0.1231849193572998
383,3.0143283055666528,0.1459524714777765,0.29734603491953016,0.12557163834571838,-0.14543484151363373,0.9813665151596069,0.42070871591567993,-0.2157742828130722,0.28827083110809326,0.002541154623031616,-0.022945880889892578,0.07144403457641602
384,3.0011672493766937,0.12280092844028642,0.2819120724511331,0.13891032338142395,-0.12249252200126648,0.982699990272522,0.31337860226631165,-0.1334744244813919,0.1883629858493805,-0.02210429310798645,-0.09489943087100983,0.019787073135375977
385,2.9976900150428243,0.12141647029288612,0.26938713135690534,0.1423507183790207,-0.12111837416887283,0.982377827167511,0.033751651644706726,0.0450291708111763,0.17561079561710358,-0.0068069398403167725,0.021188601851463318,-0.0013294816017150879
386,3.135097184824713,0.10587729728580024,0.2586719205121592,0.006459049414843321,-0.10567959398031235,0.9943791031837463,1.946010947227478,3.1620118618011475,0.13857468962669373,0.11240691691637039,-0.01736726611852646,-0.19616150856018066
387,-3.1075680385850926,0.08481073738690768,0.25802638627956653,-0.033895786851644516,-0.08470910042524338,0.9958292245864868,0.03522788733243942,0.07165157794952393,0.00835721381008625,-0.01842660829424858,0.01303856074810028,0.031865596771240234
388,-3.1025613394015963,0.08253073521965897,0.25801867896861336,-0.0388885997235775,-0.08243707567453384,0.9958375692367554,-0.01769072189927101,-0.031925417482852936,4.042871296405792e-05,-0.0003570243716239929,0.005059726536273956,0.006909370422363281
389,-3.086430983576749,0.07510701529280611,0.258538643896107,-0.05497826263308525,-0.07503642141819,0.9956640005111694,0.06072422116994858,0.15022462606430054,-0.004834957420825958,0.01272667944431305,-0.004675485193729401,0.015566408634185791
390,-3.088027158144043,0.07576662626294205,0.2584828254654396,-0.053386274725198746,-0.07569415867328644,0.9957007765769958,-0.04420466348528862,-0.10853534936904907,0.002909332513809204,-0.004002019762992859,0.005091756582260132,0.006236910820007324
391,-3.0876389623199483,0.07540398342362739,0.2583475293300073,-0.053774286061525345,-0.07533255219459534,0.9957075119018555,-0.0033674193546175957,-0.006772342137992382,2.7237460017204285e-05,0.0015739686787128448,0.002303987741470337,0.007802009582519531
392,-3.087557353504624,0.07535611994694276,0.25825484355688416,-0.05385574325919151,-0.07528482377529144,0.9957068562507629,-0.0011508679017424583,-0.0012552086263895035,3.888644278049469e-05,-0.0013810805976390839,0.000547267496585846,0.005010485649108887
393,-3.0874313534376454,0.07528370379440498,0.25821705364178493,-0.05398149415850639,-0.07521261274814606,0.9957053661346436,0.00047712307423353195,0.0006424447055906057,0.002340862527489662,-0.003132164478302002,0.0022450685501098633,0.004431962966918945
394,-3.0872907611521163,0.07515712744019432,0.25813521970143233,-0.05412199720740318,-0.07508639246225357,0.9957073330879211,0.0004965616390109062,-0.00022948812693357468,-0.0014502312988042831,-0.0003518834710121155,-0.0007803142070770264,0.005559206008911133
395,-3.087259518967343,0.07511649477774623,0.25807676267531093,-0.054153282195329666,-0.0750458762049675,0.9957088828086853,0.0014317184686660767,-0.000794706866145134,-0.0010043904185295105,-0.004944015294313431,-2.738088369369507e-05,0.005313754081726074
396,-3.0869950674424653,0.07498338596470959,0.25804478594408253,-0.05441712215542793,-0.0749131366610527,0.9957041144371033,0.0008403267711400986,0.0012800018303096294,0.003277597948908806,-0.0010180473327636719,-0.0024336576461791992,0.004677295684814453
397,-3.087026035548377,0.07501818571185442,0.25796856982901384,-0.05438614264130592,-0.07494784146547318,0.9957031607627869,0.0008337013423442841,-0.0015928982757031918,0.000752677209675312,-0.0017967112362384796,-0.000827297568321228,0.005090177059173584
398,-3.086874885380212,0.07489725673473192,0.25790325789634744,-0.054537154734134674,-0.07482725381851196,0.9957042336463928,-0.001650412566959858,0.00429249182343483,0.0009876592084765434,-0.0035378076136112213,-0.001024194061756134,0.004555344581604004
399,-3.0868299500213516,0.07494978199016751,0.25780678373230204,-0.054581671953201294,-0.07487963140010834,0.9956976771354675,0.003604881465435028,0.002807383891195059,0.0016288449987769127,-0.0021657682955265045,-0.0036726146936416626,0.0009911060333251953
400,-3.0866909034949117,0.07488686342222109,0.2577355710296606,-0.05472037196159363,-0.07481689006090164,0.9956946969032288,-0.002122342586517334,-0.0014690090902149677,-0.0009178705513477325,-0.005246665328741074,0.0014831572771072388,0.0047629475593566895
401,-3.0866944297328107,0.0748575641401713,0.25771579609436923,-0.05471700057387352,-0.0747876688838005,0.9956974387168884,0.0029555773362517357,-0.00011638924479484558,-0.0012666266411542892,0.0018758028745651245,-0.00573296844959259,0.003997683525085449
402,-3.086731388437864,0.07488436561682206,0.2576943898007269,-0.05468006432056427,-0.07481439411640167,0.9956969618797302,0.0027743098326027393,0.0014742363709956408,0.00013635866343975067,-0.0033490993082523346,0.003494836390018463,0.004485905170440674
403,-3.0865922455138226,0.07472483809459331,0.25765731422901594,-0.05481927469372749,-0.07465531677007675,0.9957014322280884,-0.004085651598870754,0.001991355326026678,0.0011122189462184906,0.0005437657237052917,0.0005891546607017517,0.00603795051574707
404,-3.0867419375356735,0.07479938312661068,0.2576420481487614,-0.054669927805662155,-0.07472965121269226,0.9957042336463928,0.0020306194201111794,-0.0010125800035893917,0.0023133670911192894,-0.0022301077842712402,-0.0024035274982452393,0.003822803497314453
405,-3.0864538015428504,0.07477989728420911,0.2575863614166674,-0.05495689809322357,-0.07471022009849548,0.9956897497177124,0.00407501682639122,0.00048655224964022636,0.0010431315749883652,-0.004537120461463928,4.89652156829834e-05,0.0017467737197875977
406,-3.086396699684275,0.0746927209203749,0.2575438791701032,-0.05501411855220795,-0.07462328672409058,0.9956932663917542,0.0016915379092097282,0.002029044320806861,-0.00042093172669410706,0.0009674876928329468,-0.003501705825328827,0.005481719970703125
407,-3.086393463360376,0.0746183865665893,0.2574849828037708,-0.05501764267683029,-0.07454916089773178,0.9956985712051392,0.00035526324063539505,-0.0024927472695708275,0.0019286107271909714,-0.0033624842762947083,0.001352757215499878,0.00527799129486084
408,-3.086276614361792,0.07454490162489183,0.25743589131557437,-0.05513428524136543,-0.07447587698698044,0.9956974387168884,0.0010810606181621552,0.0006090777460485697,-0.0005420288071036339,1.9535422325134277e-05,-0.003191351890563965,0.004592418670654297
409,-3.086317788740649,0.07462487669188052,0.25741211086739574,-0.055092960596084595,-0.07455563545227051,0.9956938028335571,-0.0003677988424897194,-0.0026986668817698956,0.00046978238970041275,-0.0016697272658348083,0.0005199983716011047,0.005618393421173096
410,-3.0861948134821957,0.07446571044015088,0.25735920199881407,-0.055216073989868164,-0.07439690828323364,0.9956990480422974,0.002373747993260622,-0.001450967974960804,0.0004040636122226715,-0.0013177506625652313,0.00020867586135864258,0.0052928924560546875
411,-3.086219585714399,0.07451997234296591,0.2572739235616973,-0.05519118905067444,-0.0744510218501091,0.995696485042572,-0.00021617580205202103,-0.0018859757110476494,0.001652332954108715,0.0025331005454063416,-0.0010799914598464966,0.005615949630737305
412,-3.086205511120076,0.07450512793836496,0.2572261773257014,-0.05520525202155113,-0.07443621754646301,0.9956965446472168,0.0013060197234153748,0.0010652672499418259,0.0004408452659845352,-0.0012522675096988678,0.0035133659839630127,0.005005359649658203
413,-3.0861219439413197,0.07445778421955346,0.2572002800619036,-0.0552886463701725,-0.0743890032172203,0.9956953525543213,0.000786895863711834,-0.0007665711455047131,0.004078310914337635,0.0020812563598155975,-0.0009741485118865967,0.00599825382232666
414,-3.086181649704787,0.0745065100634665,0.2572080616440137,-0.05522899329662323,-0.07443759590387344,0.9956949949264526,-0.00097612664103508,0.00253119389526546,-0.0003825472667813301,0.00019055232405662537,0.0011649057269096375,0.004487931728363037
415,-3.0861137351324768,0.07440775272833175,0.25710985688654514,-0.055297043174505234,-0.0743391141295433,0.9956989288330078,-0.0006143804639577866,-0.0005337540060281754,-0.00040110014379024506,-0.0001076236367225647,-0.0004289671778678894,0.005354046821594238
416,-3.086161109249926,0.07446057674813691,0.2571243479598434,-0.0552496537566185,-0.07439178973436356,0.995697557926178,0.0003129066899418831,-0.0032227574847638607,0.00147236417979002,0.0005468875169754028,-0.001993715763092041,0.004882454872131348
417,-3.0860625393546193,0.07438588581350714,0.2571012224978482,-0.055348098278045654,-0.07431730628013611,0.9956974983215332,0.0018935510888695717,0.0009573420975357294,0.0008100681006908417,-0.0015977025032043457,0.0009225308895111084,0.006087779998779297
418,-3.086001186333488,0.0743590999417984,0.25700867842147296,-0.055409301072359085,-0.07429059594869614,0.9956961870193481,-0.000445803627371788,0.00032108393497765064,0.0006143422797322273,0.0016067996621131897,-0.0023390576243400574,0.005463600158691406
419,-3.0860314284946173,0.07445357530955525,0.2569380758769005,-0.05537879094481468,-0.07438480854034424,0.9956907033920288,-0.001180499792098999,-0.0013389745727181435,-0.00015733204782009125,-0.0011702775955200195,0.0009900406002998352,0.005468904972076416
420,-3.085942234236196,0.07431946183631911,0.25692384565774884,-0.05546816065907478,-0.07425106316804886,0.9956957697868347,0.0005702497437596321,-0.0010375645942986012,0.0008431496098637581,-0.0005621127784252167,-0.00018130242824554443,0.004685699939727783
421,-3.0860110063235235,0.07442986526146753,0.25691131483280744,-0.05539923161268234,-0.0743611603975296,0.9956914782524109,0.00018595345318317413,-0.0026702331379055977,-0.0005736658349633217,0.0006354376673698425,-0.001352943480014801,0.004293322563171387
422,-3.086008573044458,0.07436069311704721,0.25686388605943555,-0.05540195107460022,-0.07429218292236328,0.9956966638565063,0.0005506835877895355,-0.0003068717196583748,0.001288013532757759,-0.0013149790465831757,0.0003480762243270874,0.005280137062072754
423,-3.085967609664587,0.07438081282712748,0.25686177006650973,-0.055442649871110916,-0.0743122473359108,0.995692789554596,0.0013375338166952133,0.0017579288687556982,0.0008086534217000008,0.0010908395051956177,-0.0023326575756073,0.004887223243713379
424,-3.086032407190591,0.07439223018948538,0.25684595388478676,-0.05537807568907738,-0.0743236318230629,0.9956953525543213,0.001964811235666275,-0.0017253854312002659,0.000796598382294178,-0.0015219449996948242,-0.0007648691534996033,0.005326986312866211
425,-3.0859672706224006,0.07435009254491869,0.25680080079595735,-0.05544309690594673,-0.07428161054849625,0.9956947565078735,0.0014889296144247055,-7.213512435555458e-05,-0.00018897280097007751,5.370378494262695e-05,-0.0008984357118606567,0.005556344985961914
426,-3.0861045961893905,0.07435358868354827,0.25679308587104077,-0.05530634522438049,-0.0742850974202156,0.9957020282745361,-0.0013973256573081017,0.0005481918342411518,-2.464093267917633e-05,-0.0010443516075611115,-0.0023292675614356995,0.005121707916259766
427,-3.0859935633415687,0.07439769634581417,0.25677899353514017,-0.05541672930121422,-0.07432908564805984,0.995692789554596,0.0030881850980222225,0.0018713332246989012,0.0017931656911969185,-0.002597186714410782,-0.001629166305065155,0.003971457481384277
428,-3.0860762781977287,0.07435249820385982,0.2567298948755261,-0.055334556847810745,-0.07428400963544846,0.9957007765769958,0.0010262653231620789,-0.0010942304506897926,0.0008366452530026436,-0.0004363134503364563,3.474205732345581e-05,0.005428314208984375
429,-3.0862065980236775,0.07435998253595029,0.2566819118052693,-0.05520477145910263,-0.07429147511720657,0.9957075119018555,0.0007341550663113594,-0.00010367203503847122,-0.00187685526907444,-0.0018783621490001678,-0.0009038522839546204,0.005025029182434082
430,-3.086029119801405,0.07428461307930216,0.25669243324443136,-0.05538178235292435,-0.0742163136601448,0.9957030415534973,0.00261855311691761,-0.0006587724201381207,-0.000619158148765564,-0.0006027035415172577,8.913129568099976e-05,0.004998743534088135
431,-3.0861193360671555,0.0742950315682882,0.25666522376508993,-0.05529190972447395,-0.07422669976949692,0.9957071542739868,-0.0010780086740851402,-0.001045986544340849,0.00162406824529171,-6.696581840515137e-05,-0.0024487003684043884,0.004262089729309082
432,-3.086072172949133,0.07429525375234322,0.25669854651403734,-0.05533887818455696,-0.07422692328691483,0.9957047700881958,-0.0003400379791855812,-0.000578009057790041,0.0036620749160647392,-0.0007676891982555389,0.0013662129640579224,0.005699038505554199
433,-3.0861093654030816,0.07423471968440058,0.25663430485752986,-0.05530209466814995,-0.07416655868291855,0.9957112669944763,-2.655014395713806e-05,0.000571143114939332,0.0012353714555501938,0.0021709948778152466,-0.0010287538170814514,0.004532814025878906
434,-3.086115535701827,0.07420951689214925,0.2566252075888581,-0.05529604107141495,-0.07414142042398453,0.9957132339477539,4.850607365369797e-05,-0.002292097080498934,-0.0005280906334519386,-0.0013445690274238586,0.0018452927470207214,0.005507171154022217
435,-3.086026222767062,0.07417868883586574,0.25660361169821994,-0.055385105311870575,-0.07411067932844162,0.9957106709480286,-0.0007406910881400108,0.001117020146921277,6.319768726825714e-05,0.0004534795880317688,-0.0007641837000846863,0.005418300628662109
436,-3.0860931610336424,0.07427332815508221,0.25662908069684626,-0.05531806871294975,-0.07420505583286285,0.9957075119018555,-0.00020196661353111267,0.0008794115856289864,-0.002237464301288128,0.0004932433366775513,-0.0007461011409759521,0.004658639430999756
437,-3.0860025100090587,0.0741938825053846,0.2566245673480575,-0.05540866777300835,-0.07412583380937576,0.9957085251808167,0.0003772033378481865,-0.000676080584526062,-0.0009150132536888123,-0.000301167368888855,-0.00045912712812423706,0.004764556884765625
438,-3.085986841811788,0.07426187431142893,0.2566363764909098,-0.05542398989200592,-0.07419363409280777,0.9957026243209839,-0.0012529464438557625,0.00029234355315566063,-3.308244049549103e-05,-1.1198222637176514e-05,-0.0027106627821922302,0.005090951919555664
439,-3.0859960905402373,0.07427934165359783,0.2566105849385865,-0.055414702743291855,-0.07421105355024338,0.9957017302513123,2.3475848138332367e-05,0.0008597979322075844,0.0013014189898967743,-0.002217743545770645,0.0012282729148864746,0.004878103733062744
440,-3.0859052643369536,0.07418750382647599,0.2566090651452358,-0.055505529046058655,-0.07411947101354599,0.9957036972045898,-0.0008490867912769318,0.00015183165669441223,0.0005285302177071571,0.001016378402709961,-0.0018998384475708008,0.005196809768676758
441,-3.0859632197249702,0.07430716685748193,0.2565934178322783,-0.055447325110435486,-0.07423880696296692,0.9956980347633362,-0.0009521301835775375,-0.0010767611674964428,-0.0006413087248802185,-0.0004608817398548126,-0.0003614276647567749,0.0051261186599731445
442,-3.0858711405272463,0.07424798276953959,0.2565529903115831,-0.055539242923259735,-0.07417978346347809,0.9956971406936646,0.00023366417735815048,0.002121091354638338,-0.0004261098802089691,0.001385800540447235,0.0004950910806655884,0.004272341728210449
443,-3.0859883983618825,0.07431273987635684,0.256571363717123,-0.055422235280275345,-0.07424436509609222,0.9956990480422974,0.0005296496674418449,0.0005502591375261545,-0.00040919799357652664,0.00010910630226135254,-0.0014239847660064697,0.005048871040344238
444,-3.0858574998169646,0.07428435923514333,0.25659566568269926,-0.05555266514420509,-0.07421606034040451,0.9956935048103333,0.0008826358243823051,0.001956627005711198,-0.0017337268218398094,-0.0007827766239643097,0.0021182894706726074,0.004901409149169922
445,-3.0859459970601106,0.07430538088247757,0.25658793402678026,-0.055464472621679306,-0.07423702627420425,0.995697021484375,-0.0007934039458632469,9.270990267395973e-05,-0.001127457246184349,0.0011736974120140076,-0.0009277686476707458,0.00469970703125
446,-3.0860196160677216,0.07425070092826634,0.25659837087592235,-0.05539139360189438,-0.07418249547481537,0.9957051277160645,0.0007799742743372917,-0.0015579527243971825,0.0002183821052312851,-0.0016917325556278229,0.0014438554644584656,0.0055307745933532715
447,-3.085970010645945,0.07419398287789257,0.2565591238366741,-0.055441029369831085,-0.07412593066692352,0.9957067370414734,-0.0012289024889469147,-1.3735145330429077e-05,0.0014914823696017265,0.0005246400833129883,-0.000459037721157074,0.004690051078796387
448,-3.0861031141999984,0.07432021195909061,0.2565660317635764,-0.055307965725660324,-0.07425181567668915,0.9957045912742615,-0.0015987008810043335,0.0020866780541837215,0.0006973445415496826,-0.000951182097196579,-0.002255745232105255,0.00421905517578125
449,-3.0860717128177946,0.07429349696558805,0.25656623185222,-0.055339351296424866,-0.07422517240047455,0.9957049489021301,-0.00026765186339616776,-0.001197050791233778,-0.0005554240196943283,-0.00040100887417793274,0.0005709901452064514,0.0047528743743896484
450,-3.086108983027209,0.07423803609130589,0.2565575473121662,-0.0553024522960186,-0.07416986674070358,0.9957108497619629,0.0009121140465140343,0.0012297576759010553,5.8134086430072784e-05,0.0004623793065547943,-0.0013611242175102234,0.006043732166290283
451,-3.086075137789623,0.07425417435639521,0.2565793437579572,-0.05533610284328461,-0.07418595999479294,0.9957080483436584,0.0014581792056560516,-1.735752448439598e-05,0.0002855472266674042,-0.001335039734840393,-7.857382297515869e-05,0.004169940948486328
452,-3.0860219779220404,0.07421534334129476,0.25655022945274175,-0.05538919195532799,-0.07414723187685013,0.9957079291343689,0.000143442302942276,-0.0017376216128468513,0.0033318614587187767,0.00035073980689048767,-0.0006666108965873718,0.005344867706298828
453,-3.0860629073683574,0.07421731978649224,0.25654330063409825,-0.05534841865301132,-0.07414920628070831,0.9957098364830017,-0.0006158389151096344,-0.0008755638264119625,-0.00014470797032117844,9.635835886001587e-05,-0.0006798803806304932,0.005785346031188965
454,-3.0860345069638755,0.07417810727052242,0.2565197834032946,-0.05537685751914978,-0.07411009818315506,0.9957112073898315,5.698762834072113e-06,-0.002323498949408531,-0.0027346620336174965,-0.0007907375693321228,-0.0005206316709518433,0.005845069885253906
455,-3.0860116305693,0.0741405438525685,0.25654288734761355,-0.055399809032678604,-0.07407263666391373,0.9957130551338196,0.0005413917824625969,0.0002248799428343773,-0.0016602156683802605,0.00048341602087020874,-0.0002529248595237732,0.005370497703552246
456,-3.086054959499179,0.07419009990709999,0.2565998751867761,-0.0553564578294754,-0.07412205636501312,0.9957116842269897,0.0031682271510362625,6.421143189072609e-05,-0.0015198299661278725,0.0006994679570198059,-0.0010732635855674744,0.004502058029174805
457,-3.0860866462162795,0.07416018867412942,0.2565830032302744,-0.05532503128051758,-0.07409223169088364,0.9957156777381897,-0.0008133165538311005,-0.00177081860601902,-0.0010532764717936516,-0.0008730962872505188,-5.023181438446045e-05,0.005444049835205078
458,-3.0861350389399,0.07419956182593827,0.2565688892648562,-0.05527668073773384,-0.07413149625062943,0.9957154393196106,-0.0028382176533341408,-0.0004486707039177418,-0.00196796003729105,-0.0002958327531814575,-0.001796238124370575,0.00486445426940918
459,-3.0860631214510374,0.07423628518049434,0.25657115894414884,-0.05534813180565834,-0.0741681158542633,0.9957085847854614,-0.0034639714285731316,0.0021701715886592865,0.0005735000595450401,-0.0005600713193416595,-0.0004473552107810974,0.005206882953643799
460,-3.086070420850216,0.07421710127019596,0.2565609624369589,-0.05534092336893082,-0.074148990213871,0.9957100749015808,0.0021165721118450165,0.0018382817506790161,0.0020043617114424706,0.001477409154176712,-0.001046307384967804,0.005495011806488037
461,-3.08608861530305,0.07425825953378042,0.25656774685477995,-0.05532265454530716,-0.07419002801179886,0.9957082867622375,0.0010168300941586494,-0.0006293398328125477,0.0008834395557641983,-0.0010280460119247437,0.0009478554129600525,0.0046883225440979
462,-3.0860419895727453,0.07422518328865235,0.25649524996682826,-0.055369216948747635,-0.07415704429149628,0.9957082271575928,0.00014003273099660873,-0.00015501352027058601,-0.0010810457170009613,0.0010021626949310303,-0.0030218958854675293,0.005069911479949951
463,-3.0860530346354373,0.07432338860422905,0.2565235054653474,-0.05535781383514404,-0.07425498217344284,0.9957014918327332,0.0019688680768013,0.0010206261649727821,-0.0017547430470585823,-0.0022898875176906586,0.0012722015380859375,0.004283130168914795
464,-3.0860147434643452,0.07424951124696279,0.25649960268079575,-0.05539623647928238,-0.07418131083250046,0.995704710483551,-0.001084798015654087,0.00224871002137661,-0.0004066871479153633,0.0011817701160907745,-0.0007088109850883484,0.004996955394744873
465,-3.0860545916319113,0.07432292311837008,0.2564832065530588,-0.05535627529025078,-0.07425452023744583,0.995701789855957,0.0008837776258587837,-0.0015649073757231236,-0.002254774793982506,-0.0005061477422714233,-0.0019478723406791687,0.005381584167480469
466,-3.0859655591776693,0.07431435158992312,0.25652382740027463,-0.05544496327638626,-0.07424596697092056,0.995697557926178,0.000977763906121254,-0.0002645566128194332,-0.00020902138203382492,-0.0007684193551540375,-0.00033899396657943726,0.005477428436279297
467,-3.0861054474012355,0.07434983971568981,0.2565167686075502,-0.05530553683638573,-0.07428135722875595,0.9957028031349182,0.0004554819315671921,0.0002614944241940975,0.0010228808969259262,-0.0005874112248420715,-0.001615867018699646,0.006662487983703613
468,-3.0860685536018475,0.07435570045010821,0.2564769742412916,-0.05534224584698677,-0.07428720593452454,0.9957002997398376,-0.0014191670343279839,-0.0007933033630251884,0.0004456285387277603,-0.0016798637807369232,0.0007550865411758423,0.00503230094909668
469,-3.0860659551219274,0.07431994142270858,0.25645916660494084,-0.055344972759485245,-0.07425154000520706,0.9957026839256287,-0.0010561831295490265,0.0014463141560554504,-0.0014574695378541946,0.0004896298050880432,-0.0028053447604179382,0.004968762397766113
470,-3.086076972086489,0.0743921456578587,0.25647109091109127,-0.055333711206912994,-0.07432354986667633,0.9956979751586914,-0.0011404650285840034,0.0008446427527815104,0.00022851116955280304,-0.0011848509311676025,0.00040996819734573364,0.0056449174880981445
471,-3.0860354295706087,0.07432504271820196,0.2564470568241894,-0.05537533387541771,-0.07425662875175476,0.9957003593444824,0.0004477398470044136,-0.00027923937886953354,0.002648984082043171,-4.4580549001693726e-05,-8.416920900344849e-05,0.005260765552520752
472,-3.0861007668264993,0.07439469106580734,0.25644893048755457,-0.055309999734163284,-0.07432608306407928,0.9956989884376526,0.0015269871801137924,-0.0023498982191085815,0.0006003798916935921,0.0006835386157035828,-0.0014185383915901184,0.004560410976409912
473,-3.0861291274552674,0.07434924356738261,0.25644617316018536,-0.055281948298215866,-0.0742807611823082,0.995703935623169,-0.0008085090667009354,-0.001033884473145008,0.0003157220780849457,-0.0013128966093063354,-0.00016687065362930298,0.0037162303924560547
474,-3.0861295998758522,0.07437596064340789,0.25646175846583635,-0.055281367152929306,-0.0743074044585228,0.9957019090652466,0.0009185941889882088,0.0013002424966543913,-0.0019131163135170937,0.0004107654094696045,0.00018021464347839355,0.004877865314483643
475,-3.086192260501017,0.07433358524055791,0.2565156343294751,-0.05521915853023529,-0.07426515221595764,0.9957087635993958,0.0006998311728239059,-0.0019626677967607975,0.0016278605908155441,-0.0013604462146759033,0.00022949278354644775,0.004886507987976074
476,-3.086097547064924,0.07432970639469842,0.2565087921622987,-0.05531349405646324,-0.07426127791404724,0.9957039952278137,0.002474979031831026,0.0013040141202509403,0.002541721798479557,0.0002902783453464508,-0.0016207098960876465,0.004647374153137207
477,-3.0861189234841517,0.07443859239977228,0.25653270552509433,-0.055291734635829926,-0.07436986267566681,0.9956966042518616,-0.000948883593082428,0.00022103521041572094,0.00019172485917806625,-0.0007385388016700745,-0.001496821641921997,0.004822075366973877
478,-3.0860776180069243,0.07442176732418829,0.25650118513660425,-0.05533295124769211,-0.07435308396816254,0.995695948600769,0.0008150143548846245,-0.0001019863411784172,-5.455687642097473e-06,-0.0005447492003440857,-0.0009490549564361572,0.004563689231872559
479,-3.0860363727160185,0.07445685435436995,0.2564969373487359,-0.055373866111040115,-0.07438807934522629,0.9956908822059631,-0.001250123605132103,0.0003274239134043455,-0.000674455426633358,-0.00085478276014328,4.725158214569092e-05,0.005224704742431641
480,-3.0860262818905846,0.07447152988032213,0.25646997512942676,-0.0553838349878788,-0.07440271228551865,0.9956889152526855,-0.0022133681923151016,-0.0018665208481252193,-0.0008936002850532532,-0.0009363442659378052,-0.0010367333889007568,0.0055773258209228516
481,-3.086044026212369,0.07452714855353598,0.2564115444028042,-0.055365949869155884,-0.07445817440748215,0.9956859946250916,0.0006894636899232864,0.000624214531853795,-0.0002287067472934723,8.335337042808533e-05,-0.0008439496159553528,0.004619121551513672
