,attitude.roll,attitude.pitch,attitude.yaw,gravity.x,gravity.y,gravity.z,rotationRate.x,rotationRate.y,rotationRate.z,userAcceleration.x,userAcceleration.y,userAcceleration.z
0,-0.503924204796272,0.26915721798559444,-2.0171365693283243,-0.465480238199234,-0.2659190893173218,-0.8441653847694397,0.29808270931243896,-0.20874443650245667,-0.5801029801368713,0.08071461319923401,-0.026256203651428223,0.027484476566314697
1,0.04652216762816683,0.3377427964375625,-1.937767912242714,0.043878067284822464,-0.33135825395584106,-0.9424841403961182,-0.0962168276309967,0.013884533196687698,0.1100989356637001,-0.07752370834350586,-0.007157951593399048,0.0030158162117004395
2,-0.029580741645854346,0.29280058207254617,-1.9346638985657603,-0.028317634016275406,-0.2886347472667694,-0.9570204019546509,-0.39135491847991943,-0.7604552507400513,-0.2578712999820709,-0.0644863173365593,-0.03703358769416809,-0.013011336326599121
3,-0.09746846271124866,0.28063419438356,-1.9610227592155447,-0.09350727498531342,-0.27696508169174194,-0.9563193321228027,-0.26639294624328613,-0.842640221118927,-0.07768712937831879,0.011765949428081512,0.03201577067375183,0.0018821358680725098
4,-0.1061609309952055,0.212475091371334,-1.9706472541335174,-0.10357876867055893,-0.21087998151779175,-0.9720087647438049,-0.8033129572868347,0.21320997178554535,0.11297685652971268,-0.03538302332162857,0.022601783275604248,0.028832554817199707
5,-0.12386708255491745,0.16516375039484038,-1.9930467950077166,-0.12186922878026962,-0.16441385447978973,-0.9788339734077454,-0.10420013964176178,-0.6018553972244263,-0.20226933062076569,-0.03830226510763168,-0.06921344995498657,-0.05879414081573486
6,-0.13795322665159282,0.14082105716173807,-2.023988193960353,-0.13615481555461884,-0.14035609364509583,-0.9806946516036987,-0.6223277449607849,0.02566019631922245,-0.03328803554177284,0.11846987903118134,-0.09665867686271667,0.07618415355682373
7,-0.20386333660802422,0.0961136296832929,-2.0501990572206883,-0.20151977241039276,-0.09596572071313858,-0.9747719764709473,-0.3264709413051605,-0.7582502365112305,-0.08572548627853394,0.07810667157173157,0.01214919239282608,-0.009007930755615234
8,-0.18081237823359242,0.04831872730470966,-2.0562802902337323,-0.17961888015270233,-0.04829992726445198,-0.9825498461723328,-0.4983765482902527,0.356710284948349,-0.148776113986969,-0.07276149094104767,0.09332861751317978,-0.08609944581985474
9,-0.16567678700313584,0.0607357480067719,-2.0737470421070596,-0.16461579501628876,-0.06069841608405113,-0.9844883680343628,0.2775757908821106,0.17077502608299255,-0.17210493981838226,-0.02012234926223755,0.09477128833532333,-0.001809239387512207
10,-0.16038211714127773,0.07558520182185134,-2.0798047249617246,-0.15923947095870972,-0.07551325112581253,-0.9843477606773376,0.21250483393669128,-0.6213364005088806,-0.1357765942811966,-0.02589540183544159,0.07601679861545563,-0.022549152374267578
11,-0.2462490687561868,0.10737020018627966,-2.08443075290993,-0.24236412346363068,-0.10716401785612106,-0.9642486572265625,0.2312171459197998,-0.5751440525054932,0.12489097565412521,0.013467028737068176,-0.02416837215423584,0.03955078125
12,-0.27237420502815624,0.13105992356478424,-2.0720465854119765,-0.2667117416858673,-0.13068504631519318,-0.9548749923706055,0.09141295403242111,0.022980082780122757,0.023666977882385254,0.0532107949256897,-0.03688696026802063,0.01851940155029297
13,-0.3112999205047508,0.13204851936785178,-2.040797240151298,-0.3036297857761383,-0.13166509568691254,-0.9436488747596741,0.1673126518726349,-1.118891954421997,0.3134688138961792,0.06649300456047058,-0.01768791675567627,-0.014236807823181152
14,-0.3959157589220144,0.16756483745247205,-2.0193383087187615,-0.3802517354488373,-0.16678179800510406,-0.9097210764884949,0.4723288118839264,-0.14564666152000427,-0.13971544802188873,-0.015668034553527832,-0.008663773536682129,0.012977302074432373
15,-0.3681929020294681,0.16961931846893807,-2.023021588846007,-0.3547647297382355,-0.16880714893341064,-0.9195902347564697,-0.3608218729496002,0.43598300218582153,0.05195512995123863,0.009015798568725586,0.06573402881622314,0.0008432865142822266
16,-0.33716450376627966,0.14672366087625302,-2.0232651754237954,-0.3272581100463867,-0.14619778096675873,-0.9335567951202393,0.13489103317260742,0.2836056649684906,0.0003044130280613899,-0.035946816205978394,0.03334379196166992,-0.03562039136886597
17,-0.31206965244248025,0.1636584481914906,-2.023260232397843,-0.3029263913631439,-0.16292884945869446,-0.9389833807945251,0.22935080528259277,0.09639354795217514,-0.2482244223356247,0.007836699485778809,0.003215104341506958,-0.056500017642974854
18,-0.3284837386032684,0.2149985063348712,-2.020722530835868,-0.3151807188987732,-0.2133459746837616,-0.9247403144836426,0.6042141318321228,0.05210176855325699,-0.02818353846669197,0.04914373159408569,0.017835110425949097,-0.006228923797607422
19,-0.3349344250584014,0.2608908527533692,-1.999101685630506,-0.31758397817611694,-0.2579413652420044,-0.9124728441238403,0.1746402084827423,0.031992554664611816,0.004015202634036541,-0.009625494480133057,0.057593464851379395,0.07891571521759033
20,-0.33443316930433536,0.28645662834954977,-1.9916750230827158,-0.314858615398407,-0.2825550138950348,-0.9061052203178406,0.3893090486526489,-0.01234777458012104,-0.1822880655527115,-0.02941015362739563,0.006767690181732178,0.005867183208465576
21,-0.32910791163520864,0.29376775938425154,-1.9943333221747335,-0.3093529939651489,-0.28956061601638794,-0.9057899117469788,0.33194607496261597,-0.31986773014068604,0.2577231824398041,-0.029498934745788574,-0.028432518243789673,-0.12033313512802124
22,-0.4174727369670679,0.38395132486286265,-1.9391354867422677,-0.3759313225746155,-0.3745870292186737,-0.8475613594055176,1.1475557088851929,-0.7706669569015503,-0.15101833641529083,0.0067449212074279785,0.01896566152572632,0.031033039093017578
23,-0.4729377627973489,0.4504886617123771,-1.9095561695284557,-0.41005998849868774,-0.4354054927825928,-0.8014193177223206,0.4009901285171509,-0.15854482352733612,0.18597795069217682,0.016703665256500244,0.02979639172554016,0.03300195932388306
24,-0.46838549158857845,0.4539274868845712,-1.888799122625861,-0.40572914481163025,-0.43849867582321167,-0.80193692445755,0.15925419330596924,0.2936195433139801,0.12423080205917358,-0.04953211545944214,0.11777418851852417,-0.04770296812057495
25,-0.4468791739207918,0.4610989872892064,-1.8634497625947597,-0.38702094554901123,-0.44493257999420166,-0.8076198697090149,-0.08071667701005936,0.3615741431713104,0.22866696119308472,-0.013186544179916382,0.14648595452308655,0.07062035799026489
26,-0.4178203129988217,0.4460392415869524,-1.8212655485743965,-0.3660699427127838,-0.43139567971229553,-0.8245548009872437,-0.03472292795777321,0.2411366105079651,0.442391037940979,0.010509639978408813,-0.05752643942832947,-0.023208260536193848
27,-0.3706436701808505,0.4388418553952656,-1.8151727416877792,-0.3278934955596924,-0.4248913526535034,-0.8437731862068176,-0.3865181803703308,0.45115694403648376,-0.44277435541152954,-0.03784438967704773,-0.11316406726837158,0.019111931324005127
28,-0.33131318515181624,0.4496554935902213,-1.8897541282427728,-0.29295071959495544,-0.4346553087234497,-0.8516188263893127,-0.44322478771209717,-0.6283714771270752,-0.7071195840835571,0.04552948474884033,0.013405919075012207,0.06746965646743774
29,-0.33967866230010235,0.4137259875934306,-1.925692388215419,-0.3050731420516968,-0.4020237326622009,-0.8633118271827698,-0.8979203104972839,0.36453208327293396,0.4173530340194702,-0.03643381595611572,-0.03976398706436157,-0.07472223043441772
30,-0.2987685475478433,0.2712782652587677,-1.9584983208902143,-0.28357914090156555,-0.267963171005249,-0.9207489490509033,0.1755688190460205,-0.724852442741394,-0.46639689803123474,-0.14868709444999695,0.017764806747436523,-0.2981688976287842
31,-0.5134554271409202,0.36309155713975644,-1.9582232953536902,-0.4591660499572754,-0.35516592860221863,-0.8142626881599426,0.23723278939723969,-1.718506097793579,0.44902336597442627,0.3128647804260254,0.21180957555770874,0.2725299000740051
32,-0.7326014173576441,0.2959321643959498,-1.9589177967603355,-0.6397333741188049,-0.2916316092014313,-0.7111203670501709,-1.0524468421936035,-1.6671624183654785,-0.37238338589668274,-0.08185476064682007,-0.04709818959236145,-0.007110774517059326
33,-0.7846383807635418,0.23873398739583887,-2.1287541170093647,-0.6865296959877014,-0.2364727109670639,-0.6875737309455872,-1.4250073432922363,-2.3547093868255615,-0.5648986101150513,-0.10921615362167358,-0.0914081484079361,-0.45755261182785034
34,-0.7796142497777911,0.14536763883227177,-2.234201277051462,-0.6955903768539429,-0.14485619962215424,-0.7036837339401245,-1.40215265750885,0.5075572729110718,0.3220791220664978,-0.08846724033355713,-0.057704225182533264,-0.06740391254425049
35,-0.8615477296986594,0.0853699457468965,-2.36653844716408,-0.7560878396034241,-0.08526628464460373,-0.6488919854164124,-0.5891510248184204,-1.5134323835372925,-0.8949000239372253,0.09609949588775635,-0.016174115240573883,-0.06444108486175537
36,-1.0219524189781297,0.1972156787047716,-2.428233513362233,-0.8365911841392517,-0.19593974947929382,-0.5115886330604553,0.005627824924886227,-1.491292953491211,-1.6172153949737549,0.21217095851898193,0.09648293256759644,0.10631513595581055
37,-1.1309952571091262,0.33340661825837625,-2.6429591280274876,-0.8550096750259399,-0.3272639513015747,-0.402314156293869,-1.2876262664794922,-1.4304332733154297,-2.3634889125823975,0.10740536451339722,-0.1752384603023529,0.055695563554763794
38,-1.2340651667386606,0.4818663083442348,-2.656442061430209,-0.8363662362098694,-0.46343377232551575,-0.2927810847759247,1.1313368082046509,-0.7795630693435669,0.3671422302722931,-0.22001498937606812,-0.5486359596252441,-0.01640772819519043
39,-1.2346302547237642,0.41966366567616625,-2.6600248727120626,-0.8621094226837158,-0.407453328371048,-0.3012460768222809,-0.5441621541976929,1.415462613105774,-0.4096582531929016,0.17492985725402832,0.5313851833343506,0.014685988426208496
40,-1.1586659327627837,0.38899583504123214,-2.7535856090145887,-0.8478153347969055,-0.37925946712493896,-0.37063637375831604,-1.5062774419784546,-0.8715920448303223,-0.029240528121590614,-0.3181391954421997,0.07501450181007385,-0.33628806471824646
41,-1.369643904811049,0.36259023708144755,-2.78445338426215,-0.9161291122436523,-0.35469725728034973,-0.18680797517299652,1.3609868288040161,-2.7139692306518555,0.1266252100467682,0.23161989450454712,0.04779723286628723,-0.5684105157852173
42,-1.4725952011242371,0.4027136670049999,-2.635341161023426,-0.915568470954895,-0.3919163644313812,-0.09019999206066132,1.3062766790390015,2.3240928649902344,-0.5114912986755371,0.07914268970489502,-0.2657069265842438,-0.042078495025634766
43,-1.3962432099987658,0.5350485876941375,-2.4139620173273175,-0.8471719622612,-0.5098828077316284,-0.14939691126346588,2.0263054370880127,0.8875123858451843,-1.9583855867385864,-0.2201651930809021,0.15824401378631592,-0.0709705501794815
44,-1.4963503634489348,0.6912046274187814,-2.100474614990525,-0.768344521522522,-0.63746577501297,-0.05730605497956276,3.064091205596924,0.18425562977790833,0.21969634294509888,0.13774454593658447,0.26904237270355225,0.07743239402770996
45,-1.5289435700018563,0.7048391615365464,-1.8694057633366277,-0.7610488533973694,-0.6479113101959229,-0.03187060356140137,0.836438775062561,2.4218366146087646,-0.9525117874145508,0.044267117977142334,0.3666612505912781,0.02878832444548607
46,-1.5867532594437035,0.6324283383347732,-1.7259291158559549,-0.806492030620575,-0.5911051630973816,0.012870230711996555,1.1742913722991943,-2.311180591583252,1.8342745304107666,-0.17527389526367188,0.2700755000114441,-0.144370436668396
47,-1.9458451108471777,0.32145512402400633,-1.6879683300690305,-0.8828269243240356,-0.3159474730491638,0.34755387902259827,-0.005549822933971882,-4.3096818923950195,2.23854398727417,-0.4849708676338196,0.1080465316772461,0.11782392859458923
48,-2.04121505650986,0.24775326818855284,-1.8176119325711557,-0.8641611933708191,-0.24522645771503448,0.4394197165966034,0.06627032160758972,0.5061191916465759,0.45165374875068665,0.007761478424072266,0.007738620042800903,-0.022274911403656006
49,-1.9889297714187022,0.2969925272309157,-1.7481455274981177,-0.8738409876823425,-0.29264572262763977,0.38827866315841675,-0.2855619490146637,1.0017653703689575,-0.2940742075443268,0.0768439769744873,0.037671416997909546,0.1386987566947937
50,-1.8982192845009904,0.262710470749327,-1.8346040926474643,-0.9143868684768677,-0.2596989870071411,0.3105696737766266,-0.5718357563018799,0.8699500560760498,-0.23545575141906738,-0.2690086364746094,0.13007554411888123,0.05170455574989319
51,-1.8192308855838162,0.2732065797545238,-1.849352376027808,-0.9333477020263672,-0.2698204815387726,0.23676705360412598,-0.01950708031654358,0.6501732468605042,1.1003191471099854,0.2948285937309265,-0.13812318444252014,0.013736441731452942
52,-1.8071865993475407,0.23650799494378139,-1.8750072908411652,-0.945125937461853,-0.23430927097797394,0.22767531871795654,0.507506251335144,0.16696886718273163,-1.0079399347305298,-0.0491519570350647,0.16857440769672394,-0.04739274084568024
53,-1.8157961117838588,0.2796425460971943,-1.856051543808927,-0.9324516654014587,-0.2760120928287506,0.23313383758068085,-0.9392274618148804,-0.26116394996643066,-0.03549906983971596,0.00729602575302124,0.010142982006072998,0.11142492294311523
54,-1.8018113201627424,0.27855345742178667,-1.9625536777795405,-0.9359126091003418,-0.27496516704559326,0.2201399803161621,-0.7327379584312439,0.03983551263809204,0.4314064681529999,0.006545662879943848,0.01838865876197815,-0.029908686876296997
55,-1.7713099027729489,0.29590416146248316,-1.9892407099040716,-0.9373741745948792,-0.2916048467159271,0.190516397356987,-0.6258707642555237,0.25613102316856384,-0.48376405239105225,-0.0715828537940979,0.08185750246047974,0.04790225625038147
56,-1.723244674280355,0.381012824856095,-2.01389207082368,-0.9175224900245667,-0.3718608617782593,0.14096854627132416,-0.34244847297668457,0.5238995552062988,-0.9447779059410095,0.013881683349609375,0.0034679174423217773,0.10198187828063965
57,-1.6471601947786252,0.44893781554753603,-2.0535135566042655,-0.898283064365387,-0.4340088367462158,0.06873001903295517,-0.4944029748439789,0.6105017066001892,-0.029182935133576393,0.12730228900909424,-0.058773696422576904,-0.027149803936481476
58,-1.5904479522208665,0.45279768700808803,-2.124249590552068,-0.8990530967712402,-0.4374829828739166,0.017670128494501114,-0.2209463268518448,0.20859375596046448,0.12153046578168869,0.004506587982177734,-0.09140187501907349,-0.0614476203918457
59,-1.6129962568263954,0.43944494953531493,-2.088408426772247,-0.9041821956634521,-0.42543721199035645,0.03817909210920334,0.48426517844200134,-0.49494513869285583,0.08936820179224014,-0.09426134824752808,0.07814720273017883,-0.03958297148346901
60,-1.644562104063378,0.40839017160244284,-2.0680707909685547,-0.9152656197547913,-0.39713239669799805,0.06763800233602524,-0.11031374335289001,-0.5587010383605957,0.5810526013374329,-0.29046863317489624,-0.04995012283325195,0.03897523880004883
61,-1.7092245297969735,0.3273120389789127,-2.1124543840747294,-0.9378519654273987,-0.32149893045425415,0.13066081702709198,-0.11308175325393677,-0.12727786600589752,1.142630934715271,-0.0876913070678711,-0.13347235321998596,0.1466829776763916
62,-1.6501773902468069,0.30014373921896426,-2.1549051490049416,-0.9522857666015625,-0.29565751552581787,0.0757526382803917,-0.6440109610557556,0.8672720789909363,-1.046822190284729,-0.366790771484375,0.09257832169532776,0.012519478797912598
63,-1.6502205531887442,0.5066274808958767,-2.1601658196062004,-0.8716294765472412,-0.4852311313152313,0.0693744346499443,0.8002004623413086,-0.49319228529930115,-2.8508782386779785,-0.02158951759338379,0.2335374355316162,-0.1231921911239624
64,-1.7455047615577228,0.8292164657066992,-1.94794893995714,-0.6651716232299805,-0.7374023795127869,0.11740808188915253,1.5306789875030518,0.32317519187927246,-3.6292691230773926,0.30135631561279297,0.5308288335800171,-0.11640095710754395
65,-1.979831301910902,1.057416329696442,-1.6777961655417113,-0.4506089389324188,-0.8710894584655762,0.19533193111419678,-0.015469281002879143,-0.1388331800699234,-0.8322314023971558,0.2827775478363037,0.04867136478424072,0.16111336648464203
66,-1.9046585272055039,0.984274524239875,-1.860334120379185,-0.5229072570800781,-0.8328707814216614,0.18136824667453766,-0.8603510856628418,-1.4229657649993896,2.1105763912200928,0.22752755880355835,0.09365862607955933,0.14597858488559723
67,-1.74085826767714,0.9212503209967883,-2.0928432398459496,-0.5960999727249146,-0.7963584661483765,0.10236263275146484,-0.9921782612800598,0.26309332251548767,-0.05449221655726433,0.14596569538116455,-0.43400347232818604,0.17615604400634766
68,-1.6714372143320193,0.9253130830592875,-2.190317432953283,-0.5985404849052429,-0.7988091707229614,0.060441844165325165,-0.3911835253238678,-1.3813331127166748,0.9118213653564453,0.01533430814743042,-0.1769445538520813,-0.03465450182557106
69,-1.692737431001232,0.7836436239081329,-2.3141318969076963,-0.7030864953994751,-0.7058650255203247,0.08616264164447784,-0.4707812964916229,-0.2543913424015045,1.3153507709503174,-0.1850970983505249,-0.0019138455390930176,0.06738662719726562
70,-1.5999471991550316,0.7839074660783241,-2.4168883651021247,-0.7078591585159302,-0.7060518860816956,0.020640559494495392,-1.0280841588974,0.7559811472892761,-0.48467493057250977,0.009739041328430176,0.016247868537902832,-0.11489415168762207
71,-1.4954017900518488,0.8015770158369651,-2.4908381996909434,-0.6935985684394836,-0.7184539437294006,-0.05239285156130791,0.4324161410331726,0.38473010063171387,-0.15197859704494476,0.016291379928588867,-0.08722537755966187,-0.11809360980987549
72,-1.4678268471585865,0.8429628911332252,-2.443482907443615,-0.661730170249939,-0.7466174960136414,-0.06837985664606094,0.2401212453842163,0.02476785145699978,-0.152809739112854,-0.02342003583908081,-0.06041997671127319,-0.09951258450746536
73,-1.573925964790645,0.8467030738154275,-2.3550834410771864,-0.6624531745910645,-0.749100387096405,0.002073245355859399,0.1545122116804123,-0.5921849608421326,-0.2765169143676758,-0.08556318283081055,-0.020964860916137695,-0.1552867889404297
74,-1.6279903585683126,0.8492498417292234,-2.3510882003927573,-0.659466564655304,-0.7507851123809814,0.037758734077215195,-0.09781475365161896,-0.3191198706626892,0.25593140721321106,0.023327648639678955,0.0008308887481689453,-0.044564127922058105
75,-1.6203115329674163,0.8446547068528691,-2.3368557826032936,-0.663175642490387,-0.7477418780326843,0.03286413848400116,-0.23669762909412384,0.9654195308685303,-0.17813129723072052,0.010572552680969238,0.011108636856079102,0.06331193447113037
76,-1.4835688043151274,0.9301747294143394,-2.2988491116610983,-0.5954213738441467,-0.801724374294281,-0.05206925794482231,-0.03176368772983551,2.1298794746398926,-1.2010741233825684,-0.050162672996520996,0.03547388315200806,0.051275793462991714
77,-1.2990021650409835,1.0102455716130259,-2.368563549173071,-0.5121362209320068,-0.8469624519348145,-0.14272759854793549,-1.0371567010879517,0.181484192609787,-0.15904799103736877,0.004308462142944336,0.025246143341064453,0.12032771110534668
78,-1.0998882071870915,0.9988758168860186,-2.557954935255331,-0.48233669996261597,-0.840863049030304,-0.245561882853508,-0.5633054971694946,1.0154060125350952,-0.8564945459365845,0.023245513439178467,0.06863099336624146,0.04301673173904419
79,-0.9414397695276222,1.0090984299430876,-2.714174599712823,-0.43057671189308167,-0.8463519811630249,-0.31351569294929504,-0.48534440994262695,-0.29808539152145386,-0.02449909970164299,0.043552786111831665,-0.04773670434951782,-0.23656368255615234
80,-0.8952892952584421,1.0151781879389432,-2.7616034507916303,-0.41163116693496704,-0.8495745658874512,-0.3298224210739136,-0.2922954261302948,0.3349963426589966,-0.10985129326581955,-0.02907314896583557,-0.0007367134094238281,0.005451112985610962
81,-0.8896543995426464,1.0104947754012292,-2.7752779321334304,-0.4128527343273163,-0.8470948934555054,-0.3346385061740875,0.23909348249435425,-0.6357908248901367,0.23933164775371552,-0.014195024967193604,-0.02665388584136963,-0.025209546089172363
82,-0.9623911734038153,0.9836322818964865,-2.7208979013162695,-0.45459234714508057,-0.8325151801109314,-0.31664520502090454,-0.15857376158237457,-0.5963613986968994,0.8459770083427429,0.07991281151771545,-0.05679750442504883,-0.07080593705177307
83,-1.0408769797035657,0.9198998066719497,-2.6447923412887167,-0.522799551486969,-0.7955409288406372,-0.30626049637794495,0.09106141328811646,0.06843897700309753,1.1260932683944702,0.08340734243392944,0.024758338928222656,0.014558225870132446
84,-1.0612569384397426,0.8757687757363851,-2.6365787121239688,-0.5590553879737854,-0.7680360674858093,-0.3123745024204254,0.00763946957886219,-0.44903841614723206,-0.14006350934505463,-0.08544540405273438,0.046371638774871826,-0.0679813027381897
85,-1.1068338604355314,0.8874078327207096,-2.6441310173189576,-0.5646740794181824,-0.775437593460083,-0.2825593054294586,0.26380816102027893,-0.5178530216217041,-0.21976497769355774,0.009193122386932373,0.015153169631958008,-0.022860586643218994
86,-1.0238333781456022,0.937614455832729,-2.735470518694319,-0.5053867101669312,-0.8061488270759583,-0.3077473044395447,-0.4957290589809418,0.35277846455574036,-0.678071141242981,-0.012206673622131348,0.04313313961029053,0.09577220678329468
87,-0.9127330380326546,0.9554506473369726,-2.827602144319717,-0.45670050382614136,-0.816573977470398,-0.35303235054016113,-0.5744920969009399,1.083132028579712,-0.6706506609916687,-0.05509456992149353,0.08605939149856567,0.09454846382141113
88,-0.7307991622251888,0.9176481957133473,-2.968368895067179,-0.40561148524284363,-0.7941746711730957,-0.4525107145309448,-0.03212474286556244,0.4034879207611084,-0.12057728320360184,0.007540255784988403,-0.0866999626159668,-0.1968422830104828
89,-0.6175079418197431,0.9340047608237587,-3.0409354834242692,-0.34428736567497253,-0.8040077090263367,-0.48480695486068726,-0.030489791184663773,-0.03654523193836212,-0.0851454958319664,0.06924769282341003,-0.03116685152053833,-0.006037771701812744
90,-0.59612010525289,0.9101474278916976,-3.0306952608010995,-0.3445136249065399,-0.7895942330360413,-0.5077906250953674,0.16571050882339478,0.7778941988945007,-0.026583878323435783,-0.00860530138015747,0.01441723108291626,-0.02095693349838257
91,-0.5592938322937626,0.8756774397781713,-3.0446178400409525,-0.33982914686203003,-0.7679775357246399,-0.5428873300552368,-1.8941230773925781,-0.39337587356567383,0.12612897157669067,0.03788822889328003,-0.09173315763473511,0.3551431894302368
92,-0.5365742013016406,0.7767753088844808,-3.1114134727266345,-0.3645726442337036,-0.7009832859039307,-0.6129512786865234,0.025749288499355316,-0.3356221914291382,-0.14348484575748444,-0.08646190166473389,-0.019674062728881836,-0.06995582580566406
93,-0.5519724161219848,0.7813615971890104,-3.120570543191193,-0.3722776472568512,-0.7042467594146729,-0.6045211553573608,-0.36349573731422424,-0.25893786549568176,0.3719881474971771,0.009286344051361084,0.0072100162506103516,0.02281033992767334
94,-0.558518401383147,0.7534032815712927,-3.112023066317396,-0.38651254773139954,-0.6841249465942383,-0.6185314655303955,-0.3004441261291504,-0.061785127967596054,0.2808057963848114,-0.08316820859909058,-0.0010862350463867188,-0.016936063766479492
95,-0.5382698659770788,0.7101340579685699,-3.1332914230018893,-0.38873037695884705,-0.6519354581832886,-0.6510521173477173,-0.6682205200195312,0.02739465795457363,-0.14316269755363464,0.038449615240097046,-0.18784725666046143,0.023915886878967285
96,-0.4540731699511727,0.6258946210619216,3.0537202362366376,-0.35548266768455505,-0.5858225226402283,-0.7283158302307129,-1.9859250783920288,0.34949156641960144,-0.09987316280603409,0.0004564225673675537,-0.25885820388793945,0.11845254898071289
97,-0.3658638962624141,0.3591714637869859,2.9822963819397112,-0.33492714166641235,-0.35149869322776794,-0.8742267489433289,-2.814663887023926,0.3762124478816986,0.7657173871994019,-0.07927268743515015,-0.14273351430892944,0.09798169136047363
98,-0.29829532850139523,0.16080059218171236,2.877585255685186,-0.2900998592376709,-0.1601085215806961,-0.943507969379425,-1.9519354104995728,0.4374772012233734,-1.1868352890014648,-0.12358114123344421,0.0509776771068573,0.024242281913757324
99,-0.23754445471092958,0.059473133665484484,2.7364887930790127,-0.23490071296691895,-0.059438079595565796,-0.9702003598213196,-1.1750136613845825,0.5071490406990051,-1.0706239938735962,-0.06603311002254486,0.1348317563533783,0.061661601066589355
100,-0.19740846554501373,0.017111575288509043,2.607222147838878,-0.19610007107257843,-0.017110740765929222,-0.9804345965385437,-0.6639949679374695,0.2957278788089752,-0.8845115900039673,0.018518298864364624,0.09697524458169937,0.0521051287651062
101,-0.17294206007351384,-0.04585116153566596,2.5545102239696753,-0.1719004064798355,0.04583509638905525,-0.9840474724769592,-0.6120054721832275,0.28876933455467224,0.02747131884098053,0.05062355101108551,0.014437120407819748,0.02602440118789673
102,-0.16128828976113632,-0.09902861146561764,2.4998013821218943,-0.1598031222820282,0.09886683523654938,-0.9821854829788208,-0.2166932225227356,0.1463637799024582,-0.2595103085041046,0.011670798063278198,0.04728184640407562,-0.0353010892868042
103,-0.1614102258862179,-0.0699838093193359,2.452436293325344,-0.16031686961650848,0.06992669403553009,-0.9845855832099915,0.9459717273712158,0.16105958819389343,-1.0797884464263916,-0.13190419971942902,0.1570325344800949,-0.029711902141571045
104,-0.11664203432067187,0.024194389455620927,2.3543405963942288,-0.1163436621427536,-0.024192029610276222,-0.9929143190383911,0.9910495281219482,0.5107500553131104,-1.018088936805725,-0.0513656809926033,0.05521314963698387,-0.05736333131790161
105,-0.022141885432944985,0.20519937999472332,2.1500147097384086,-0.021675584837794304,-0.20376236736774445,-0.9787803888320923,1.915704607963562,0.7321450114250183,-2.9303743839263916,-0.0033335667103528976,0.08245499432086945,-0.0072425007820129395
106,0.1548100026380506,0.3775986460384714,1.8383679779902873,0.1433299332857132,-0.3686893582344055,-0.9184359908103943,1.810681939125061,0.6970592141151428,-2.77367901802063,0.028850242495536804,0.03449136018753052,0.04914277791976929
107,0.37399105688540335,0.49117283030554737,1.432487639376204,0.32214388251304626,-0.47166040539741516,-0.8208287358283997,2.324336528778076,0.5292788743972778,-2.962702751159668,0.006148964166641235,0.04650476574897766,0.06847888231277466
108,0.6418568394138005,0.5114308145803302,1.036155084368106,0.5220792889595032,-0.4894254803657532,-0.6984955072402954,1.575626015663147,0.8728823661804199,-2.751711368560791,-0.026672184467315674,0.012252628803253174,-0.02522885799407959
109,0.8733725904574252,0.43527298728807723,0.6871434264156269,0.6950270533561707,-0.4216579496860504,-0.5823589563369751,1.6236389875411987,0.8993415832519531,-3.015083074569702,0.004878342151641846,0.09330406785011292,0.0520550012588501
110,1.053593992491493,0.3094772670958648,0.3753928943813298,0.827912449836731,-0.3045607805252075,-0.47096043825149536,0.8919705152511597,0.47835394740104675,-1.8741745948791504,0.05746352672576904,-0.01680457592010498,0.04682713747024536
111,1.1122753478119438,0.23801380709503867,0.25233672129110135,0.8714281916618347,-0.23577289283275604,-0.43014398217201233,0.5378170609474182,0.22224317491054535,-0.6919305324554443,0.04971426725387573,0.0015962868928909302,0.027937591075897217
112,1.146586845099376,0.19601355749147986,0.18398904574940733,0.8939125537872314,-0.1947607845067978,-0.4037186801433563,0.3296288549900055,0.0821959376335144,-0.7135764360427856,0.024727702140808105,-0.0501580536365509,0.0014358758926391602
113,1.1592381715424962,0.1651682587479808,0.16159008881790463,0.9040257930755615,-0.1644182950258255,-0.39459365606307983,-0.12835173308849335,-0.007261698134243488,-0.05290213227272034,0.021236777305603027,-0.0562848299741745,0.03636300563812256
114,1.1538743867752719,0.14480150315849064,0.18237315865972795,0.9047707319259644,-0.14429602026939392,-0.40071001648902893,-0.5418539643287659,-0.1069524735212326,-0.21597734093666077,0.02755647897720337,-0.061606064438819885,0.02183428406715393
115,1.1132832582646173,0.09501336834115114,0.23828388250686525,0.8931072354316711,-0.09487047791481018,-0.43972596526145935,-0.8047096729278564,-0.6534415483474731,-0.2829701006412506,0.11162292957305908,0.029761232435703278,0.04501160979270935
116,1.0260542346983943,0.047016514152604744,0.29785422696459174,0.8543158769607544,-0.04699919372797012,-0.5176249146461487,-0.9334347248077393,-0.9307941794395447,0.09804142266511917,0.023980021476745605,0.02302764356136322,0.10751444101333618
117,0.9743898480997268,0.031211114529040275,0.3566246279977116,0.8269563913345337,-0.031206047162413597,-0.5613994002342224,-0.6212480664253235,-0.5632706880569458,0.21900507807731628,0.025185883045196533,0.014619739726185799,0.024808883666992188
118,0.928868614938505,-0.015450111684235199,0.3887942775032495,0.8008474707603455,0.015449496917426586,-0.5986691117286682,-0.36311858892440796,-0.3568628132343292,-0.04923585057258606,-0.010182797908782959,-0.07918545603752136,0.006765425205230713
119,0.9036245429302743,0.010045727950781146,0.5143613625931786,0.7855351567268372,-0.010045559145510197,-0.6187354922294617,-0.9767670035362244,-0.20332254469394684,1.5065441131591797,0.011019349098205566,0.011296779848635197,-0.01444321870803833
120,0.8996430196308574,0.04458691457837638,0.6497893504001317,0.7823266386985779,-0.044572144746780396,-0.6212714910507202,-0.7475377321243286,0.2695122957229614,0.886072039604187,-0.06560611724853516,-0.011549677699804306,-0.01050335168838501
121,0.9185138336085473,0.13143387607734436,0.8511749805941194,0.7878460884094238,-0.1310557872056961,-0.6017665266990662,-1.186640739440918,0.11537804454565048,3.2004079818725586,0.0794329047203064,-0.0951404869556427,-0.04361921548843384
122,0.8225606690532952,0.33621223259262023,1.2520091002536449,0.6918566226959229,-0.32991376519203186,-0.6422548294067383,-1.853983998298645,-0.10494833439588547,4.636382579803467,0.12375611066818237,0.04585617780685425,0.024380743503570557
123,0.6187740463549942,0.517193978846603,1.7221934144921023,0.5041739344596863,-0.49444305896759033,-0.7080499529838562,-1.0087958574295044,-0.02768808975815773,3.587897539138794,0.06328517198562622,0.12281528115272522,0.0624353289604187
124,0.4579588655436836,0.638582142744449,2.0121321669336134,0.35499513149261475,-0.5960575938224792,-0.7202039957046509,-0.26614269614219666,-0.33561044931411743,1.8147433996200562,0.07797300815582275,0.10913437604904175,0.007206559181213379
125,0.2519569173099621,0.7479023354325732,2.247781829640789,0.18276578187942505,-0.6801024079322815,-0.7099699974060059,1.1240402460098267,-0.7712538242340088,1.8661776781082153,0.07429903745651245,0.060030996799468994,0.07254934310913086
126,0.002985605908280422,0.8772435623111743,2.4698080615565248,0.0019086153479292989,-0.7689796686172485,-0.6392704844474792,0.9197561144828796,-1.1849110126495361,0.8953761458396912,-0.10547001659870148,-0.13571393489837646,0.09878891706466675
127,-0.17603509499597614,1.0257068012508486,2.615904555383947,-0.09080258011817932,-0.8550809025764465,-0.5104817152023315,1.2548757791519165,-0.13560813665390015,0.536118745803833,-0.014528840780258179,0.07210665941238403,0.023375391960144043
128,-0.30214342535861505,1.1329574593516332,2.7416230305868265,-0.12616348266601562,-0.9056700468063354,-0.40477705001831055,1.6024184226989746,-0.14360982179641724,0.2536165118217468,0.07158280909061432,-0.009948790073394775,-0.15769240260124207
129,-0.3281209386979087,1.178717166030769,2.747730955430713,-0.12314075231552124,-0.9241166114807129,-0.36172470450401306,-0.06580880284309387,-0.1310863345861435,0.1281769573688507,-0.011228129267692566,0.06388717889785767,0.029846101999282837
130,-0.43993701242313876,1.2346812988109397,2.8449515084592853,-0.14046533405780792,-0.9440431594848633,-0.2984156608581543,0.9260433316230774,-0.09381767362356186,-0.277998149394989,-0.03629247844219208,0.04414087533950806,-0.00630226731300354
131,-0.6226288660811233,1.2994185604208457,2.997594677513431,-0.1563246250152588,-0.963402509689331,-0.21775715053081512,0.3426632881164551,-0.2929931879043579,0.19486798346042633,-0.05024884641170502,0.00505906343460083,0.08860673010349274
132,-0.866804293526434,1.291692130325743,-3.0499538389233396,-0.2099999636411667,-0.961302638053894,-0.17831844091415405,0.8100376129150391,-0.37405580282211304,0.43896472454071045,0.04218381643295288,0.08683663606643677,-0.012294352054595947
133,-1.2899179389197306,1.3109028917945893,-2.647362760279112,-0.24690736830234528,-0.9664173722267151,-0.07123415917158127,0.7748801112174988,-0.19769415259361267,0.37371358275413513,-0.05884823203086853,-0.0004557967185974121,-0.047494471073150635
134,-1.3888428730636564,1.2852094487824004,-2.5469461654112853,-0.2770700454711914,-0.9594964981079102,-0.050977673381567,-0.11046893149614334,0.2457437366247177,0.0559028796851635,-0.048308372497558594,0.021004676818847656,0.0031261444091796875
135,-1.3522036888161055,1.2925832100013963,-2.54570651850905,-0.2681027352809906,-0.9615477323532104,-0.05955692008137703,0.3754793107509613,0.5392771363258362,-0.022426772862672806,0.02684605121612549,0.00941455364227295,-0.06034666299819946
136,-1.4090013328320303,1.305006872871756,-2.444214315851145,-0.25924035906791687,-0.964885413646698,-0.04231366142630577,0.10904711484909058,0.18955759704113007,-0.10439426451921463,-0.01625707745552063,0.06753134727478027,0.006730139255523682
137,-1.4323883654168896,1.3030802931192096,-2.4264075241977845,-0.2619999051094055,-0.9643775820732117,-0.03649621829390526,0.2774483561515808,-0.43259644508361816,0.29734739661216736,-0.03220480680465698,-0.06894755363464355,-0.03622716665267944
138,-1.816660299536777,1.3056427483603206,-2.1060375424612867,-0.2541769742965698,-0.9650522470474243,0.06378338485956192,1.1403605937957764,-0.5299751162528992,-0.21892522275447845,0.026271700859069824,0.037516236305236816,0.002271890640258789
139,-2.1296967880146136,1.292198570180446,-1.7894861190433133,-0.233162060379982,-0.9614419937133789,0.14582395553588867,0.8900380730628967,-0.04610826447606087,-0.3563859164714813,-0.050315722823143005,0.01670938730239868,-0.08001279830932617
140,-2.478089783040903,1.2175269787839638,-1.4297848454004862,-0.21307401359081268,-0.9382466673851013,0.2725662291049957,1.5072429180145264,-0.05184503644704819,-0.07087834924459457,0.0025027692317962646,0.02732759714126587,-0.07974094152450562
141,-2.6661841079262865,1.083985678208539,-1.1918798662715184,-0.21411731839179993,-0.8838293552398682,0.4159323573112488,1.1153411865234375,0.6174386739730835,-0.008039291948080063,0.007986322045326233,-0.05846202373504639,0.06030970811843872
142,-2.656195965159998,1.029104830507128,-1.1760858682236501,-0.24055147171020508,-0.856837809085846,0.4560307264328003,0.3732205331325531,-0.02335379645228386,0.3564501702785492,-0.07634305953979492,-0.07326167821884155,-0.011999964714050293
143,-2.7461040297929586,0.9699549893500883,-1.045578720387595,-0.2178012579679489,-0.8248602747917175,0.5216977596282959,0.5500080585479736,0.3561914265155792,-0.47646650671958923,0.06272615492343903,0.09109550714492798,0.06648284196853638
144,-2.7236793592238993,1.0027226830275315,-1.049434252785548,-0.2183532863855362,-0.8429389595985413,0.4917069375514984,-1.0596405267715454,0.18019865453243256,-0.04354986175894737,-0.04550167918205261,-0.00744861364364624,0.1159285306930542
145,-2.617980446793984,1.1317644449257172,-1.126775591923039,-0.2125367522239685,-0.905163586139679,0.36811304092407227,-2.2013330459594727,1.0200550556182861,-0.6563270688056946,0.016003549098968506,0.058193981647491455,0.13724279403686523
146,-2.173032672654246,1.361097981537606,-1.497411739294178,-0.171542689204216,-0.9780937433242798,0.11792271584272385,-2.5857460498809814,0.617668628692627,-0.39486318826675415,0.016910120844841003,-0.07157355546951294,-0.013293147087097168
147,-0.8322121432791342,1.4156451572657083,-2.788803383627405,-0.11426277458667755,-0.9879881739616394,-0.1040358692407608,-2.127727746963501,0.698981523513794,-0.7692124247550964,-0.05892449617385864,0.014752030372619629,-0.008726611733436584
148,-0.10728589115642322,1.2954319234658693,2.8107784610736086,-0.02911483310163021,-0.962326169013977,-0.2703341543674469,-1.1655223369598389,0.2749837040901184,-0.37746289372444153,0.08946333825588226,0.006332576274871826,-0.02001011371612549
149,0.04520505530126851,1.2439091279558887,2.673877503704002,0.014510255306959152,-0.9470464587211609,-0.3207687735557556,0.16396164894104004,-0.0030757668428122997,-0.03360501304268837,0.03421105444431305,-0.011892139911651611,-0.047166407108306885
150,0.05533078274766328,1.2406765612667678,2.6442248191206614,0.017926668748259544,-0.9460035562515259,-0.3236601650714874,0.1469895988702774,-0.06295864284038544,-0.056752774864435196,0.0514550507068634,-0.06164109706878662,-0.0434814989566803
151,-0.0068183832316296164,1.2942660178682508,2.710142321974789,-0.0018615392036736012,-0.962008535861969,-0.27301347255706787,0.7167169451713562,-0.17338652908802032,0.286571741104126,0.06321711838245392,-0.03913599252700806,-0.019512802362442017
152,-0.12095145365745757,1.387246022687712,2.8002769735022173,-0.022022496908903122,-0.9832018613815308,-0.1811884194612503,0.8872350454330444,-0.3655970096588135,-0.09957302361726761,-0.07043050229549408,0.02296626567840576,-0.01624506711959839
153,0.2705073408880164,1.4343530379074527,2.3939792286759176,0.03634726256132126,-0.9907060265541077,-0.1310735046863556,0.17420563101768494,0.10260946303606033,-1.1200810670852661,-0.08888326585292816,-0.009797394275665283,0.016922488808631897
154,0.9246711874868866,1.3795600808126705,1.7449556566661726,0.1517581045627594,-0.9817699790000916,-0.11444202810525894,0.08404110372066498,0.2374710589647293,-1.4948573112487793,-0.0750064104795456,0.0934033989906311,-0.024519793689250946
155,1.1001748127909776,1.3165106539406395,1.5831899814328572,0.22420737147331238,-0.967843234539032,-0.11406505852937698,0.17064379155635834,0.02409210428595543,0.5127605199813843,0.24948650598526,-0.02153676748275757,0.006536349654197693
156,0.8899075896601552,1.385572075069301,1.7802593109481546,0.14310036599636078,-0.9828949570655823,-0.1159302368760109,-0.10867320001125336,-0.31270352005958557,0.7852588295936584,0.015194326639175415,0.06425482034683228,-0.015096962451934814
157,0.5263901018770772,1.4278190020919397,2.1291329142378377,0.07158949226140976,-0.9897961616516113,-0.1232011690735817,-0.25802209973335266,-0.09457921236753464,0.5219672322273254,-0.10239697992801666,-0.08237791061401367,0.008531391620635986
158,0.6393804936293844,1.4167424439013112,2.019076404062103,0.09156021475791931,-0.9881571531295776,-0.12313409149646759,0.2599179446697235,-0.01350153237581253,-0.49162229895591736,-0.03160843998193741,0.0047130584716796875,0.00696893036365509
159,0.8505012406551928,1.4006185808550005,1.8079704939467374,0.12729060649871826,-0.9855546951293945,-0.11170897632837296,-0.053862109780311584,0.08064933121204376,-0.07056664675474167,0.07520878314971924,0.026921391487121582,0.019500091671943665
160,0.8393119457650062,1.415327541565621,1.8253528351099475,0.11523183435201645,-0.9879390597343445,-0.10343143343925476,-0.12328770756721497,0.02647838369011879,0.28268828988075256,0.07260385155677795,0.025109469890594482,0.05133795738220215
161,0.6621721518178638,1.4037197185989767,2.0052150855452924,0.10224635154008865,-0.9860751628875732,-0.13115377724170685,-0.16869904100894928,0.22377066314220428,-0.20185409486293793,-0.06815823912620544,0.030310511589050293,-0.041926607489585876
162,0.6230790923986167,1.3771831180103198,2.0522456990934925,0.11227624118328094,-0.9813154339790344,-0.15625005960464478,-0.3923572599887848,-0.5217623710632324,0.24923019111156464,-0.011995479464530945,-0.038246333599090576,-0.012481629848480225
163,0.3635873762453846,1.377197317361015,2.3058972880871504,0.06842003017663956,-0.9813181757926941,-0.1798141896724701,-0.06790506839752197,-0.10603554546833038,0.5836498737335205,0.02525366097688675,0.06615716218948364,-0.028407201170921326
164,-0.26571139621193235,1.3958329547656207,2.849269495806838,-0.04571060463786125,-0.9847329258918762,-0.16796323657035828,0.6920474767684937,-1.1841100454330444,1.1881961822509766,0.06598953902721405,0.02060633897781372,-0.017461538314819336
165,-0.945934011223003,1.4123572959920385,-2.8274083744204503,-0.12796351313591003,-0.987474799156189,-0.09229689836502075,-0.11224129796028137,-0.6419702172279358,0.819979727268219,0.11427639424800873,0.016817569732666016,0.09423477202653885
166,-1.0540801699298945,1.3332615171553974,-2.728184461440215,-0.2045871466398239,-0.9719210267066956,-0.11624838411808014,-0.3341502249240875,0.8996518850326538,0.17059466242790222,-0.1284053921699524,0.05167871713638306,0.038169145584106445
167,-0.8894685906262748,1.3070886685658754,-2.8121010689275505,-0.20246568322181702,-0.9654302000999451,-0.1641712635755539,-0.16961832344532013,0.4249027669429779,0.20773492753505707,-0.005359023809432983,0.02083486318588257,-0.020109117031097412
168,-0.844708185571699,1.2877853512592958,-2.8204246092330907,-0.20881550014019012,-0.9602189660072327,-0.18540672957897186,-0.4419333040714264,0.5134047865867615,0.1058158129453659,0.008879587054252625,0.09611374139785767,0.15781885385513306
169,-0.5843432495797264,1.2620842680171591,-3.018680296725207,-0.16760925948619843,-0.9527256488800049,-0.2534182667732239,-0.14488115906715393,0.39477670192718506,0.24918784201145172,0.02370363473892212,-0.10429632663726807,-0.11868259310722351
170,-0.516071908870076,1.2383249473437252,-3.0538229507035446,-0.16105802357196808,-0.9452386498451233,-0.28387388586997986,-0.02515910565853119,-0.273836225271225,0.22043785452842712,0.04857023060321808,0.0013909339904785156,-0.08134526014328003
171,-0.773696922830462,1.227900825618759,-2.8639384033932225,-0.23494233191013336,-0.9417850971221924,-0.24050591886043549,0.2932010591030121,-0.925580620765686,0.7186986804008484,0.007098078727722168,-0.05444610118865967,0.027264326810836792
172,-0.8394154657375926,1.2216092272429142,-2.81527490694682,-0.25463414192199707,-0.9396511316299438,-0.2285105586051941,0.00937606580555439,0.08873679488897324,-0.06053760647773743,-0.007710188627243042,0.0398252010345459,0.0025889575481414795
173,-0.7898558787057679,1.238357525557638,-2.8412435807303646,-0.23179008066654205,-0.9452492594718933,-0.2297327220439911,-0.10576324909925461,0.9137378931045532,-0.4490823745727539,-0.13417670130729675,0.011487722396850586,0.08573557436466217
174,-0.3975634693178809,1.1971140842836432,-3.05311791942855,-0.14133596420288086,-0.9309894442558289,-0.3365750014781952,-1.1731808185577393,2.390681028366089,-0.49776017665863037,0.05693961679935455,0.05939221382141113,0.06544163823127747
175,-0.057440226856410585,1.125310463536243,3.059831414968491,-0.02473718300461769,-0.9024013876914978,-0.43018579483032227,-0.5259845852851868,0.9648894667625427,-0.5205227136611938,0.1284206509590149,0.0736355185508728,-0.040135860443115234
176,-0.01246868114781747,1.139301273092054,3.010420818446479,-0.005214630626142025,-0.9083414673805237,-0.4181966483592987,0.8906206488609314,-0.9799668788909912,-0.02750479057431221,0.0312003493309021,-0.004362940788269043,-0.11093232035636902
177,-0.20024597356753948,1.2282246926131137,3.0676126601954614,-0.06681612879037857,-0.9418939352035522,-0.32919842004776,1.0562694072723389,-1.3023236989974976,0.21860386431217194,-0.008699648082256317,0.046736955642700195,0.020757406949996948
178,-0.4332281262101764,1.3163344344291659,-3.082025839886072,-0.10567470639944077,-0.9677988886833191,-0.2284690886735916,0.5718531012535095,-0.8651915192604065,0.24867652356624603,0.12406154721975327,0.03696703910827637,0.025847628712654114
179,-0.7313094387492549,1.344637980234377,-2.8434311906350294,-0.14975473284721375,-0.9745350480079651,-0.16689884662628174,0.6253597140312195,-0.5153831243515015,0.3673587143421173,-0.07386283576488495,0.0061664581298828125,-0.03943049907684326
180,-1.0220693093662432,1.3357147002192036,-2.5939373639839824,-0.19872702658176422,-0.9724953174591064,-0.12149278074502945,-0.2620413303375244,-0.571865975856781,0.9444170594215393,0.09130515158176422,-0.10855937004089355,0.013018012046813965
181,-1.1014665544144844,1.2475300214061367,-2.5560256428688866,-0.2833167612552643,-0.948202908039093,-0.14367644488811493,0.3511887192726135,-0.1314200609922409,0.473042368888855,-0.11759263277053833,0.15326577425003052,-0.09664951264858246
182,-1.2423300324538353,1.2509005403392226,-2.453502100070471,-0.2976561486721039,-0.9492682218551636,-0.10144482553005219,0.04434885084629059,-0.7151751518249512,-0.11075808107852936,-0.0734681785106659,-0.07017171382904053,-0.03135242313146591
183,-1.3938010797757785,1.253074702711504,-2.3524440031876237,-0.3075224459171295,-0.9499496817588806,-0.05500560626387596,0.7344229817390442,-0.4935067594051361,-0.5486426949501038,-0.07007154822349548,0.07827609777450562,-0.018831729888916016
184,-1.5694504598148544,1.3560474409654086,-2.223181135509002,-0.21310220658779144,-0.9770299196243286,-0.0002868073934223503,0.48543548583984375,-0.37490537762641907,-0.556885302066803,-0.023546352982521057,-0.04517161846160889,0.01374506950378418
185,-1.4332408924051354,1.3551286182200302,-2.3708918139276998,-0.21197836101055145,-0.976833701133728,-0.029344087466597557,-0.9470658302307129,0.0401046983897686,0.45949292182922363,0.13229699432849884,-0.0544314980506897,0.09210348129272461
186,-1.251825485613132,1.2537187268426158,-2.5496397279627274,-0.29606398940086365,-0.9501506686210632,-0.09777442365884781,-0.15327493846416473,0.38515472412109375,0.7565494775772095,0.04913097620010376,0.18635672330856323,-0.028263211250305176
187,-1.3381215881834772,1.2277703225009589,-2.424744872891978,-0.3272751271724701,-0.9417412281036377,-0.07755324244499207,0.1597023606300354,-0.009418589994311333,0.36802566051483154,0.0847061276435852,-0.025238752365112305,-0.021750926971435547
188,-1.4466338094228004,1.152250167348985,-2.318225381319081,-0.40330350399017334,-0.9136807918548584,-0.05033409968018532,-0.08057404309511185,-0.16094008088111877,0.6824396252632141,-0.060655176639556885,0.03312671184539795,0.011973507702350616
189,-1.4778458260042375,1.1242077326255702,-2.304247883575347,-0.4300270080566406,-0.9019256830215454,-0.040086738765239716,0.4046737849712372,-0.28675171732902527,0.3985712230205536,0.039737701416015625,-0.04288327693939209,-0.04765129089355469
190,-1.6195020760633618,1.1164852055942451,-2.2022440301867166,-0.4383228123188019,-0.8985635638237,0.021365737542510033,0.5684057474136353,-0.9720773100852966,0.02951543778181076,-0.13206598162651062,-0.15381979942321777,-0.16574442386627197
191,-1.8421989378094958,1.089208873355676,-2.0564205321710176,-0.4462323486804962,-0.8862607479095459,0.12417253106832504,0.8801936507225037,-0.8280607461929321,-0.46698683500289917,-0.19858887791633606,0.008971810340881348,-0.11011908948421478
192,-2.1603456059933266,1.1443831025660283,-1.819481189277183,-0.3437871038913727,-0.9104551076889038,0.22996024787425995,0.5210006237030029,-0.6877312660217285,-1.3653634786605835,-0.16976264119148254,0.05642080307006836,-0.037134915590286255
193,-2.797162391278124,1.2694651585607606,-1.2360524691246786,-0.10021486133337021,-0.9549422264099121,0.2793606221675873,-0.16981031000614166,-1.3495597839355469,-2.69130277633667,-0.19542419910430908,0.16351467370986938,-0.009737849235534668
194,2.4487536695661856,1.2967190836568938,-0.2546031188956985,0.17287641763687134,-0.9626753330230713,0.20825468003749847,-1.0272350311279297,-0.710630476474762,-3.1845719814300537,-0.14359480142593384,0.3837721347808838,0.08964264392852783
195,1.6634899369226495,0.9883351894387268,0.4940229725268068,0.547719419002533,-0.8351113796234131,0.050915997475385666,-1.7067248821258545,-1.5172120332717896,-3.5621349811553955,0.12029510736465454,0.14808440208435059,0.12030291557312012
196,1.4272149749898573,0.79358757305664,0.7166488660484875,0.6940760016441345,-0.7128738164901733,-0.1003468930721283,-1.5853214263916016,1.1248118877410889,-1.6087554693222046,0.014175951480865479,0.18063193559646606,0.19783532619476318
197,1.4075940147884611,0.5249154820389303,0.8963509684159988,0.8538674116134644,-0.5011398792266846,-0.1406036764383316,-1.5339245796203613,0.5252371430397034,-2.133404493331909,0.16439741849899292,0.00945591926574707,-0.00777280330657959
198,1.3779671951486718,0.33852226129523133,0.9785711943912158,0.925764262676239,-0.33209359645843506,-0.18076029419898987,-0.38122570514678955,0.18959940969944,-1.659043788909912,0.1542375087738037,0.14141976833343506,-0.12334732711315155
199,1.3690100734356916,0.28381890376879537,0.9627677982288857,0.9405149817466736,-0.28002381324768066,-0.1924014836549759,0.37754392623901367,-0.40465256571769714,-0.2916203737258911,-0.06708663702011108,0.039346933364868164,-0.0323452353477478
200,1.3517424490622316,0.22466851083384776,0.8818957489275412,0.9515720009803772,-0.22278322279453278,-0.21184486150741577,0.8333095908164978,-0.6422165632247925,-0.21076606214046478,0.08060872554779053,-0.13216674327850342,-0.07096153497695923
201,1.3086502037379801,0.22884091807232232,0.7677621701257158,0.9406566023826599,-0.2268488109111786,-0.2523977756500244,1.014445424079895,-0.5197479724884033,-0.12225190550088882,0.04834175109863281,-0.0012242943048477173,0.009523659944534302
202,1.3015713317756332,0.21859213087712245,0.727468692243525,0.941038191318512,-0.2168554663658142,-0.2596549689769745,0.037493638694286346,0.09445719420909882,-0.25612443685531616,0.06649953126907349,0.1561407744884491,0.026210755109786987
203,1.3105259742287518,0.20638387322770219,0.7189491946635769,0.9458135962486267,-0.20492185652256012,-0.25188061594963074,0.03493398800492287,0.0308351032435894,-0.04019010439515114,-0.013486206531524658,-0.07107914984226227,0.012104004621505737
204,1.3038128742373352,0.21439392571756336,0.7266911978794927,0.9424877166748047,-0.2127552628517151,-0.25778287649154663,-0.292974054813385,-0.093393474817276,0.29792845249176025,0.025865495204925537,0.03604324162006378,-0.03941252827644348
205,1.296373176067332,0.2162284719834798,0.7682857498247683,0.9401664733886719,-0.21454745531082153,-0.26468124985694885,-0.27400439977645874,-0.20386022329330444,0.1717357337474823,-0.0315057635307312,-0.11813989281654358,0.0069450438022613525
206,1.2501558334229659,0.24214972448555383,0.7813738552160546,0.9213455319404602,-0.2397901862859726,-0.3059791922569275,-0.023299507796764374,-0.2708415687084198,0.15478667616844177,0.01653599739074707,0.1394026130437851,0.02758258581161499
207,1.2448414826194496,0.24291771953649818,0.807441607543391,0.9195316433906555,-0.240535706281662,-0.3108121156692505,-0.2722148299217224,0.08176043629646301,0.09975326061248779,-0.026648342609405518,-0.06332781910896301,-0.009240955114364624
208,1.2243266433872806,0.2604294504284747,0.8160640330484511,0.9088606238365173,-0.25749555230140686,-0.3281286060810089,0.06994828581809998,-0.37527191638946533,0.44907695055007935,0.09669351577758789,0.10257306694984436,-0.04455205798149109
209,1.202001872021473,0.29037305825198567,0.8210008142666191,0.8937144875526428,-0.28630968928337097,-0.34540000557899475,0.2737647294998169,-0.16328208148479462,0.07017628103494644,-0.03958851099014282,-0.05623486638069153,-0.03239238262176514
210,1.1899475997300508,0.31026473572227403,0.8075543511313752,0.8840233087539673,-0.30531075596809387,-0.35396042466163635,0.007545625790953636,-0.006346339825540781,0.09041522443294525,0.0074713826179504395,0.01807934045791626,0.018724888563156128
211,1.1832951881388487,0.32011447896064826,0.8104139641677242,0.8788221478462219,-0.3146752119064331,-0.3586796820163727,-0.07110010832548141,-0.20175588130950928,0.1377735733985901,-0.0104445219039917,0.015251994132995605,0.03293508291244507
212,1.1758562161656865,0.3259594190059731,0.8212442866971262,0.8744170665740967,-0.3202178180217743,-0.36449334025382996,-0.0648949146270752,0.021105390042066574,0.06111300736665726,-0.0001494884490966797,0.0031249523162841797,0.013129234313964844
213,1.17688596548211,0.3256347691616305,0.8271588272736583,0.8748878240585327,-0.3199102580547333,-0.36363258957862854,0.06078236550092697,-0.0036704116500914097,-0.06432819366455078,-0.024546027183532715,0.012003183364868164,-0.022231638431549072
214,1.1708627505192968,0.3255473012706307,0.8275590869009194,0.8727075457572937,-0.3198273777961731,-0.36890649795532227,-0.07492953538894653,-0.08534228056669235,0.05109839886426926,0.007968723773956299,0.0017731785774230957,0.020319461822509766
215,1.1575056200582314,0.3285344540046773,0.8349156488962756,0.8668234944343567,-0.32265621423721313,-0.38014471530914307,-0.07415203750133514,-0.19619233906269073,0.09254007041454315,-0.010378241539001465,-0.0037750303745269775,-0.007657438516616821
216,1.1319931133903542,0.33600581967295823,0.8401571530840858,0.854637861251831,-0.3297189176082611,-0.4010980427265167,0.07661283016204834,-0.22791963815689087,0.07964629679918289,0.0027992725372314453,-0.006386429071426392,0.009923696517944336
217,1.1242244610645904,0.33913385780352956,0.8480689130812161,0.8505616784095764,-0.3326704204082489,-0.40727782249450684,0.005967499688267708,-0.13593867421150208,0.10370997339487076,0.003121793270111084,-0.005647450685501099,-0.043710947036743164
218,1.1235187026496165,0.3382070574542277,0.838493739192259,0.8505516052246094,-0.331796258687973,-0.40801116824150085,0.1044347882270813,0.03969132900238037,-0.13207724690437317,-0.01816946268081665,0.01261293888092041,-0.03299829363822937
219,1.1175420776172629,0.3350168567837935,0.8333914102738494,0.8490452766418457,-0.32878509163856506,-0.41354870796203613,0.030896250158548355,-0.05253623053431511,0.050417643040418625,0.003066539764404297,-0.017101168632507324,-0.004465818405151367
220,1.1261177425848,0.3381543430875331,0.8237413425481086,0.8516250252723694,-0.33174651861190796,-0.4058067202568054,0.17154766619205475,0.17149177193641663,-0.11386997252702713,-0.020051538944244385,-0.01626068353652954,-0.01725846529006958
221,1.1327128782780493,0.33723039791918863,0.8100778780930359,0.8545600175857544,-0.3308747708797455,-0.4003112018108368,0.007688018959015608,-0.1583869755268097,0.06564532965421677,0.015480875968933105,0.0034669041633605957,-6.413459777832031e-05
222,1.120810006768381,0.3408829680435463,0.8041388315179324,0.8486408591270447,-0.3343193829059601,-0.4099259376525879,0.15863482654094696,-0.16834600269794464,0.01329076662659645,-0.017906606197357178,-0.002823561429977417,-0.03315877914428711
223,1.1217041325056711,0.3409392291672699,0.7965780662372083,0.8489902019500732,-0.3343724012374878,-0.409158855676651,-0.012754103168845177,-0.010148726403713226,-0.024919873103499413,-0.014288604259490967,-0.03496658802032471,0.022165417671203613
224,1.1110519830914523,0.34381801637729315,0.7952839992499611,0.8437173962593079,-0.3370841145515442,-0.41775012016296387,0.011536287143826485,-0.10828306525945663,-0.0075921351090073586,-0.004896044731140137,0.024355262517929077,-0.031026095151901245
225,1.1172251948360026,0.3405726794325551,0.7866886181148136,0.847258985042572,-0.33402693271636963,-0.4130108952522278,0.07347382605075836,0.07763904333114624,-0.043126028031110764,0.012726247310638428,0.011273056268692017,0.02385076880455017
226,1.1141600532012268,0.34257601128703796,0.7839640758799455,0.8453868627548218,-0.3359145224094391,-0.4153100848197937,0.03288094699382782,-0.1031121239066124,0.07080863416194916,0.010478615760803223,0.003593355417251587,0.0016595721244812012
227,1.1143175706534658,0.34632046630765334,0.7839213584999681,0.8443173766136169,-0.3394390344619751,-0.4146195948123932,-0.008203113451600075,0.02907247096300125,0.05112365633249283,0.010052740573883057,0.007453560829162598,0.012886226177215576
228,1.113899070454199,0.3512023905912883,0.7842144724574214,0.8426465392112732,-0.344027042388916,-0.4142368733882904,0.06039906293153763,-0.05482343211770058,0.05949075147509575,-0.010737359523773193,0.003359377384185791,-0.0025874078273773193
229,1.1131402925254255,0.35845801455877285,0.7852607347646797,0.8400705456733704,-0.35083067417144775,-0.41376233100891113,0.0022447756491601467,0.16259709000587463,-0.024923406541347504,0.0023976564407348633,0.009232193231582642,-0.01139327883720398
230,1.120258404207789,0.35868019918298727,0.7847512828881319,0.8429242968559265,-0.35103872418403625,-0.40773820877075195,-0.06777679175138474,0.06255767494440079,0.036160096526145935,-0.006803691387176514,-0.034825533628463745,-0.0026468634605407715
231,1.1330834279075908,0.3521198551162071,0.7810478679003483,0.8501516580581665,-0.3448883593082428,-0.3978620767593384,-0.03545260429382324,0.15058723092079163,-0.1500154435634613,-0.016274094581604004,-0.0013183057308197021,0.01819288730621338
232,1.1401226725122866,0.34550407251609333,0.7831388642732984,0.8549858331680298,-0.3386709988117218,-0.3928118050098419,0.01141076534986496,0.0607462003827095,-0.018981780856847763,0.0015662908554077148,0.00981360673904419,-0.022273004055023193
233,1.145174722584421,0.34223231758816913,0.7831980894849128,0.8579641580581665,-0.33559077978134155,-0.3889428377151489,-0.05830316245555878,0.03812394663691521,-0.008039405569434166,-0.010597705841064453,-0.001887887716293335,0.025768399238586426
234,1.1414207195848656,0.3417053852382206,0.7900843425808696,0.8566585779190063,-0.3350943624973297,-0.3922344148159027,-0.014730770140886307,-0.04437203332781792,0.02232467383146286,0.0022433996200561523,0.0008811056613922119,-0.024483084678649902
235,1.1400100416532186,0.3419338723329767,0.7890840357766798,0.8560348153114319,-0.33530962467193604,-0.3934105336666107,-0.005192057229578495,0.022533055394887924,-0.04275399446487427,0.0007919073104858398,-0.0009940564632415771,0.0019768178462982178
236,1.138682841984326,0.33985429139235823,0.7906864075529925,0.8561432957649231,-0.33334973454475403,-0.39483746886253357,0.0021859905682504177,-0.05812668055295944,0.024619311094284058,-4.8995018005371094e-05,-0.003167569637298584,-0.006621271371841431
237,1.1370143097254504,0.34005510407715855,0.7897634986155337,0.8554225564002991,-0.33353903889656067,-0.3962372839450836,0.007560797035694122,0.033169034868478775,-0.04339631646871567,-0.0023189187049865723,-0.00046059489250183105,-0.0065795183181762695
238,1.1356810362370908,0.337583968131152,0.791651466350877,0.855638325214386,-0.33120840787887573,-0.39772364497184753,0.011768490076065063,-0.02050204575061798,0.0053914496675133705,-0.0027483105659484863,-0.013319820165634155,-0.0050778985023498535
239,1.1361214384037703,0.3382196125342357,0.7892921022852624,0.8556222915649414,-0.33180809020996094,-0.39725807309150696,0.024649890139698982,0.05337313562631607,-0.040731869637966156,-0.0032052993774414062,0.013067245483398438,-0.01224207878112793
240,1.131886362436548,0.33988795037898156,0.793123863464798,0.8534298539161682,-0.33338144421577454,-0.4006423056125641,0.016574937850236893,-0.10495030879974365,0.11533300578594208,0.013086199760437012,0.008857548236846924,0.003135591745376587
241,1.1197366436041163,0.3519782034807423,0.7928135854949903,0.8448098301887512,-0.3447554111480713,-0.40919435024261475,0.06487774848937988,-0.07211147993803024,0.0365586131811142,-0.003913223743438721,0.015608102083206177,-0.017273515462875366
242,1.1187756460769491,0.3547384371930984,0.7890786265236345,0.8435569405555725,-0.34734511375427246,-0.4095888137817383,0.024480048567056656,-0.024348463863134384,0.07345268875360489,-0.005803704261779785,-0.02332136034965515,0.03051474690437317
243,1.1154689930827266,0.36423295963568514,0.784214927607489,0.8391982316970825,-0.3562326729297638,-0.410907119512558,0.1200534775853157,0.004427020438015461,0.0020880429074168205,-0.0026503801345825195,0.007615119218826294,-0.03107893466949463
244,1.11759986630975,0.365560044589511,0.7822774018781737,0.8396461606025696,-0.35747238993644714,-0.4089106023311615,-0.02586165815591812,-0.038979385048151016,0.058518875390291214,-0.02006608247756958,-0.033106833696365356,0.021154284477233887
245,1.1152654291557422,0.36939252708774983,0.7802525289566317,0.8374528288841248,-0.36104899644851685,-0.41026386618614197,0.018933957442641258,0.0032852739095687866,-0.041744980961084366,-0.009556710720062256,0.014964401721954346,-0.021391987800598145
246,1.1189205068578865,0.36464127906796867,0.7793602221397702,0.8404805064201355,-0.3566141724586487,-0.40794461965560913,-0.02416575700044632,0.021941758692264557,-0.0030182558111846447,-0.0020711421966552734,-0.01663103699684143,0.02487275004386902
247,1.115880969971702,0.36595182462752945,0.7797131119839288,0.8388161659240723,-0.3578382432460785,-0.4102917015552521,0.02352149970829487,-0.012397697195410728,-0.03963327035307884,-0.009027957916259766,0.01604139804840088,-0.028398513793945312
248,1.1181975305137257,0.3599911535144897,0.7810464607715346,0.8416675925254822,-0.35226595401763916,-0.4092729091644287,-0.062225792557001114,0.0420379713177681,-0.007185038179159164,0.010520517826080322,-0.01499783992767334,0.02008223533630371
249,1.1215693222865946,0.35818896881446954,0.7837985389845348,0.84361332654953,-0.3505787253379822,-0.4067077040672302,-0.036753036081790924,-0.009473086334764957,-0.005785247310996056,-0.005264937877655029,0.015831410884857178,-0.008956968784332275
250,1.121466812171579,0.35452026505227313,0.7877675544674707,0.8447244763374329,-0.34714049100875854,-0.4073501229286194,-0.0578291192650795,0.0019627446308732033,0.03104221634566784,0.012529551982879639,-0.008724987506866455,0.033509790897369385
251,1.119119627969835,0.35780572236805064,0.7882580320321986,0.8427353501319885,-0.3502197563648224,-0.40883174538612366,0.04709121584892273,-0.007584584876894951,-0.015051471069455147,-0.0001755356788635254,0.024963438510894775,-0.01577460765838623
252,1.1184471646524188,0.35613261026538623,0.785699185862968,0.842985987663269,-0.3486521244049072,-0.40965384244918823,-0.016808241605758667,-0.05143019184470177,0.04187997803092003,0.008637487888336182,-0.012126654386520386,0.018448978662490845
253,1.1122812529464334,0.3630457304958772,0.78279164630683,0.8382627367973328,-0.3551230728626251,-0.4137670695781708,0.05457376688718796,-0.09149929136037827,0.03593350201845169,-0.0031339526176452637,0.016850978136062622,-0.009282827377319336
254,1.112836817975602,0.3641416144386925,0.7761357790593092,0.8381429314613342,-0.35614731907844543,-0.4131290018558502,0.041449736803770065,-0.012250566855072975,0.006091086193919182,0.0006937384605407715,-0.013176411390304565,0.028378605842590332
255,1.1058931627372628,0.37010766699040043,0.774136196990302,0.8333399295806885,-0.36171582341194153,-0.4179786443710327,0.06959562748670578,-0.10973390936851501,0.009502282366156578,-0.009533226490020752,0.009222537279129028,-0.01642376184463501
256,1.1032963280690782,0.3707617049662503,0.7733350159672832,0.8320404291152954,-0.3623254895210266,-0.42003464698791504,-0.04479142650961876,-0.008418693207204342,0.003214165335521102,-0.00940859317779541,-0.0026647448539733887,0.010442972183227539
257,1.098555438852637,0.374006346730846,0.7731687212166712,0.8289884328842163,-0.3653477430343628,-0.4234375059604645,0.04118460789322853,-0.06157709285616875,0.007340559735894203,-0.009347319602966309,0.026434779167175293,-0.006661951541900635
258,1.10138554887112,0.3708021018886735,0.7713093662379753,0.8312231302261353,-0.36236312985420227,-0.4216170608997345,-0.0003970181569457054,0.0975981205701828,-0.09279169142246246,-0.009720563888549805,-0.010485321283340454,0.004197627305984497
259,1.103104258759607,0.36688979514328657,0.775449924524818,0.8332056403160095,-0.35871395468711853,-0.42082372307777405,-0.01253226213157177,0.0040632328018546104,-0.014626754447817802,-0.024535655975341797,-0.012669652700424194,-0.025755196809768677
260,1.1200361429243264,0.3573840637496819,0.7742500149334239,0.8432425260543823,-0.34982478618621826,-0.4081234633922577,-0.11720401048660278,0.6899673342704773,-0.37450164556503296,0.012806117534637451,-0.020445019006729126,0.021099448204040527
261,1.2061240926079346,0.30308120953272055,0.7924493592261934,0.8916593194007874,-0.2984623908996582,-0.3403877913951874,-0.5999193787574768,0.7042895555496216,-0.3112068772315979,-0.060207903385162354,-0.01831004023551941,0.022028475999832153
262,1.2197443088629736,0.26366563530243653,0.8149393544800554,0.9065603017807007,-0.26062124967575073,-0.33200153708457947,0.04045715928077698,-0.09696613252162933,-0.1983807384967804,0.030268311500549316,-0.0028980374336242676,-0.08702003955841064
263,1.2384357951683478,0.22431025439887617,0.7922662305470175,0.9215935468673706,-0.22243395447731018,-0.3181013762950897,0.04101657494902611,0.1253839135169983,-0.3199896812438965,0.049231648445129395,-0.05535230040550232,0.001161038875579834
264,1.2454721486785452,0.21539023522558362,0.7863948428515541,0.925652265548706,-0.213728666305542,-0.31223064661026,0.02835787832736969,0.04842028394341469,-0.076363705098629,-0.00876694917678833,0.0491015762090683,-0.03583759069442749
265,1.2492798034267087,0.21352278275960768,0.7787068074629117,0.9272114634513855,-0.21190398931503296,-0.3088293969631195,0.11719489097595215,-0.071393221616745,-0.033191632479429245,-0.047343909740448,0.011098325252532959,0.02837282419204712
266,1.2506920896314921,0.2115313110896774,0.7605535139364178,0.9280453324317932,-0.2099573314189911,-0.3076517581939697,0.1852448433637619,0.10112105309963226,-0.18290738761425018,-0.013296246528625488,0.05616401135921478,0.0025370419025421143
267,1.2586578968377473,0.21224801689126185,0.7491615620797878,0.9303231835365295,-0.210657998919487,-0.3002031743526459,-0.003957072272896767,0.027462463825941086,0.04557095840573311,0.054036498069763184,-0.0012255311012268066,0.020875751972198486
268,1.257402144281482,0.21466297294857428,0.7465150322761048,0.9294589161872864,-0.21301814913749695,-0.30121350288391113,0.1689833402633667,-0.0766872763633728,-0.018719688057899475,-0.06707793474197388,-0.0029395073652267456,0.015401124954223633
269,1.2167102702522041,0.24030143718125818,0.768041089471192,0.9110125303268433,-0.23799541592597961,-0.33677032589912415,-0.3531315326690674,-0.9251490831375122,0.9276605844497681,-0.0009784102439880371,0.024021416902542114,0.07401403784751892
270,1.1297951400867792,0.2626172532390651,0.8260195932455214,0.8733189105987549,-0.2596089541912079,-0.4122101664543152,-0.46157097816467285,-0.1178833544254303,-0.08047454804182053,0.04098773002624512,0.0043447017669677734,0.08384105563163757
271,1.098926681902558,0.22637768652125273,0.8972048211544824,0.867993950843811,-0.22444911301136017,-0.4429548680782318,-0.9897415041923523,-0.20585012435913086,0.08818630129098892,-0.04787987470626831,0.08141323924064636,0.0055159032344818115
272,1.1035116314104578,0.1842497787760073,1.0086545732467895,0.8776832222938538,-0.18320906162261963,-0.4428391754627228,-1.0468170642852783,-0.01043486688286066,0.5260944366455078,-0.06602251529693604,-0.01649796962738037,0.02824258804321289
273,1.0688262344420767,0.18164241553922678,1.0733302571715795,0.862214207649231,-0.18064521253108978,-0.4732377529144287,0.3170962929725647,-0.25669944286346436,0.21654470264911652,0.029723048210144043,-0.2094762623310089,-0.3014051914215088
274,1.041460212483973,0.2073792051221536,1.0701646628779269,0.8446487188339233,-0.20589597523212433,-0.4941411018371582,-0.11784561723470688,-0.22461847960948944,-0.014157040044665337,-0.06141507625579834,-0.0027527213096618652,0.0598607063293457
275,1.031656091708892,0.20817961435792043,1.087720410293229,0.839621901512146,-0.20667916536331177,-0.502313494682312,-0.11544252187013626,0.014198367483913898,0.07538729906082153,-0.009589552879333496,0.14161568880081177,0.02744472026824951
276,1.060221547360523,0.18256570894774696,1.097083515660137,0.8579643368721008,-0.18155324459075928,-0.48055747151374817,-0.1195436492562294,0.3122771382331848,-0.21342623233795166,-0.03666013479232788,-0.046702995896339417,-0.06735506653785706
277,1.0690693042458834,0.16969747995967413,1.1010132354187065,0.8641595840454102,-0.16888418793678284,-0.4740321934223175,-0.1962096095085144,0.05354911834001541,-0.060904841870069504,0.042807698249816895,0.05065907537937164,0.0001246929168701172
278,1.0724173339441152,0.16732965262905108,1.119785502224683,0.8660905957221985,-0.1665498912334442,-0.4713261127471924,0.20874528586864471,0.20328585803508759,0.18278229236602783,0.09646439552307129,0.035537928342819214,-0.12390398979187012
279,1.1073492177075919,0.23073193068420103,1.0623243681915613,0.8708115220069885,-0.22869011759757996,-0.43518754839897156,0.9324292540550232,0.20856952667236328,0.5226380228996277,0.05374908447265625,0.09555715322494507,-0.02085191011428833
280,1.1437739009126886,0.3584313652022148,0.9910241151769782,0.8523579835891724,-0.35080572962760925,-0.38784170150756836,1.1622658967971802,0.2362600862979889,1.444912075996399,0.20071202516555786,0.25197458267211914,0.07702013850212097
281,1.2431835653700012,0.5853056703232262,0.9687656338246773,0.7892098426818848,-0.5524541735649109,-0.2682206332683563,1.235177755355835,1.4020671844482422,2.5610768795013428,0.07668066024780273,0.3750249743461609,0.16328591108322144
282,1.4844389921362329,0.9046122445954619,0.8478706531588412,0.615687370300293,-0.7861855626106262,-0.05330168828368187,0.9599277973175049,2.259470224380493,2.9558377265930176,-0.35041338205337524,0.34293311834335327,0.23996245861053467
283,1.926765882750316,1.1686050151103027,0.6495794881466989,0.3668961226940155,-0.9202054738998413,0.136415034532547,-0.4597921371459961,4.067654132843018,2.819624662399292,-0.3489365577697754,0.003488004207611084,-0.011994853615760803
284,2.108759473067569,1.2949346075035026,0.8105582631908651,0.23390458524227142,-0.9621908664703369,0.13956250250339508,-1.2146574258804321,1.5091028213500977,-0.8903260827064514,-0.32638806104660034,-0.3338603377342224,-0.1738642305135727
285,1.8081521180407099,1.1586014656190131,1.2351375212128848,0.38938915729522705,-0.9162437319755554,0.09419944882392883,-0.4763091802597046,-0.35147279500961304,-1.5998609066009521,0.48817431926727295,-1.1255195140838623,0.34504008293151855
286,1.721683398160575,0.9888109384945045,1.268840414640911,0.5434383749961853,-0.8353729844093323,0.08262582123279572,-0.588477611541748,-0.15115195512771606,-1.8932201862335205,-0.07551229000091553,0.3158111572265625,0.3722844123840332
287,1.4983612518299119,0.9630583455629941,1.4587174362270838,0.569514811038971,-0.8209417462348938,-0.041325148195028305,-1.0556483268737793,-1.1916511058807373,-0.08915194123983383,0.06879091262817383,0.008487403392791748,-0.051494065672159195
288,1.3904407278682869,0.9077031194422356,1.538751935078676,0.6055731773376465,-0.7880919575691223,-0.11041835695505142,0.32059693336486816,-0.6753093600273132,0.35321080684661865,0.01092761754989624,0.0015014410018920898,0.044515617191791534
289,1.3500659233521646,0.9007337413436083,1.5400141759853905,0.6059674024581909,-0.7837827801704407,-0.13597089052200317,0.26531434059143066,-0.14638397097587585,-0.31999218463897705,0.017933964729309082,-0.0015565156936645508,-0.08222979307174683
290,1.3666490158794562,0.9095235453173347,1.4961661544731397,0.6013690829277039,-0.7892112135887146,-0.12450230121612549,0.3512122929096222,0.14511017501354218,-0.041099075227975845,0.0002849102020263672,0.0073813796043396,0.005910992622375488
291,1.445973212335261,0.9046921686502714,1.41708000024357,0.6131200790405273,-0.786234974861145,-0.07693152129650116,0.4788696765899658,0.23978638648986816,-0.30349308252334595,-0.033530235290527344,0.04403221607208252,-0.005649089813232422
292,1.519957190159609,0.8437428686130596,1.3797552682024137,0.663812518119812,-0.747136116027832,-0.03377676010131836,-0.02903125062584877,0.46089327335357666,-0.6648654341697693,-0.013986408710479736,-0.00011736154556274414,0.01981496438384056
293,1.5116322430439826,0.8140049459099247,1.4133912938426396,0.6853908896446228,-0.7270427346229553,-0.04059790447354317,-0.6699146032333374,-0.11378093808889389,-0.05650492385029793,-0.012768208980560303,0.0455852746963501,0.06632423400878906
294,1.4709228772965686,0.8119308402432187,1.4533494774589255,0.6846696138381958,-0.7256171107292175,-0.0686085894703865,0.009111468680202961,-0.0954863652586937,0.03102591261267662,0.0017774701118469238,-0.0661461353302002,-0.030604057013988495
295,1.50199099454188,0.7839308477950347,1.4320241264111102,0.7064681649208069,-0.7060684561729431,-0.04868562892079353,0.2118222713470459,0.003243834711611271,-0.11894621700048447,0.0032486915588378906,-0.004426538944244385,-0.03557342290878296
296,1.5076463841205379,0.7806694894710681,1.4237248728166303,0.7090264558792114,-0.7037551999092102,-0.044834595173597336,0.0926685482263565,0.013624420389533043,0.02705095335841179,0.009754061698913574,-0.017131030559539795,-0.021617472171783447
297,1.501945667528764,0.8019071278568255,1.423269123245448,0.6936901807785034,-0.7186834812164307,-0.04783663526177406,0.006079649552702904,-0.04935898259282112,0.2705789804458618,0.009862124919891357,0.01819819211959839,-0.0025173500180244446
298,1.486156606898014,0.829799295489109,1.4363614489276684,0.672607421875,-0.737795889377594,-0.05706563964486122,-0.1110394299030304,-0.12226330488920212,0.3755728602409363,-0.0207061767578125,0.01747429370880127,0.0015693902969360352
299,1.4599060131435952,0.8425317852531498,1.4637917207045963,0.6614874601364136,-0.7463306188583374,-0.07365470379590988,-0.10378244519233704,-0.04351796209812164,0.06438633799552917,-0.02414315938949585,-0.019935250282287598,-0.027907781302928925
300,1.4388768251446302,0.8427635086169033,1.48244929145198,0.6596210598945618,-0.7464848160743713,-0.08752519637346268,-0.12178459018468857,-0.12409807741641998,-0.037865594029426575,-0.017821133136749268,-0.0013179183006286621,0.0007485151290893555
301,1.428747843429385,0.8371147051647243,1.4823942031242214,0.6628643870353699,-0.7427141666412354,-0.09479734301567078,0.05285230278968811,-0.027421217411756516,-0.19661901891231537,-0.017051398754119873,0.012077569961547852,-0.018026188015937805
302,1.4329222575474274,0.8262754784955079,1.4670242985744617,0.6711891293525696,-0.7354126572608948,-0.0931304320693016,0.09997016936540604,-0.04220086336135864,-0.12225832045078278,0.00413435697555542,0.01089489459991455,0.007376082241535187
303,1.4389015067976112,0.8200334632645275,1.4578717387562221,0.6762716770172119,-0.7311686873435974,-0.08971758186817169,-0.04297349601984024,0.008647669106721878,0.0028996188193559647,0.0009744763374328613,0.014203846454620361,0.014674894511699677
304,1.4408896490444423,0.8210257732402918,1.45833698473411,0.6757286190986633,-0.7318452596664429,-0.08827881515026093,0.04505229741334915,0.04777359962463379,-0.0010794838890433311,-0.0039452314376831055,0.014651715755462646,0.009818144142627716
305,1.44307592092537,0.8243442909766465,1.4562519758757364,0.6735076308250427,-0.7341026663780212,-0.08649147301912308,-0.05879721790552139,0.002103341743350029,0.0506477877497673,-0.01162707805633545,-0.0028510689735412598,0.0063980817794799805
306,1.4341539985328604,0.8243651664627268,1.4680433491522316,0.6726937890052795,-0.7341168522834778,-0.09249482303857803,-0.10590982437133789,-0.07138342410326004,0.038900330662727356,-0.007822632789611816,0.0028699636459350586,0.012798137962818146
307,1.4152966615156475,0.8211092735640523,1.4866326934646048,0.6731879711151123,-0.7319021224975586,-0.10553247481584549,-0.13444632291793823,-0.05693367123603821,-0.045332953333854675,0.0008080005645751953,-0.006241738796234131,-0.0010806918144226074
308,1.4035179204022308,0.8204240228474651,1.4975602685240934,0.6723928451538086,-0.7314350605010986,-0.11353779584169388,0.016921168193221092,7.810164242982864e-05,0.004670029506087303,0.006150245666503906,-0.012888729572296143,-0.02672100067138672
309,1.3922041718369806,0.8242326115429646,1.508211229723564,0.6683189868927002,-0.7340268492698669,-0.12064189463853836,-0.1758311539888382,-0.046785868704319,0.07101951539516449,-0.004241228103637695,0.014101922512054443,0.022085368633270264
310,1.3767563671387901,0.8235428938339644,1.525608366332395,0.6668722629547119,-0.7335582971572876,-0.13104873895645142,-0.06120063737034798,-0.03346293047070503,0.006774710491299629,-0.007311105728149414,-0.0006335973739624023,-0.019174039363861084
311,1.3672075768660128,0.8215980381102364,1.5329612351876434,0.666986346244812,-0.7322351336479187,-0.13769865036010742,-0.14635124802589417,-0.02054893597960472,-0.05712131783366203,-0.005685746669769287,0.016048669815063477,0.033664241433143616
312,1.3427007436590412,0.8171163071887265,1.5562269912369406,0.6666020154953003,-0.7291754484176636,-0.15474195778369904,-0.13401880860328674,-0.10453329980373383,0.052978623658418655,0.005273044109344482,-0.013591885566711426,-0.017041519284248352
313,1.3303143472053915,0.8235168162282331,1.56529847175376,0.6600877046585083,-0.7335405349731445,-0.16187173128128052,-0.01547640934586525,-0.032916635274887085,0.05819398909807205,-0.003807246685028076,0.009892523288726807,-0.005822345614433289
314,1.307768628010108,0.8281667731737424,1.5743182349899287,0.652970016002655,-0.7366929054260254,-0.17582270503044128,-0.06880146265029907,-0.22788262367248535,0.06944796442985535,-0.01229923963546753,0.025724947452545166,0.00646539032459259
315,1.3044745809063603,0.819449787303145,1.5752579869308532,0.658557653427124,-0.7307703495025635,-0.17965593934059143,-0.0004915166646242142,0.03181307017803192,-0.11647012084722519,-0.014056980609893799,-0.001117408275604248,-0.017197713255882263
316,1.297340281498827,0.8124519676824353,1.5812110666704535,0.6621670722961426,-0.7259756326675415,-0.18572625517845154,-0.04281146824359894,-0.05037962645292282,-0.05967167764902115,-0.002590656280517578,-0.003165602684020996,-0.01922982931137085
317,1.2974255308951053,0.808730110934266,1.5785207661713718,0.6647799015045166,-0.7234110236167908,-0.186397984623909,0.010449477471411228,-0.0348539724946022,-0.031341660767793655,-0.0063021183013916016,0.013007581233978271,0.008449971675872803
318,1.2930842477073266,0.8039968899858364,1.581873338790852,0.667249858379364,-0.7201350331306458,-0.19021882116794586,-0.032548971474170685,0.047671958804130554,-0.08557834476232529,-0.007764995098114014,-0.003619849681854248,-0.013074040412902832
319,1.3066426379271454,0.7989223085407033,1.5684507804371732,0.6732863783836365,-0.7166048288345337,-0.18210653960704803,0.06455338001251221,0.04014282301068306,-0.08141922205686569,-0.00556182861328125,0.026495635509490967,0.021553590893745422
320,1.292712538555076,0.7928841202053177,1.5846209945225884,0.6748331189155579,-0.7123802900314331,-0.1926518976688385,-0.34970155358314514,0.009961454197764397,-0.019011499360203743,-0.002729177474975586,0.00463181734085083,0.022714704275131226
321,1.2764370354381436,0.7782880904177931,1.6183513499235134,0.6814869046211243,-0.7020613551139832,-0.2066039890050888,-0.03536035865545273,0.012698855251073837,-0.1058565154671669,-0.024855494499206543,0.001042187213897705,-0.03852841258049011
322,1.2673626238236182,0.7571088767116162,1.6265315411627441,0.6936207413673401,-0.6868229508399963,-0.21717441082000732,-0.09968876838684082,-0.14160962402820587,-0.23003776371479034,-0.017152786254882812,0.014001905918121338,-0.012455105781555176
323,1.2633277771061064,0.7343638665626628,1.6211172770023277,0.7074474692344666,-0.6701151132583618,-0.2246418446302414,0.0859035849571228,-0.0421193391084671,-0.19116123020648956,0.022822976112365723,-0.0013021230697631836,-0.03220939636230469
324,1.2676417204218031,0.7291093935492786,1.6095363760054109,0.7117605805397034,-0.6662057042121887,-0.2226359248161316,0.05615031719207764,-0.04393473267555237,-0.010274603962898254,0.01005643606185913,0.01583045721054077,-0.014668747782707214
325,1.2796549588892983,0.7285357853632662,1.5892824595013093,0.7147496342658997,-0.6657778024673462,-0.2141791731119156,0.3316575884819031,0.03283281624317169,-0.09227941185235977,-0.015653014183044434,-0.04314547777175903,-0.04970631003379822
326,1.3194258438668411,0.7403708673492712,1.52583049543265,0.715018093585968,-0.6745617389678955,-0.18361826241016388,0.2793761193752289,0.17313311994075775,-0.23630984127521515,-0.021078824996948242,0.05758786201477051,0.051004111766815186
327,1.3266706999753792,0.7341679001203513,1.5153089348008564,0.7203758358955383,-0.6699696183204651,-0.1794411838054657,-0.14399412274360657,-0.026363886892795563,0.03305691108107567,0.019431233406066895,0.0029317736625671387,0.033429816365242004
328,1.3280550344329156,0.7461091411637285,1.514844976281324,0.7128066420555115,-0.6787866950035095,-0.1765081286430359,0.09610603004693985,-0.02686626836657524,0.20000842213630676,0.0032271742820739746,0.021483898162841797,-0.0062616318464279175
329,1.3428098061556277,0.763062388404977,1.5016916117478554,0.7040212750434875,-0.691137969493866,-0.16334737837314606,0.3408082127571106,0.08636128902435303,0.2621130347251892,-0.005779147148132324,-0.005608916282653809,-0.03680217266082764
330,1.3848096036361441,0.7851344389103171,1.4594467394338737,0.6950954794883728,-0.7069202661514282,-0.1307900846004486,0.19259195029735565,0.13396486639976501,-0.0028046355582773685,-0.028484761714935303,0.03477060794830322,0.037635207176208496
331,1.39020178294377,0.7918465059022458,1.452074616250462,0.6911072134971619,-0.7116517424583435,-0.12618499994277954,-0.0034762639552354813,-0.06181386485695839,0.09676609933376312,-0.004339694976806641,-0.008563101291656494,0.011911943554878235
332,1.4020911489698553,0.7931463829093999,1.4446995554903699,0.6916460990905762,-0.7125643491744995,-0.11780403554439545,0.022068407386541367,0.05422716960310936,-0.0034086406230926514,-0.008052408695220947,0.004113972187042236,0.01152658462524414
333,1.4117279209823705,0.7993567713127671,1.4390918506835702,0.6883664727210999,-0.716907799243927,-0.11043033003807068,0.10688253492116928,0.12541581690311432,0.1872057169675827,0.04156816005706787,-0.023036658763885498,-0.02027648687362671
334,1.4312272691162624,0.8136018594179089,1.4338911986693883,0.6802061200141907,-0.7267659306526184,-0.09555700421333313,-0.0844530463218689,0.12887723743915558,0.06864002346992493,-0.0269162654876709,0.008824646472930908,0.037726208567619324
335,1.4366880348664357,0.8180018068122569,1.435744819315062,0.6775421500205994,-0.7297811508178711,-0.09141269326210022,0.06584492325782776,0.04481586441397667,-0.0021834480576217175,-0.02513730525970459,-0.0029459595680236816,-0.0068538859486579895
336,1.444619625306944,0.8235496689321596,1.429525006279726,0.6742189526557922,-0.7335628867149353,-0.08552507311105728,0.07773633301258087,0.04726594686508179,0.18755179643630981,0.04360032081604004,0.013744711875915527,0.004211001098155975
337,1.4648579583534649,0.8445942989402015,1.4295290516178656,0.6603120565414429,-0.7477017641067505,-0.07021525502204895,0.14236710965633392,0.310709148645401,0.30935361981391907,0.02874433994293213,-0.008874773979187012,-0.04567527770996094
338,1.5026795567378708,0.8873456955737304,1.408711896473149,0.6300080418586731,-0.7753983736038208,-0.042980607599020004,0.1229756623506546,0.25505611300468445,0.47734495997428894,0.012860000133514404,0.06934362649917603,0.0372127890586853
339,1.5265149200281043,0.9372718838009995,1.4110906422235576,0.5914086699485779,-0.8059461116790771,-0.02620553784072399,0.0973460003733635,0.1744346171617508,0.5211915373802185,-0.01957029104232788,0.0033032894134521484,-0.02240896224975586
340,1.5489575360978893,0.9850224478708749,1.4009041092258516,0.5527123808860779,-0.8332844972610474,-0.01207248866558075,0.03986033797264099,0.10305098444223404,0.5034375786781311,-0.0034570693969726562,0.003710031509399414,0.018664302304387093
341,1.5534495003913682,1.0300725387452372,1.403491839172799,0.5146791934967041,-0.8573363423347473,-0.00892894621938467,-0.07363872975111008,0.0787513479590416,0.3379843235015869,-0.0243074893951416,0.008566200733184814,-0.008954346179962158
342,1.5681679972067166,1.0669226356577826,1.396438068444563,0.48281997442245483,-0.8757188320159912,-0.0012690129224210978,0.16215285658836365,0.08180257678031921,0.2821437418460846,-0.01858651638031006,0.01335299015045166,0.03776806592941284
343,1.5661501208824897,1.0853327182900185,1.4029690632041893,0.46661368012428284,-0.8844587206840515,-0.0021679988130927086,-0.02544274553656578,0.012360634282231331,0.19776302576065063,-0.0049284398555755615,-0.016069352626800537,-0.025679349899291992
344,1.5800423089911055,1.1038495495202674,1.393248353843475,0.4501427710056305,-0.8929468989372253,0.004162130411714315,-0.0006673280149698257,0.1036236435174942,0.09899690002202988,-0.021889567375183105,0.016894042491912842,0.023334145545959473
345,1.5713838589439668,1.1132936245729759,1.4034757806465032,0.44170862436294556,-0.8971583843231201,0.0002595180703792721,-0.08759169280529022,-0.06300202757120132,0.05835647135972977,-0.029004216194152832,0.002596735954284668,0.01043689250946045
346,1.5690359232464213,1.1141030720261982,1.4048533159685765,0.4409821629524231,-0.897515594959259,-0.000776307366322726,0.0434437058866024,0.008515936322510242,-0.009704222902655602,-0.0001862049102783203,-0.005560636520385742,-0.011262893676757812
347,1.5683316992794045,1.1182048941042522,1.4056298654745378,0.43729618191719055,-0.8993169069290161,-0.0010777743300423026,-0.03317592293024063,0.010052889585494995,0.06441178172826767,0.0027978122234344482,0.005975902080535889,0.0023289918899536133
348,1.5612641239796543,1.1238964038037464,1.4126840394890303,0.4321524202823639,-0.9017912149429321,-0.004119489341974258,-0.0457581952214241,0.013395999558269978,-0.025302065536379814,-0.02048557996749878,0.001339554786682129,-0.0019229650497436523
349,1.5593237988663307,1.1259394301269532,1.413321751744143,0.4303003251552582,-0.9026722311973572,-0.004936849232763052,-0.03179052099585533,-0.010801603086292744,-0.033708881586790085,-0.021410584449768066,0.023048877716064453,0.0006186366081237793
350,1.5509183956460029,1.1209630216211082,1.4199382299507235,0.43472954630851746,-0.900519609451294,-0.008642662316560745,-0.014797111973166466,-0.03885086625814438,-0.035062335431575775,-0.005560874938964844,0.004477739334106445,0.006552219390869141
351,1.5429305557342936,1.1182342822814668,1.425624235378481,0.4371015429496765,-0.8993297219276428,-0.012183325365185738,-0.06314608454704285,-0.038316573947668076,-0.006009345408529043,-0.0028058886528015137,0.005729258060455322,0.008597493171691895
352,1.5410822441733447,1.1208538379113457,1.426258676667079,0.43472185730934143,-0.900472104549408,-0.012921163812279701,0.036004722118377686,0.029775332659482956,0.057508684694767,0.005784094333648682,0.006017148494720459,-0.003268420696258545
353,1.537477178387062,1.1275019342304737,1.431329833013126,0.42867985367774963,-0.9033435583114624,-0.01428853627294302,-0.07013604789972305,-0.014525025151669979,0.09437917917966843,-0.013518691062927246,0.010765314102172852,0.0010286550968885422
354,1.5423852764403827,1.1329939058660339,1.427387484522978,0.4237794280052185,-0.9056854844093323,-0.012043259106576443,0.042340237647295,-0.00760675361379981,0.05771425738930702,-0.01580512523651123,0.0048828125,0.006275413557887077
355,1.5402107494232677,1.1354129434027402,1.4284539592154784,0.42156076431274414,-0.9067084193229675,-0.012897701933979988,-0.07111825048923492,-0.03275240212678909,0.020964033901691437,-0.006643801927566528,0.009339094161987305,0.014911890961229801
356,1.5344591041535338,1.1354212784260704,1.4332470614504467,0.4214724004268646,-0.9067119359970093,-0.015321881510317326,-0.006741495802998543,-0.024964099749922752,0.01973683200776577,-0.007242023944854736,0.009006679058074951,0.006090281531214714
357,1.530394222498887,1.1331075885697977,1.4386017906933675,0.4235013425350189,-0.9057337045669556,-0.01711966097354889,0.02866801805794239,-0.003481761086732149,0.0036024509463459253,0.0014101862907409668,-0.005231261253356934,-0.011551618576049805
358,1.5312526264931683,1.1332664375374881,1.4370310260770098,0.4233720600605011,-0.905800998210907,-0.016750430688261986,-0.004485493525862694,0.0190211720764637,-0.030282381922006607,-0.004884541034698486,0.011574983596801758,0.0035057663917541504
359,1.5270132071074982,1.1339132548288988,1.440924807470937,0.42271173000335693,-0.9060748815536499,-0.01851947233080864,-0.01573050022125244,-0.0003974437713623047,-0.02969716675579548,-0.012433469295501709,0.016914844512939453,-0.0026444178074598312
360,1.521858098784708,1.124418742675579,1.4503620543185702,0.4311838746070862,-0.902016818523407,-0.02111823670566082,-0.06271083652973175,0.23279081284999847,-0.36058199405670166,-0.027070164680480957,0.010491669178009033,-0.007247863337397575
361,1.5222688195489342,1.0640194099279257,1.4809370717779011,0.4847903847694397,-0.8743134140968323,-0.023544153198599815,-0.14677469432353973,-0.17383356392383575,-0.4069352447986603,-0.032825082540512085,-0.048644959926605225,-0.012512383982539177
362,1.4915043059116757,1.0433768139561326,1.4880341058445081,0.5017240643501282,-0.8641087412834167,-0.03986630216240883,0.07022062689065933,-0.08182971924543381,-0.33055660128593445,0.003997981548309326,0.010760843753814697,-0.03072083368897438
363,1.487630248359805,1.0181277318788204,1.4808034627883895,0.5231457948684692,-0.8511266708374023,-0.04360857233405113,-0.05250440910458565,-0.1501195877790451,-0.19976837933063507,0.005494892597198486,0.021933674812316895,0.015379849821329117
364,1.4667006311236097,0.9973072447383058,1.4951463715162983,0.5396295189857483,-0.8400130271911621,-0.05637688934803009,-0.08921121805906296,-0.06540345400571823,-0.17777585983276367,-0.005724430084228516,0.0015424489974975586,-0.0164991095662117
365,1.4478331684933998,0.974233047707844,1.5105544033893537,0.5575609803199768,-0.8272712826728821,-0.06890709698200226,-0.14945697784423828,-0.11308788508176804,-0.2214871197938919,-0.007329046726226807,-4.506111145019531e-05,0.013365089893341064
366,1.3974398374229982,0.9514545877254612,1.5559942309626884,0.5717983841896057,-0.8142607808113098,-0.10013002902269363,-0.3218604028224945,-0.09844136238098145,-0.16594117879867554,0.0002840757369995117,0.0068877339363098145,-0.011991553008556366
367,1.353812329663834,0.9322438200567292,1.5996925279478384,0.582057535648346,-0.8029593825340271,-0.12831732630729675,-0.20707249641418457,-0.10753914713859558,-0.07905428856611252,0.008945882320404053,-0.0008279085159301758,-0.0019316673278808594
368,1.3234348461068286,0.9290141408805046,1.6191319324311249,0.5804028511047363,-0.801030158996582,-0.14657101035118103,-0.09253592044115067,-0.03811543807387352,-0.05576176568865776,0.008830487728118896,0.0034990906715393066,-0.0003863424062728882
369,1.325726372983486,0.9307553478988108,1.6109079395990822,0.5793831944465637,-0.8020712733268738,-0.14490200579166412,0.1319722682237625,-0.012252280488610268,0.0472366064786911,0.0037465691566467285,-0.009864091873168945,-0.009410127997398376
370,1.3325582246450673,0.9302849908416213,1.600916364999835,0.5807264447212219,-0.8017902970314026,-0.1410294771194458,-0.10284030437469482,-0.002987788524478674,-0.0815039798617363,-0.021797001361846924,0.028306961059570312,0.0328599214553833
371,1.3135626484350016,0.8919669633900345,1.6380295116605292,0.607223391532898,-0.7783082723617554,-0.15973716974258423,-0.4991490840911865,0.1994912326335907,-0.6169590950012207,-0.03773486614227295,0.02135026454925537,0.04265642166137695
372,1.2942896249839095,0.867002832238172,1.6505849138485658,0.6225337982177734,-0.7623928785324097,-0.17666012048721313,0.030123144388198853,-0.040782127529382706,-0.1664797067642212,0.0053195953369140625,0.002642512321472168,-0.03299558162689209
373,1.3014948258368462,0.8536528949525278,1.637944844480554,0.6335457563400269,-0.753686249256134,-0.17486260831356049,-0.06281021982431412,-0.048438459634780884,0.006834817118942738,0.028502583503723145,0.015206634998321533,0.03841853141784668
374,1.2996423658831806,0.8601065432190744,1.640970534406883,0.6285213232040405,-0.7579120993614197,-0.17472948133945465,0.016652897000312805,0.02629243955016136,0.20094573497772217,0.015857338905334473,-0.007331430912017822,-0.002852320671081543
375,1.3038988291219924,0.8797788200529219,1.6403206133336807,0.6147564649581909,-0.7705979347229004,-0.16808724403381348,0.08282226324081421,0.050259850919246674,0.26672235131263733,0.005772709846496582,0.0031723976135253906,0.0040705204010009766
376,1.3118162074571018,0.9001037764460879,1.6404938180216486,0.6008016467094421,-0.7833914160728455,-0.1591702550649643,0.10212179273366928,0.006640227511525154,0.26912325620651245,-0.007036447525024414,-0.0029244422912597656,-0.015771731734275818
377,1.3185151145722231,0.9268005594072121,1.6359190554001517,0.5813902616500854,-0.7997031211853027,-0.14986687898635864,0.14516516029834747,0.034960538148880005,0.3036346435546875,0.008667051792144775,-0.006388068199157715,-0.010457202792167664
378,1.3299939232924542,0.9680264080179816,1.6254645405418906,0.5505690574645996,-0.8237684369087219,-0.13520176708698273,0.16432738304138184,-0.01849781721830368,0.43563151359558105,0.004606783390045166,0.010825812816619873,-0.004996016621589661
379,1.340385302086789,0.9997884268425173,1.6199143060475476,0.5261967778205872,-0.841356635093689,-0.12343364953994751,0.09455062448978424,0.02738773822784424,0.28178322315216064,-0.01838439702987671,-0.01312023401260376,-0.0026345178484916687
380,1.3505883328017807,1.018506418470583,1.6127144909210605,0.5119690895080566,-0.8513253927230835,-0.11459804326295853,0.0401311069726944,0.009627963416278362,0.10676581412553787,-0.03003549575805664,0.007453322410583496,0.01276087760925293
381,1.3510041776803674,1.0357527580306036,1.6022761668969032,0.4976121783256531,-0.8602464199066162,-0.11116714775562286,0.22073647379875183,-0.19582834839820862,0.24732060730457306,0.0018537044525146484,-0.0028211474418640137,-0.02446816861629486
382,1.4067632732202224,1.1098989126419068,1.4944014183669185,0.4387820363044739,-0.8956537246704102,-0.07262731343507767,0.8706086874008179,-0.309408962726593,0.9636141657829285,0.06764191389083862,-0.027594566345214844,-0.01199793815612793
383,1.5527291542428379,1.1786395249704398,1.3356564758120633,0.3821197748184204,-0.9240869283676147,-0.0069045755080878735,0.3060491979122162,0.29549703001976013,0.29141226410865784,-0.03658458590507507,0.08583015203475952,0.07646942138671875
384,1.5815216111800598,1.2138078580883893,1.3208064109003816,0.34943416714668274,-0.9369534850120544,0.0037479244638234377,-0.007827057503163815,-0.05628401041030884,0.527931809425354,-0.01342037320137024,-0.006253302097320557,0.009450912475585938
385,1.5569325732145214,1.2456076450668478,1.3496524177266487,0.31945717334747314,-0.9475904703140259,-0.004429159220308065,-0.07523134350776672,0.13283272087574005,0.04379582777619362,-0.03886324167251587,0.019886493682861328,-0.008617103099822998
386,1.536353998667551,1.2522260888039407,1.380503536403332,0.3130238652229309,-0.949684202671051,-0.010785535909235477,-0.1906212866306305,0.08248023688793182,0.00832231156527996,-0.02280166745185852,0.019721925258636475,0.02895873785018921
387,1.499598839254344,1.2558601011706814,1.4164357799420515,0.30897074937820435,-0.9508161544799805,-0.022035187110304832,-0.14065909385681152,0.015918482095003128,-0.07774755358695984,-0.018412917852401733,0.00788414478302002,0.006425442174077034
388,1.487296788088184,1.254811630731241,1.4274536042740964,0.3096703588962555,-0.9504908323287964,-0.025917593389749527,-0.05079841986298561,-0.03950938209891319,0.06700564175844193,0.012427479028701782,0.010701954364776611,0.02364402636885643
389,1.4574996412128176,1.2595944948484705,1.4581931416577687,0.30424004793167114,-0.9519662261009216,-0.03461763635277748,-0.09904889762401581,-0.03598245978355408,0.13765425980091095,-0.0031688809394836426,0.004593789577484131,-0.0013473033905029297
390,1.4241098336034284,1.2678253776063793,1.4937375526638568,0.2951534688472748,-0.9544543027877808,-0.043608248233795166,0.0017374064773321152,-0.023592710494995117,0.08399970084428787,-0.010744869709014893,0.010514974594116211,-0.009995881468057632
391,1.4000647210548363,1.2741120465501785,1.5198013357312419,0.2881002426147461,-0.9563111066818237,-0.04967138543725014,-0.10020437091588974,0.025834428146481514,0.010423889383673668,-0.014952659606933594,0.015255868434906006,0.004139188677072525
392,1.3831317690331288,1.277105501258815,1.5419185811357008,0.28440433740615845,-0.9571819305419922,-0.054008129984140396,-0.03722277283668518,0.071923166513443,-0.0643029510974884,-0.010844826698303223,0.022398054599761963,0.007362011820077896
393,1.3847796037165556,1.2738757568948629,1.5463316770069273,0.2875300347805023,-0.9562419652938843,-0.05411095917224884,-0.04181923344731331,-0.02934950776398182,0.029993969947099686,-0.0023279786109924316,-0.009730994701385498,-0.0072446539998054504
394,1.383598029957301,1.274158334911641,1.5479710942560005,0.28719982504844666,-0.9563246369361877,-0.054400261491537094,0.034415990114212036,0.0378970168530941,-0.020158659666776657,0.001008152961730957,0.01723778247833252,-0.002530273050069809
395,1.3656940255570007,1.2760872180475822,1.5660822992749648,0.28437307476997375,-0.9568866491317749,-0.05915743485093117,-0.1047963798046112,-0.03331713378429413,0.014126095920801163,-0.016428768634796143,0.019432544708251953,-0.005249913781881332
396,1.3556249143765986,1.2734996566351107,1.5777169574476495,0.28618162870407104,-0.9561318755149841,-0.06254637241363525,0.1088588684797287,0.030789708718657494,-0.002243034541606903,0.0008209049701690674,-0.006056845188140869,-0.029006361961364746
397,1.3658058632840855,1.274483872917335,1.5699017592644988,0.2858818471431732,-0.9564197063446045,-0.05943794548511505,-0.027366865426301956,0.016691040247678757,-0.02039184793829918,-0.010582774877548218,0.019423246383666992,0.0002186298370361328
398,1.3629523368962282,1.2761204856889259,1.5724976633701813,0.28417935967445374,-0.9568963646888733,-0.05993045121431351,-0.040772128850221634,0.012447692453861237,-0.012536142021417618,-0.014922767877578735,0.005419254302978516,0.00486147403717041
399,1.3692648507841523,1.2750387117137971,1.5654635104072336,0.2855658233165741,-0.9565815925598145,-0.05834250524640083,0.03426478058099747,-0.01778881438076496,-0.028498295694589615,-0.008344113826751709,0.017784595489501953,0.003593921661376953
400,1.3705195187028836,1.2721576541649244,1.561397152290951,0.28833863139152527,-0.9557378888130188,-0.0585322342813015,-0.014715953730046749,-0.0030724992975592613,-0.05215264856815338,-0.0051355063915252686,0.007037937641143799,0.004210948944091797
401,1.3708854772410786,1.2715318060283893,1.5597331935494987,0.28894633054733276,-0.9555535912513733,-0.05854550376534462,-0.012165747582912445,0.005286434665322304,-0.005821774713695049,0.000757068395614624,0.01910632848739624,0.002332143485546112
402,1.3704155718210487,1.271169080479779,1.5602186350872425,0.28925830125808716,-0.9554466009140015,-0.05875023081898689,0.01174889411777258,0.020587563514709473,0.009181983768939972,0.0008570849895477295,0.010545969009399414,0.0045662447810173035
403,1.368523499957117,1.2740379286767773,1.5626241131060312,0.28646013140678406,-0.9562894105911255,-0.05874648690223694,-0.02116495743393898,-0.033629972487688065,0.06001665070652962,-0.007178515195846558,0.013403058052062988,0.007293820381164551
404,1.3453903151828275,1.2785216536311843,1.5802984006260332,0.2808428704738617,-0.9575909376144409,-0.06439802795648575,0.010872158221900463,-0.01990465447306633,0.027698364108800888,-0.009862005710601807,0.007944822311401367,-0.009546048939228058
405,1.3482362364619915,1.27981993060726,1.5768765821656932,0.27981165051460266,-0.9579642415046692,-0.06332392245531082,-0.007965446449816227,-0.0034282105043530464,0.007690299768000841,-0.003429234027862549,0.016451239585876465,-0.003662101924419403
406,1.3437517121685925,1.2830479495309428,1.5809620241148876,0.2765108048915863,-0.9588853120803833,-0.0638817623257637,0.044375911355018616,0.021544698625802994,0.03161371499300003,-0.002478182315826416,0.006919980049133301,-0.009207844734191895
407,1.3458502300339628,1.2869251065289669,1.5793244060920657,0.2730185091495514,-0.9599784016609192,-0.062471725046634674,-0.0371224619448185,-0.011245207861065865,0.03750240057706833,-0.008919358253479004,0.012026011943817139,0.005449645221233368
408,1.3479015434091828,1.2867011347276296,1.5783843115350091,0.27335572242736816,-0.9599156379699707,-0.06195906177163124,0.028979860246181488,0.01826581172645092,-0.02132469415664673,-0.008096903562545776,0.004135489463806152,-0.00014419108629226685
409,1.343050645296879,1.28521839633959,1.5829721566258983,0.274437814950943,-0.9594990015029907,-0.06360554695129395,-0.06649234145879745,-0.012560343369841576,-0.023289265111088753,0.0014258325099945068,0.005809426307678223,0.008780717849731445
410,1.3431995893194577,1.2845063275824222,1.582974940734996,0.2751128077507019,-0.9592981338500977,-0.06371881067752838,0.04816136509180069,0.007079980336129665,0.010928953066468239,0.0034058988094329834,-0.002295553684234619,-0.014741845428943634
411,1.3396375447834532,1.2851417890265235,1.5874170643046464,0.2742903232574463,-0.959477424621582,-0.06455861777067184,-0.061824068427085876,-0.005584060680121183,0.004959863610565662,-0.004545480012893677,0.007832586765289307,0.005873329937458038
412,1.339004982286352,1.2854093521463879,1.587839202918904,0.273999959230423,-0.9595527648925781,-0.06467322260141373,0.025447700172662735,0.029439568519592285,-0.04993685334920883,-0.011838704347610474,0.002262115478515625,-0.011101901531219482
413,1.3417137804688195,1.284518728794615,1.585635570315408,0.2750059962272644,-0.9593016505241394,-0.06412474811077118,-0.06282424926757812,0.012661299668252468,-0.008050150237977505,0.003146439790725708,0.02084040641784668,0.02196473628282547
414,1.3391782671515393,1.2849665590556951,1.5885953301496423,0.27442440390586853,-0.9594280123710632,-0.06472320854663849,0.02901427634060383,0.006252140738070011,-0.013545946218073368,-0.010676264762878418,0.010422945022583008,-0.010258488357067108
415,1.3342016643200179,1.2838207206708014,1.594132086971981,0.27516746520996094,-0.9591042995452881,-0.06634574383497238,-0.04024139791727066,-0.016405191272497177,0.001903377939015627,-0.0059871673583984375,0.01963597536087036,0.013901293277740479
416,1.3261262330500803,1.279219452322484,1.6024415056734924,0.2789015769958496,-0.9577917456626892,-0.06963396072387695,-0.002664037048816681,0.015576336532831192,-0.07092877477407455,-0.010804623365402222,0.010297298431396484,-0.012076854705810547
417,1.3258538936843187,1.2731716237248527,1.6045832410252145,0.2844969928264618,-0.9560357332229614,-0.07111329585313797,-0.05898645520210266,0.007280404679477215,-0.018562816083431244,0.0020782947540283203,0.0263788104057312,0.01563233882188797
418,1.2979962395302804,1.270153035550251,1.632383073753178,0.2851838767528534,-0.9551461935043335,-0.07978732883930206,-0.04257648065686226,-0.0046373941004276276,-0.035851772874593735,-0.013943612575531006,-0.004936873912811279,-0.02334684133529663
419,1.291409083134122,1.2697863090521395,1.6369084694572344,0.28498905897140503,-0.955037534236908,-0.08176080137491226,-0.052724115550518036,-0.0566425696015358,0.03197016194462776,0.0038140714168548584,0.015004515647888184,0.012592673301696777
420,1.2483337336547249,1.27855585584599,1.6734279072137723,0.2732493579387665,-0.9576008319854736,-0.09129934757947922,-0.008536173030734062,-0.10350587964057922,0.16809839010238647,0.0015766918659210205,0.007115542888641357,-0.039788901805877686
421,1.2305122183512278,1.2838732886030442,1.691747800719584,0.2667752206325531,-0.9591192007064819,-0.09445352107286453,-0.0757046639919281,0.034869737923145294,0.037974994629621506,-0.0009518563747406006,0.011929869651794434,0.0075089335441589355
422,1.1724463997486003,1.2909532429037112,1.749359319164353,0.25457897782325745,-0.9610987901687622,-0.107139453291893,-0.16233685612678528,-0.0030196327716112137,0.0869203731417656,-0.0038617849349975586,0.010704994201660156,-0.013603344559669495
423,1.1541973091280124,1.2968256484098575,1.7701997023662357,0.2474159300327301,-0.9627041816711426,-0.10948142409324646,0.08552753925323486,0.014659762382507324,0.08740746229887009,-0.010279089212417603,-0.006534099578857422,-0.021637320518493652
424,1.1450247943284038,1.2990932201087197,1.7808797573689068,0.24441231787204742,-0.9633152484893799,-0.11084417253732681,-0.05805342644453049,-0.02308899164199829,0.04544903337955475,-0.007519632577896118,0.006528139114379883,-0.00014828890562057495
425,1.1247837608273192,1.3007174018712804,1.8002769548483648,0.24070687592029572,-0.9637498259544373,-0.1150931790471077,-0.04903111234307289,-0.04522427171468735,-0.03394174203276634,-0.0021967291831970215,0.01936817169189453,-0.0007210373878479004
426,1.0605871632709467,1.305357434139084,1.8580118830977828,0.22892294824123383,-0.9649774432182312,-0.12811291217803955,-0.08599469810724258,-0.10037505626678467,0.1814020425081253,-0.0010634511709213257,0.011745631694793701,-0.01026904582977295
427,1.0010445701265234,1.31533911669859,1.9110459814243637,0.21277181804180145,-0.9675478935241699,-0.1363055408000946,0.04621022194623947,-0.048641979694366455,0.09329517930746078,-0.012347638607025146,0.017978191375732422,-0.019273027777671814
428,0.9747563728753508,1.328274203352877,1.9276226067038829,0.19874164462089539,-0.9707353711128235,-0.13481420278549194,0.016038423404097557,-0.15079928934574127,0.18114997446537018,-0.004054725170135498,0.012040793895721436,-0.01058681309223175
429,0.9246014462186245,1.3544212776416682,1.96341925127805,0.17140527069568634,-0.9766821265220642,-0.12927685678005219,0.16054320335388184,-0.09075101464986801,0.28921085596084595,0.009686067700386047,0.0018590092658996582,-0.015605345368385315
430,0.8724038205791649,1.3897736915031533,2.007272375689709,0.13788571953773499,-0.983660101890564,-0.11576114594936371,0.08493057638406754,-0.09202523529529572,0.3860319256782532,0.012031897902488708,0.022127389907836914,0.016350075602531433
431,0.7367613809317942,1.4146847977574641,2.1373768638925834,0.10446465015411377,-0.9878393411636353,-0.11515466123819351,-0.054546233266592026,-0.0340181402862072,0.3364265263080597,-0.0029784515500068665,0.004150986671447754,0.007976949214935303
432,0.5756142814809787,1.4321131648322174,2.2978020931400884,0.07525019347667694,-0.9903988838195801,-0.11596254259347916,-0.02063804864883423,-0.05839820206165314,0.2824470102787018,-0.016625933349132538,0.0016904473304748535,-0.0009197518229484558
433,0.46322400211605863,1.444233112385792,2.4014748575724782,0.05640175938606262,-0.9920015335083008,-0.11292307823896408,0.0464961975812912,-0.08106281608343124,0.06622125208377838,-0.02132181078195572,0.020047307014465332,0.02030225098133087
434,0.4244104969062388,1.441214512423055,2.43562762998369,0.05321066826581955,-0.9916160106658936,-0.11775578558444977,-0.053614165633916855,-0.053914617747068405,-0.033170271664857864,-0.02131979912519455,0.013481855392456055,-0.007671475410461426
435,0.46965846817485885,1.4344942402195084,2.3889438931913385,0.061497028917074203,-0.9907252192497253,-0.12116774171590805,-0.0037447959184646606,0.004474099725484848,-0.0548110157251358,0.0190998874604702,-0.004422426223754883,-0.017458371818065643
436,0.43225358216717696,1.4382911799108304,2.4262155675778767,0.05534658581018448,-0.9912340044975281,-0.11996621638536453,0.01139497198164463,0.0006914166733622551,0.17837123572826385,0.028851419687271118,0.0015795230865478516,-0.002653360366821289
437,0.33936071539407037,1.4490207361645815,2.522788680644567,0.040437206625938416,-0.9925945401191711,-0.1145472303032875,0.07926518470048904,0.04398081451654434,0.1846955418586731,-0.010011181235313416,-0.0018513202667236328,0.004912853240966797
438,0.24841981479537392,1.4596539123005936,2.6165003079189377,0.027270693331956863,-0.9938300251960754,-0.10750909894704819,-0.023490887135267258,-0.024118905887007713,0.12915977835655212,-0.018298521637916565,0.0045264363288879395,0.021937847137451172
439,0.1713574196517563,1.4565746594671312,2.691707057146093,0.019434725865721703,-0.9934837818145752,-0.11230403929948807,-0.06476134806871414,-0.08307190984487534,0.08172324299812317,-0.008631514385342598,0.0029900670051574707,0.004119224846363068
440,0.1832630736139777,1.45184387290636,2.678226163637342,0.02162671834230423,-0.9929335117340088,-0.11668504774570465,-0.013707863166928291,0.019339576363563538,-0.05380263924598694,0.008173704147338867,0.005720376968383789,-0.0006397366523742676
441,0.17519322649617372,1.4503496772010658,2.684408328241853,0.020943086594343185,-0.9927550554275513,-0.11831724643707275,-0.02180374041199684,-0.02758161351084709,0.04691990837454796,0.0018535424023866653,0.008639335632324219,0.00271664559841156
442,0.08175548738360963,1.4507946493730566,2.7702322879348595,0.009776449762284756,-0.99280846118927,-0.11931502819061279,-0.03566257655620575,-0.054249778389930725,0.14100252091884613,0.019306808710098267,0.03225231170654297,0.0247410386800766
443,0.03345752165173641,1.4485024177872614,2.8262923020760655,0.004080681130290031,-0.992531418800354,-0.12192051857709885,0.038954511284828186,0.03546056151390076,0.10371813178062439,-0.01859179139137268,-0.01239711046218872,-0.017712704837322235
444,-0.019430484748728712,1.4522060182862666,2.879229377424187,-0.002298736246302724,-0.9929764270782471,-0.11829076707363129,-0.008037717081606388,-0.03285425901412964,0.056432873010635376,-0.0067192018032073975,0.015574634075164795,0.03001868724822998
445,-0.07585523677300296,1.449304627059355,2.9312508653003926,-0.009184370748698711,-0.9926289319992065,-0.12084528803825378,-0.01264430396258831,-0.010878088884055614,0.01269381120800972,-0.0029921382665634155,0.004332423210144043,-0.009937822818756104
446,-0.16259364077974806,1.4552856443768736,3.014389200379833,-0.018657349050045013,-0.9933360815048218,-0.11373535543680191,0.09509427845478058,-0.12008017301559448,0.2723752558231354,0.01610913686454296,-0.010234653949737549,0.007351085543632507
447,-0.4380292190449089,1.4363142503826631,-3.00151280908145,-0.05686961114406586,-0.9909709095954895,-0.12141892313957214,-0.17275923490524292,-0.07207224518060684,0.44149836897850037,0.011062726378440857,0.025837242603302002,0.02357959747314453
448,-0.5948441708220662,1.4160621031219094,-2.8471745468631786,-0.08636458218097687,-0.9880525469779968,-0.12764602899551392,0.11901187896728516,-0.054509878158569336,0.13103121519088745,-0.02447526901960373,0.009826719760894775,-0.026132121682167053
449,-0.6484712255669096,1.416279874158184,-2.791937026722114,-0.09295177459716797,-0.9880860447883606,-0.12266086041927338,-0.045558180660009384,-0.018131442368030548,0.09948575496673584,-0.006001457571983337,0.0069460272789001465,0.017329469323158264
450,-0.6593288372912532,1.4150854726996693,-2.7815137335628997,-0.09500113129615784,-0.9879015684127808,-0.12257735431194305,0.02520158514380455,0.010132791474461555,-0.08307870477437973,-0.02032478153705597,0.009889543056488037,-2.7045607566833496e-05
451,-0.5807421245889891,1.4143517851789573,-2.85872791176356,-0.08548284322023392,-0.9877874851226807,-0.13026361167430878,-0.15415287017822266,-0.012101703323423862,-0.0997629389166832,0.006213441491127014,0.002023935317993164,0.005934953689575195
452,-0.5391735784242028,1.4126646923568102,-2.901950019708943,-0.08085155487060547,-0.9875231981277466,-0.13513393700122833,0.04550069570541382,0.019118579104542732,-0.05301055684685707,0.0006513521075248718,0.007618904113769531,-0.022672489285469055
453,-0.5651833223623751,1.4066862958744017,-2.878825829912173,-0.08749864250421524,-0.9865641593933105,-0.1379682868719101,-0.11267492175102234,0.04213676601648331,0.03355729952454567,-0.0016889795660972595,0.023444652557373047,0.03574967384338379
454,-0.5541431119589953,1.3956544604106755,-2.8937742875232217,-0.0916915088891983,-0.9847018122673035,-0.14817146956920624,-0.12951159477233887,-0.06285937875509262,-0.014896724373102188,-0.028791874647140503,0.014212429523468018,0.0069819241762161255
455,-0.504270510252466,1.3900819630867949,-2.954663904288091,-0.08684124052524567,-0.9837155342102051,-0.15736085176467896,0.006221528630703688,-0.1469547003507614,-0.2153465449810028,-0.054333075881004333,0.019756793975830078,-0.029238879680633545
456,-0.18971349876092966,1.413589163098017,2.9754130053209256,-0.029523789882659912,-0.9876683950424194,-0.15375152230262756,-0.11439447104930878,-0.3779880106449127,-1.1280945539474487,-0.10811048746109009,0.042722105979919434,0.06259548664093018
457,0.47298907577213123,1.3721326368120474,2.3077508035847742,0.08990704268217087,-0.9803311824798584,-0.1756916642189026,-0.2072107195854187,-0.025783561170101166,-0.6112497448921204,0.10020220279693604,-0.0464632511138916,-0.03852647542953491
458,0.43490513569151795,1.3143305947196708,2.3309687325446697,0.10687460005283356,-0.9672925472259521,-0.23004993796348572,-0.47200071811676025,-0.2835403084754944,-0.29439473152160645,-0.011934429407119751,0.06198859214782715,-0.0611487478017807
459,0.4282375924509766,1.2571615626302253,2.3235519968365024,0.128117635846138,-0.9512184858322144,-0.2806583642959595,-0.5145413279533386,-0.14659908413887024,0.09463327378034592,0.055888086557388306,-0.007414877414703369,-0.03553423285484314
460,0.3031890350956368,1.2359984046071053,2.428730161444537,0.09810219705104828,-0.9444767236709595,-0.31359195709228516,-0.3855409026145935,-0.18427644670009613,0.21137277781963348,0.036831289529800415,-0.0013699531555175781,0.04015442728996277
461,0.1427274576150939,1.1913319405463012,2.5803286201811124,0.05269022658467293,-0.9288631677627563,-0.36665651202201843,-0.3787866532802582,-0.2542770802974701,0.5110475420951843,0.02659444510936737,0.022002816200256348,-0.05854487419128418
462,-0.01054086251091741,1.1955080174175874,2.7051747810590516,-0.003863584017381072,-0.9304019808769226,-0.36652037501335144,0.011711937375366688,-0.470698744058609,0.3062286376953125,-0.029202207922935486,0.026166200637817383,0.03256651759147644
463,0.025373488637898053,1.1885543970750203,2.638297204382952,0.009463333524763584,-0.927830696105957,-0.3728814125061035,-0.1507670134305954,0.17115572094917297,-0.4594001770019531,0.059964150190353394,-0.012415826320648193,0.007936984300613403
464,0.06362685870011088,1.1776694642861472,2.644729603654445,0.02435765415430069,-0.9237157702445984,-0.3823035955429077,-0.029143579304218292,0.6346758008003235,0.4026068449020386,0.06493678689002991,0.006693065166473389,-0.059316277503967285
465,0.07225560843357193,1.1899566966152892,2.722947087743183,0.026834042742848396,-0.9283528923988342,-0.37073007225990295,0.18272331357002258,0.8167958855628967,0.26397743821144104,0.03272101283073425,0.0002675652503967285,-0.04299670457839966
466,0.05964681012847354,1.194631703543492,2.8245100790318296,0.02189861238002777,-0.9300804138183594,-0.3667025566101074,-0.1272534877061844,0.7457807660102844,0.3595660328865051,-0.02928386814892292,0.01551443338394165,0.04712250828742981
467,0.058381467081131476,1.1888648923092526,2.8952718982047174,0.02174721285700798,-0.9279465079307556,-0.37207868695259094,-0.3489360809326172,1.094163417816162,0.010870380327105522,0.04696311801671982,0.042723000049591064,0.10114362835884094
468,0.15803015792469177,1.0835917189127857,2.9267893616108016,0.0736754834651947,-0.8836449980735779,-0.4623240828514099,-1.756760835647583,1.5549715757369995,-0.10321032255887985,0.0733429491519928,0.08216184377670288,0.1313762068748474
469,0.34659805608690836,0.9224869150255358,2.891758514964342,0.20512442290782928,-0.7971057891845703,-0.5679316520690918,-1.099609375,1.0169974565505981,-0.4346265494823456,-0.08311514556407928,-0.03953361511230469,-0.1016240119934082
470,0.3531258628955514,0.8472441906932385,2.9398603065567266,0.22895877063274384,-0.7494587898254395,-0.6212000846862793,-0.5474334359169006,0.16409932076931,0.19344547390937805,0.0022729188203811646,0.019066333770751953,-0.007034778594970703
471,0.3280602769186822,0.8243900663747092,2.983697169981481,0.21878033876419067,-0.734133780002594,-0.6427928805351257,-0.02742486447095871,0.11674420535564423,0.12753747403621674,-0.06231673061847687,0.0032836198806762695,-0.029478847980499268
472,0.3321895032701361,0.8337231270033345,2.995525450219063,0.21918870508670807,-0.7404388785362244,-0.6353791356086731,0.18933652341365814,-0.046634700149297714,0.15987363457679749,0.012012466788291931,-0.022134363651275635,-0.07740461826324463
473,0.2982529936694592,0.8505700540894983,3.0240340514466255,0.19381068646907806,-0.7516565322875977,-0.6304363012313843,-0.11260458827018738,-0.09636292606592178,0.19933021068572998,-0.024880632758140564,0.008934974670410156,0.04155385494232178
474,0.27755765331654,0.8481529107126415,3.040783755359571,0.18122032284736633,-0.7500600814819336,-0.636057436466217,-0.030593296512961388,0.1237867996096611,-0.07821089774370193,-0.04032066464424133,0.030257225036621094,0.010721802711486816
475,0.28366408276623567,0.8426061934032384,3.0354132806206833,0.18626248836517334,-0.7463801503181458,-0.6389232873916626,0.14213640987873077,-0.000376229640096426,-0.049650583416223526,0.009324684739112854,0.025905907154083252,0.0007091760635375977
476,0.29784316032441427,0.8436115902341019,3.0302678632957005,0.19508250057697296,-0.7470488548278809,-0.635500431060791,-0.02558160200715065,0.14426587522029877,-0.00021438661497086287,0.02916066348552704,0.006616115570068359,0.017290592193603516
477,0.3410516120796394,0.8347922989942246,3.0144391615734127,0.22454588115215302,-0.7411571145057678,-0.6326652765274048,-0.10557344555854797,0.5995314717292786,-0.33159512281417847,0.0014825612306594849,0.022346079349517822,0.028569817543029785
478,0.40320523764238947,0.8146482120569257,2.9879730014114294,0.26921364665031433,-0.7274842858314514,-0.6311028003692627,-0.06514941155910492,0.2651737630367279,-0.14131130278110504,-0.03738686442375183,0.003714144229888916,-0.018662214279174805
479,0.3984300763934918,0.811224654855737,2.9879737497565957,0.26716166734695435,-0.7251310348510742,-0.6346728801727295,0.01718086004257202,-0.14885416626930237,0.10606661438941956,0.029652267694473267,-0.0032014846801757812,-0.017655611038208008
480,0.4017242252352329,0.8072908480144002,2.9892894601766513,0.2703641951084137,-0.7224165797233582,-0.6364098787307739,-0.022019468247890472,-0.056945376098155975,0.08167459815740585,-0.0006650984287261963,-0.02711045742034912,-0.040820956230163574
481,0.37153616456528316,0.8163419500025262,3.0084336458366487,0.24864783883094788,-0.7286453247070312,-0.6381615996360779,0.07791410386562347,-0.3148919641971588,0.2532818615436554,-0.002309948205947876,-0.009742677211761475,-0.03423219919204712
482,0.35645645938758175,0.8271958687871703,3.0117199829521923,0.23622286319732666,-0.7360360026359558,-0.6343892812728882,0.0037577995099127293,-0.039746470749378204,0.009116113185882568,0.02584683895111084,0.0051094889640808105,0.011586546897888184
483,0.3165578485828016,0.8199915576136365,3.0470481844141055,0.21237553656101227,-0.7311400771141052,-0.6483292579650879,-0.17655852437019348,-0.3017158806324005,0.32061007618904114,0.015636548399925232,-0.0026093125343322754,-0.01780843734741211
484,0.2590175968360041,0.8142615029707948,3.089866498949856,0.17580977082252502,-0.7272188663482666,-0.6635085344314575,-0.10459260642528534,-0.14832116663455963,0.12021094560623169,-0.03193466365337372,0.008713066577911377,0.001933276653289795
485,0.22457484603937414,0.8128306629839409,3.107703321186913,0.1530885249376297,-0.7262359857559204,-0.6701828837394714,0.050259027630090714,-0.22214718163013458,0.10041247308254242,-0.0083436518907547,-0.0031035542488098145,-0.018125832080841064
486,0.19718432839201724,0.8278232816680666,3.1175214772088355,0.13252860307693481,-0.7364606261253357,-0.6633716225624084,0.09809847176074982,-0.1194232776761055,0.0619058720767498,-0.0025694966316223145,0.030848443508148193,0.05485111474990845
