,attitude.roll,attitude.pitch,attitude.yaw,gravity.x,gravity.y,gravity.z,rotationRate.x,rotationRate.y,rotationRate.z,userAcceleration.x,userAcceleration.y,userAcceleration.z
0,0.17115671351205897,0.17944651297080216,0.7140257872582992,0.16758735477924347,-0.17848500609397888,-0.9695656895637512,-0.11467278003692627,-0.5649462938308716,0.020947815850377083,-0.08239752054214478,0.019030660390853882,-0.006706893444061279
1,0.03297404169992359,0.13306838692652537,0.7355632200227713,0.032676611095666885,-0.13267602026462555,-0.9906206727027893,0.06334228813648224,-1.5177303552627563,1.1898510456085205,-0.08943930268287659,-0.0002585500478744507,0.1230822205543518
2,0.09655699827816919,0.1843689032558538,0.8410085797748856,0.09477313607931137,-0.18332616984844208,-0.9784730672836304,-0.13453641533851624,-0.9541905522346497,-5.1463255658745766e-05,0.08114544302225113,0.15418188273906708,-0.19494307041168213
3,0.10441769246169139,0.10706470099441896,0.8747728275473066,0.10363124310970306,-0.10686027258634567,-0.9888586401939392,-0.10013038665056229,0.030934367328882217,0.4710361063480377,-0.16079066693782806,0.15960991382598877,-0.1477532982826233
4,0.02691377070792906,0.18093520607770194,0.8821966479444985,0.026471229270100594,-0.1799495965242386,-0.9833195805549622,-0.4144478440284729,1.3349697589874268,0.5140331387519836,-0.10632047057151794,0.020739376544952393,0.19010668992996216
5,0.06085371470834447,0.16608690081560346,0.9592146909382075,0.059979286044836044,-0.1653243750333786,-0.9844136834144592,0.1866021305322647,-1.2370481491088867,0.5673775672912598,0.07603755593299866,-0.1159866601228714,-0.06459754705429077
6,-0.0063259503271318965,0.16788083019623695,1.003989620233749,-0.006236972752958536,-0.16709335148334503,-0.985921323299408,0.08633362501859665,0.14911261200904846,0.25888416171073914,-0.0664253830909729,-0.04524797201156616,-0.09763574600219727
7,0.025283487341148703,0.1921946124725641,1.030949498359293,0.024815307930111885,-0.19101355969905853,-0.9812736511230469,0.2381959855556488,0.13229215145111084,0.19359809160232544,-0.019428955391049385,0.029346704483032227,0.02589040994644165
8,0.025522484232423287,0.2075448884791868,1.0541821008754617,0.024972055107355118,-0.2060580998659134,-0.97822105884552,0.05500928312540054,0.34220606088638306,0.49553126096725464,-0.010384656488895416,0.008151590824127197,0.08796226978302002
9,0.004860636328394051,0.19401107730619255,1.0964542198379854,0.004769426304847002,-0.1927962601184845,-0.9812272191047668,0.18780332803726196,-0.8985041975975037,0.36859095096588135,-0.03902541100978851,-0.037291020154953,-0.16826313734054565
10,-0.10407126725723005,0.28089079802798383,1.1326269684437686,-0.09981219470500946,-0.27721163630485535,-0.9556103944778442,0.8647142648696899,-1.2848634719848633,0.07765738666057587,-0.011424385011196136,0.03468844294548035,0.02230656147003174
11,-0.24678288595184966,0.3680122282790968,1.1411867394216018,-0.2279292792081833,-0.35976147651672363,-0.9047761559486389,0.4502617120742798,-1.1777217388153076,-0.25842636823654175,-0.08046610653400421,0.010289430618286133,0.07274490594863892
12,-0.4734918026867949,0.4470640734792545,1.1545750305356774,-0.4111814498901367,-0.4323200285434723,-0.8025143146514893,1.240515947341919,-3.3295488357543945,-0.018902385607361794,-0.011883735656738281,0.0674976110458374,-0.018561124801635742
13,-1.131088079248833,0.6508862459408967,1.3809324814060366,-0.719871461391449,-0.6058917045593262,-0.33864495158195496,2.3764519691467285,-4.785709381103516,-0.009372594766318798,-0.01673126220703125,0.03145933151245117,0.29530996084213257
14,-1.457324778777943,0.7093293295953189,1.5011514484928903,-0.7539190053939819,-0.651324987411499,-0.08591742068529129,-0.1447145789861679,-0.9742157459259033,0.0421406589448452,-0.06949096918106079,-0.0606958270072937,0.1554059386253357
15,-1.6174666515659417,0.7244935146885381,1.5881680707331836,-0.7480199337005615,-0.6627562642097473,0.03493570163846016,0.372836709022522,-1.2590816020965576,-0.2812911868095398,0.00020194053649902344,-0.013971090316772461,0.10318684577941895
16,-1.638575046379645,0.770863237301093,1.534246372924591,-0.71566241979599,-0.6967546939849854,0.04858109727501869,-0.6459149122238159,-0.42818278074264526,-0.5568989515304565,0.027613162994384766,0.06433898210525513,-0.03379536047577858
17,-1.6065424424580286,0.8024437939118843,1.45962345124659,-0.6945074796676636,-0.7190565466880798,0.024836525321006775,-0.300152450799942,-0.1574196219444275,-0.13000735640525818,0.06624215841293335,0.08862447738647461,-0.05047130957245827
18,-1.5906463093865415,0.7948693555960331,1.4214138049810088,-0.7002401351928711,-0.7137721180915833,0.01390158012509346,-0.20263759791851044,-0.2634781002998352,0.3444182574748993,-0.023285865783691406,-0.004001319408416748,-0.029862284660339355
19,-1.5976772272713962,0.7871214995932705,1.4156280189536972,-0.7056318521499634,-0.7083243131637573,0.018972590565681458,0.08012977987527847,-0.03932274505496025,0.021871330216526985,-0.024699389934539795,-0.00966256856918335,-0.017172101885080338
20,-1.59157303580118,0.7913717811943496,1.3965373813154827,-0.7027187347412109,-0.7113181352615356,0.01460228394716978,-0.15073631703853607,0.045739322900772095,0.053487710654735565,0.03703874349594116,0.03657442331314087,-0.0244594793766737
21,-1.6047800888640544,0.7865859588345665,1.416752664813794,-0.7058587670326233,-0.7079461812973022,0.023996975272893906,0.27197596430778503,0.13248474895954132,0.1125059649348259,0.006075382232666016,0.02349787950515747,0.020451907068490982
22,-1.5926037622812153,0.7846023312849327,1.4241533285023615,-0.7075009346008301,-0.7065438032150269,0.015431227162480354,0.22414568066596985,-0.21512342989444733,-0.03239390626549721,0.021938860416412354,0.0038919448852539062,-0.01614844799041748
23,-1.6424168326744997,0.7841039904343329,1.4565827602731327,-0.7062060832977295,-0.7061910629272461,0.05066549777984619,0.10593812167644501,-0.45956096053123474,0.05527297779917717,0.019530117511749268,0.02624422311782837,0.04386269301176071
24,-1.685231576056627,0.7828931396850833,1.4789131865258562,-0.7042393088340759,-0.7053332328796387,0.08094344288110733,0.05456378310918808,-0.13085509836673737,-0.004277127794921398,0.011673510074615479,0.018596231937408447,0.023640267550945282
25,-1.6819006888244743,0.7840068368310997,1.4758444967407653,-0.7037240266799927,-0.7061222791671753,0.07851012051105499,0.05969401076436043,0.0125155970454216,-0.01779930479824543,0.016361355781555176,0.006689906120300293,-0.024890661239624023
26,-1.6801592580636524,0.7838711194136397,1.484229720596837,-0.7039549350738525,-0.7060261964797974,0.0772949755191803,0.08494772017002106,-0.001650925725698471,-0.08893241733312607,0.006689310073852539,0.006746411323547363,0.02072751522064209
27,-1.6843069786632445,0.785104936222619,1.4987029710270199,-0.7027621865272522,-0.7068994045257568,0.08011537790298462,0.06265199929475784,0.06526082009077072,-0.022922860458493233,0.005969643592834473,0.023900747299194336,0.039650797843933105
28,-1.6869194906386995,0.7816688601168291,1.5094914021022245,-0.7049588561058044,-0.704464852809906,0.08223200589418411,0.11788735538721085,-0.052640195935964584,0.03924736753106117,0.01660442352294922,0.02674579620361328,0.010663501918315887
29,-1.6986521213675478,0.7728172088616511,1.5256430827155165,-0.7101027369499207,-0.6981549859046936,0.0912887305021286,0.09345491975545883,-0.02987687475979328,0.06165647506713867,-0.00472569465637207,0.001972794532775879,0.018925420939922333
30,-1.7047532288657303,0.7720368789563118,1.5348632734491845,-0.7100722193717957,-0.6975960731506348,0.09569214284420013,0.026193127036094666,0.04105610400438309,-0.015815531834959984,0.01671290397644043,0.01746612787246704,0.009883388876914978
31,-1.7049510643340282,0.7690525636594672,1.5412006770301783,-0.7121132612228394,-0.6954547762870789,0.09611064940690994,0.05680432915687561,0.06307350099086761,0.06917773187160492,0.01318448781967163,0.028233706951141357,0.007786497473716736
32,-1.6997140554342207,0.761683608931594,1.5479704142874153,-0.7176698446273804,-0.6901407837867737,0.09303635358810425,0.003598182462155819,0.16604989767074585,0.024083735421299934,-0.012661576271057129,0.00038254261016845703,0.04586446285247803
33,-1.6988821267384824,0.7617703240395788,1.5490076593842745,-0.7176877856254578,-0.6902035474777222,0.09243164211511612,-0.03675571829080582,-0.03848019242286682,-0.08294770121574402,-0.002710282802581787,-0.017377078533172607,0.04067075997591019
34,-1.7269887712757641,0.762343449190003,1.560540716438442,-0.7144158482551575,-0.6906181573867798,0.11250272393226624,0.16142359375953674,-0.23339439928531647,-0.01545154582709074,-0.011154890060424805,0.01314312219619751,-0.012206658720970154
35,-1.725599493462256,0.75867231943354,1.5654390062964572,-0.7170712947845459,-0.6879584789276123,0.111900195479393,0.08998343348503113,0.11556272953748703,-0.006570770870894194,-0.020355403423309326,0.02424699068069458,-0.007804766297340393
36,-1.730157757349965,0.7542522379096955,1.5753873341823024,-0.7195490598678589,-0.6847438812255859,0.1156490370631218,0.027910299599170685,0.18446308374404907,0.022685179486870766,0.004873216152191162,0.023870527744293213,0.04113505780696869
37,-1.7008224823118254,0.7456971192651128,1.5682687595776539,-0.7284138798713684,-0.6784840822219849,0.09525025635957718,-0.29814741015434265,0.8074182868003845,0.21018990874290466,-0.011835694313049316,-0.0021189451217651367,0.07470214366912842
38,-1.6634459606372032,0.7334836147347776,1.5647093562049856,-0.7396607398986816,-0.6694614887237549,0.0687260553240776,0.25323548913002014,-0.09424439072608948,0.15830934047698975,0.012243807315826416,-0.008639037609100342,-0.0099492147564888
39,-1.6720898448883574,0.7309435165281499,1.5797168010070444,-0.7407286167144775,-0.6675724387168884,0.07528868317604065,0.08369453251361847,0.08685242384672165,-0.01336596254259348,0.015051126480102539,0.005859732627868652,0.0010663270950317383
40,-1.6772263359746662,0.7309163405324653,1.5943002398657362,-0.7403501272201538,-0.6675521731376648,0.07909434288740158,0.08941635489463806,0.19796544313430786,0.03732197359204292,0.0020993947982788086,0.017436206340789795,0.04521894454956055
41,-1.6871146060361724,0.7191909209895964,1.6115299753268804,-0.7472551465034485,-0.6587761640548706,0.08731357008218765,0.03610346466302872,-0.008907935582101345,0.12012128531932831,-0.038740336894989014,-0.002127707004547119,0.021679989993572235
42,-1.703548697602657,0.7107925841454804,1.630909288137662,-0.7511770129203796,-0.6524346470832825,0.10031048953533173,0.07525040954351425,-0.014032350853085518,0.01517399214208126,0.015306711196899414,0.005523025989532471,-0.0046378374099731445
43,-1.6996804528223357,0.7081025532268955,1.6295726360249438,-0.7532972097396851,-0.6503936648368835,0.09762922674417496,0.04687097668647766,-0.013684636913239956,0.10835328698158264,0.032243192195892334,0.013247668743133545,-0.03544963151216507
44,-1.6994259015928872,0.6997713815508118,1.6368720785647444,-0.7586694955825806,-0.6440427899360657,0.09812913089990616,0.1091790571808815,0.013220502063632011,0.08470407873392105,0.003084838390350342,-0.004043638706207275,0.006134144961833954
45,-1.695304138190435,0.6968698125413304,1.6380788450072037,-0.7609184980392456,-0.6418204307556152,0.09523291140794754,-0.039004772901535034,0.02503107115626335,0.03394545242190361,0.009682655334472656,0.00653606653213501,-0.0013761669397354126
46,-1.689614979120943,0.690939047343746,1.6392887413357435,-0.7652142643928528,-0.637261152267456,0.09135203063488007,0.07077459245920181,0.08094003796577454,0.15671056509017944,0.029511868953704834,0.021050214767456055,-0.0003638342022895813
47,-1.6896544576284682,0.675438337857487,1.6496553250842683,-0.7749269008636475,-0.6252394914627075,0.09254256635904312,0.102385014295578,0.10441169887781143,0.11770525574684143,-0.00511777400970459,0.008158743381500244,0.02249348908662796
48,-1.6938817255631793,0.6634860443986907,1.662818406462377,-0.7818896174430847,-0.6158670783042908,0.09672816842794418,0.05156538635492325,0.11185389757156372,0.08138991892337799,-0.016495943069458008,0.003577709197998047,0.010632745921611786
49,-1.6904809085250339,0.6494562783553159,1.6637310856859029,-0.7907153367996216,-0.6047534942626953,0.09509090334177017,-0.07220714539289474,0.02152453362941742,0.13731558620929718,0.012730836868286133,0.014360487461090088,0.02125738561153412
50,-1.6966114035960307,0.6348145997178926,1.6638384207088734,-0.7988173365592957,-0.5930282473564148,0.10103695094585419,0.022392641752958298,-0.21202708780765533,0.2917122542858124,0.055347979068756104,0.0009567141532897949,0.020728126168251038
51,-1.7104770689981308,0.6108484211651876,1.656501355700205,-0.8111835718154907,-0.5735626816749573,0.11404941231012344,0.0841570645570755,-0.40379029512405396,0.4525149166584015,0.07555723190307617,0.0267333984375,0.0068001896142959595
52,-1.7888912581905332,0.5522637071653346,1.6796542785178898,-0.8311720490455627,-0.5246157646179199,0.18420429527759552,0.7380712032318115,-0.7668781876564026,0.5264800786972046,0.01049339771270752,-0.014172017574310303,0.050323233008384705
53,-1.9148428462689888,0.2720359992337058,1.916367567207,-0.9067782759666443,-0.26869311928749084,0.32489529252052307,6.799710273742676,0.3332761824131012,3.4810538291931152,0.26510047912597656,0.21199151873588562,-0.14296486973762512
54,-1.9084807256996894,-0.2693038963520193,2.388721235070042,-0.9095163941383362,0.2660605013370514,0.3193618059158325,2.0108859539031982,1.554252028465271,5.0299906730651855,0.1616067886352539,0.049430251121520996,0.34195399284362793
55,-1.8966805017179205,-0.8541907866706876,2.476221859342333,-0.6222585439682007,0.7540396451950073,0.21028146147727966,3.2055513858795166,-0.9904673099517822,4.858588218688965,-0.15795379877090454,0.14708328247070312,0.02633652091026306
56,-1.754571100061251,-1.2314109481563509,2.6303579405576873,-0.32730141282081604,0.9429594278335571,0.06083616614341736,0.5190097689628601,-0.6876550912857056,1.8378459215164185,-0.3357234597206116,0.052371203899383545,0.16079770028591156
57,-2.1672653520659426,-1.329705662239263,2.292929820659477,-0.19753314554691315,0.9710781574249268,0.1341182142496109,-0.5325304865837097,-1.3000729084014893,1.3278213739395142,-0.17476600408554077,0.1254945993423462,-0.2331935316324234
58,-2.460075141157143,-1.4288330773090165,2.084479043834894,-0.08913329988718033,0.9899401068687439,0.10988180339336395,0.8449998497962952,-0.9921764731407166,0.5592460632324219,-0.06104368716478348,0.07053053379058838,-0.11587844789028168
59,-1.7482753571821612,-1.5077307449201716,2.9489098275041625,-0.062032584100961685,0.9980120062828064,0.011126553639769554,0.8198347091674805,-1.635212779045105,-0.4510165750980377,-0.1298619508743286,0.14589351415634155,0.05506610870361328
60,-1.3676620079905955,-1.460362102468585,-2.7642900729504887,-0.10794352740049362,0.9939083456993103,-0.022233692929148674,0.28082314133644104,-1.3914681673049927,-0.1294277161359787,0.02855202555656433,0.1350741982460022,0.1278703212738037
61,-1.2924292968952493,-1.4803135303073012,-2.5137183612638268,-0.08688081800937653,0.9959092140197754,-0.024829421192407608,0.4605128765106201,-2.1336488723754883,0.9054077863693237,-0.005419604480266571,-0.041594088077545166,0.07974576950073242
62,0.657527917681028,-1.4644415569905398,-0.37425613891344056,0.06487806141376495,0.9943496584892273,-0.08402246981859207,1.8235960006713867,-2.675356388092041,2.0388712882995605,0.22511520981788635,-0.42275530099868774,-0.07225806266069412
63,0.4743606466343517,-1.3021893299028622,-0.2916205045131155,0.12122169882059097,0.9641415476799011,-0.23608611524105072,0.7506527900695801,-2.0374293327331543,0.12797218561172485,-0.04285253584384918,0.04899638891220093,-0.09153535962104797
64,0.3504207682876987,-1.285549485314519,-0.3189327242199408,0.09660057723522186,0.9595922231674194,-0.2642931640148163,-0.1802683174610138,-0.38153356313705444,0.37001004815101624,0.027270272374153137,-0.005719661712646484,-0.07898381352424622
65,0.15124600643247776,-1.3336581862257413,-0.48216258816486823,0.03539573401212692,0.9720142483711243,-0.23224034905433655,-0.9872259497642517,0.5318485498428345,-0.7602185010910034,0.11662757396697998,0.008057773113250732,-0.0017226338386535645
66,-0.04295036455273449,-1.3652450493007593,-0.6663403558831391,-0.008763769641518593,0.9789485931396484,-0.20391863584518433,-0.5230088829994202,0.21456623077392578,-0.5916047096252441,0.07663488388061523,-0.0076808929443359375,0.07382220029830933
67,-0.17981058393425234,-1.4233447259773344,-0.8507473115937522,-0.026275301352143288,0.9891486763954163,-0.1445493996143341,-0.10499311238527298,-0.7060234546661377,-0.18756350874900818,0.10111966729164124,0.02191394567489624,-0.13625812530517578
68,-0.3660266199447139,-1.4370486330747312,-0.9939272375166421,-0.04772676154971123,0.9910690784454346,-0.12451573461294174,0.25600096583366394,-0.4511898159980774,-0.19355988502502441,-0.01568874716758728,0.033253371715545654,-0.09768271446228027
69,-0.45907290188206856,-1.416645003246728,-1.0604547010708198,-0.06803712248802185,0.988142192363739,-0.13764487206935883,0.16967986524105072,-0.016029376536607742,-0.12704303860664368,-0.01640503853559494,-0.027204573154449463,0.028514012694358826
70,-0.5169830171965344,-1.406567160112277,-1.1213960360841626,-0.0808074101805687,0.986544668674469,-0.14212577044963837,-0.0230878833681345,-0.17782464623451233,-0.18283772468566895,-0.05565195530653,-0.02402031421661377,0.11220331490039825
71,-0.7750246493278263,-1.3942584867984853,-1.388903599040153,-0.12288837879896164,0.9844576120376587,-0.1254647672176361,0.04004352539777756,0.16172219812870026,-0.5926361083984375,0.0016878396272659302,-0.06423068046569824,-0.02144680917263031
72,-0.9375395736284325,-1.3255247202062443,-1.5786912760990346,-0.19573815166950226,0.9700714349746704,-0.14369425177574158,0.4923187494277954,0.06388723105192184,-0.8310363292694092,0.03277428448200226,0.08351743221282959,-0.05965965986251831
73,-0.8018244084876224,-1.2383363353823846,-1.4692414647252707,-0.23453748226165771,0.9452423453330994,-0.22695618867874146,0.5042688250541687,0.08888023346662521,-0.3881036043167114,0.0009559392929077148,0.050500452518463135,0.17110902070999146
74,-0.8268854096154408,-1.1871375158903505,-1.5011366973795879,-0.27543115615844727,0.927301287651062,-0.2534756660461426,-0.10685928165912628,0.09244950860738754,-0.4091154634952545,-0.0031637847423553467,0.03444486856460571,0.18891575932502747
75,-0.8950645658934149,-1.1781165190716258,-1.5665073617688294,-0.29857462644577026,0.9238868951797485,-0.2393452525138855,0.10434074699878693,-0.15474459528923035,-0.014291089959442616,-0.03069475293159485,0.06685096025466919,-0.022480294108390808
76,-0.9139771366349448,-1.1660175272557363,-1.5759453152407312,-0.3118778169155121,0.9191895127296448,-0.24046427011489868,0.0535590685904026,0.03863275796175003,-0.24840521812438965,-0.021786123514175415,-0.0221710205078125,-0.002043694257736206
77,-0.8986993503244207,-1.1401181912731968,-1.5566832634140504,-0.32669106125831604,0.9086828231811523,-0.2599392831325531,0.285160630941391,0.08025308698415756,-0.31668636202812195,-0.009246379137039185,-0.01776796579360962,0.022115856409072876
78,-0.8980478693835479,-1.1057891539562297,-1.5825293482962302,-0.35072171688079834,0.8938183784484863,-0.27943316102027893,0.08378824591636658,0.2760213315486908,-0.062352683395147324,0.059828221797943115,0.026210248470306396,0.020918816328048706
79,-0.8790308051356287,-1.110180634287189,-1.5970157073222329,-0.34231844544410706,0.895779013633728,-0.2835453152656555,-0.24165655672550201,0.4010511338710785,-0.14129599928855896,-0.05881980061531067,0.0595279335975647,0.005774348974227905
80,-0.8600202150748657,-1.1190638549225604,-1.6279258543087325,-0.33082273602485657,0.899692177772522,-0.28479838371276855,0.10212190449237823,0.0010001794435083866,0.22567622363567352,0.03753361105918884,0.07711440324783325,0.016777783632278442
81,-0.8399074136573488,-1.1344088227403426,-1.5865900554039472,-0.3147108554840088,0.9062844514846802,-0.2821444571018219,-0.1137622818350792,-0.3309474289417267,0.17492260038852692,-0.03189253807067871,0.005397617816925049,0.05455964803695679
82,-0.8469641724558197,-1.157031993690453,-1.5635822625715534,-0.3012518286705017,0.9156138300895691,-0.26626771688461304,-0.10250835120677948,-0.21121680736541748,0.20888395607471466,-0.0004449188709259033,0.021046817302703857,0.018449753522872925
83,-0.8684016342462065,-1.1821055714671858,-1.5682320082786785,-0.28927239775657654,0.9254060387611389,-0.24483732879161835,-0.15333883464336395,-0.18378442525863647,0.31717413663864136,0.023754209280014038,-0.0032258033752441406,-0.03049224615097046
84,-0.8732893373322979,-1.2092864569476285,-1.5541720126158853,-0.2710821330547333,0.9353638887405396,-0.2271764725446701,-0.26842382550239563,-0.14876195788383484,0.18077048659324646,0.0523625910282135,-0.0370025634765625,-0.0015680491924285889
85,-0.9311447452058089,-1.2549794728248316,-1.6101087832067957,-0.24918976426124573,0.9505429863929749,-0.18539777398109436,-0.7740307450294495,0.2611329257488251,0.09136805683374405,0.02670140564441681,-0.0631682276725769,0.06520427763462067
86,-1.171394692609832,-1.3110138906649342,-1.8948595610553685,-0.23665323853492737,0.9664458632469177,-0.09988851100206375,-0.8233159184455872,0.35913312435150146,-0.03198649734258652,0.02322852611541748,-0.04512012004852295,-0.06351782381534576
87,-1.4895673896552069,-1.3247303460916195,-2.244776056603753,-0.24278730154037476,0.9698781967163086,-0.019764844328165054,-0.44939175248146057,0.1657036393880844,-0.34440329670906067,-0.04674823582172394,0.13371366262435913,-0.16991716623306274
88,-1.502794705677502,-1.269623352997128,-2.285523704941156,-0.2959550619125366,0.9549891948699951,-0.020156502723693848,0.34774816036224365,-0.04191479831933975,-0.05145658925175667,0.13779771327972412,0.10426068305969238,-0.03837621212005615
89,-1.385879450161029,-1.3038398280687065,-2.1498272253987807,-0.25929975509643555,0.9645782113075256,-0.04850300773978233,0.24561212956905365,-0.041744209825992584,0.31723082065582275,-0.023979663848876953,0.06728214025497437,-0.07529151439666748
90,-1.2552805390227793,-1.3198395492390405,-2.0264140801779957,-0.23607231676578522,0.9686752557754517,-0.07705874741077423,0.05073973536491394,0.0780705139040947,0.26048752665519714,0.055438801646232605,-0.051576316356658936,0.015428490936756134
91,-1.195975103399448,-1.3294002154473663,-1.9826018010813493,-0.2224615216255188,0.9710051417350769,-0.08752083778381348,0.13844676315784454,0.20766708254814148,-0.010594075545668602,-0.026806071400642395,-0.02357172966003418,-0.031223058700561523
92,-1.20037736849589,-1.3147899276240684,-1.994974910588004,-0.23604457080364227,0.9674089550971985,-0.09166678041219711,0.028720563277602196,0.04976716637611389,-0.13548240065574646,0.05220670998096466,0.008039593696594238,-0.03913157433271408
93,-1.2000238602492295,-1.3091413973087909,-2.006323633741982,-0.24110177159309387,0.9659631848335266,-0.09372881799936295,-0.1056748703122139,0.2319183647632599,-0.08484582602977753,0.018552348017692566,0.04512995481491089,0.007425129413604736
94,-1.2087869911430404,-1.3223728472313625,-2.0387407276011715,-0.22994007170200348,0.9693012833595276,-0.08707798272371292,-0.16531863808631897,0.28277406096458435,0.11970876157283783,-0.04667122662067413,0.03335368633270264,0.04548252373933792
95,-1.223701295538223,-1.3379007998645538,-2.087334756033307,-0.21703235805034637,0.9730021953582764,-0.07850927114486694,-0.362074613571167,0.338434636592865,-0.049891065806150436,-0.07763013243675232,-0.03562426567077637,0.13988012075424194
96,-1.305112137691338,-1.3500203635981536,-2.197750910862973,-0.21130311489105225,0.9757277965545654,-0.057499226182699203,-0.08179572969675064,0.194069504737854,0.16012677550315857,-0.07055723667144775,0.003123462200164795,0.063160240650177
97,-1.3976981666485409,-1.3497950804900383,-2.3099048983252466,-0.21593055129051208,0.9756784439086914,-0.03775501996278763,-0.1369265466928482,0.1907346546649933,0.012582546100020409,-0.007137656211853027,0.016631007194519043,0.0013322867453098297
98,-1.4544123797279955,-1.3515800881994762,-2.3806175491120527,-0.21599358320236206,0.9760681986808777,-0.02525230497121811,-0.213490828871727,0.04044102504849434,-0.0595097579061985,-0.02872687578201294,-0.0018708109855651855,0.03066915273666382
99,-1.5363559904841244,-1.3458881317612392,-2.4662369353143587,-0.2228849083185196,0.9748145937919617,-0.0076792677864432335,-0.25018444657325745,-0.03913845866918564,-0.11908794939517975,0.0213468074798584,-0.012015461921691895,0.03789162635803223
100,-1.6676370203313144,-1.3376299301619734,-2.601529747637288,-0.2299768179655075,0.972939670085907,0.02234099805355072,-0.355882853269577,0.03926987200975418,-0.17307555675506592,0.038097575306892395,-0.013467013835906982,-0.014513256028294563
101,-1.7474461504081353,-1.3289543407615296,-2.6829595092769436,-0.2357647567987442,0.9708985090255737,0.042086489498615265,0.07315122336149216,-0.0331096425652504,-0.012488339096307755,-0.0006549358367919922,0.05011296272277832,-0.11110198497772217
102,-1.729703019931936,-1.3194755717054003,-2.6551390400282946,-0.24554996192455292,0.9685848355293274,0.039351318031549454,-0.08577316254377365,-0.08992014080286026,-0.21178580820560455,0.07983951270580292,0.04348480701446533,-0.04420364275574684
103,-1.71452107988851,-1.3231182719930847,-2.630725118272182,-0.24262554943561554,0.969484269618988,0.03511340916156769,-0.02732175961136818,-0.09668167680501938,0.10585789382457733,0.08942730724811554,0.03268241882324219,0.030087348073720932
104,-1.7838486255703976,-1.3376563419899177,-2.7012924377777163,-0.22581033408641815,0.9729457497596741,0.04885078966617584,-0.27104681730270386,0.13530781865119934,-0.1102440282702446,-0.06230613589286804,-0.0041040778160095215,0.06084466725587845
105,-1.845549993133555,-1.32409686638595,-2.761024932625086,-0.23504507541656494,0.9697237014770508,0.06625513732433319,-0.05716324970126152,-0.1436726450920105,-0.03980867564678192,-0.01884588599205017,-0.03574848175048828,0.04052579402923584
106,-1.8946030722085676,-1.32103047267957,-2.794369882930063,-0.23433175683021545,0.9689702987670898,0.07864632457494736,-0.10292720049619675,-0.2757910490036011,0.24330762028694153,-0.12672170996665955,-0.011725425720214844,0.030133605003356934
107,-1.947810076886199,-1.3115350456245023,-2.8355518740446177,-0.23836159706115723,0.9665796160697937,0.09438027441501617,-0.2909315526485443,0.07549477368593216,-0.03771808370947838,-0.03426721692085266,-0.028530240058898926,0.10647119581699371
108,-1.9916380518447634,-1.2868057475039294,-2.9067234898195133,-0.2557412385940552,0.9599449634552002,0.11446530371904373,-0.04470449686050415,0.3891996443271637,-0.24659113585948944,0.0094948410987854,0.012925028800964355,0.020346060395240784
109,-1.940801611853599,-1.2913477896327241,-2.901421941176713,-0.2571587860584259,0.9612076878547668,0.09974398463964462,-0.09406473487615585,0.5343497395515442,0.3243640959262848,0.02777343988418579,0.006687641143798828,0.13196073472499847
110,-2.023234315809838,-1.3070642855061458,-3.0525928512722187,-0.23445653915405273,0.9654238224029541,0.11396123468875885,-0.11861997842788696,0.4725937843322754,0.17161241173744202,-0.10091638565063477,0.0076749324798583984,-0.029213905334472656
111,-1.9297350168854748,-1.3284557143701787,-2.9925473620918477,-0.22468213737010956,0.9707789421081543,0.08429886400699615,0.615548312664032,0.2642574608325958,0.10682133585214615,-0.04535269737243652,0.012726306915283203,-0.08966994285583496
112,-1.6782677881983035,-1.347848159702216,-2.771909542192471,-0.21982990205287933,0.9752498269081116,0.023716822266578674,0.2513008117675781,0.4120751917362213,0.12364711612462997,0.0006831884384155273,0.05831944942474365,0.0012770891189575195
113,-1.634928943662614,-1.348817745353313,-2.7706883990815836,-0.21970757842063904,0.9754637479782104,0.014109771698713303,-0.08709557354450226,0.4857957065105438,-0.02122664265334606,0.06077203154563904,0.02845776081085205,-0.06945335865020752
114,-1.578813405582659,-1.3498525839106084,-2.758283562929394,-0.21914316713809967,0.9756910800933838,0.0017569257179275155,-0.05944129452109337,0.3922520875930786,-0.006770652253180742,0.06669263541698456,-0.033766090869903564,0.026807546615600586
115,-1.621702892450266,-1.3529004479098645,-2.835744143235895,-0.21589577198028564,0.9763544797897339,0.011000016704201698,-0.41357657313346863,0.20561107993125916,-0.09519892930984497,-0.06152424216270447,0.05794727802276611,-0.00646817684173584
116,-1.8512376312888994,-1.3204629444366944,-3.0931742052493996,-0.23804911971092224,0.968829870223999,0.06856580823659897,-0.7267183065414429,0.2801221013069153,-0.21869324147701263,0.10467205941677094,0.0386468768119812,-0.09836626797914505
117,-1.967323809865689,-1.3020153733727577,3.0311958780673223,-0.2449515163898468,0.9640953540802002,0.10256265848875046,-0.15075084567070007,0.4668939411640167,0.06720011681318283,0.11020112037658691,-0.037688374519348145,-0.07050393521785736
118,-1.9293670961960587,-1.3140439023793837,3.0246078416289643,-0.23778951168060303,0.9672197699546814,0.08911684900522232,0.04953314736485481,0.3463144898414612,0.14417491853237152,-0.015353754162788391,0.018940389156341553,0.020212404429912567
119,-1.951374193989383,-1.3078264571134137,2.9727346104873047,-0.2413501739501953,0.9656222462654114,0.09656008332967758,-0.26561737060546875,0.2549828588962555,-0.2444949746131897,0.014818191528320312,-0.004913628101348877,0.012662410736083984
120,-1.9580964514815726,-1.2930967101793926,2.9462515276964667,-0.25383898615837097,0.9616886377334595,0.10354151576757431,0.05211688205599785,0.10346861928701401,-0.023560984060168266,0.004800289869308472,0.015591025352478027,0.00648951530456543
121,-1.970240059948086,-1.2802939274160885,2.9307969815176156,-0.2638850212097168,0.9581000804901123,0.11139580607414246,-0.1841544806957245,0.012963730841875076,-0.17794257402420044,0.024947643280029297,0.021056413650512695,0.007546424865722656
122,-2.0563820650864115,-1.2539120436162772,2.8413844173497593,-0.27558645606040955,0.9502109289169312,0.14543560147285461,-0.49023157358169556,-0.028219128027558327,-0.19567088782787323,0.04134875535964966,-0.0258944034576416,-0.014545664191246033
123,-2.2261704789885624,-1.19343346071977,2.679347686856141,-0.29213058948516846,0.9296395778656006,0.22456640005111694,-1.2413890361785889,-0.10042009502649307,-0.12208379060029984,0.10090741515159607,0.031160593032836914,0.05527973175048828
124,-2.4377348234828777,-1.0588375170585853,2.4924275236096434,-0.3170362114906311,0.8717865943908691,0.37346503138542175,-2.1505684852600098,0.20645707845687866,-0.31827422976493835,0.0884442925453186,0.12120962142944336,0.03832387924194336
125,-2.5919678585335113,-0.8847220355283897,2.336724568562504,-0.33092203736305237,0.7737389206886292,0.540202260017395,-1.5372209548950195,-0.05981888622045517,-0.11049702018499374,-0.04188069701194763,0.07683169841766357,-0.13704997301101685
126,-2.6161181293196827,-0.8266235844611356,2.322948864816032,-0.33978161215782166,0.735648512840271,0.5859779119491577,-0.30148136615753174,0.1857529878616333,-0.04891171678900719,0.02676275372505188,-0.02817457914352417,0.052495718002319336
127,-2.6167594809013286,-0.7880234675773897,2.2904913913869143,-0.3533777892589569,0.7089607119560242,0.6103271842002869,-0.5249194502830505,0.04618847742676735,0.0721103847026825,-0.02888551354408264,-0.026724815368652344,-0.01555478572845459
128,-2.6390076242240723,-0.7952109533154589,2.303236035658157,-0.3372492790222168,0.7140113115310669,0.6135556101799011,0.6628798246383667,-0.4763016104698181,-0.2375214695930481,-0.016342610120773315,-0.00400465726852417,-0.07591229677200317
129,-2.646347424384464,-0.8519610470473671,2.405075613291155,-0.3129546046257019,0.7525731921195984,0.5793904066085815,-0.009829363785684109,-0.5263224840164185,-0.303914874792099,0.0662047266960144,-0.10729420185089111,0.23001211881637573
130,-2.690388048405161,-0.8181728088418871,2.3837112857675775,-0.2980645000934601,0.7298980355262756,0.6151473522186279,-0.7033838033676147,-0.7159607410430908,0.08802679926156998,-0.06993165612220764,-0.062188804149627686,-0.0727584958076477
131,-2.744236935821535,-0.8023570912984902,2.3670089691038676,-0.26895737648010254,0.7189962863922119,0.6408633589744568,0.1257639229297638,1.2617385387420654,0.17450834810733795,-0.10109871625900269,-0.035173773765563965,0.03679454326629639
132,-2.6336105879672056,-0.8801880374752313,2.3952688807267783,-0.309849351644516,0.770858645439148,0.5565698742866516,2.294684410095215,-0.8969234228134155,0.24170181155204773,0.07028639316558838,0.0996856689453125,-0.07413280010223389
133,-2.671381225230671,-1.1225504166070723,2.5196444708326906,-0.19635622203350067,0.9012086987495422,0.386351615190506,1.5141407251358032,-0.29824212193489075,0.8055301904678345,-0.16529236733913422,0.038534581661224365,0.31092938780784607
134,-2.6785530220703015,-1.1919251066050442,2.4949906478163246,-0.16521058976650238,0.9290827512741089,0.33092400431632996,-0.29871997237205505,0.468197762966156,-0.009060248732566833,-0.1060449481010437,-0.06805980205535889,0.19683170318603516
135,-2.6888630316869224,-1.1305855980705357,2.425800985378478,-0.18639861047267914,0.9046618938446045,0.3832002580165863,-0.24397698044776917,0.26215627789497375,-0.061555806547403336,-0.04867829382419586,-0.030058681964874268,-0.08673718571662903
136,-2.6282543993419756,-1.1241476756727031,2.4563290752799896,-0.2121231108903885,0.9018997550010681,0.3762718141078949,0.20091407001018524,0.2070152461528778,-0.40229853987693787,-0.030720531940460205,0.05529928207397461,0.025324225425720215
137,-2.625601121010455,-1.1034852812838452,2.4485237176273413,-0.22226937115192413,0.8927828669548035,0.3918357193470001,-0.48316341638565063,-0.024452079087495804,0.23512768745422363,0.05712348222732544,0.07347995042800903,0.010523319244384766
138,-2.710305299699417,-1.0792660414872801,2.344374736049097,-0.19730505347251892,0.8816116452217102,0.4287561774253845,-0.40644505620002747,0.1775446981191635,0.3129332363605499,-0.026144683361053467,-0.011463820934295654,-0.03456050157546997
139,-2.753549491098927,-1.057260852328639,2.2723676277395395,-0.18588176369667053,0.8710131049156189,0.4547351598739624,-0.230068638920784,0.20293617248535156,0.09271693974733353,-0.037079647183418274,-0.06306028366088867,-0.08170357346534729
140,-2.7476644628309295,-1.0471929627584224,2.2738789539907427,-0.1919107884168625,0.8660231232643127,0.4617077112197876,0.05562040954828262,-0.2267502248287201,-0.2987857758998871,-0.06301778554916382,0.01576697826385498,-0.020606696605682373
141,-2.7173407926268953,-1.0227635001732707,2.290751300035353,-0.214467853307724,0.8535510897636414,0.4748203754425049,0.011160441674292088,0.11191435158252716,-0.1839618682861328,0.03780156373977661,0.05274480581283569,-0.0003330111503601074
142,-2.7155251574899117,-1.0021342669553834,2.2736428560947806,-0.22256051003932953,0.8426222205162048,0.49036186933517456,-0.27689293026924133,-0.007931266911327839,0.15686647593975067,0.038829416036605835,0.01931631565093994,-0.01973491907119751
143,-2.7341038567820943,-0.9929690157001029,2.23064177233144,-0.21646392345428467,0.8376513719558716,0.5014814734458923,-0.03851724788546562,-0.09625846147537231,0.11285556107759476,-0.04244726896286011,0.04171276092529297,-0.037949979305267334
144,-2.741990907511497,-0.9777769270954451,2.232291658164364,-0.21742837131023407,0.8292570114135742,0.5148379802703857,-0.09904570132493973,-0.2527921497821808,-0.24207797646522522,0.004537686705589294,0.04551428556442261,-0.04099142551422119
145,-2.7945713874939186,-0.9657354495520801,2.2310049793745854,-0.19345206022262573,0.8224674463272095,0.5349055528640747,-0.2091071903705597,-0.6110662221908569,0.28052377700805664,0.006531894207000732,0.016247272491455078,0.04584413766860962
146,-2.8822089983825085,-0.9124634337064015,2.165184099511698,-0.15691722929477692,0.791013240814209,0.5913333892822266,-0.6143109798431396,-0.3020344078540802,0.14686621725559235,0.004665002226829529,-0.04675048589706421,-0.07438081502914429
147,-2.9409974894890696,-0.9025802019657699,2.158096380767273,-0.12345433235168457,0.7849282026290894,0.6071631908416748,0.015852665528655052,-0.37312743067741394,0.0075614978559315205,0.016246065497398376,0.027159929275512695,0.05357295274734497
148,-2.957120055328425,-0.8840911383097116,2.1336025705990727,-0.1162920594215393,0.7733390927314758,0.6232357025146484,-0.18238244950771332,-0.1609395146369934,0.31797754764556885,0.0634966641664505,0.029532551765441895,-0.04167753458023071
149,-3.0158518376909154,-0.8603805048263893,2.066506109848358,-0.08178579807281494,0.7580907344818115,0.6470000147819519,-0.2913813889026642,-0.19164256751537323,0.20290660858154297,-0.07997260242700577,-0.02699655294418335,-0.0760926604270935
150,-3.076046781962346,-0.8448335475117011,2.047885527035575,-0.04348183050751686,0.7478606104850769,0.6624298691749573,-0.24862264096736908,-0.3392365276813507,0.02889634110033512,-0.04451559856534004,-0.041104257106781006,0.07296735048294067
151,-3.0913668583574805,-0.7972547689558146,2.06329139393946,-0.035076674073934555,0.7154407501220703,0.6977922916412354,-0.3665831685066223,-0.5927581191062927,-0.2968207597732544,-0.07983726263046265,0.03400987386703491,0.009345769882202148
152,-3.1078699943464523,-0.7696845224996904,2.08361585717645,-0.024212675169110298,0.6959087252616882,0.7177220582962036,-0.14188694953918457,0.09397897869348526,-0.06206531822681427,-0.015856895595788956,0.06358230113983154,-0.08147627115249634
153,-3.0771630616015964,-0.7847253205711048,2.0949478924376557,-0.04555770754814148,0.7066308259963989,0.7061142325401306,0.6635286211967468,0.1530931442975998,-0.08158515393733978,0.05150863528251648,0.049793124198913574,-0.03967142105102539
154,-3.044905729180909,-0.8477784472478247,2.0813220569272253,-0.06387331336736679,0.7498123645782471,0.6585600972175598,0.8738235235214233,0.4754495322704315,0.23384904861450195,-0.016006432473659515,0.027958571910858154,-0.07659000158309937
155,-2.984443133913678,-0.9192493227645553,2.086622818248032,-0.09490636736154556,0.795146644115448,0.5989443063735962,0.20949430763721466,0.5848362445831299,-0.08307059109210968,-0.026095792651176453,0.027286767959594727,0.11829495429992676
156,-2.9395032106631795,-0.9406521407248795,2.074860951350105,-0.11827454715967178,0.8079425692558289,0.5772693157196045,0.18882876634597778,0.2727091312408447,0.18591426312923431,0.06407533586025238,0.05076098442077637,0.03537100553512573
157,-2.962000346025498,-0.9546330009893059,2.001823400111945,-0.10323087871074677,0.8161017298698425,0.5686136484146118,0.06369635462760925,0.3348774015903473,0.37785300612449646,-0.043039850890636444,0.01382380723953247,-0.03492218255996704
158,-2.9423449346541015,-0.9732564034992615,1.9625746717559436,-0.1113586500287056,0.8267222046852112,0.5514798164367676,0.32865750789642334,0.45119157433509827,0.0800234004855156,-0.011947646737098694,-0.02345365285873413,-0.0435146689414978
159,-2.9074269808709925,-0.9748904216125541,1.93030860338399,-0.13022972643375397,0.8276404142379761,0.5459410548210144,-0.14277535676956177,0.7201014161109924,0.29723086953163147,0.04517720639705658,0.04642891883850098,-0.012112319469451904
160,-2.8918752011595554,-0.9755328040999021,1.8668875895120272,-0.1385726034641266,0.8280007839202881,0.5433347225189209,0.09781882166862488,0.6002958416938782,0.26290035247802734,-5.3510069847106934e-05,0.00024640560150146484,0.003097832202911377
161,-2.842693382967363,-0.9978418401021313,1.8504508101399324,-0.15963627398014069,0.8403029441833496,0.518079936504364,0.017212999984622,0.4316450357437134,0.2157159447669983,0.07046395540237427,-0.048982322216033936,0.10495150089263916
162,-2.837949020939296,-0.9821149491708244,1.821233111094363,-0.1660236269235611,0.8316735625267029,0.5298630595207214,-0.2972305417060852,0.23226304352283478,-0.00713396118953824,0.023964300751686096,-0.011788487434387207,0.040632426738739014
163,-2.8138932551204876,-0.9620937321274027,1.8216606241959243,-0.18404404819011688,0.8203905820846558,0.5413755178451538,0.0750655084848404,0.08520001173019409,-0.08232031762599945,0.06974045932292938,0.05660843849182129,0.002402007579803467
164,-2.808085190522962,-0.9593615851626601,1.8338596301262615,-0.18791817128658295,0.8188252449035645,0.5424128770828247,0.06401621550321579,-0.04467632248997688,-0.11655782908201218,0.04385998845100403,0.025794386863708496,-0.015664279460906982
165,-2.810023114989626,-0.9664025136633966,1.8468339220169565,-0.18498529493808746,0.8228467106819153,0.5373114347457886,0.10757481306791306,-0.11386316269636154,-0.1036950945854187,-0.02308356761932373,-0.01950204372406006,-0.020038485527038574
166,-2.791516191364174,-0.9669349642126907,1.8822397317582893,-0.19474677741527557,0.8231492042541504,0.5333845019340515,0.08788421750068665,-0.27705663442611694,-0.16224564611911774,-0.014771640300750732,-0.03819131851196289,-0.014417886734008789
167,-2.773229976238804,-0.971106892607328,1.9299592313369296,-0.20322874188423157,0.8255109190940857,0.526525616645813,0.2049967348575592,-0.08021850138902664,-0.3841223120689392,-0.10467830300331116,-0.0026503801345825195,0.03531801700592041
168,-2.6937892597808926,-0.9653704361377217,2.0130866351628764,-0.2464180439710617,0.822259783744812,0.5129981637001038,0.13393554091453552,0.3567569851875305,-0.45582565665245056,-0.1070060133934021,-0.04560267925262451,0.06422662734985352
169,-2.579073036299171,-0.9684954262213151,2.1119751116547225,-0.30214688181877136,0.8240342736244202,0.4792444109916687,0.574970006942749,-0.24086880683898926,-0.3604823052883148,-0.011848539113998413,-0.07316434383392334,-0.007152736186981201
170,-2.5538305991325414,-0.9652134982302724,2.188268492339467,-0.3156442940235138,0.8221704959869385,0.4737132787704468,0.07876976579427719,-0.1539951115846634,-0.42178869247436523,-0.044951409101486206,-0.013851463794708252,-0.034168630838394165
171,-2.5173899466631786,-0.9668015022664013,2.262434746968304,-0.3319297730922699,0.8230733871459961,0.4608389437198639,0.3645639419555664,-0.37423864006996155,-0.39944732189178467,-0.026102453470230103,-0.043456196784973145,0.03676527738571167
172,-2.5227899637410482,-0.9726363173025043,2.318669504262745,-0.3266451954841614,0.8263731598854065,0.45870500802993774,0.10198098421096802,-0.8026807308197021,0.001977865118533373,-0.037521034479141235,-0.0059996843338012695,0.06821152567863464
173,-2.698257464908541,-0.9757873925851942,2.2891836971070276,-0.24043606221675873,0.8281434774398804,0.5063289999961853,-0.4193587303161621,-1.4678149223327637,0.20649652183055878,-0.10377174615859985,0.00738215446472168,0.0367160439491272
174,-2.8126168313613737,-0.9498531117997978,2.272929444192382,-0.18796539306640625,0.8133300542831421,0.5506030917167664,0.029959704726934433,-0.39930835366249084,-0.2488890439271927,-0.11528782546520233,0.048990070819854736,-0.10086536407470703
175,-2.792537152528519,-0.9658274195838922,2.330316144235974,-0.19451390206813812,0.8225197792053223,0.5344398021697998,0.08735428750514984,-0.17400918900966644,-0.22686417400836945,-0.01830047369003296,-0.005411505699157715,0.03568965196609497
176,-2.7838279942524133,-0.981857138309243,2.3684113742629327,-0.19451847672462463,0.8315303921699524,0.5203074216842651,0.07540106773376465,-0.2758575975894928,-0.12069985270500183,-0.021805375814437866,-0.04933434724807739,0.09536945819854736
177,-2.7848126007315774,-0.9878535467844228,2.3833122590416354,-0.19226105511188507,0.8348463177680969,0.5158169865608215,0.22104017436504364,0.03315703943371773,-0.08281830698251724,-0.09506192803382874,-0.017600953578948975,-0.009972870349884033
178,-2.7436976764310215,-0.9877329603379845,2.4370013654495706,-0.21333955228328705,0.8347799181938171,0.5075716972351074,0.09998273104429245,-0.09542153030633926,-0.2143578976392746,-0.016701966524124146,0.03375047445297241,-0.011172711849212646
179,-2.72481166239669,-0.985013825058633,2.4688605351478676,-0.22380487620830536,0.8332797288894653,0.5055257081985474,-0.0671364814043045,-0.012862199917435646,-0.14304110407829285,-0.011455118656158447,0.04584014415740967,0.0032786130905151367
180,-2.7097736256823994,-0.9710911926320953,2.4749977583725316,-0.23621441423892975,0.8255020976066589,0.5125908255577087,-0.22117187082767487,0.04359689727425575,0.15641210973262787,-0.002646714448928833,-0.011506617069244385,-0.01233130693435669
181,-2.73459135646694,-0.9471059348121107,2.45610796950713,-0.23119431734085083,0.8117286562919617,0.5363258123397827,-0.2525803744792938,0.06275381147861481,-0.28701403737068176,-0.02988351881504059,-0.06388026475906372,-0.09038782119750977
182,-2.6839598887149414,-0.9370532558712716,2.505884628664579,-0.2616336941719055,0.805816650390625,0.5312317609786987,0.29002755880355835,0.04686804115772247,-0.33014175295829773,0.0016239583492279053,0.13777148723602295,0.04248344898223877
183,-2.688214734894432,-0.9512357649429113,2.531247585546639,-0.2543395161628723,0.8141337037086487,0.5220133066177368,-0.1660047024488449,-0.25838205218315125,0.02334747090935707,0.08363944292068481,0.08802694082260132,0.058827757835388184
184,-2.7188601569651416,-0.9388606574849168,2.5036902167399098,-0.24234028160572052,0.8068856000900269,0.5387087464332581,0.021327171474695206,-0.06697718054056168,0.11124294251203537,0.07511916756629944,0.036498308181762695,-0.1108521819114685
185,-2.723073794746307,-0.9608161064275285,2.50109606131085,-0.23281122744083405,0.8196593523025513,0.5234098434448242,0.06727899610996246,-0.06933241337537766,-0.049312420189380646,0.09215569496154785,0.02781391143798828,-0.017184197902679443
186,-2.7374611878900015,-0.9709276734876301,2.490871421551082,-0.22198641300201416,0.8254097700119019,0.5190579295158386,0.08399231731891632,-0.10329214483499527,0.07876339554786682,0.06048738956451416,0.02983015775680542,-0.061782240867614746
187,-2.7517186435751726,-0.9826713565314737,2.4873853020077474,-0.21086472272872925,0.831982433795929,0.5131681561470032,0.3454701602458954,-0.15933440625667572,-0.2804636061191559,-0.06438860297203064,0.035342514514923096,-0.11849945783615112
188,-2.701926079895249,-1.0129713603266801,2.5527010952240143,-0.2253081053495407,0.8484084606170654,0.4789985418319702,0.3916800916194916,-0.061475902795791626,-0.2636280953884125,-0.08522355556488037,0.03364121913909912,0.07391899824142456
189,-2.6785805718300955,-1.0322775882205277,2.5940187573733295,-0.22906841337680817,0.8584693074226379,0.4588656425476074,0.21871250867843628,-0.12782470881938934,0.08259747922420502,0.0024907290935516357,-0.06673669815063477,0.11080586910247803
190,-2.6954511428648047,-1.0334455091719708,2.5807911470349794,-0.22086209058761597,0.8590677380561829,0.46175989508628845,-0.1287800520658493,-0.047294627875089645,0.08418918401002884,-0.06321074068546295,-0.05776786804199219,0.0652938187122345
191,-2.7009205011986825,-1.0115186259483673,2.5754016266641515,-0.2263149470090866,0.8476385474205017,0.4798855483531952,-0.011415516026318073,-0.07657205313444138,-0.05615873634815216,-0.038028284907341,-0.010678887367248535,-0.005352586507797241
192,-2.693778541441808,-1.005481752211752,2.5914078203920927,-0.23194819688796997,0.8444201350212097,0.48286131024360657,-0.03613412007689476,-0.06918191909790039,-0.0592259019613266,-0.016739577054977417,-0.030958712100982666,-0.010067641735076904
193,-2.6856128077062573,-0.9919334627149631,2.601790424995139,-0.24089913070201874,0.8370853066444397,0.49117809534072876,-0.037421196699142456,0.06846480071544647,-0.09939315915107727,0.008339941501617432,-0.018893718719482422,-0.033689141273498535
194,-2.6552070428792263,-0.9941680237244466,2.619742780886202,-0.25484520196914673,0.838305652141571,0.48197275400161743,0.07369807362556458,0.13057133555412292,-0.055698808282613754,-0.016807079315185547,-0.038653433322906494,0.06795400381088257
195,-2.6253298126335203,-0.9862891458676385,2.6366416564639703,-0.27238109707832336,0.8339841365814209,0.47987356781959534,0.005345406476408243,0.08908078074455261,-0.33307111263275146,-0.07986798882484436,-0.025085389614105225,0.09179678559303284
196,-2.6123479753737175,-0.9751293528005429,2.6822842640279396,-0.2832692861557007,0.8277744650840759,0.4843014180660248,0.08344639837741852,-0.6121475696563721,-0.17771746218204498,-0.08449804782867432,-0.0335087776184082,0.07679471373558044
197,-2.6145854114995877,-0.9553431417766992,2.72527248025867,-0.29036664962768555,0.816511869430542,0.49899420142173767,0.12146937847137451,-0.3336806297302246,-0.2448389083147049,-0.024116933345794678,-0.022536158561706543,-0.013154476881027222
198,-2.6257916159237467,-0.9423004069118592,2.7662593044930133,-0.28998512029647827,0.8089126944541931,0.5114378929138184,0.1810738444328308,-0.28439801931381226,-0.13592521846294403,-0.002876758575439453,0.001801908016204834,-0.029153406620025635
199,-2.594166446390646,-0.9662070093846298,2.8068930606246094,-0.2958601117134094,0.822735607624054,0.4853591024875641,0.2508625090122223,0.10248110443353653,-0.08709634095430374,0.0034406185150146484,0.014254927635192871,0.07196831703186035
200,-2.5766391903434602,-0.9726790853553684,2.8361309077809413,-0.3014640510082245,0.8263972401618958,0.47559165954589844,0.005444896407425404,-0.2834845185279846,-0.1621832400560379,-0.030963927507400513,-0.0191308856010437,0.05498701333999634
201,-2.583845382856978,-0.9816057405868263,2.86293254988914,-0.2941126823425293,0.8313907384872437,0.4714736342430115,0.20854948461055756,-0.2933938503265381,-0.12029024958610535,-0.002914935350418091,-0.0224459171295166,0.008079588413238525
202,-2.588753838028098,-0.9832553540747829,2.897102067519966,-0.2910744249820709,0.8323062658309937,0.4717438519001007,0.1920529156923294,-0.3828330934047699,-0.1881706416606903,0.025434136390686035,0.014083623886108398,-0.029452502727508545
203,-2.5958223682081836,-0.9886054114438844,2.9415115056683816,-0.28541699051856995,0.8352599740028381,0.4699764847755432,0.2983805239200592,-0.39585328102111816,-0.26252278685569763,-0.019941896200180054,0.022207677364349365,-0.04578220844268799
204,-2.568472188213948,-0.9966272992336356,3.025998926322162,-0.2945198714733124,0.8396438956260681,0.45635122060775757,0.22412525117397308,-0.5850146412849426,-0.45003634691238403,0.012400120496749878,1.6093254089355469e-06,0.010232031345367432
205,-2.562709172923294,-0.9964387101282155,3.109647674630786,-0.2972317039966583,0.839541494846344,0.45477908849716187,0.2830452620983124,-0.6808781027793884,-0.3469955027103424,-0.017236709594726562,0.018735110759735107,0.003671407699584961
206,-2.559129113966281,-0.9927396069346712,-3.0992966955426446,-0.3005640506744385,0.8375260233879089,0.4563021957874298,0.1751764714717865,-0.6970078945159912,-0.39813339710235596,0.013958185911178589,0.033094823360443115,-0.024280011653900146
207,-2.5682458891711053,-0.9829404865864234,-3.042289647152851,-0.3008289337158203,0.8321316838264465,0.46589547395706177,0.2095065712928772,-0.32571712136268616,-0.1766410768032074,0.04912000894546509,0.048162996768951416,-0.11155590415000916
208,-2.562704599730707,-0.991225627773769,-3.0096677815161117,-0.2996238172054291,0.8366978168487549,0.4584345519542694,0.09472529590129852,-0.11007001250982285,-0.15772351622581482,-0.024732232093811035,0.053698182106018066,-0.05259650945663452
209,-2.547970418527553,-0.9829585614502242,-2.97792175948939,-0.31020447611808777,0.8321416974067688,0.4596885144710541,-0.07252003252506256,0.01197054609656334,-0.20564277470111847,0.01693052053451538,0.008724451065063477,-0.03738623857498169
210,-2.5460815179878744,-0.9718689480656495,-2.972911410907283,-0.3162290155887604,0.8259407877922058,0.46671247482299805,-0.06428474187850952,0.07386156916618347,0.0015280614607036114,-0.05323195457458496,0.06642353534698486,-0.0841747522354126
211,-2.5335920042076205,-0.9653329349253932,-2.9880486840477363,-0.32511016726493835,0.8222384452819824,0.4671478867530823,-0.19618552923202515,0.35773327946662903,0.20121440291404724,0.04447054862976074,0.12664449214935303,-0.11756902933120728
212,-2.5322200591011232,-0.9740788871268429,-3.0513210077040855,-0.32162266969680786,0.8271846175193787,0.4607871174812317,-0.2490157186985016,0.6728113293647766,0.46416109800338745,0.0365578830242157,0.06112116575241089,-0.044679880142211914
213,-2.540743042144626,-0.9964785957894092,3.1289359293160546,-0.3071295917034149,0.8395631313323975,0.4481126368045807,-0.14555485546588898,0.7920345067977905,0.563958466053009,-0.04840019345283508,-0.03362452983856201,0.03388184309005737
214,-2.5544816200075693,-0.9995022084705395,3.0349484190727667,-0.2995370030403137,0.841201901435852,0.45017457008361816,-0.23895691335201263,0.5526677966117859,0.27830970287323,-0.08734959363937378,-0.04100048542022705,0.024190664291381836
215,-2.569365134927618,-0.9763216843538036,2.9770223509024105,-0.30328312516212463,0.8284428715705872,0.4708518981933594,-0.5108523964881897,0.16456635296344757,0.08666939288377762,-0.015183031558990479,-0.043210387229919434,0.03432074189186096
216,-2.600616708191442,-0.943184606625035,2.921273654454243,-0.3023989498615265,0.8094322681427002,0.5033631920814514,-0.37495437264442444,0.2797042727470398,0.1823003739118576,0.02787807583808899,-0.0057212114334106445,-0.029898107051849365
217,-2.6009176661650337,-0.9387767076304593,2.879714292378997,-0.3040808141231537,0.8068360090255737,0.5065079927444458,-0.03860245645046234,0.31173038482666016,0.21909087896347046,0.030780673027038574,-0.0012483596801757812,0.0026472806930541992
218,-2.5985939935096414,-0.946348958315709,2.8386977595690377,-0.30209144949913025,0.8112863302230835,0.5005549192428589,-0.06234519183635712,0.3227384388446808,0.11929464340209961,-0.04408469796180725,-0.04566138982772827,0.019205152988433838
219,-2.588628494665615,-0.9391699964535274,2.8288191028316354,-0.3101155757904053,0.8070682883262634,0.5024628639221191,-0.11342638731002808,0.06695821136236191,-0.14723160862922668,-0.05687355995178223,-0.01815849542617798,0.030648648738861084
220,-2.5760176127354235,-0.919026486782854,2.8282780932521803,-0.3250750005245209,0.7950114607810974,0.5121362209320068,-0.20793549716472626,0.1840679794549942,-0.044352613389492035,0.00020000338554382324,0.023470163345336914,0.010446906089782715
221,-2.5630263460324456,-0.9091343620065833,2.8170365011974803,-0.3359846770763397,0.7889721393585205,0.5144292712211609,-0.06078099086880684,0.2092197984457016,0.02468929998576641,0.005143582820892334,-0.004761815071105957,-0.006662547588348389
222,-2.558134165292082,-0.9035624945304972,2.80952643261593,-0.34091395139694214,0.7855364084243774,0.5164402723312378,-0.12221266329288483,0.1480264812707901,0.0002196433488279581,-0.010114520788192749,-0.0029282569885253906,-0.012594997882843018
223,-2.5488448768165743,-0.8953144787980418,2.8052993172363205,-0.3493039608001709,0.7804057598114014,0.5186070799827576,-0.11870773881673813,0.060345254838466644,0.015519495122134686,0.014358311891555786,0.022618412971496582,0.005028665065765381
224,-2.552580682796933,-0.8947911481741195,2.790508916059895,-0.34759119153022766,0.7800784111022949,0.5202482342720032,-0.11413832008838654,0.07758486270904541,0.12716355919837952,0.024120092391967773,-0.0007510185241699219,0.010315179824829102
225,-2.563997028962384,-0.8965078187197328,2.7613737851645546,-0.34089767932891846,0.7811513543128967,0.5230598449707031,-0.05903463810682297,0.09121771901845932,0.1554708182811737,-0.03253072500228882,-0.014076650142669678,0.0007744431495666504
226,-2.5736677140590203,-0.8942183902906864,2.7388292235650704,-0.33678433299064636,0.7797199487686157,0.5278379917144775,-0.08390584588050842,0.06389206647872925,0.08589453250169754,-0.026695281267166138,-0.03570151329040527,0.0022827982902526855
227,-2.576751876511695,-0.8850905264595205,2.7284489360968487,-0.3389504551887512,0.7739723324775696,0.5348637700080872,-0.014676110818982124,0.021455444395542145,-0.04766266793012619,-0.041206955909729004,-0.037461161613464355,0.01805359125137329
228,-2.562042545444492,-0.8747862375496369,2.741198938247823,-0.35113006830215454,0.7674064636230469,0.5364649295806885,0.027173511683940887,0.09155512601137161,-0.11574171483516693,-0.039861083030700684,-0.023815274238586426,0.05072367191314697
229,-2.536056017793771,-0.865037293332699,2.766262777114573,-0.36919209361076355,0.7611194252967834,0.5332866311073303,0.06938168406486511,-0.03795458376407623,-0.19627709686756134,-0.01601603627204895,-0.04648923873901367,0.05283409357070923
230,-2.5169479393270175,-0.8588631359186412,2.8027631142709235,-0.38205501437187195,0.7571003437042236,0.5299368500709534,0.24393858015537262,-0.13183774054050446,-0.17673343420028687,-0.0015204548835754395,-0.030476808547973633,0.024369120597839355
231,-2.501145763850736,-0.8604363384117621,2.8447744538175574,-0.38966891169548035,0.7581271529197693,0.5228779911994934,0.1448793113231659,-0.17745070159435272,-0.20413890480995178,-0.03072601556777954,-0.0033817291259765625,0.024500489234924316
232,-2.495264700895721,-0.8570057122684788,2.879347143016937,-0.39430105686187744,0.7558856010437012,0.5226501822471619,0.10004875808954239,-0.17928016185760498,-0.1434236764907837,-0.014329254627227783,0.021702170372009277,-0.009710907936096191
233,-2.486183731724045,-0.855278908408088,2.904913095409729,-0.3998260200023651,0.7547538876533508,0.5200822949409485,0.03198114037513733,-0.022953299805521965,-0.08092501014471054,0.0056915283203125,0.01760011911392212,0.005628764629364014
234,-2.479554259531081,-0.8516474856779943,2.9163982913547843,-0.4049473702907562,0.7523667216300964,0.519578754901886,0.021157246083021164,-0.04585536941885948,-0.059578172862529755,0.03191578388214111,0.00332486629486084,0.02996647357940674
235,-2.491921470262444,-0.8484981107367153,2.909924959214308,-0.39992204308509827,0.7502883076667786,0.5264309048652649,-0.09356033056974411,-0.10235496610403061,0.036444954574108124,-0.010463058948516846,0.012010157108306885,0.0030031800270080566
236,-2.499499799679756,-0.8453263702475009,2.9044034614087306,-0.3973444700241089,0.7481877207756042,0.5313498973846436,0.004193805158138275,0.022101715207099915,-0.01011394802480936,-0.002374798059463501,0.0029109716415405273,-0.014244794845581055
237,-2.5010445723953203,-0.8425884778210578,2.902944933845399,-0.3977457582950592,0.7463683485984802,0.5336032509803772,-0.07987914234399796,-0.012149970978498459,0.021048156544566154,0.0017192065715789795,0.0204925537109375,-0.004046976566314697
238,-2.5079235339125403,-0.8399629962551407,2.889220906403685,-0.3952248990535736,0.7446184158325195,0.5379043221473694,-0.09902842342853546,0.05449678376317024,0.12050149589776993,0.033240556716918945,0.024836599826812744,-0.0012221932411193848
239,-2.5222186361769268,-0.8421787773807204,2.8598479779214223,-0.3865366578102112,0.746095597743988,0.5421541929244995,-0.08140773326158524,0.08820658177137375,0.17934513092041016,0.009659796953201294,-0.01597774028778076,0.006643474102020264
240,-2.534055072331932,-0.843015298577767,2.83450108426383,-0.37973591685295105,0.7466523051261902,0.54617840051651,-0.05095641314983368,0.03983059898018837,0.10595165193080902,-0.016443252563476562,-0.02910780906677246,0.0036873221397399902
241,-2.535239549028308,-0.8393742964056219,2.8272855108071573,-0.38063564896583557,0.7442253232002258,0.5488584041595459,-0.037691179662942886,0.03463157266378403,-0.005546056665480137,-0.011469542980194092,-0.011406660079956055,0.006485283374786377
242,-2.528393721885441,-0.8351997186353518,2.8300399429925602,-0.38616859912872314,0.7414305210113525,0.5487757325172424,0.0538131408393383,0.05636570230126381,-0.030623292550444603,0.0013724267482757568,0.0009554028511047363,0.004019796848297119
243,-2.5219320212949765,-0.835909707098418,2.8371508536257006,-0.3894006609916687,0.7419067621231079,0.5458402037620544,0.004922060761600733,-0.03145184367895126,-0.0051284730434417725,-0.0063208043575286865,0.00464475154876709,0.02367877960205078
244,-2.524740098796778,-0.8344449034030741,2.8393376250973037,-0.38849443197250366,0.7409238219261169,0.5478171706199646,0.052636437118053436,0.0034202919341623783,-0.06052587181329727,-0.011941909790039062,-0.005267143249511719,-0.00541311502456665
245,-2.5188209491078406,-0.8333642123497098,2.8468918132620686,-0.39219731092453003,0.7401975989341736,0.546158492565155,0.03906668722629547,-0.005686817690730095,-0.06529226899147034,-0.012572675943374634,-0.006860077381134033,0.008620619773864746
246,-2.510858170633986,-0.8282377906672116,2.8596428477278724,-0.3987661600112915,0.7367409467697144,0.5460752844810486,0.03690345957875252,-0.015359099954366684,-0.10799732059240341,0.004646927118301392,-0.00880521535873413,0.011816442012786865
247,-2.498364168530598,-0.8260342398230857,2.879513900899251,-0.4065302312374115,0.7352491617202759,0.5423482656478882,0.08756802976131439,-0.03692672401666641,-0.10063889622688293,0.024236589670181274,-0.036381423473358154,0.002634584903717041
248,-2.4900904499276004,-0.8243093933446057,2.895933378477654,-0.41177213191986084,0.7340790033340454,0.5399741530418396,-0.0065481457859277725,-0.023279139772057533,-0.06333126872777939,-0.006532400846481323,-0.031121671199798584,0.029697537422180176
249,-2.487442827142409,-0.8208364000362407,2.9032131996797257,-0.4147489070892334,0.7317161560058594,0.5409016609191895,0.03173518180847168,-0.0030183717608451843,-0.04081208258867264,-0.026352137327194214,-0.02682119607925415,0.0070719122886657715
250,-2.4790545311531114,-0.8200501956775149,2.9146698203069294,-0.41962534189224243,0.7311800718307495,0.537857174873352,0.06211933121085167,-0.025547023862600327,-0.010038269683718681,-0.01673024892807007,-0.007806658744812012,0.01109302043914795
251,-2.480403182764649,-0.8234094664297299,2.910537240178036,-0.4173887073993683,0.7334675788879395,0.5364806652069092,-0.001621331088244915,0.06291288137435913,0.14140300452709198,-0.017410367727279663,-0.00867527723312378,-0.0058258771896362305
252,-2.4811313899612903,-0.8277057844862846,2.8917633422235163,-0.4150610864162445,0.7363811135292053,0.5342912077903748,-0.06719864904880524,0.208778977394104,0.15123350918293,-0.04619684815406799,0.0363696813583374,-0.006947576999664307
253,-2.4694966533166824,-0.8268507370374616,2.869299898273829,-0.42164096236228943,0.7358023524284363,0.5299184322357178,-0.08568216860294342,0.21193838119506836,0.03748849034309387,-0.005360901355743408,0.039786577224731445,-0.011958897113800049
254,-2.469427917069921,-0.823998553879011,2.857344299108921,-0.42298266291618347,0.733867883682251,0.5315296649932861,-0.01961914822459221,0.007776032667607069,0.0802169069647789,0.09340804815292358,0.017459630966186523,-0.06496167182922363
255,-2.476293227045806,-0.8331621702923989,2.8484700621657986,-0.41515466570854187,0.7400617599487305,0.5291078090667725,0.029544968158006668,0.007950861006975174,0.01262263860553503,0.031426697969436646,0.050740182399749756,-0.030954182147979736
256,-2.4788140802301033,-0.8380246286773843,2.8566554655736667,-0.4116004705429077,0.7433232069015503,0.527309775352478,0.024155940860509872,-0.16449463367462158,-0.09940885007381439,0.0624336302280426,0.05390268564224243,-0.0460323691368103
257,-2.4816793592789343,-0.8456778522341841,2.872470459086649,-0.4065884053707123,0.7484208345413208,0.5239771008491516,0.11633610725402832,-0.071403369307518,-0.02016475237905979,0.07792931795120239,0.0565565824508667,-0.07280528545379639
258,-2.486977738660681,-0.8650893040077591,2.8797157924793546,-0.39488542079925537,0.7611531615257263,0.514500617980957,0.01296950876712799,-0.10566845536231995,0.011928250081837177,-0.007931292057037354,0.07174766063690186,-0.020863652229309082
259,-2.495712910737902,-0.8731014225693497,2.8738151649305546,-0.38669320940971375,0.7663251161575317,0.513043999671936,-0.0506618395447731,0.032155897468328476,0.029566390439867973,0.012440890073776245,0.025377094745635986,-0.04034203290939331
260,-2.4963102817994574,-0.8778281634471632,2.8627506670609018,-0.3842037618160248,0.7693532705307007,0.5103751420974731,-0.018926754593849182,0.06597356498241425,0.1065126359462738,0.015917658805847168,0.017603397369384766,-0.01019209623336792
261,-2.5061487730450227,-0.8831146204049534,2.8408797511254886,-0.3767446279525757,0.7727196216583252,0.5108498930931091,-0.07781732827425003,0.07417885214090347,0.10450831055641174,-0.01890045404434204,-0.013091444969177246,0.031126976013183594
262,-2.5187635343541883,-0.8807162193008959,2.8207449716998156,-0.37135079503059387,0.7711949944496155,0.5170657634735107,-0.0221431702375412,-0.019209735095500946,0.12620779871940613,-0.028994083404541016,-0.0061345696449279785,0.03798794746398926
263,-2.540540164689883,-0.8771791135466299,2.7952554875797606,-0.36154380440711975,0.7689384818077087,0.5272754430770874,-0.09045662730932236,0.011373709887266159,0.1731720268726349,-0.006315052509307861,-0.03695923089981079,-0.023750722408294678
264,-2.549687651666578,-0.8820191587847173,2.779465556077167,-0.35462507605552673,0.7720237970352173,0.5274661183357239,0.017158042639493942,0.024805085733532906,0.08687640726566315,-0.04114213585853577,-0.058156490325927734,0.03483551740646362
265,-2.5472654885176587,-0.8815393548587493,2.778228468402943,-0.35610881447792053,0.7717187404632568,0.5269121527671814,-0.007407455705106258,0.007741609122604132,0.039550602436065674,-0.043274641036987305,-0.04829967021942139,0.06395387649536133
266,-2.551014331975109,-0.8701386089491211,2.778415263411646,-0.3590071499347687,0.7644183039665222,0.5355170369148254,0.06235342472791672,0.007057525683194399,-0.09958386421203613,-0.027497947216033936,-0.04093813896179199,0.003270864486694336
267,-2.5295158663015442,-0.865985916207685,2.8055113651158394,-0.372256875038147,0.7617344260215759,0.5302693843841553,0.08365628123283386,-0.04370298236608505,-0.15694618225097656,0.004733651876449585,-0.010132193565368652,0.04014992713928223
268,-2.5197198748460234,-0.8607444855831974,2.8268267434871626,-0.37975427508354187,0.7583280801773071,0.5298354029655457,0.03796449303627014,-0.10524079203605652,-0.057751405984163284,0.010613620281219482,0.013904094696044922,0.042643964290618896
269,-2.5274411859325037,-0.8586450734683969,2.8318010053369047,-0.37656837701797485,0.7569578886032104,0.5340514779090881,-0.02545703947544098,-0.11492305248975754,-0.037806302309036255,0.0023618340492248535,-0.004180788993835449,0.01265561580657959
270,-2.5296732373537925,-0.8606251124521962,2.836579567812047,-0.3745136857032776,0.7582502365112305,0.533662736415863,0.043959617614746094,-0.05094214901328087,-0.0354539230465889,-0.007093340158462524,-0.01119530200958252,0.012540876865386963
271,-2.5239197291350313,-0.8646196563516226,2.84628797910713,-0.3758208155632019,0.7608485221862793,0.5290257930755615,0.10825740545988083,-0.024535046890378,-0.03702247515320778,-0.0033143162727355957,-0.026626110076904297,0.04555916786193848
272,-2.5215273578210873,-0.8669088352398773,2.8617836565668067,-0.3760724365711212,0.762332022190094,0.5267065167427063,0.15246541798114777,-0.11148042231798172,-0.07225026190280914,-0.00876954197883606,-0.005648493766784668,0.03194832801818848
273,-2.5266105760888076,-0.8690217138617528,2.8816974042969417,-0.37246015667915344,0.7636977434158325,0.5272946357727051,0.13749484717845917,-0.23152129352092743,-0.07691674679517746,-0.006308853626251221,-0.011912286281585693,0.005328774452209473
274,-2.529977141695282,-0.8714482002109392,2.9046894928392586,-0.36961761116981506,0.7652619481086731,0.5270265936851501,0.15123772621154785,-0.1920243352651596,-0.13783076405525208,-0.039302676916122437,-0.006518661975860596,-0.020785808563232422
275,-2.518071832259855,-0.8781232959368862,2.952151056963347,-0.37287452816963196,0.7695418000221252,0.5184301733970642,0.18242524564266205,-0.31748440861701965,-0.27303388714790344,-0.029240339994430542,-0.01174461841583252,0.02839893102645874
276,-2.509185444192232,-0.8778731864301489,3.004884971924835,-0.3775807321071625,0.7693820595741272,0.515251874923706,0.28686025738716125,-0.37066763639450073,-0.30984967947006226,-0.0177287757396698,-0.01768815517425537,-0.0010611414909362793
277,-2.499006656876719,-0.8879168901755218,3.074789627617795,-0.37815552949905396,0.7757589221000671,0.5051698088645935,0.4180830717086792,-0.457148939371109,-0.2833516597747803,-0.038363635540008545,-0.06773585081100464,0.013720512390136719
278,-2.5100192977570237,-0.8975333798053957,-3.120983361022587,-0.36814767122268677,0.7817912697792053,0.503259003162384,0.432805597782135,-0.8099888563156128,-0.3121289908885956,-0.003953129053115845,0.016044974327087402,-0.004266083240509033
279,-2.51412167398217,-0.897359687168344,-3.079163709909035,-0.36615991592407227,0.7816829085350037,0.5048751831054688,-0.463765025138855,0.3074744939804077,0.18132609128952026,0.12662741541862488,-0.04109746217727661,0.21251684427261353
280,-2.6193407592239244,-0.7887266502445024,3.0108134224133276,-0.35155215859413147,0.7094564437866211,0.6108046174049377,-2.000783681869507,0.6041052341461182,0.464474618434906,-0.17206841707229614,0.057526469230651855,-0.02552342414855957
281,-2.6244269390678485,-0.7633535590965639,2.978519597003026,-0.3572281301021576,0.6913483738899231,0.6280332803726196,0.6606242656707764,-0.2759726047515869,0.17524124681949615,-0.019694507122039795,-0.006152331829071045,-0.15449196100234985
282,-2.6070036482442065,-0.8405831279186036,3.0250266244857826,-0.3398425579071045,0.7450321912765503,0.5739632844924927,0.7954133749008179,0.2683907747268677,-0.04655655100941658,-0.03151056170463562,0.010979712009429932,0.0586811900138855
283,-2.5831050016708392,-0.9162089431791546,3.0439909418819355,-0.3226228356361389,0.7932991981506348,0.5163248181343079,0.6605697870254517,0.06409425288438797,0.5720600485801697,0.05591443181037903,0.014592766761779785,0.07596045732498169
284,-2.582847954813522,-0.9884884542732062,3.040007365484,-0.2915422022342682,0.8351956605911255,0.46631667017936707,0.2757648229598999,0.2095080316066742,0.20740845799446106,-0.09484085440635681,-0.04038071632385254,0.05115467309951782
285,-2.578357470136185,-1.0134655568417856,3.047238814846452,-0.2824048399925232,0.8486699461936951,0.4472212791442871,0.11865562200546265,-0.1283191293478012,0.04431549087166786,-0.004490911960601807,-0.004218041896820068,0.01269388198852539
286,-2.589984026276435,-1.0173567248705049,3.0476308633101907,-0.27545350790023804,0.8507216572761536,0.4476584196090698,0.15107861161231995,-0.2024518996477127,-0.07790916413068771,-0.018858015537261963,-0.0072768330574035645,-0.059429049491882324
287,-2.56204125217662,-1.0228298199759358,3.0950731156812834,-0.2852988541126251,0.8535856604576111,0.4358851909637451,0.2730933129787445,-0.17099633812904358,-0.2266402244567871,-0.00048300623893737793,0.07376712560653687,-0.04558068513870239
288,-2.5403507882208975,-1.029160455282172,-3.1298181348115763,-0.29162290692329407,0.8568664789199829,0.425130158662796,0.2053263932466507,-0.4422873556613922,-0.20239119231700897,0.044461071491241455,0.033117473125457764,-0.0664876401424408
289,-2.532668738111514,-1.0440599090816776,-3.067010918101808,-0.28754526376724243,0.8644523024559021,0.41235867142677307,0.26839184761047363,-0.4891355335712433,-0.16486503183841705,0.03801831603050232,0.06906503438949585,-0.02028411626815796
290,-2.5442397710710014,-1.0499891443487064,-3.0329079664573233,-0.2798668146133423,0.8674178123474121,0.41141292452812195,0.11698359996080399,-0.3468981981277466,-0.09024639427661896,0.03401723504066467,-0.007447779178619385,-0.029943495988845825
291,-2.552066911150839,-1.0552660398012856,-2.9918513362292987,-0.2740897238254547,0.8700314164161682,0.409780889749527,0.20075400173664093,-0.5603435039520264,-0.23455847799777985,-0.026264309883117676,-0.0001887679100036621,-0.0042327046394348145
292,-2.5417241047425425,-1.0555719210585075,-2.9150612981331703,-0.27816301584243774,0.8701821565628052,0.40670445561408997,0.20380941033363342,-0.5407524704933167,-0.2625589668750763,0.06949904561042786,0.019817352294921875,0.016299664974212646
293,-2.546400640613156,-1.0551279798264908,-2.856994026418141,-0.27647465467453003,0.8699633479118347,0.408320814371109,0.10304467380046844,-0.5972805619239807,-0.31853383779525757,0.004547744989395142,-0.02108621597290039,0.0021712183952331543
294,-2.5367620230678014,-1.0457525486790813,-2.77564113217899,-0.28502243757247925,0.8653020262718201,0.4123278558254242,0.15170054137706757,-0.6334268450737,-0.3759291172027588,0.03183341026306152,0.02426999807357788,0.024958401918411255
295,-2.5396281960808498,-1.038043813776861,-2.692570466092455,-0.28760838508605957,0.8614123463630676,0.4186289310455322,0.21375246345996857,-0.6436863541603088,-0.4376809298992157,0.04239964485168457,0.005943000316619873,-0.0012705624103546143
296,-2.521476955490702,-1.0257082530108916,-2.5994198657054333,-0.30131158232688904,0.8550816178321838,0.42195555567741394,0.15066741406917572,-0.5354931950569153,-0.4708018898963928,0.030132412910461426,0.03528386354446411,0.022853314876556396
297,-2.5046103356458187,-1.0107729203116702,-2.5142369394665383,-0.31594666838645935,0.8472426533699036,0.42703354358673096,0.11195123195648193,-0.42193761467933655,-0.38630765676498413,0.06881532073020935,0.020921409130096436,-0.04284775257110596
298,-2.4917554182249866,-0.996775375082367,-2.451986552092621,-0.3285534977912903,0.8397243618965149,0.43233704566955566,0.019299030303955078,-0.391714483499527,-0.3904385268688202,0.02440008521080017,0.05822473764419556,-0.0068457722663879395
299,-2.4929174993488155,-0.9814670782202195,-2.413625231967154,-0.33577802777290344,0.8313136696815491,0.4429111182689667,0.02115800604224205,-0.31868278980255127,-0.08048191666603088,-0.004996448755264282,0.0856325626373291,0.004949450492858887
300,-2.5111165499216344,-0.9775560127661517,-2.400245764761391,-0.32957684993743896,0.8291335105895996,0.451571524143219,0.05408858507871628,-0.257302463054657,-0.1915132999420166,-0.022702813148498535,-0.03024435043334961,-0.05136394500732422
301,-2.5038751666206753,-0.9750493897322958,-2.3705411886909666,-0.33407458662986755,0.8277295827865601,0.45084166526794434,0.1557845175266266,-0.2069946527481079,-0.1354287564754486,-0.03741595149040222,-0.027604341506958008,-0.02562493085861206
302,-2.4888564950335086,-0.9671414078999178,-2.3223672139374925,-0.3447723686695099,0.8232663869857788,0.4509594142436981,0.04540155082941055,-0.2452237904071808,-0.300856351852417,-0.011779725551605225,0.003225862979888916,-0.027604371309280396
303,-2.4737344494179716,-0.9567013911865326,-2.2777694418430148,-0.3568558096885681,0.8172953128814697,0.45241835713386536,0.0656391829252243,-0.23863300681114197,-0.24551238119602203,-0.019380152225494385,-0.0036814212799072266,-0.02820873260498047
304,-2.4674268145775184,-0.9448203113845036,-2.2554033394933386,-0.3657383918762207,0.8103916645050049,0.4577123820781708,-0.04948897287249565,0.004881960805505514,-0.1251598596572876,-0.07719370722770691,0.04176586866378784,-0.008615761995315552
305,-2.4584569200999624,-0.9306716455687981,-2.244671078742171,-0.377029687166214,0.8020212650299072,0.46326062083244324,-0.09781578183174133,0.013128437101840973,0.002794866217300296,0.01301601529121399,0.025539100170135498,-0.026538878679275513
306,-2.4579412209617506,-0.9251627333229433,-2.256142879427777,-0.38005369901657104,0.7987186908721924,0.4664846658706665,-0.15749284625053406,0.15460333228111267,-0.05161016061902046,-0.06315314769744873,-0.013913273811340332,-0.0058522820472717285
307,-2.442907182822871,-0.9124633980367292,-2.263964627808698,-0.39351633191108704,0.791013240814209,0.4684474468231201,-0.04796614497900009,0.058584656566381454,-0.04883923754096031,-0.043129146099090576,-0.050916194915771484,0.024014711380004883
308,-2.423195236572576,-0.9026415138198474,-2.238520764191237,-0.40776708722114563,0.7849661707878113,0.4664265215396881,0.1413777768611908,-0.11294545233249664,-0.20694783329963684,-0.04889780282974243,0.031684041023254395,0.02640172839164734
309,-2.4185942802013023,-0.899916342370724,-2.216096423585038,-0.41132253408432007,0.7832748889923096,0.46614766120910645,0.07569006830453873,-0.13110831379890442,0.05802499130368233,0.03690248727798462,-0.007274150848388672,0.0009694993495941162
310,-2.4375588641015735,-0.9068829007257783,-2.216922001534528,-0.39886724948883057,0.7875868082046509,0.46969351172447205,0.05014970153570175,-0.1055079847574234,-0.02466282621026039,-0.07453668117523193,0.012950301170349121,-0.04836773872375488
311,-2.427316201865229,-0.9096814452102532,-2.1998772969929594,-0.4022117257118225,0.7893081903457642,0.4639163017272949,0.025934254750609398,-0.1986069232225418,0.1627833992242813,0.02237468957901001,-0.00567781925201416,-0.008823037147521973
312,-2.498510602198922,-0.9373343719244985,-2.226373235032105,-0.3549647331237793,0.8059830665588379,0.47369974851608276,0.16137847304344177,-0.3101961016654968,-0.0959586575627327,-0.0516819953918457,-0.01466226577758789,-0.03986179828643799
313,-2.4994345074001334,-0.9427724759212823,-2.224173263475495,-0.3518964350223541,0.8091901540756226,0.4705103039741516,-0.038442064076662064,-0.028822632506489754,0.2294553518295288,0.09191721677780151,0.06042337417602539,0.04290205240249634
314,-2.5454521527726657,-0.9602158922011998,-2.2713419413729365,-0.3219051659107208,0.8193153738975525,0.47444644570350647,-0.00504643190652132,0.13989317417144775,0.15693235397338867,-0.046167343854904175,-0.02868121862411499,-0.05345654487609863
315,-2.564696349755655,-0.9799985641027972,-2.3054473267494178,-0.30381476879119873,0.8304965496063232,0.46687477827072144,0.1236119344830513,-0.003979492001235485,0.26762041449546814,-0.04278862476348877,-0.04637789726257324,0.02253556251525879
316,-2.5578154067856294,-0.9900287439546896,-2.3084576012790934,-0.30241337418556213,0.8360417485237122,0.45779943466186523,-0.02102377638220787,0.27693718671798706,0.08801926672458649,0.06071418523788452,0.08159124851226807,-0.012395411729812622
317,-2.5585688443479078,-0.9961595704236331,-2.3397943009661284,-0.2992408573627472,0.8393898010253906,0.45373982191085815,-0.0609341599047184,0.32880669832229614,0.1581803262233734,-0.009993761777877808,0.010799407958984375,-0.02504408359527588
318,-2.5515505257806392,-0.9962071321568279,-2.3759163858358754,-0.30239585041999817,0.8394156694412231,0.4515954554080963,-0.10725204646587372,0.5717836618423462,0.24290917813777924,0.04264545440673828,0.04441934823989868,-0.09118276834487915
319,-2.5372355537434035,-1.0005909287330241,-2.4412693420682845,-0.30673518776893616,0.8417901396751404,0.4441881775856018,-0.21677443385124207,0.8902984857559204,0.4171145558357239,0.03551018238067627,0.016242265701293945,-0.0625811219215393
320,-2.4972254440529777,-0.9996211143515863,-2.519315536770013,-0.324747234582901,0.8412662148475647,0.43221592903137207,-0.2911718785762787,1.0575579404830933,0.3288801610469818,0.07718861103057861,0.043987810611724854,0.003987133502960205
321,-2.4938469009091526,-1.0119014754404019,-2.629087330421457,-0.3199474811553955,0.8478416204452515,0.4228454530239105,-0.21268634498119354,0.9152228832244873,0.48796308040618896,0.002106904983520508,-0.035692572593688965,-0.03710329532623291
322,-2.4527966584322853,-1.0263475053867583,-2.7110749633375386,-0.32921102643013,0.8554129004478455,0.39986085891723633,-0.10744830965995789,1.1346160173416138,0.3198728859424591,0.0008419156074523926,-0.03369671106338501,0.050456464290618896
323,-2.4160235087278186,-1.0312552433629705,-2.773415824934438,-0.34089940786361694,0.8579445481300354,0.3843417167663574,-0.2307351976633072,0.6487720012664795,0.31414639949798584,0.02876564860343933,0.06824856996536255,0.1253780722618103
324,-2.4495402487275615,-1.0339171316036555,-2.8790462819441993,-0.3263701796531677,0.8593090176582336,0.39379003643989563,-0.3665359318256378,0.7776831984519958,0.463369756937027,0.043258607387542725,0.005009829998016357,-0.010428190231323242
325,-2.456704054441977,-1.031982355119936,-2.981717122580808,-0.3245917558670044,0.8583178520202637,0.39740464091300964,-0.3255111277103424,0.8161972761154175,0.333857923746109,-0.030419200658798218,0.00040090084075927734,-0.0011187195777893066
326,-2.455597324099971,-1.0077218883395351,-3.1005317349286403,-0.3381248414516449,0.8456180095672607,0.4130396246910095,-0.7967127561569214,0.9415205121040344,0.2745485305786133,-0.019693762063980103,0.11538046598434448,-0.054229170083999634
327,-2.4825553472131108,-0.9861762301198552,3.055883076310936,-0.33794867992401123,0.8339217901229858,0.4363085627555847,-0.48049819469451904,0.8976005911827087,0.3979353606700897,0.03039252758026123,0.03637850284576416,-0.03938162326812744
328,-2.4906285150146097,-0.9859863697111846,2.9508275134063293,-0.33451128005981445,0.8338170051574707,0.43914860486984253,-0.2997049391269684,0.739231288433075,0.45202651619911194,0.008247852325439453,0.0325922966003418,-0.031586408615112305
329,-2.486516562645932,-0.9799875243069645,2.8868500310649012,-0.3393554985523224,0.8304904103279114,0.4417281746864319,-0.2953384816646576,0.4689856171607971,0.2286704033613205,0.03582760691642761,0.037841618061065674,0.018644750118255615
330,-2.49621779711982,-0.971427734240554,2.8119628953652716,-0.3393177092075348,0.8256919980049133,0.45066192746162415,-0.4026782214641571,0.362740695476532,0.25590044260025024,0.009270161390304565,0.008414387702941895,0.08832427859306335
331,-2.5407903395113385,-0.9662512349310912,2.7156998610952585,-0.32131218910217285,0.8227607607841492,0.46885308623313904,-0.17589972913265228,0.20801176130771637,0.34993845224380493,-0.03705567121505737,-0.057257890701293945,0.010211914777755737
332,-2.566047946096647,-0.9728077564671718,2.6614280953661225,-0.30642619729042053,0.8264696598052979,0.47228285670280457,-0.14024043083190918,0.27318745851516724,0.35222887992858887,0.004942983388900757,-0.027244746685028076,0.025046885013580322
333,-2.5895347671499884,-0.9787574253709782,2.596151361753669,-0.29266616702079773,0.8298045992851257,0.47515350580215454,-0.19624483585357666,0.4166254997253418,0.29884135723114014,-0.04359179735183716,-0.027604281902313232,0.047429442405700684
334,-2.604739765450476,-0.9760597703043898,2.524901296178503,-0.2865518033504486,0.8282961249351501,0.48147040605545044,-0.23703405261039734,0.4787120819091797,0.29175761342048645,-0.08390110731124878,-0.024859726428985596,0.02940911054611206
335,-2.607451866064474,-0.966047983106714,2.4632688734049686,-0.28945231437683105,0.8226451873779297,0.48935890197753906,-0.2602519392967224,0.45572590827941895,0.2279597818851471,-0.07204365730285645,-0.06403928995132446,0.02618977427482605
336,-2.5812496975925705,-0.9548498417447491,2.4387183387231186,-0.3070507049560547,0.8162270188331604,0.48938044905662537,-0.09544815868139267,0.4347478449344635,-0.0479629784822464,-0.04350471496582031,-0.047931790351867676,0.015502303838729858
337,-2.5590082321413927,-0.9506043943219471,2.4218115622768606,-0.3197620213031769,0.8137668967247009,0.48531994223594666,-0.08642543107271194,0.37090378999710083,0.1675327867269516,-0.03215143084526062,-0.02981621026992798,0.02909955382347107
338,-2.564719034585148,-0.9539980657410522,2.3840908759571016,-0.315477192401886,0.8157346248626709,0.48482057452201843,-0.1459970325231552,0.2543692886829376,0.22170878946781158,-0.0025922060012817383,-0.027969181537628174,0.06252738833427429
339,-2.569274896703133,-0.9502145452183942,2.3361388660064475,-0.31493449211120605,0.8135402798652649,0.48884397745132446,-0.21473073959350586,0.37792012095451355,0.20753873884677887,-0.042670488357543945,-0.08426171541213989,0.02914607524871826
340,-2.5698803645169623,-0.9487639308718785,2.2942332358396462,-0.3152766525745392,0.8126958608627319,0.4900265038013458,-0.06262875348329544,0.2198522835969925,0.2768499255180359,-0.007675588130950928,0.04432922601699829,0.057229965925216675
341,-2.607133055041197,-0.9635198076530094,2.2470518731411597,-0.2906666398048401,0.821205198764801,0.49105456471443176,0.11732807010412216,-0.20600526034832,0.21740594506263733,-0.07856547832489014,-0.033516108989715576,0.035556674003601074
342,-2.6433664457064268,-0.9826473642448593,2.2497580816224905,-0.2651316821575165,0.8319690823554993,0.4873729944229126,0.3100598454475403,-0.4164946675300598,-0.1102580800652504,-0.027623414993286133,-0.04916280508041382,-0.09395569562911987
343,-2.595506040390977,-0.9970003647812874,2.315328328693517,-0.28191402554512024,0.8398464918136597,0.4638776183128357,0.16056838631629944,0.006222203839570284,-0.1295957714319229,0.04698973894119263,0.06010162830352783,0.005742192268371582
344,-2.542981549465572,-0.992245370629745,2.3391213279240586,-0.3081258237361908,0.8372558951377869,0.4517313241958618,0.007129564881324768,0.407515287399292,0.008819100446999073,0.021932005882263184,0.030862390995025635,-0.009913086891174316
345,-2.5010078157447824,-0.9986640071390649,2.3660041389040307,-0.3235911726951599,0.8407483696937561,0.43408650159835815,0.053143031895160675,0.32447126507759094,-0.056356605142354965,0.029477983713150024,0.03609800338745117,0.0024217963218688965
346,-2.501342569272302,-1.007284294431782,2.3597647673131865,-0.31910407543182373,0.8453843593597412,0.42836636304855347,-0.12149588018655777,0.4916236996650696,0.10993551462888718,0.006131082773208618,-0.040742695331573486,0.00905725359916687
347,-2.5033833784658786,-0.9975194943807757,2.2522303963440726,-0.3231319487094879,0.8401281833648682,0.4356262683868408,-0.8048712611198425,1.2131057977676392,0.6758830547332764,-0.0331760048866272,-0.07930976152420044,0.06687614321708679
348,-2.5082241670184895,-0.933896201472149,2.046928262107448,-0.35198459029197693,0.8039431571960449,0.4793558418750763,-1.1083418130874634,1.7376586198806763,-0.05826883390545845,0.16634619235992432,0.1889767050743103,-0.0032053887844085693
349,-2.4787846681774104,-0.9114972408523205,1.969297911225335,-0.37693002820014954,0.7904217839241028,0.48286348581314087,0.1689242571592331,0.2273567020893097,0.5052074193954468,-0.03096786141395569,0.04038870334625244,0.00026032328605651855
350,-2.505747129618147,-0.9394824526154704,1.9318229987366877,-0.35049834847450256,0.8072527647018433,0.47486165165901184,-0.037157751619815826,-0.1908368468284607,-0.011261917650699615,-0.09243369102478027,-0.1355304718017578,0.022605329751968384
351,-2.5081635737809878,-0.9327673727328,1.9420633929015145,-0.3525505065917969,0.8032712936401367,0.48006555438041687,0.10981383174657822,-0.020682958886027336,-0.03339602053165436,0.04934319853782654,0.06489259004592896,-0.04526650905609131
352,-2.5136843839143057,-0.9475057712295128,1.940550209099241,-0.34290245175361633,0.8119621276855469,0.4723721444606781,-0.030594101175665855,-0.03632494807243347,0.17669862508773804,-0.01134556531906128,-0.007137298583984375,0.014337539672851562
353,-2.520004548552473,-0.9561437554518167,1.935729549896246,-0.3358132839202881,0.816973865032196,0.468810498714447,0.1427118480205536,-0.014253554865717888,-0.04480074346065521,0.002393484115600586,-0.0047332048416137695,0.010559558868408203
354,-2.502636922551349,-0.9669454657711651,1.9629089541005762,-0.3386218249797821,0.8231551647186279,0.45579734444618225,0.2291887253522873,-0.15267343819141388,0.015046636573970318,0.008375793695449829,0.0040697455406188965,0.03133952617645264
355,-2.5079136652085974,-0.9863017812030855,1.9833745706920012,-0.32671502232551575,0.8339911103248596,0.44465258717536926,0.27700212597846985,-0.13883745670318604,0.036924298852682114,-0.016683965921401978,0.06060105562210083,-0.020534604787826538
356,-2.508529339458309,-1.0074855645522207,1.9922922420109654,-0.3159167766571045,0.8454918265342712,0.43051162362098694,0.22279900312423706,-0.05052127316594124,0.13318686187267303,-0.00232049822807312,-0.02447742223739624,-0.004837155342102051
357,-2.500787135664989,-1.0229685723732334,2.006424065569021,-0.31137603521347046,0.8536579012870789,0.41750794649124146,0.10571588575839996,-0.07756819576025009,-0.0031096478924155235,-0.014734804630279541,0.033945679664611816,0.028735339641571045
358,-2.5094805590143485,-1.0299977527294626,2.014422886154957,-0.30418217182159424,0.8572978377342224,0.41534820199012756,0.06863085925579071,-0.17409686744213104,0.037258587777614594,-0.002611100673675537,-0.034299612045288086,-0.04405596852302551
359,-2.5054864134577386,-1.0310430706380977,2.0231815353033094,-0.30530601739883423,0.8578355312347412,0.41340863704681396,-0.011860406957566738,0.09007205069065094,-0.10852405428886414,0.008797168731689453,0.03492581844329834,-0.05697852373123169
360,-2.491236840936147,-1.019145364741298,1.9989151567273753,-0.3173229992389679,0.851660430431366,0.4171098470687866,-0.3971973657608032,0.4348955452442169,0.18833884596824646,0.013993561267852783,0.024880707263946533,0.010975480079650879
361,-2.5084916263403563,-1.0021277849932426,1.9411834181276977,-0.3186086416244507,0.8426187038421631,0.43414562940597534,-0.12270932644605637,0.2331443578004837,0.039907306432724,-0.05594891309738159,-0.013822197914123535,-0.03203076124191284
362,-2.5065532513670616,-0.9915790677136207,1.9194278996782699,-0.32470428943634033,0.8368913531303406,0.44065845012664795,-0.2678718864917755,0.21930572390556335,0.1797247976064682,0.06835666298866272,0.04859131574630737,0.040619105100631714
363,-2.542618972906789,-0.9846195729608161,1.8566062351517336,-0.3118802011013031,0.833061695098877,0.45687949657440186,-0.137130469083786,0.14612971246242523,0.05360808223485947,-0.06733125448226929,-0.02034813165664673,-0.013367533683776855
364,-2.53712515789817,-0.9705774985664377,1.8348166589825297,-0.3210024833679199,0.8252120614051819,0.4647391140460968,-0.17395678162574768,0.29609355330467224,-0.023861531168222427,-0.015545308589935303,-0.006242334842681885,-0.0352042019367218
365,-2.522577136463265,-0.9624794750064701,1.8269757527189394,-0.3315959572792053,0.8206110596656799,0.4654476046562195,-0.07861203700304031,0.08999530971050262,0.059656139463186264,-0.04004707932472229,-0.009713292121887207,8.270144462585449e-05
366,-2.5137093082132225,-0.9486283108233896,1.8123924992294163,-0.342354953289032,0.8126168251037598,0.4716426730155945,-0.15081866085529327,0.29941296577453613,-0.0012550016399472952,0.03458520770072937,0.010732054710388184,-0.04873007535934448
367,-2.5083051691362437,-0.9426919358271977,1.7890344944725605,-0.3477475643157959,0.8091428279876709,0.4736660122871399,-0.20169855654239655,0.19409237802028656,0.04073252156376839,-0.041977137327194214,0.022796809673309326,-0.005999356508255005
368,-2.487293026562779,-0.9291893802117889,1.7692313525815988,-0.36423924565315247,0.8011350631713867,0.47488129138946533,-0.15928460657596588,0.5026684999465942,0.1286814659833908,0.06785252690315247,0.025006234645843506,0.02635464072227478
369,-2.4868388923677545,-0.924579682098999,1.7298536438267669,-0.36670005321502686,0.7983677387237549,0.4776402711868286,-0.17768627405166626,0.2052784115076065,0.14404146373271942,-0.024153858423233032,0.008135676383972168,0.009283006191253662
370,-2.4862422544542095,-0.9169116686710168,1.6982920057893522,-0.3707050681114197,0.7937268614768982,0.4822610020637512,-0.1725068986415863,0.3031933307647705,0.11361996084451675,0.04991951584815979,0.009907841682434082,-0.00115126371383667
371,-2.4950028110416587,-0.9134595988437874,1.6674500722702454,-0.3681144714355469,0.7916223406791687,0.48767387866973877,-0.08632807433605194,-0.048729874193668365,0.13707949221134186,0.017375975847244263,0.003253757953643799,0.018856853246688843
372,-2.512428370055261,-0.9105264688924385,1.6605646345043448,-0.36092573404312134,0.7898267507553101,0.4958891272544861,-0.048981957137584686,0.0013094558380544186,-0.130801722407341,0.04735761880874634,-0.03279256820678711,0.016958653926849365
373,-2.5020799216968808,-0.8956058500572898,1.6680434217077091,-0.37303033471107483,0.780587911605835,0.5015286207199097,-0.0826803594827652,0.02758217416703701,-0.11205841600894928,0.02187979221343994,0.03456711769104004,-0.005404353141784668
374,-2.49247507868498,-0.8840396012767272,1.6748392867643378,-0.3832623362541199,0.7733064293861389,0.5050814747810364,-0.0667281225323677,0.18135221302509308,-0.1402646154165268,0.09180423617362976,0.033746182918548584,-0.0063173770904541016
375,-2.4831671144378284,-0.8774461752575904,1.6794386544194169,-0.39105844497680664,0.7691091895103455,0.50551438331604,-0.019687946885824203,0.00376700097694993,-0.16234305500984192,0.029562383890151978,0.07667040824890137,-0.0036221742630004883
376,-2.5028813661502824,-0.879302093947375,1.674434695538697,-0.38016560673713684,0.7702940106391907,0.5119781494140625,-0.0907280445098877,-0.10765489190816879,0.07625995576381683,0.015999287366867065,0.03237950801849365,0.03010571002960205
377,-2.52743784094662,-0.8741167178863204,1.658415139603331,-0.3697766363620758,0.7669770121574402,0.5244156122207642,-0.13955162465572357,-0.16955725848674774,0.054399274289608,-0.02206912636756897,-0.006326258182525635,-0.041169703006744385
378,-2.530626974283227,-0.8642805470109907,1.6565470020833315,-0.3724120557308197,0.7606284022331238,0.5317458510398865,-0.036240048706531525,0.1256592869758606,0.010522757656872272,-0.0655304491519928,0.01958400011062622,-0.05062103271484375
379,-2.5125003392696152,-0.868216289829601,1.6636854324154906,-0.38022467494010925,0.7631775140762329,0.5224837064743042,0.03279784321784973,0.137131929397583,-0.02889476902782917,-0.08884572982788086,-0.06492012739181519,-0.0267714262008667
380,-2.4842589110150732,-0.8657851785610762,1.6750172509625154,-0.3959593176841736,0.7616043090820312,0.5130060315132141,-0.06738164275884628,0.020467473194003105,0.07390150427818298,-0.07251602411270142,-0.04605865478515625,0.006723642349243164
381,-2.473736057685432,-0.8560335173957851,1.6755444560866115,-0.4059160053730011,0.7552487254142761,0.5146180987358093,-0.06946050375699997,0.036107420921325684,0.05926397442817688,-0.04672074317932129,-0.021300852298736572,0.042266666889190674
382,-2.4733020805756083,-0.8465925043222132,1.6692904522362277,-0.41053956747055054,0.7490271329879761,0.5200155377388,-0.060017816722393036,-4.026433452963829e-05,-0.037523120641708374,-0.061735302209854126,-0.03163504600524902,0.009296774864196777
383,-2.4693505971331997,-0.837018987365233,1.677026050716216,-0.4170376658439636,0.7426500916481018,0.5239759087562561,0.01813530921936035,-0.093373142182827,-0.018692972138524055,-0.04116857051849365,-0.03290277719497681,-0.018330037593841553
384,-2.461700473338047,-0.8339765907145349,1.692154811892536,-0.42245233058929443,0.7406092286109924,0.5225246548652649,0.07715043425559998,-0.12765097618103027,-0.06453923881053925,-0.02243289351463318,-0.007332921028137207,0.024243533611297607
385,-2.4657819703131647,-0.8362980618346626,1.7114825503590785,-0.41923946142196655,0.7421671152114868,0.5229016542434692,0.13711965084075928,-0.15670618414878845,-0.06037471070885658,-0.03196287155151367,0.008199036121368408,-0.003095686435699463
386,-2.467261315262234,-0.8431681744216148,1.729834789075403,-0.4152720272541046,0.746753990650177,0.5195261240005493,0.1292746663093567,-0.15249580144882202,0.019017180427908897,0.015217125415802002,0.029536783695220947,-0.012736022472381592
387,-2.4699972534347836,-0.8520124252946822,1.7394373782876706,-0.40972355008125305,0.7526070475578308,0.515470027923584,0.054109252989292145,-0.08332161605358124,0.022834472358226776,0.0005438625812530518,0.0068076252937316895,0.025225162506103516
388,-2.478453824782918,-0.8556327248623071,1.7523472623199134,-0.4036698341369629,0.7549859881401062,0.5167657136917114,0.1129387691617012,-0.18950796127319336,-0.17658007144927979,-0.01184225082397461,-0.009655117988586426,-0.025753259658813477
389,-2.467028583339132,-0.8561902546974961,1.787580452622318,-0.40928471088409424,0.7553514242172241,0.5117914080619812,0.1625489592552185,-0.24344255030155182,-0.12259002774953842,0.005369246006011963,0.016789138317108154,0.006290256977081299
390,-2.4698827936410104,-0.8610218238769753,1.8203701967388755,-0.40554627776145935,0.7585088610649109,0.5100947618484497,0.1667298823595047,-0.3151510953903198,-0.13998869061470032,0.003675520420074463,0.014241993427276611,0.007422327995300293
391,-2.479624009441775,-0.8648265539746477,1.8527994724362014,-0.3987812101840973,0.7609827518463135,0.5117407441139221,0.16189482808113098,-0.3964649736881256,-0.14089661836624146,0.0006183981895446777,-0.016445517539978027,0.01455014944076538
392,-2.496582659993944,-0.8718089793425358,1.892917389855528,-0.38684195280075073,0.765494167804718,0.5141711235046387,0.24949908256530762,-0.5277805328369141,-0.22973163425922394,-0.04406622052192688,-0.025717556476593018,0.022449910640716553
393,-2.5113211525308525,-0.8787178635630022,1.9491997023889236,-0.3760959804058075,0.7699213027954102,0.5155314803123474,0.3099076747894287,-0.5882658362388611,-0.2914912700653076,-0.026354491710662842,-0.007226109504699707,-0.0008373856544494629
394,-2.5236081871199865,-0.885202978917084,2.010939500692804,-0.3668329417705536,0.7740435004234314,0.5160333514213562,0.3130393922328949,-0.6882525086402893,-0.3353859484195709,-0.0268285870552063,-0.013285994529724121,0.009113132953643799
395,-2.5386817199307408,-0.8852140439870796,2.0723716435065556,-0.35900822281837463,0.7740505337715149,0.5214968919754028,0.132089301943779,-0.6024074554443359,-0.2646973431110382,-0.016266465187072754,-0.014239013195037842,0.005724847316741943
396,-2.5455115946597626,-0.8806023413470014,2.1330720650049098,-0.35743820667266846,0.7711225152015686,0.526884913444519,0.22171752154827118,-0.471676766872406,-0.43508821725845337,-0.05183297395706177,-0.02484583854675293,-0.04304403066635132
397,-2.5318564579200773,-0.8739313194634946,2.2097944927755915,-0.3675369918346405,0.7668580412864685,0.5261605978012085,0.22150376439094543,-0.4265536665916443,-0.35095804929733276,0.09380969405174255,0.05377471446990967,-0.049247145652770996
398,-2.5272431225094727,-0.8755659304015064,2.2743882101911983,-0.3692375123500824,0.767906129360199,0.5234346389770508,0.2659553587436676,-0.50614994764328,-0.3584442436695099,0.026616692543029785,0.06169891357421875,-0.02373981475830078
399,-2.526396920652353,-0.8792878580363634,2.3390441597739784,-0.36802831292152405,0.7702849507331848,0.5207842588424683,0.26537278294563293,-0.48115503787994385,-0.25436195731163025,0.07513585686683655,0.059442222118377686,-0.030855119228363037
400,-2.5293862360949175,-0.8894212476894807,2.399692418770518,-0.3619655966758728,0.7767073512077332,0.515467643737793,0.3331984579563141,-0.6772875189781189,-0.3155648410320282,0.007686972618103027,0.017970502376556396,0.0007982850074768066
401,-2.538894818498075,-0.9003074493351216,2.4768818365533773,-0.3522334396839142,0.7835179567337036,0.5118893384933472,0.3596092164516449,-0.6493898630142212,-0.3147587776184082,0.053985267877578735,0.0074059367179870605,-0.03770732879638672
402,-2.549081292955443,-0.91320948774774,2.554058364367858,-0.34132713079452515,0.7914694547653198,0.5070226192474365,0.36038777232170105,-0.728786051273346,-0.39929908514022827,0.021609723567962646,0.06802761554718018,-0.03981375694274902
403,-2.561523598377453,-0.9229209966122013,2.6235521949874294,-0.3307638466358185,0.7973678112030029,0.5047771334648132,0.2949107885360718,-0.7281575202941895,-0.21753938496112823,0.02062898874282837,0.01963353157043457,0.003920435905456543
404,-2.577161180895503,-0.9322032258323631,2.705701790055323,-0.3188571035861969,0.8029351830482483,0.503612220287323,0.42752277851104736,-0.7735142707824707,-0.48479676246643066,0.006006121635437012,-0.01703125238418579,-0.09829306602478027
405,-2.5679761605940916,-0.9419944546008093,2.790246199205322,-0.3191874027252197,0.808732807636261,0.49403488636016846,0.18801823258399963,-0.42940428853034973,-0.17953228950500488,0.061878502368927,0.08398258686065674,-0.016206055879592896
406,-2.578799641547573,-0.9481664453618505,2.832879745719534,-0.3111525774002075,0.8123475909233093,0.4932296872138977,0.1654990166425705,-0.3898037374019623,-0.1755588799715042,0.04033958911895752,0.009933292865753174,-0.06634986400604248
407,-2.575180677838252,-0.9470709810295482,2.8747243513089877,-0.3134128749370575,0.8117082715034485,0.4928510785102844,0.010548999533057213,-0.312055766582489,-0.18847769498825073,0.05173987150192261,0.06983774900436401,-0.02207159996032715
408,-2.571154292277588,-0.9345205366991959,2.9008851564234535,-0.32087090611457825,0.8043142557144165,0.5001205205917358,0.004397931974381208,-0.07946590334177017,-0.27620697021484375,0.028176844120025635,-0.001610398292541504,-0.06089627742767334
409,-2.5403262828686013,-0.9254773958531216,2.9422639589924415,-0.34023454785346985,0.798907995223999,0.4959705173969269,0.0169032234698534,-0.1288764476776123,-0.2361592799425125,-0.014791727066040039,0.0022243261337280273,-0.013655483722686768
410,-2.5178093321037163,-0.9172953729727142,2.9690518279953033,-0.3551212549209595,0.7939602136611938,0.4934734106063843,-0.009834296070039272,0.16603653132915497,-0.07336018979549408,0.07300153374671936,0.04487639665603638,-0.002705007791519165
411,-2.5145726032280953,-0.9191943538105858,2.9593605087586052,-0.35583120584487915,0.7951132655143738,0.49109938740730286,-0.07189233601093292,0.06493625789880753,0.04195285588502884,-0.019550174474716187,0.042105793952941895,0.005070596933364868
412,-2.511846188988103,-0.9154546630092855,2.954096832274638,-0.3589177429676056,0.792839765548706,0.49252739548683167,-0.06034336984157562,0.14311805367469788,-0.051476020365953445,-0.0008692145347595215,-0.0037314891815185547,0.004878640174865723
413,-2.505486805592576,-0.9103233850017366,2.9531896767951227,-0.3644546568393707,0.7897021770477295,0.4935010075569153,-0.04010562226176262,0.11556350439786911,0.009749941527843475,0.026441991329193115,0.015031039714813232,-0.031663209199905396
414,-2.5044695913051367,-0.9129959961412076,2.9476656700360984,-0.36369970440864563,0.7913389801979065,0.4914318919181824,-0.004343556240200996,-0.05111434683203697,0.02226046472787857,0.007742643356323242,0.03487873077392578,-0.0030285120010375977
415,-2.511330910728155,-0.9128464462182446,2.9276861911435317,-0.36038917303085327,0.791247546672821,0.4940115511417389,-0.14734284579753876,0.16499553620815277,0.11125468462705612,-0.0011221468448638916,0.006085395812988281,-0.022881150245666504
416,-2.515659245220881,-0.9120100412858593,2.905856630936673,-0.35863494873046875,0.7907357811927795,0.4961026608943939,-0.0910104364156723,0.10337281972169876,0.05919033661484718,0.018882781267166138,0.007451474666595459,-0.0018247365951538086
417,-2.5273140645814274,-0.9099899322193669,2.8801193611914666,-0.3537486493587494,0.7894975543022156,0.5015529990196228,-0.11278624087572098,0.06700766831636429,0.14001363515853882,0.019993185997009277,0.005821049213409424,-0.014294147491455078
418,-2.536274674195924,-0.9098059575607866,2.8576531502801825,-0.34932294487953186,0.7893846035003662,0.5048220753669739,-0.06435730308294296,0.11155451834201813,0.08009159564971924,0.03277939558029175,0.013319194316864014,0.0008846521377563477
419,-2.534139380914487,-0.9173928599749022,2.8341402840290986,-0.3469715118408203,0.7940194606781006,0.49914276599884033,0.015611940994858742,0.2878950536251068,0.23277151584625244,0.012285321950912476,-0.003324449062347412,-0.030804872512817383
420,-2.534132113723641,-0.9240369916014196,2.817998042425934,-0.34395653009414673,0.7980408072471619,0.49479782581329346,-0.08129581063985825,0.013259120285511017,0.1275661289691925,0.05568745732307434,0.01401674747467041,0.02128499746322632
421,-2.5462421361134346,-0.9233415437578938,2.7983573994840865,-0.33825060725212097,0.7976215481758118,0.49938616156578064,-0.04742397367954254,0.08706291019916534,0.08772329986095428,0.008538663387298584,0.009141147136688232,0.03212320804595947
422,-2.560419336656223,-0.9247081976056434,2.787994628641209,-0.3305380940437317,0.7984451055526733,0.5032195448875427,0.002195741981267929,-0.1155829206109047,0.013620283454656601,-0.02494591474533081,-0.01159512996673584,0.027862548828125
423,-2.569500609956366,-0.9189867570741242,2.789133946130669,-0.3284226655960083,0.7949873805046082,0.5100332498550415,-0.020229216665029526,-0.10455616563558578,0.022074131295084953,-0.0306166410446167,0.03586900234222412,0.04259443283081055
424,-2.5898141795759977,-0.9187795658148843,2.7927291903175604,-0.3180813491344452,0.7948616743087769,0.5167391896247864,0.09530199319124222,-0.17159129679203033,-0.15270239114761353,-0.0814700722694397,-0.028107523918151855,-0.0670778751373291
425,-2.5580278722067598,-0.917537553224911,2.829612654974928,-0.3348866403102875,0.7941074371337891,0.5071923732757568,0.060873985290527344,-0.005100321024656296,-0.027266165241599083,-0.040204912424087524,0.026510119438171387,0.012552440166473389
426,-2.552785271494196,-0.9178558991839776,2.843178167882333,-0.3374006748199463,0.7943008542060852,0.505219578742981,0.0283878892660141,0.04270656034350395,-0.06633533537387848,-0.04504561424255371,-0.00957190990447998,-0.04368710517883301
427,-2.5294209747343754,-0.9183861893538526,2.8619547505999767,-0.3488694429397583,0.7946228981018066,0.49685439467430115,0.057714931666851044,0.056207265704870224,-0.06999210268259048,-0.05649551749229431,-0.02397787570953369,-0.02738732099533081
428,-2.497545315204096,-0.9160353883676996,2.886666785766764,-0.3656480312347412,0.793193519115448,0.4869763255119324,0.03372225910425186,0.07616577297449112,-0.07398813217878342,-0.04192951321601868,0.027592122554779053,0.0019764304161071777
429,-2.4765169354428482,-0.9120000821016832,2.901614880790988,-0.37777891755104065,0.7907297015190125,0.48169487714767456,0.04650481045246124,0.09324131906032562,-0.10351411998271942,0.0028246641159057617,0.0009574294090270996,0.0051825642585754395
430,-2.453023403732162,-0.9040199153034489,2.9238607748836456,-0.39298757910728455,0.785819411277771,0.47754472494125366,-0.013466854579746723,0.04710371419787407,-0.07254628837108612,0.05618023872375488,0.00669175386428833,0.025171399116516113
431,-2.452441032288608,-0.8994845613534218,2.9216947018387676,-0.3955276608467102,0.7830064296722412,0.48006126284599304,-0.028171788901090622,0.10566181689500809,-0.0546400249004364,0.050938427448272705,0.010465919971466064,-0.0031478404998779297
432,-2.4451715001644683,-0.900480255196871,2.9242278758092928,-0.3985068202018738,0.7836253643035889,0.4765751361846924,0.02989550307393074,-0.04781561344861984,0.0025356116238981485,0.019859910011291504,0.031987547874450684,0.03433495759963989
433,-2.4504610024124673,-0.907751018089596,2.932026843072416,-0.3923383355140686,0.7881214618682861,0.474273681640625,0.11879151314496994,-0.0853545144200325,-0.05631308630108833,-0.002482891082763672,-0.013295292854309082,-0.030609071254730225
434,-2.4399345242535015,-0.9134887819732762,2.9585523006054784,-0.39438319206237793,0.7916401624679565,0.4666556417942047,0.1369476169347763,-0.08783071488142014,-0.05315297842025757,0.033497631549835205,0.028244972229003906,-0.014110535383224487
435,-2.4386927935196177,-0.9204836808900348,2.962291566407614,-0.3913733959197998,0.7958945631980896,0.461929589509964,-0.009182066656649113,0.02351481094956398,0.025494784116744995,0.01402348279953003,0.02248018980026245,-0.004989802837371826
436,-2.4389851172265025,-0.9232544313750348,2.954084568621022,-0.38981181383132935,0.7975689768791199,0.46035924553871155,-0.02657436951994896,0.15377481281757355,-0.008449601009488106,-0.00642848014831543,-0.0024181604385375977,0.0013564229011535645
437,-2.4252122828126326,-0.9227624649410964,2.960030841977129,-0.39637240767478943,0.7972721457481384,0.4552425146102905,0.027389246970415115,0.03639809414744377,-0.0539608895778656,-0.0008901357650756836,0.00022834539413452148,0.01253083348274231
438,-2.4171037766066683,-0.9184500689112378,2.9687440713438837,-0.40232548117637634,0.7946617007255554,0.4545838534832001,0.04761806130409241,-0.01251247152686119,-0.09257329255342484,-0.0010710358619689941,-0.001311659812927246,0.006643384695053101
439,-2.4122488565033198,-0.9152297164059848,2.9869255551618137,-0.4062311053276062,0.7927026152610779,0.454531192779541,0.06614784896373749,-0.10862112790346146,-0.12086585909128189,0.0017817020416259766,0.0010442137718200684,0.011395871639251709
440,-2.40985008215641,-0.9096212051880319,3.007146837462267,-0.4102846682071686,0.7892711758613586,0.4568563401699066,0.05109645426273346,-0.15590260922908783,-0.1535886824131012,-0.010415494441986084,0.014226198196411133,-0.0035787224769592285
441,-2.409497194180902,-0.9065780801674149,3.0303510602099597,-0.4120495021343231,0.7873989343643188,0.4584959149360657,0.06291613727807999,-0.15177388489246368,-0.09730298072099686,0.009553104639053345,0.014038622379302979,0.0069582462310791016
442,-2.4145128734602084,-0.905178872581876,3.045822434200942,-0.4104765057563782,0.7865356206893921,0.4613794684410095,0.03839519992470741,-0.1870601326227188,-0.05448029562830925,0.0009458065032958984,0.02305006980895996,-0.01657038927078247
443,-2.4216199115663564,-0.9047499211824214,3.052296291711514,-0.4074094295501709,0.7862706780433655,0.4645385444164276,-0.018685195595026016,-0.08481688797473907,-0.004216686822474003,0.012634038925170898,0.010039746761322021,-0.01820361614227295
444,-2.4293580432316397,-0.9047833996693582,3.045670649861729,-0.4037855565547943,0.7862913608551025,0.4676574170589447,-0.07385112345218658,-0.001971703954041004,0.04457683861255646,-0.013008356094360352,0.02021205425262451,-0.0037291646003723145
445,-2.436957711410119,-0.9040277861890194,3.0311353265132173,-0.4006043076515198,0.7858242392539978,0.47116467356681824,-0.06648900359869003,0.0717041939496994,0.13152460753917694,0.012237638235092163,0.033740460872650146,-0.028034240007400513
446,-2.444368705132793,-0.9100858829680475,2.9990463031277668,-0.3940376937389374,0.7895564436912537,0.47046247124671936,-0.09980053454637527,0.2954561710357666,0.22547833621501923,-0.00598675012588501,0.019449293613433838,-0.03384745121002197
447,-2.4394289836618492,-0.918478364131213,2.960339039140699,-0.39206311106681824,0.7946788668632507,0.46343493461608887,-0.07448678463697433,0.46274808049201965,0.3083059787750244,0.023548156023025513,0.007246732711791992,-0.05347710847854614
448,-2.4395986929923024,-0.9270275341557358,2.8906580949947545,-0.3875831663608551,0.7998393774032593,0.4582971930503845,-0.34023553133010864,0.7594059109687805,0.43538519740104675,0.040552496910095215,0.0635334849357605,0.002106189727783203
449,-2.4471958126391997,-0.9244832278747273,2.7894651753905895,-0.3853910267353058,0.7983096241950989,0.46279042959213257,-0.3635314106941223,0.595471203327179,0.40677788853645325,-0.015121549367904663,-0.0334935188293457,0.036446452140808105
450,-2.4609683603389474,-0.924065750206374,2.725680278851338,-0.37919101119041443,0.7980581521987915,0.46831369400024414,-0.1535746455192566,0.3223704695701599,0.24650922417640686,-0.026921719312667847,-0.028450489044189453,-0.022467076778411865
451,-2.462389687088271,-0.9305182164114977,2.6796938611765295,-0.3752824366092682,0.8019296526908875,0.46483588218688965,-0.12813255190849304,0.3845237195491791,0.2820252776145935,-0.005409151315689087,0.041240692138671875,-0.009803473949432373
452,-2.480819816770896,-0.9469308748597185,2.618257666537517,-0.35852518677711487,0.8116264343261719,0.4612181782722473,-0.012790469452738762,0.3914053738117218,0.4131961166858673,0.009632974863052368,0.0006446242332458496,-0.03705433011054993
453,-2.471442568012935,-0.9598370644565317,2.565663074036562,-0.35629817843437195,0.8190981149673462,0.44958844780921936,-0.19006232917308807,0.5684521794319153,0.23612375557422638,-0.016290932893753052,-0.030676543712615967,0.01382097601890564
454,-2.4678162047044125,-0.9534080991962249,2.520526736226122,-0.3612046241760254,0.8153932094573975,0.4523995816707611,-0.19611483812332153,0.21447314321994781,0.0925285592675209,-0.02974081039428711,0.02158200740814209,0.01252061128616333
455,-2.4726228892738495,-0.9437361581192392,2.4889835050538265,-0.3639000356197357,0.8097559809684753,0.46029582619667053,-0.19484387338161469,0.2095746099948883,0.1374114453792572,0.03337934613227844,0.03092712163925171,0.0029762983322143555
456,-2.487779051464207,-0.9423425194382533,2.4434818847696205,-0.3575681149959564,0.8089374899864197,0.4666532278060913,-0.15471382439136505,0.27333277463912964,0.2270003855228424,-0.03032556176185608,0.019553780555725098,0.011511445045471191
457,-2.500414088013246,-0.9306155941724,2.4101365878098164,-0.35729360580444336,0.8019878268241882,0.47870373725891113,-0.19523361325263977,0.050258077681064606,0.009265304543077946,0.027856260538101196,-0.027298927307128906,-0.013539433479309082
458,-2.5135244241099235,-0.919141396859543,2.389629188901818,-0.356370747089386,0.7950811386108398,0.49076053500175476,-0.1603005826473236,-0.048898786306381226,0.009864073246717453,-0.003400951623916626,0.019188880920410156,0.0051500797271728516
459,-2.528770498397364,-0.9097147953796173,2.3821741301539765,-0.353142648935318,0.7893286347389221,0.5022452473640442,-0.08148740977048874,-0.0718226283788681,-0.0758296474814415,0.01952451467514038,0.011162519454956055,0.0015541911125183105
460,-2.55097099878655,-0.9001544862372292,2.37392360883022,-0.3460932672023773,0.7834229469299316,0.5162054896354675,-0.2525150775909424,-0.17180542647838593,0.012497814372181892,-0.0009374320507049561,-0.03764951229095459,-0.02362126111984253
461,-2.5458548665023275,-0.8812322618295634,2.3759089617063958,-0.35698506236076355,0.7715234160423279,0.5266059637069702,-0.08468568325042725,0.06359157711267471,-0.23101748526096344,-0.0499211847782135,-0.00882798433303833,-0.016153573989868164
462,-2.522218261088218,-0.8622900976300051,2.3939282747813073,-0.37774842977523804,0.7593347430229187,0.5298274755477905,-0.10354886949062347,-0.006922026630491018,-0.13139608502388,-0.017515361309051514,0.00671762228012085,0.025409400463104248
463,-2.518787467747532,-0.8494051289003858,2.402862610365402,-0.3852394223213196,0.7508876919746399,0.5364313125610352,-0.0011201538145542145,0.08024118095636368,-0.1190117746591568,-0.005706101655960083,-0.016283631324768066,-0.01676267385482788
464,-2.5155990229654015,-0.845659346688947,2.4146909267431185,-0.3885928988456726,0.7484085559844971,0.5374755859375,-0.0316481813788414,-0.16132371127605438,-0.025511346757411957,-0.0008876621723175049,-0.004222214221954346,0.0012206435203552246
465,-2.513212125715742,-0.8401068848786671,2.420124055000912,-0.3923114836215973,0.7447144389152527,0.5399000644683838,-0.0021665729582309723,-0.0029677427373826504,-0.06345564872026443,-0.02608451247215271,0.004507303237915039,0.025712788105010986
466,-2.509966404324605,-0.8346664865060099,2.428609748350624,-0.3964482247829437,0.7410725951194763,0.5418857932090759,0.00430186977609992,-0.04004252329468727,-0.09061439335346222,-0.021245837211608887,-0.024458885192871094,0.003127574920654297
467,-2.501985335029204,-0.830348164466089,2.440821995467611,-0.4026665687561035,0.7381662726402283,0.5412667989730835,0.012428823858499527,0.039628397673368454,-0.07226598262786865,-0.012692868709564209,-0.011832833290100098,0.010658740997314453
468,-2.49701853872726,-0.8279194873646553,2.445026573229875,-0.40642622113227844,0.7365257143974304,0.5406919717788696,0.028778906911611557,-0.003673939500004053,-0.03246515616774559,-0.03185194730758667,-0.009856343269348145,0.007418990135192871
469,-2.4873509562946863,-0.8254873481825977,2.455793997948942,-0.4127230644226074,0.7348783612251282,0.5381572246551514,0.02320939302444458,0.015452584251761436,-0.04495996981859207,-0.016598165035247803,-0.010406434535980225,0.005955874919891357
470,-2.4820359833792627,-0.8201859565390189,2.461850821613752,-0.41795921325683594,0.7312726974487305,0.5390276312828064,-0.05790594220161438,-0.019793538376688957,-0.04221981018781662,-0.0008488297462463379,-0.005518853664398193,0.021229445934295654
471,-2.4824575024721622,-0.812537103944434,2.462285286142987,-0.42114493250846863,0.7260341644287109,0.5436092019081116,-0.04195500165224075,-0.0017368299886584282,-0.045480646193027496,-0.0009283125400543213,0.004373371601104736,0.018570303916931152
472,-2.4872094675478515,-0.8079613105077917,2.46311449936665,-0.42057475447654724,0.7228800058364868,0.5482345819473267,-0.01853908784687519,-0.11427823454141617,-0.04344082623720169,0.005566269159317017,0.004658937454223633,-0.00261080265045166
473,-2.4973435203607623,-0.8087651644860258,2.4640332914951033,-0.41464847326278687,0.7234352231025696,0.5520039200782776,0.029506228864192963,-0.11560072004795074,0.010783780366182327,-0.01032412052154541,0.006835222244262695,-0.006197035312652588
474,-2.4983620377623925,-0.8102212619545774,2.466590432089522,-0.4134538769721985,0.7244397401809692,0.5515825748443604,-0.011392666026949883,0.012972492724657059,-0.0023902382235974073,0.007463186979293823,0.006273329257965088,-0.0042192935943603516
475,-2.5117089977637357,-0.8130874354443959,2.4594446989291616,-0.40483030676841736,0.7264124751091003,0.555371105670929,-0.02223866619169712,-0.16705134510993958,0.10156407207250595,0.0006860494613647461,-0.005083918571472168,-0.01516425609588623
476,-2.5099954930948067,-0.8184093946998864,2.46099584707563,-0.4034930467605591,0.7300597429275513,0.5515486598014832,0.015662571415305138,0.04935811832547188,0.011670613661408424,-0.0019634664058685303,0.009396374225616455,0.028926074504852295
477,-2.5135773666558956,-0.8174618917043156,2.450788770830345,-0.40192142128944397,0.7294119000434875,0.5535503029823303,-0.10208915174007416,0.060282349586486816,0.07784771174192429,0.0005846917629241943,0.017093956470489502,0.021416306495666504
478,-2.5141754661368085,-0.8149675487968433,2.435223133718791,-0.40265679359436035,0.727703332901001,0.5552613139152527,-0.0229661762714386,0.11490237712860107,0.03472976014018059,-0.0036694705486297607,-0.009319603443145752,0.0034086108207702637
479,-2.5085580310061135,-0.8145603422538849,2.435201173209889,-0.4059447646141052,0.7274239659309387,0.5532293915748596,0.009722110815346241,0.06797067075967789,0.0012709833681583405,-0.004882782697677612,5.3882598876953125e-05,-0.0002205371856689453
480,-2.5067869633919657,-0.8131429663287617,2.432149683789027,-0.4075351655483246,0.7264506816864014,0.5533394813537598,-0.038614995777606964,-0.00465604942291975,0.019124295562505722,-0.0013851523399353027,-0.003489255905151367,0.014211177825927734
481,-2.508983208995542,-0.8110893348370642,2.4320558746927716,-0.4072001874446869,0.7250378131866455,0.5554353594779968,-0.013883618637919426,-0.02312968298792839,-0.017412971705198288,-0.000850379467010498,-0.0007946491241455078,-0.0005646944046020508
482,-2.5118830462214112,-0.8099786774665343,2.4357586112245015,-0.4060618579387665,0.7242724895477295,0.5572643876075745,0.051379021257162094,-0.07998628169298172,-0.059756163507699966,-0.018376708030700684,-0.009627044200897217,0.007646620273590088
483,-2.506362159047282,-0.8087544228216603,2.454946228713738,-0.40965786576271057,0.7234277725219727,0.5557271242141724,0.08406529575586319,-0.060167346149683,-0.136182501912117,-0.003260195255279541,0.015158593654632568,0.008619129657745361
484,-2.502987511122051,-0.8067027105551904,2.4712038004048043,-0.41241490840911865,0.7220097780227661,0.5555322766304016,0.07859320193529129,-0.07791181653738022,-0.10405690222978592,-0.008819252252578735,-0.010782301425933838,-0.02724236249923706
485,-2.4927663549105135,-0.808137744087417,2.493698183106064,-0.41744500398635864,0.7230018973350525,0.5504618883132935,0.05845152586698532,-0.08102551102638245,-0.07333512604236603,0.016566067934036255,0.046910881996154785,0.003966271877288818
486,-2.4931286812924003,-0.8093168323992591,2.4945803138303946,-0.41673043370246887,0.7238159775733948,0.5499333739280701,-0.01375234592705965,0.0661596953868866,0.003032886190339923,0.007016599178314209,0.014969050884246826,-0.009772062301635742
487,-2.494367092528866,-0.8115384744555286,2.486900360564665,-0.41507798433303833,0.725347101688385,0.5491642355918884,-0.058113474398851395,0.09363361448049545,0.05167468637228012,0.003304392099380493,0.01949530839920044,-0.003479599952697754
488,-2.49877836840782,-0.8110574101259486,2.4673820351318554,-0.412860631942749,0.7250158786773682,0.5512692332267761,-0.07594647258520126,0.07117124646902084,0.12028896808624268,-0.0156823992729187,-0.00972968339920044,-0.006591618061065674
