,attitude.roll,attitude.pitch,attitude.yaw,gravity.x,gravity.y,gravity.z,rotationRate.x,rotationRate.y,rotationRate.z,userAcceleration.x,userAcceleration.y,userAcceleration.z
0,-1.623795116792256,-0.64381479730041,2.63599695770973,-0.7986886501312256,0.6002508997917175,0.042369209229946136,-0.005099141970276833,-0.6729198694229126,0.7656805515289307,-0.13345545530319214,0.029769182205200195,-0.08372044563293457
1,-0.27033967895948763,0.5268040361179909,1.1445556800337038,-0.23085051774978638,-0.5027732849121094,-0.8330228924751282,-0.0663762092590332,-0.02305571548640728,0.13338254392147064,0.020340263843536377,0.030208587646484375,-0.0158236026763916
2,-0.2940603038485392,0.5302656917052636,1.1619336047123379,-0.25003761053085327,-0.5057625770568848,-0.825642466545105,0.25192585587501526,-0.44654038548469543,0.05994348227977753,0.0061869025230407715,0.004496097564697266,-0.03118431568145752
3,-0.3281351710081009,0.539233655511114,1.1921200352712154,-0.27654775977134705,-0.5134785175323486,-0.8123183250427246,0.5030760765075684,-0.8617306351661682,0.3420332670211792,0.025189757347106934,0.008717834949493408,-0.12075656652450562
4,-0.43782681844652743,0.5916376444034965,1.238282638911151,-0.3519090414047241,-0.5577210783958435,-0.7517361044883728,0.13471060991287231,-0.8402634263038635,0.10675788670778275,0.06139698624610901,0.01607990264892578,0.04653596878051758
5,-0.736896866283386,0.6691301026617883,1.299418952626422,-0.527085542678833,-0.6203039288520813,-0.5808647274971008,0.6863768100738525,-3.356710195541382,0.09334443509578705,0.2691357731819153,-0.011455655097961426,0.2155846357345581
6,-1.1054210758662124,0.645679074876962,1.4247516557696212,-0.7137531042098999,-0.6017409563064575,-0.358419269323349,1.8904588222503662,-3.6670031547546387,0.4779597520828247,0.0561450719833374,0.18094933032989502,-0.2041569948196411
7,-1.568934130233418,0.6571742880138395,1.6768601701322559,-0.7917203307151794,-0.6108821034431458,-0.0014743405627086759,2.5205094814300537,-3.79693341255188,0.14749690890312195,0.3981350064277649,0.16222786903381348,-0.2605038285255432
8,-2.505454644829336,0.4323722322037882,2.145031937425936,-0.539421558380127,-0.41902589797973633,0.7303711771965027,6.1898274421691895,-7.18684196472168,-0.5569850206375122,0.2236407995223999,0.29109615087509155,-0.007730066776275635
9,-3.07648680281027,-0.12319673431388745,2.3914906563662295,-0.06456675380468369,0.1228853389620781,0.9903180599212646,5.171206474304199,-2.385012149810791,-0.5239033699035645,-0.10582812875509262,0.08803687989711761,0.36324310302734375
10,-3.1242769609840106,-0.43531902165854774,2.4133588359042557,-0.015699973329901695,0.4216997027397156,0.9065998196601868,3.094372034072876,0.5489824414253235,0.2689898908138275,-0.16131724417209625,0.13227075338363647,0.03416574001312256
11,-3.080353633530851,-0.6431794806447176,2.3703912146694033,-0.04897242784500122,0.5997426509857178,0.7986932992935181,1.0890370607376099,0.4008408486843109,0.5593212246894836,-0.05086585506796837,0.006046652793884277,0.12066417932510376
12,-3.105379988977272,-0.6873688097995905,2.3120152927045003,-0.02798331342637539,0.6345056891441345,0.7724115252494812,-0.572373628616333,-0.15325123071670532,0.35408514738082886,0.010801907628774643,-0.06768739223480225,0.14241397380828857
13,3.119427527863752,-0.6305154038889752,2.2677841531997953,0.017901835963129997,0.5895611643791199,0.8075254559516907,-0.18854087591171265,-0.7911754250526428,0.31658363342285156,-0.0029940009117126465,0.012001335620880127,-0.1105954647064209
14,2.9870280724068565,-0.6142349824940518,2.2344538137307164,0.1258101612329483,0.5763335227966309,0.8074727058410645,-0.6510236859321594,-1.5306642055511475,0.3070760667324066,0.12330487370491028,-0.04343539476394653,0.07064026594161987
15,2.734292490856994,-0.5605591407051492,2.166917426357625,0.3355069160461426,0.5316598415374756,0.7776712775230408,-0.48252105712890625,-2.6289243698120117,0.6588140726089478,0.011935651302337646,-0.016889512538909912,0.13745927810668945
16,2.5549581738986578,-0.5007555540721621,2.1799886139671902,0.48559531569480896,0.480088472366333,0.7305566072463989,-0.42180895805358887,-0.9577731490135193,-0.3014279007911682,-0.11453196406364441,-0.11122238636016846,0.11742037534713745
17,2.5550519863048295,-0.47823688052615027,2.2573686562104283,0.491386741399765,0.4602145850658417,0.7394199967384338,0.1237010657787323,-0.40048766136169434,-0.6858217716217041,-0.08710503578186035,-0.009118914604187012,-0.09549909830093384
18,2.579772507371077,-0.5105342982090553,2.3089395722516852,0.4647957980632782,0.48864349722862244,0.7383711338043213,0.08747947961091995,0.15639720857143402,-0.4589656591415405,-0.04522502422332764,-0.0382346510887146,0.0019546151161193848
19,2.603918520295286,-0.5294080255436291,2.3622041802843587,0.4420308470726013,0.5050224661827087,0.7413236498832703,-0.42953214049339294,0.15636050701141357,-0.30820026993751526,0.01931855082511902,-0.01611572504043579,0.06299757957458496
20,2.6122916292254126,-0.5146149854974025,2.4156751845452806,0.4395328164100647,0.49219974875450134,0.7513657808303833,-0.47672340273857117,-0.7325084209442139,-0.454828143119812,0.022701740264892578,-0.04894712567329407,0.02816009521484375
21,2.486429659864618,-0.5006496687775587,2.518715350585,0.5345109105110168,0.47999557852745056,0.6956305503845215,-0.8827838897705078,-3.0643274784088135,-0.9483113884925842,0.038700640201568604,-0.0307769775390625,-0.02351158857345581
22,2.2744454147914435,-0.44764611728625053,2.654902713374701,0.6873574256896973,0.43284478783607483,0.5832540988922119,-1.2536463737487793,-1.0901594161987305,-0.1143767386674881,-0.09340900182723999,0.001038968563079834,0.12597447633743286
23,2.2394233094160834,-0.436497721098978,2.738166602751278,0.7111009955406189,0.42276817560195923,0.5617852807044983,0.14740222692489624,-0.01785127818584442,-0.46929916739463806,-0.060542523860931396,0.012412577867507935,-0.12152332067489624
24,2.2567410286427783,-0.4995282851547075,2.7746591195597863,0.6792668104171753,0.47901150584220886,0.5560078024864197,0.4599095582962036,-0.03402860835194588,-0.9824583530426025,0.014870822429656982,-0.004981964826583862,0.016623973846435547
25,2.279365421777679,-0.6307813921781515,2.844601285084768,0.6131805777549744,0.5897759795188904,0.5255225300788879,0.42245709896087646,-1.2537999153137207,-1.769518256187439,0.2515808343887329,-0.1156548261642456,0.10988390445709229
26,2.2346663339301163,-0.7835022715117563,2.982661968646147,0.5579817295074463,0.705764889717102,0.436522901058197,0.39722180366516113,-1.1450731754302979,-1.2063038349151611,0.28291481733322144,0.23863202333450317,-0.11157181859016418
27,2.080089455386152,-0.8047288579116337,2.962788471934443,0.6053187847137451,0.7206426858901978,0.33802878856658936,-0.1567632555961609,-2.046464443206787,1.1389334201812744,0.26052600145339966,-0.008743882179260254,0.13444435596466064
28,1.8242412810772592,-0.6352996239927451,2.9715982659722817,0.7791813015937805,0.5934187173843384,0.20181943476200104,-1.3530097007751465,-3.353487730026245,1.4501088857650757,-0.07660549879074097,0.006831645965576172,0.10601143538951874
29,1.7138826023668523,-0.6066639878613773,-3.1398231569507122,0.8131588697433472,0.570129930973053,0.11715248227119446,-0.3891117572784424,-1.588690996170044,-1.0464348793029785,0.04952728748321533,-0.0426793098449707,-0.04215550422668457
30,1.5187385840577525,-0.6008964746217539,3.1237302118385295,0.8237116932868958,0.5653821229934692,-0.0429193489253521,0.18615001440048218,-1.653659462928772,0.7622978687286377,-0.04822957515716553,-0.024748027324676514,0.031643096357584
31,1.3558362807373996,-0.5474978005475857,3.098620888464612,0.8341788649559021,0.520552396774292,-0.18212907016277313,0.26948755979537964,-1.6650476455688477,0.5382900834083557,0.10011690855026245,-0.13152951002120972,0.2693635821342468
32,1.2518701152338445,-0.5030546987635455,-3.1300039516671596,0.831933856010437,0.48210403323173523,-0.2747029960155487,-0.4988340735435486,-1.3003135919570923,0.20833809673786163,0.02786839008331299,-0.13527178764343262,0.05624288320541382
33,1.184661071760556,-0.5022212219678841,-2.968897404995633,0.8119790554046631,0.48137366771698,-0.3301054537296295,-1.9551626443862915,-1.1430007219314575,0.5479203462600708,0.022920966148376465,0.050654590129852295,-0.15230122208595276
34,1.1604486565899947,-0.4880096729835092,-2.8675396200420447,0.8099408745765686,0.46886882185935974,-0.35236042737960815,-0.08842411637306213,-0.7589432001113892,0.4979768693447113,0.04812180995941162,-0.04102763533592224,-0.09267741441726685
35,1.1062876450839685,-0.48323057962114135,-2.85114449307402,0.7916726469993591,0.4646422564983368,-0.3966887891292572,0.1908988356590271,-0.5306450724601746,-0.19440744817256927,0.02734285593032837,-0.005795210599899292,-0.12467348575592041
36,1.0049834131213997,-0.5036285925780805,-2.8839874902547926,0.7393405437469482,0.48260676860809326,-0.46953821182250977,0.01598736271262169,-0.8776776790618896,-0.7053118348121643,-0.011053860187530518,0.03184327483177185,-0.06665560603141785
37,0.852706924007484,-0.5848917768733467,-2.9357466780866175,0.6278837323188782,0.5521091818809509,-0.5485777258872986,-0.20795179903507233,-1.1150668859481812,-0.5159872770309448,0.0802919864654541,-0.005127310752868652,-0.052969515323638916
38,0.7494864059906792,-0.638349512261113,-2.951918337351093,0.5471088290214539,0.5958707928657532,-0.5878860354423523,-0.29997900128364563,-0.8318501710891724,-0.4617299437522888,0.06746941804885864,-0.032409489154815674,0.01435387134552002
39,0.6669857422070298,-0.662197981899405,-2.967129612343798,0.48787054419517517,0.6148517727851868,-0.6196286082267761,0.23724870383739471,-0.882602334022522,-0.022698339074850082,0.11598074436187744,-0.03735238313674927,0.0563504695892334
40,0.5671946223675938,-0.638861646133944,-3.002528939401374,0.4313054084777832,0.5962820053100586,-0.6770697236061096,0.23311862349510193,-0.7274096012115479,-0.11712686717510223,-0.004303455352783203,-0.059920310974121094,0.03957277536392212
41,0.4854146046363978,-0.6345438792550364,-3.019928932754149,0.37575262784957886,0.5928102135658264,-0.7123103737831116,0.18838249146938324,-0.8399626612663269,-0.18790662288665771,0.03548699617385864,0.006738066673278809,-0.007050037384033203
42,0.4072665142686828,-0.6162834838200907,-3.040673619198181,0.32323113083839417,0.578006386756897,-0.7492865324020386,0.14186863601207733,-0.38142743706703186,0.008365035988390446,-0.12242546677589417,-0.0705752968788147,0.051456332206726074
43,0.36870964852834515,-0.6410169736651381,-3.0486294100207805,0.28886598348617554,0.5980108380317688,-0.747622549533844,-0.2678140699863434,-0.23111099004745483,-0.1650495082139969,0.005369246006011963,-0.014194309711456299,0.0056029558181762695
44,0.3708187907520603,-0.6370869081362881,-3.045674488205395,0.29129159450531006,0.594856321811676,-0.7491963505744934,-0.4316234588623047,0.21381454169750214,0.46095481514930725,-0.10589733719825745,-0.0826493501663208,0.05966693162918091
45,0.4637751232798058,-0.7311651976783133,-2.9449437473809903,0.33298927545547485,0.6677374839782715,-0.6657662987709045,-1.0526739358901978,0.0505254752933979,0.20552168786525726,0.035434186458587646,-0.01649230718612671,-0.050298094749450684
46,0.487950425184214,-0.7705771857079535,-2.8977115895069088,0.3363799750804901,0.6965494751930237,-0.6337723731994629,0.05982338637113571,-0.2166556864976883,-0.32248154282569885,-0.007369935512542725,0.04469192028045654,-0.04031515121459961
47,0.47217588197460497,-0.7581103189140806,-2.901267380703922,0.33026519417762756,0.6875504851341248,-0.6466832756996155,0.0008858693763613701,-0.3171558678150177,-0.2399580478668213,0.024257510900497437,0.08848100900650024,-0.002318739891052246
48,0.4111765236132422,-0.7409942853337859,-2.9399236187756252,0.294888973236084,0.6750218272209167,-0.6763032078742981,0.34973567724227905,-0.22780896723270416,0.09898054599761963,-0.07745122909545898,-0.020831763744354248,-0.008755326271057129
49,0.4194379872555836,-0.7333010458399521,-2.9010117283454973,0.3025720715522766,0.6693258285522461,-0.6785669326782227,-0.350271075963974,-0.10442653298377991,0.2324332296848297,-0.0028436779975891113,-0.03489595651626587,-0.032797813415527344
50,0.4241433797213783,-0.745607454083896,-2.8587914521523525,0.30234870314598083,0.6784182190895081,-0.6695774793624878,-0.35633423924446106,-0.2794174551963806,0.6903179883956909,-0.05805546045303345,-0.018002569675445557,-0.001595616340637207
51,0.4811995318178428,-0.7297743620493661,-2.746203923904207,0.3449682891368866,0.6667014956474304,-0.6606861352920532,-0.09120503067970276,-0.06006716564297676,0.54759681224823,-0.0498175323009491,-0.01223677396774292,-0.0038951635360717773
52,0.5429156892047783,-0.7320907717712638,-2.6421492934772335,0.38426172733306885,0.6684261560440063,-0.6368275880813599,-0.49753645062446594,-0.1255614012479782,0.5150156021118164,0.014984488487243652,0.024551749229431152,-0.03587138652801514
53,0.5739191292689856,-0.7468428061607273,-2.566416672492159,0.39842039346694946,0.6793252825737,-0.6162616014480591,-0.43003126978874207,-0.2870611846446991,0.3413670063018799,-0.008146345615386963,-0.023868799209594727,-0.04848754405975342
54,0.5912125228016757,-0.803180493499373,-2.4917763005488207,0.38704851269721985,0.7195683121681213,-0.5765543580055237,-1.0082379579544067,-0.4766237139701843,0.14245599508285522,0.010351359844207764,-0.05915272235870361,-0.03602498769760132
55,0.6203180079111573,-0.8389671486730236,-2.4078507171720354,0.38843902945518494,0.7439533472061157,-0.5437358617782593,-0.07011217623949051,-0.4553350508213043,0.09177514165639877,0.021427303552627563,0.05768239498138428,-0.018352150917053223
56,0.5630475927955046,-0.8338582879452541,-2.3873924079755606,0.35870325565338135,0.7405297160148621,-0.5682849287986755,-0.16307508945465088,-0.7786573767662048,0.021281812340021133,-0.024505257606506348,-0.0059563517570495605,0.004579484462738037
57,0.5325238440540021,-0.8337948512215305,-2.363326745577828,0.34121644496917725,0.7404870986938477,-0.5790078639984131,0.07940009981393814,-0.39680808782577515,0.19089505076408386,-0.06732121109962463,0.05934804677963257,0.03930455446243286
58,0.4997347769379767,-0.7993836394888695,-2.3304092565996517,0.3340685963630676,0.7169265151023865,-0.6118941307067871,-0.0035254471004009247,-0.6549863815307617,0.2728932201862335,-0.056251853704452515,0.07575225830078125,0.017030298709869385
59,0.4825041057350946,-0.7729834291403215,-2.278202956683993,0.332144558429718,0.6982739567756653,-0.6341083645820618,0.05257751792669296,-0.24907110631465912,0.5490297675132751,-0.03208047151565552,-0.09115731716156006,-0.07957571744918823
60,0.4929683941258428,-0.7782279170049548,-2.236810683160052,0.3370240330696106,0.7020184993743896,-0.6273633241653442,0.23465389013290405,0.12691400945186615,-0.2115362584590912,-0.06759965419769287,0.09684008359909058,0.041853129863739014
61,0.49571183082679543,-0.7328126048267901,-2.2627430864048454,0.35355454683303833,0.6689628958702087,-0.653825581073761,0.1779986470937729,0.055263031274080276,-0.14648212492465973,0.02002638578414917,0.033033013343811035,0.005388140678405762
62,0.48895269240185213,-0.7147034686044086,-2.2898874388549495,0.35475975275039673,0.6553934812545776,-0.6667869687080383,0.1873656064271927,0.3696839213371277,-0.16162902116775513,-0.09153041243553162,-0.03135484457015991,-0.02373427152633667
63,0.4860250274815066,-0.7324392025141213,-2.3538979623930723,0.34732121229171753,0.668685257434845,-0.6574404239654541,0.16652479767799377,0.1648266613483429,-0.10952771455049515,-0.06124946475028992,0.050079941749572754,-0.05368012189865112
64,0.479671693009486,-0.7218610265605299,-2.36228144578186,0.34638237953186035,0.6607826352119446,-0.6658719778060913,-0.11437979340553284,-0.12772658467292786,0.029579101130366325,-0.08866146206855774,0.033217549324035645,-0.07472854852676392
65,0.4520535465914764,-0.7240733186533956,-2.4251718716764126,0.32722312211990356,0.6624415516853333,-0.6738666892051697,0.4176032841205597,0.2849636375904083,-0.6291680335998535,-0.024137824773788452,-0.011837303638458252,-0.05838733911514282
66,0.44788613961435986,-0.742193611498643,-2.484645667555373,0.31916069984436035,0.6759061813354492,-0.6642944812774658,-0.5364676713943481,0.20326171815395355,0.04303305596113205,-0.03606441617012024,-0.035296499729156494,-0.0736815333366394
67,0.47048761082450363,-0.7454196212870798,-2.4430030113302568,0.33310171961784363,0.678280234336853,-0.6549649238586426,0.00811799243092537,-0.054678913205862045,-0.10588593780994415,0.012006253004074097,0.014514565467834473,-0.038989484310150146
68,0.4612599997701161,-0.7370635853070056,-2.4497380070221935,0.32955506443977356,0.6721165776252747,-0.6630632281303406,0.4095838665962219,0.019133979454636574,-0.20700785517692566,0.01781126856803894,-0.021680116653442383,-0.014610052108764648
69,0.4375761715707844,-0.6905113496218178,-2.5254730907488,0.32667386531829834,0.6369314789772034,-0.6982854008674622,0.6296743154525757,0.4670371413230896,-0.10360777378082275,-0.06492459774017334,-0.06202608346939087,-0.024935424327850342
70,0.40169948137324174,-0.6093892165922994,-2.7020214297907748,0.3206052780151367,0.5723667144775391,-0.7547241449356079,2.3607232570648193,0.9049991965293884,-1.6316252946853638,-0.035601645708084106,0.015661180019378662,-0.019338905811309814
71,0.4048062390692458,-0.5456050906455928,-2.9095005870850077,0.3366602957248688,0.5189354419708252,-0.7857263088226318,1.0969594717025757,1.9710787534713745,-1.4741743803024292,-0.23433485627174377,-0.1333763599395752,-0.09583497047424316
72,0.5697892814822413,-0.5036781956575624,-3.0572377594108384,0.4724614918231964,0.4826502203941345,-0.7374475598335266,0.4175527095794678,1.829270839691162,-1.0184677839279175,-0.009204655885696411,-0.06060737371444702,0.02582341432571411
73,0.5706980782322579,-0.6480563280741036,3.070607748037353,0.43069472908973694,0.6036379337310791,-0.6709122657775879,-1.9022585153579712,-0.07848852127790451,-1.9439938068389893,0.28045639395713806,-0.0679018497467041,0.03915262222290039
74,0.6969788502766365,-0.8550610292556282,-3.1338083592616743,0.421199768781662,0.7546109557151794,-0.5031431913375854,-1.3390642404556274,3.013580560684204,-0.2657678723335266,-0.2788658142089844,-0.10481542348861694,-0.10807812213897705
75,1.104207760574827,-0.9642240931355126,-3.0867175136498997,0.5091202855110168,0.8216068744659424,-0.25643453001976013,0.34430596232414246,3.68312931060791,-0.8383851051330566,0.06587666273117065,-0.16982769966125488,0.13013756275177002
76,1.4924484320542355,-0.8918849060712215,3.0888540256893373,0.6260200142860413,0.7782567739486694,-0.04914795234799385,1.3354370594024658,5.8259100914001465,1.363863468170166,0.15690851211547852,-0.10209393501281738,-0.02427733689546585
77,2.0346922723749974,-0.8067820396038432,3.059545992718009,0.6187107563018799,0.7220646739006042,0.30954745411872864,-1.1419787406921387,7.810458183288574,0.9087702035903931,0.20624035596847534,-0.05330246686935425,0.17996975779533386
78,2.5129938059710066,-0.8109222909689127,3.023242095178984,0.40504035353660583,0.724922776222229,0.5571617484092712,1.8126552104949951,2.4735028743743896,-0.8728869557380676,0.0035747289657592773,0.07753688097000122,0.00665050745010376
79,2.833169229565387,-0.9273263561391545,2.937140116133628,0.18212644755840302,0.8000186681747437,0.5716639757156372,1.0024470090866089,3.365840435028076,-0.14123623073101044,-0.0528235137462616,0.06751960515975952,0.009665250778198242
80,3.1364836401715896,-1.024850662872679,2.920074216162923,0.002652723342180252,0.8546366691589355,0.5192196369171143,1.096014142036438,2.7210261821746826,0.15984421968460083,0.021501943469047546,0.03189891576766968,0.03967922925949097
81,-2.9979835081068176,-1.1090783972137312,2.9380283863860583,-0.06375624239444733,0.8952885270118713,0.4409005343914032,0.38869449496269226,1.0030978918075562,0.1293455809354782,0.11676529049873352,-0.06287592649459839,0.15855613350868225
82,-3.009580980552424,-1.095607516941514,2.898575636782021,-0.06022089347243309,0.8892063498497009,0.45352551341056824,-0.22644241154193878,-0.3541320264339447,0.11420822888612747,0.021066848188638687,-0.012192249298095703,-0.09541705250740051
83,3.0949974533837206,-1.0959201360435833,2.878201700683055,0.021296940743923187,0.8893493413925171,0.4567321538925171,-0.300993412733078,-3.975079298019409,0.057374149560928345,0.13873723149299622,-0.01740109920501709,-0.09383237361907959
84,2.3347188102017586,-1.1354841748108502,2.8047464740421737,0.3045167326927185,0.9067384600639343,0.29171037673950195,1.3363487720489502,-8.023360252380371,-0.02226140722632408,0.2484007477760315,0.14787274599075317,0.31784772872924805
85,1.3751411210542053,-1.0669287669851975,2.5202052366815373,0.47360408306121826,0.87572181224823,-0.09386390447616577,0.4898121953010559,-6.698141574859619,1.4722816944122314,-0.15242186188697815,0.09565263986587524,0.6339182257652283
86,1.109432264435957,-0.924010313955939,2.739852775198251,0.5396180152893066,0.7980247735977173,-0.26827046275138855,-0.98980313539505,-2.2803046703338623,2.0775094032287598,-0.049353063106536865,0.006266117095947266,0.14253798127174377
87,1.0358395353499832,-0.793198336253032,2.941082944240994,0.6035540103912354,0.7126007676124573,-0.35766303539276123,-0.3019271194934845,-1.375213861465454,1.5118707418441772,-0.11402148008346558,0.0580596923828125,-0.11264339089393616
88,0.9207758022550334,-0.7048074230066012,3.0746933655430477,0.606396496295929,0.6478871703147888,-0.46100494265556335,-1.097558617591858,-2.8671329021453857,1.662225365638733,0.01779472827911377,0.02862650156021118,0.021597594022750854
89,0.861373110771078,-0.6191834634709298,-3.051676557753406,0.61788010597229,0.5803704261779785,-0.5304663181304932,0.87492835521698,-1.588234543800354,0.6478508710861206,-0.05956101417541504,-0.049761295318603516,0.052240610122680664
90,0.6381646061336975,-0.5318234418423655,-3.0105615329999194,0.5134434103965759,0.5071057677268982,-0.6922568678855896,0.16949298977851868,-2.0825347900390625,1.2612046003341675,-0.08413738012313843,0.05945307016372681,0.030529022216796875
91,0.5697078961328345,-0.4813708788384127,-2.9779861439056345,0.4780908226966858,0.46299469470977783,-0.7463679313659668,0.07968601584434509,0.16579392552375793,-0.00018687802366912365,-0.3690209984779358,-0.20997345447540283,0.0455622673034668
92,0.5954230909656465,-0.5215163137543222,-2.9880550500678726,0.48630115389823914,0.49819543957710266,-0.7178527116775513,-0.32170507311820984,0.4721834063529968,-0.16997964680194855,0.034328728914260864,-0.03821924328804016,-0.08614814281463623
93,0.6348494169509445,-0.5309954866447907,-2.993547813566212,0.5113944411277771,0.5063920021057129,-0.6942930817604065,-0.03822406753897667,0.3656727075576782,0.14020462334156036,0.0650368332862854,-0.03378152847290039,-0.051800668239593506
94,0.6706645051922265,-0.511587428894103,-2.9844458281419084,0.5419342517852783,0.489562064409256,-0.6831077933311462,0.21078726649284363,0.544435441493988,0.20783181488513947,-0.03648686408996582,-0.06361296772956848,-0.016324520111083984
95,0.6981132694894251,-0.4983630781516448,-2.998412060636084,0.5645904541015625,0.4779883623123169,-0.6728779077529907,0.006244618445634842,0.2757745385169983,0.14877364039421082,0.10009759664535522,0.028450816869735718,-0.017322838306427002
96,0.7266526734890211,-0.5215043262836193,-2.9692704404057775,0.5760571360588074,0.49818506836891174,-0.6480507850646973,-0.9476884603500366,0.0588851235806942,-0.2324596792459488,-0.05821961164474487,-0.019959330558776855,0.013864994049072266
97,0.7652625271471947,-0.5293681983239694,-2.9839710220457816,0.5979102849960327,0.5049881339073181,-0.6224871277809143,-0.10810500383377075,0.05754408240318298,-0.27669259905815125,0.06815105676651001,0.02177572250366211,-0.031184136867523193
98,0.8059218428214612,-0.577320941347359,-2.9342634320922283,0.604539155960083,0.5457810163497925,-0.580220103263855,-0.1991056650876999,0.26567602157592773,-0.5217360854148865,-0.18542605638504028,0.16927629709243774,-0.20615679025650024
99,0.8194281354840074,-0.6250617656302405,-2.9422048828087486,0.5925893783569336,0.5851473808288574,-0.553570568561554,-0.6197772026062012,0.07004798948764801,-0.17071433365345,-0.01107698678970337,-0.013415873050689697,-0.023867785930633545
100,0.8378193259070932,-0.6505729784755427,-2.9310793431680557,0.5913803577423096,0.6056424379348755,-0.5324156880378723,0.06713802367448807,0.04375005513429642,-0.22150778770446777,-0.012324631214141846,-0.009679973125457764,-0.08439028263092041
101,0.8331761806920023,-0.6568166179281086,-2.949064647726326,0.586091935634613,0.6105989217758179,-0.5326022505760193,0.37153303623199463,0.05519493296742439,-0.12715470790863037,0.030424177646636963,0.05381453037261963,-0.09554105997085571
102,0.7945499954045367,-0.6377992801521004,-3.0149486173586513,0.5732706189155579,0.5954288244247437,-0.5628725290298462,-0.034056805074214935,-0.1537420153617859,-0.23627609014511108,0.015505015850067139,-0.05148345232009888,0.014547944068908691
103,0.7699526009009705,-0.6473943970399458,-3.050011579328409,0.5552507042884827,0.6031100749969482,-0.5726735591888428,0.06621915102005005,0.07048969715833664,-0.25458428263664246,-0.043562471866607666,-0.05637240409851074,0.0022542476654052734
104,0.7609141267926305,-0.6513718859318359,-3.05885838939823,0.5483934283256531,0.6062779426574707,-0.5759267807006836,-0.3116055727005005,0.3928270637989044,0.12850774824619293,-0.1012955904006958,-0.05650383234024048,-0.0639047622680664
105,0.7712224064304115,-0.6562333208792684,-3.01021150166131,0.5522400736808777,0.610136866569519,-0.5681231617927551,0.032586317509412766,-0.15799224376678467,0.013421282172203064,0.17178940773010254,0.04565531015396118,0.04274779558181763
106,0.7612385186421503,-0.6232876025036006,-3.0092753919607573,0.5601078271865845,0.5837077498435974,-0.5878474116325378,0.16242963075637817,-0.22806711494922638,0.21773827075958252,0.08393514156341553,0.006639599800109863,-0.11468249559402466
107,0.7764264525513238,-0.6230234986800351,-2.9838488809892505,0.5690790414810181,0.5834932327270508,-0.5793829560279846,-0.4272298812866211,-0.5117251873016357,-0.025575801730155945,0.08524829149246216,-0.019635319709777832,-0.2469261884689331
108,0.7006707463787923,-0.6428521304648267,-2.9951164917927415,0.5160353779792786,0.5994806885719299,-0.6118254661560059,0.7434545755386353,-0.24334201216697693,0.1274769902229309,-0.17378073930740356,-0.07843881845474243,0.21297597885131836
109,0.6569160470224638,-0.6209023840183682,-2.9957689814159645,0.49669697880744934,0.5817693471908569,-0.6440780162811279,-0.07316023111343384,-0.027442362159490585,0.009574970230460167,0.01222941279411316,0.010592103004455566,0.09746241569519043
110,0.5978791235443143,-0.6088687279034608,-3.0280223225772325,0.4617368280887604,0.5719398260116577,-0.6779999732971191,0.39752304553985596,0.5526696443557739,0.07257731258869171,-0.09696018695831299,0.03130108118057251,0.08186960220336914
111,0.4405285692349922,-0.5312640036496371,-3.0524061829339235,0.3676433861255646,0.5066235065460205,-0.7798531651496887,0.609319269657135,-2.0357227325439453,0.21728235483169556,0.15663334727287292,0.07601803541183472,-0.00872105360031128
112,0.3042990571659024,-0.4673461348398662,-3.0806137183047304,0.26749488711357117,0.45051857829093933,-0.8517508506774902,0.8265423774719238,-2.4404337406158447,0.05447347089648247,0.03969505429267883,-0.011034935712814331,-0.061899662017822266
113,0.27314537108242787,-0.47530637126299785,-3.0795935183415217,0.23985914885997772,0.4576108753681183,-0.8561891317367554,-0.42178985476493835,-0.20204667747020721,-0.19219516217708588,-0.028875872492790222,-0.057113468647003174,-0.13505232334136963
114,0.22430304862457162,-0.5367782476467464,-3.101954303104779,0.1911449432373047,0.5113700032234192,-0.8378331065177917,-0.581386923789978,-0.9979733228683472,-0.5042251944541931,0.04571723937988281,0.02937096357345581,0.024982154369354248
115,0.1353678671776146,-0.6054940740243018,-3.0804818171254724,0.11096268892288208,0.5691683888435364,-0.814699113368988,-0.8805224299430847,-1.720679759979248,0.4919700026512146,0.01377791166305542,0.06904572248458862,-0.13784605264663696
116,0.10666026546055218,-0.6418470928432188,-2.9741683647874173,0.08527205139398575,0.5986759662628174,-0.7964394688606262,-0.2941482365131378,-0.08700502663850784,0.5721188187599182,-0.08811018615961075,-0.010205507278442383,-0.02646702527999878
117,0.11247671885626068,-0.7272635217497133,-2.9045323910073546,0.08384266495704651,0.6648280024528503,-0.7422763109207153,-1.726309061050415,-0.636615514755249,-0.1587265133857727,0.10541209578514099,-0.025072753429412842,-0.07213103771209717
118,0.06566069516773033,-0.9539790668921694,-2.8892725135796318,0.03795360401272774,0.8157235980033875,-0.5771952867507935,-1.4963891506195068,-0.4577420651912689,-0.09799220412969589,-0.14438366889953613,0.08637595176696777,-0.13880807161331177
119,0.012878871833143174,-1.0279736508760424,-2.9243730269706583,0.00665246183052659,0.8562540411949158,-0.5165121555328369,-1.0711555480957031,-0.3863464295864105,-0.5831660628318787,-0.30522119998931885,0.14662986993789673,0.004579782485961914
120,-0.05369934924376087,-1.0575022716363989,-3.017880326966552,-0.026356367394328117,0.8711317181587219,-0.4903416633605957,0.41764169931411743,0.008140094578266144,-0.20600125193595886,-0.00013288669288158417,-0.12653332948684692,-0.05924937129020691
121,-0.03190301261437311,-1.015837976198171,-3.0124194415670393,-0.01680709607899189,0.8499223589897156,-0.5266397595405579,0.2637850344181061,0.4119778573513031,0.08071119338274002,-0.04920242726802826,-0.06819939613342285,-0.044313669204711914
122,0.005083065607362883,-0.9673674901119174,-3.0225679382327315,0.0028844706248492002,0.8233947157859802,-0.5674618482589722,0.4719166159629822,0.4435967206954956,0.017398776486516,-0.05276545137166977,-0.07337933778762817,-0.08768957853317261
123,0.054263350543336496,-0.9729299111747185,-3.0177334501599224,0.030528778210282326,0.8265384435653687,-0.5620517134666443,0.07241128385066986,0.19826072454452515,0.056062545627355576,0.04997658729553223,-0.0442204475402832,-0.1796627640724182
124,0.04693057515397177,-0.959173740324782,-3.0022297852275766,0.026937484741210938,0.8187174201011658,-0.5735644102096558,-0.010292100720107555,-0.04597669467329979,0.10100951790809631,-0.018896104767918587,-0.03920692205429077,-0.05354130268096924
125,0.038061005382317846,-0.9526171953686078,-2.9786662587304673,0.022053012624382973,0.8149350881576538,-0.5791324377059937,-0.03709125891327858,-0.4549751281738281,0.20355798304080963,-0.0010721813887357712,0.015631258487701416,-0.005141794681549072
126,0.02949022181735903,-0.9700869626676561,-2.95741771293851,0.01666627824306488,0.8249348998069763,-0.5649820566177368,-0.1792462170124054,-0.09468189626932144,0.3477998971939087,-0.04327760264277458,-0.10357558727264404,-0.026280760765075684
127,0.06884769388905838,-0.9604373744751868,-2.8815549170201065,0.0394296869635582,0.8194423317909241,-0.5718036890029907,0.20050163567066193,-0.3800247013568878,0.48252034187316895,0.012633297592401505,-0.018264412879943848,-0.0823100209236145
128,0.0786126934323204,-0.9643385939144568,-2.8222826835836887,0.044759999960660934,0.8216721415519714,-0.5682002902030945,-0.025929950177669525,-0.3115655183792114,0.23901742696762085,-0.06764817982912064,0.051878273487091064,-0.04430276155471802
129,0.08599704977088392,-0.9630071239879351,-2.7876069945398827,0.049048442393541336,0.8209124803543091,-0.5689436197280884,-0.08685386925935745,-0.22499266266822815,0.2738935351371765,-0.015524886548519135,-0.06041449308395386,-0.06960618495941162
130,0.1036185652713124,-0.9632865551683635,-2.7328147738738724,0.05904224142432213,0.8210720419883728,-0.5677629709243774,0.023712996393442154,-0.2402694672346115,0.22903482615947723,-0.01520373672246933,0.007373392581939697,-0.05241525173187256
131,0.09592333664089778,-0.964041006305389,-2.7071197216985974,0.05461212247610092,0.8215024471282959,-0.5675836801528931,-0.04425417259335518,-0.22569118440151215,0.07520791888237,-0.012848816812038422,-0.0068051815032958984,-0.031781554222106934
132,0.08853612302338723,-0.9667621394309476,-2.696430301355456,0.05021997541189194,0.8230510354042053,-0.5657429695129395,-0.08500120043754578,-0.049989260733127594,0.08295197784900665,-0.04068322479724884,-0.05678516626358032,-0.030616283416748047
133,0.08832239257985518,-0.9697310759767035,-2.6898824495153035,0.04988328740000725,0.8247336745262146,-0.563317060470581,0.08671833574771881,-0.18254172801971436,0.02937636338174343,-0.022066518664360046,-0.051204562187194824,-0.08406758308410645
134,0.07191187027235835,-0.9626420681173603,-2.691887115283387,0.041051700711250305,0.8207039833068848,-0.5698769092559814,-0.03302236646413803,-0.07978011667728424,-0.03600842133164406,-0.028859928250312805,0.012624263763427734,-0.019554853439331055
135,0.0749693097005958,-0.9600937179159467,-2.6933569636420063,0.04295038804411888,0.8192453384399414,-0.571832537651062,0.042077988386154175,-0.06743554770946503,-0.015016332268714905,-0.04032587260007858,-0.018998146057128906,-0.11249363422393799
136,0.0664103818180049,-0.9581615455216305,-2.6870782126637307,0.0381595715880394,0.8181357979774475,-0.573757529258728,0.0036754002794623375,-0.11207687109708786,0.2443147748708725,0.0004604160785675049,-0.05324321985244751,-0.04700052738189697
137,0.07559431448681123,-0.9507901570300312,-2.6583719505991916,0.04388151317834854,0.8138749003410339,-0.5793808102607727,-0.24294322729110718,-0.17394857108592987,0.14854873716831207,-0.030118092894554138,0.020002663135528564,0.054707348346710205
138,0.07619583435840098,-0.9615831890478314,-2.6419580261703595,0.04355878382921219,0.8200985193252563,-0.5705620646476746,0.018612287938594818,-0.11275488138198853,0.04521019756793976,0.014378830790519714,0.05035430192947388,0.021688103675842285
139,0.07394404676781384,-0.9699955358789458,-2.631229471166828,0.04176272451877594,0.8248831629753113,-0.5637584328651428,-0.0789823979139328,0.03292299434542656,0.14200206100940704,0.00128231942653656,0.02072840929031372,0.017051279544830322
140,0.07498822022764166,-0.9895885078283153,-2.6116570872096316,0.04113249480724335,0.8358001112937927,-0.5474908947944641,-0.1976180076599121,-0.10081539303064346,0.014914913102984428,0.018239453434944153,0.018981993198394775,0.04961186647415161
141,0.07291036896968733,-1.0068513082742712,-2.6023827892269313,0.03893786668777466,0.8451529741287231,-0.5331044793128967,-0.08245152980089188,0.01481233537197113,0.03395431488752365,0.026323974132537842,0.016800761222839355,0.091347336769104
142,0.10634766039565448,-1.0113493230976374,-2.5778082741354935,0.056334238499403,0.8475487232208252,-0.5277191996574402,-0.016517281532287598,0.14995922148227692,0.006737550720572472,0.012681271880865097,0.08909672498703003,0.013223409652709961
143,0.09532887861638366,-1.0330417790823025,-2.6013554135473353,0.04875435680150986,0.858860969543457,-0.5098830461502075,-0.09034053981304169,0.03644340857863426,-0.1510109305381775,-0.009417209774255753,-0.05141168832778931,0.033946216106414795
144,0.10807052611870811,-1.0310747561521394,-2.603960759873369,0.05542909353971481,0.8578518033027649,-0.5108991265296936,0.05036550760269165,0.19677135348320007,0.047206878662109375,-0.013040188699960709,0.024914920330047607,0.005634903907775879
145,0.12059573570793253,-1.0275632768964011,-2.6147330359963585,0.06218572333455086,0.8560419678688049,-0.5131521821022034,0.08733314275741577,0.2093590795993805,-0.13343237340450287,-0.009359784424304962,0.03153139352798462,-0.03436368703842163
146,0.11835644992764008,-1.0217484027391954,-2.6401576340943254,0.06162319332361221,0.8530218005180359,-0.5182242393493652,0.14350304007530212,0.23554711043834686,-0.052313730120658875,0.0027383677661418915,0.010106861591339111,-0.0027717947959899902
147,0.12017951145397504,-1.0116476877537073,-2.6678993281664183,0.06359762698411942,0.8477070331573486,-0.5266384482383728,0.07056493312120438,0.2727309763431549,-0.20945408940315247,0.015931174159049988,0.013102233409881592,0.016644001007080078
148,0.12410452791229343,-1.0063665924955023,-2.696774830311578,0.06621745973825455,0.8448938131332397,-0.5308198928833008,0.14774997532367706,0.29483652114868164,-0.11408016085624695,0.014135316014289856,-0.004302382469177246,-0.028292596340179443
149,0.13304617033049598,-0.9964897383178947,-2.7174517191805427,0.07206464558839798,0.8395692110061646,-0.538451611995697,0.058587826788425446,0.4192715883255005,-0.10345606505870819,-0.006543397903442383,0.04156482219696045,0.030852794647216797
150,0.14021133942801986,-0.9910476072811282,-2.7493111336053646,0.07655828446149826,0.8366003036499023,-0.5424377918243408,0.09807520359754562,0.32782575488090515,-0.22296126186847687,-0.006703540682792664,0.03102964162826538,-0.00620722770690918
151,0.14266348386615474,-0.9932595792889691,-2.788617959565041,0.07762488722801208,0.8378100395202637,-0.5404154062271118,0.05914570018649101,0.3523732125759125,-0.19453328847885132,-0.017291635274887085,0.003590106964111328,-0.029302000999450684
152,0.14593036867263648,-0.9900439923177959,-2.8203568811213118,0.07978129386901855,0.8360500931739807,-0.5428215861320496,0.03246758133172989,0.28142327070236206,-0.14918647706508636,-0.016396276652812958,-0.0044612884521484375,-0.023371100425720215
153,0.1500002055514722,-0.9862345301567423,-2.837821499570148,0.08246516436338425,0.8339539766311646,-0.5456375479698181,-0.009168127551674843,0.07444358617067337,-0.11132257431745529,0.007225997745990753,-0.0014344453811645508,-0.01101839542388916
154,0.1552804435642234,-0.9812625064606351,-2.8477527729868317,0.08598532527685165,0.8311999440193176,-0.5492843985557556,0.1633998453617096,0.23471680283546448,-0.007599184289574623,-0.005907200276851654,0.016318976879119873,0.01219022274017334
155,0.15336053717828335,-0.9761495746733634,-2.858463755966188,0.08557866513729095,0.8283464312553406,-0.5536410808563232,0.06006578356027603,-0.05120837688446045,-0.052095502614974976,0.018394723534584045,0.02051520347595215,-0.022851228713989258
156,0.13574178499964146,-0.9724057391941273,-2.8760079767680313,0.07623057812452316,0.8262432813644409,-0.5581316947937012,0.09315723180770874,0.013949399814009666,-0.11823076754808426,0.015734151005744934,0.03438287973403931,0.012706279754638672
157,0.12078013749197054,-0.9801258433807866,-2.901290296262489,0.06710121780633926,0.830567479133606,-0.5528609156608582,-0.03562672808766365,0.08238449692726135,-0.1460641473531723,0.002967134118080139,-0.021638035774230957,0.007404983043670654
158,0.11698268211735911,-0.981263542088092,-2.9238216761853777,0.06489093601703644,0.8312005400657654,-0.5521727800369263,0.00802623014897108,0.1867775171995163,-0.16905678808689117,0.002140924334526062,-0.00034421682357788086,-0.02982795238494873
159,0.0993528912511094,-0.9831470015439068,-2.9635703696592457,0.05499127879738808,0.8322461843490601,-0.551672101020813,0.011375192552804947,0.1480780988931656,-0.23003408312797546,-0.010969672352075577,-0.047944486141204834,-0.05858790874481201
160,0.07910682181097538,-0.9778812534234949,-3.0003200579279747,0.04415728896856308,0.8293153047561646,-0.5570334196090698,0.026543091982603073,0.09111001342535019,-0.1759379655122757,-0.010954167693853378,-0.07250994443893433,-0.053836941719055176
161,0.07624427633970617,-0.9568437723446778,-3.016451063891773,0.04388199374079704,0.8173773288726807,-0.5744290947914124,0.10066689550876617,-0.03489689528942108,-0.09300470352172852,0.002169031649827957,0.004155874252319336,-0.08722251653671265
162,0.054147219733160674,-0.944965857816867,-3.047329226504893,0.031702347099781036,0.8104769587516785,-0.5849119424819946,0.07229416817426682,0.04458414390683174,-0.1887330263853073,-0.007715534418821335,-0.022085845470428467,-0.059710800647735596
163,0.03414216130828014,-0.9367705497402083,-3.0731818748718096,0.0202216487377882,0.8056492209434509,-0.5920478105545044,0.0365128256380558,0.04650677368044853,-0.00635832455009222,-0.007312711328268051,-0.08815032243728638,-0.02211850881576538
164,0.04351516249557691,-0.9291504168124088,-3.0609865117293653,0.026036251336336136,0.8011117577552795,-0.5979482531547546,-0.06867440789937973,0.034850284457206726,0.10261332988739014,-0.014653194695711136,0.001820981502532959,-0.005063831806182861
165,0.05167415211505875,-0.9259946779031545,-3.0563566987236337,0.031044410541653633,0.799219012260437,-0.6002377271652222,0.001132940873503685,0.07452663034200668,-0.000505819683894515,0.005698753520846367,0.014364421367645264,-0.005368351936340332
166,0.052394507621140333,-0.928237284911424,-3.061276384389698,0.03138284012675285,0.8005648851394653,-0.5984237194061279,-0.02885950356721878,0.03486532345414162,-0.03907736763358116,-0.0028946809470653534,-0.029477238655090332,-0.00907444953918457
167,0.05585493640152207,-0.9254795390634971,-3.0623722451481994,0.03357657045125961,0.7989092469215393,-0.6005135774612427,0.02286798693239689,0.05450011417269707,-0.029145268723368645,-0.010215364396572113,0.010203242301940918,-0.007198214530944824
168,0.056350832281956524,-0.9226281601384139,-3.069324113861917,0.034002527594566345,0.7971910834312439,-0.6027688980102539,-0.004707428626716137,0.07341709733009338,-0.06779996305704117,-0.007452234625816345,0.0053601861000061035,-0.003935813903808594
169,0.06228316470287012,-0.9197652187740668,-3.075512455358026,0.03771963343024254,0.7954593896865845,-0.604831874370575,0.032046325504779816,0.09256629645824432,-0.06836588680744171,-0.01760854944586754,0.03683125972747803,-0.014125525951385498
170,0.06269973457033443,-0.9200376946840361,-3.092356720997555,0.03795799985527992,0.7956244349479675,-0.6045997738838196,0.030311277136206627,0.13534946739673615,-0.057466622442007065,-0.011194083839654922,-0.01702946424484253,-0.04643172025680542
171,0.06329372683651584,-0.916678787939576,-3.103812405415919,0.03848593682050705,0.7935851812362671,-0.6072407364845276,-0.03682168945670128,0.11291071027517319,-0.044259749352931976,0.003826681524515152,-0.017797887325286865,-0.015882372856140137
172,0.06816447806675628,-0.9179533293639891,-3.113947569781394,0.04137426242232323,0.7943600416183472,-0.6060365438461304,-0.050988391041755676,0.12694741785526276,-0.12110607326030731,-0.009132441133260727,0.004346013069152832,-0.03580915927886963
173,0.07464092306090131,-0.9200191315144731,-3.1235420446964315,0.045175861567258835,0.7956132292747498,-0.6041181683540344,-0.02053464949131012,0.1380426585674286,0.013827738352119923,0.026570957154035568,-0.011952340602874756,-0.028572261333465576
174,0.09915588850876225,-0.9227097514943076,-3.1190710304569578,0.059758611023426056,0.7972403168678284,-0.6006969213485718,-0.0261826254427433,0.24826350808143616,0.0684841126203537,0.029444269835948944,0.044403910636901855,-0.012935280799865723
175,0.11450382619202011,-0.9234320826341413,-3.125315045621055,0.06890486180782318,0.797676146030426,-0.5991367697715759,0.08564259111881256,0.14300590753555298,-0.13918665051460266,-0.007137276232242584,0.06560510396957397,0.002136707305908203
176,0.08162770866415196,-0.9332367778758515,3.1193888033693784,0.04853382334113121,0.8035507798194885,-0.5932542085647583,-0.14604417979717255,0.09504290670156479,-0.22967128455638885,-0.024852190166711807,-0.0832139253616333,0.029625117778778076
177,0.10072722669948653,-0.9345285713287721,3.10841590854976,0.059750717133283615,0.8043190240859985,-0.5911858081817627,0.041425734758377075,0.2348984330892563,0.006270026322454214,0.015093639492988586,-0.01284569501876831,0.004592180252075195
178,0.12613004513812776,-0.944105729885954,3.1184430938198595,0.07377517968416214,0.8099728226661682,-0.5818085670471191,-0.153280109167099,0.2573784291744232,-0.07584641128778458,-0.12554825842380524,0.1604251265525818,0.08600479364395142
179,0.15244694068711467,-0.9605716139512643,3.066384415867138,0.08702196925878525,0.8195192813873291,-0.5664055347442627,0.33312276005744934,1.390540361404419,-0.6065934300422668,0.02274974435567856,0.18928498029708862,0.05566340684890747
180,0.1415731241572676,-0.9443522090753719,2.9205047467075502,0.08272279798984528,0.8101173043251038,-0.5804024338722229,0.15030311048030853,0.3494933843612671,-0.6474900841712952,0.07691465318202972,-0.09167236089706421,-0.0471457839012146
181,0.12976366377220425,-0.9573793572283005,2.9199311370258387,0.07449091970920563,0.8176857829093933,-0.5708249807357788,0.02279912680387497,0.1721602976322174,0.011283505707979202,-0.02508295327425003,0.040163397789001465,0.10683572292327881
182,0.17477197071812156,-0.971285467572402,2.956589254231616,0.09811186045408249,0.8256117105484009,-0.5556432604789734,-0.13754326105117798,0.0236444640904665,0.2104119211435318,-0.02161955088376999,0.06100022792816162,0.004480540752410889
183,0.195375294154337,-0.9838693019206586,2.977071079168988,0.10751274228096008,0.8326464295387268,-0.543268620967865,-0.12033341079950333,-0.03783329948782921,-0.008702604100108147,0.03537055104970932,0.03937804698944092,0.026407718658447266
184,0.19542224056060079,-1.0001992216184463,2.9827277582713863,0.10488377511501312,0.8415786027908325,-0.5298537015914917,-0.10754596441984177,0.1208338513970375,-0.0332297682762146,-0.0065866559743881226,0.04492652416229248,0.1151655912399292
185,0.22208816442867335,-1.009359996017723,2.9746915257649156,0.11727073043584824,0.846491277217865,-0.5193266868591309,0.030707169324159622,0.43530574440956116,-0.10600312054157257,-0.032233498990535736,0.07854229211807251,0.02538442611694336
186,0.23170759660194754,-1.021353654816655,2.937767754069353,0.11992067098617554,0.8528156876564026,-0.5082562565803528,-0.07272686809301376,0.31949329376220703,-0.247225821018219,-0.03172487020492554,-0.003526747226715088,-0.04063290357589722
187,0.2466282123042866,-1.0315802334590254,2.917731847440124,0.12535473704338074,0.8581114411354065,-0.4979267418384552,-0.09309184551239014,0.24982628226280212,-0.0039493003860116005,-0.023166626691818237,-0.03407573699951172,-0.022550582885742188
188,0.2785893374108759,-1.039597795345011,2.9339378529038296,0.1393057405948639,0.8622005581855774,-0.48703595995903015,0.015229623764753342,0.14173901081085205,0.11589086800813675,-0.009194061160087585,0.025799870491027832,-0.008310109376907349
189,0.30091717987345784,-1.0362744287712458,2.9430818172014814,0.15099312365055084,0.8605123162269592,-0.4865386188030243,-0.034605156630277634,0.08541249483823776,-0.021784281358122826,0.02166008949279785,0.05112409591674805,0.00619196891784668
190,0.31395134303149225,-1.0408609568577853,2.943127693066655,0.15610118210315704,0.8628397583961487,-0.48077014088630676,0.04725649580359459,0.1379154622554779,-0.013886073604226112,-0.011371567845344543,0.03530776500701904,-0.006488770246505737
191,0.3091478350399595,-1.040748678726605,2.9264306844454095,0.15381953120231628,0.8627829551696777,-0.4816069006919861,0.03270292654633522,0.0684342160820961,-0.062433816492557526,-0.011790722608566284,-0.041295528411865234,-0.001776278018951416
192,0.3140029856539352,-1.0324497366617162,2.929803846371962,0.15836207568645477,0.8585575819015503,-0.4876476526260376,0.07065875828266144,0.027080034837126732,0.11623651534318924,-0.028830230236053467,0.009667456150054932,0.012168556451797485
193,0.3221403238629337,-1.0214706839988612,2.9420151515249873,0.1652994155883789,0.8528767824172974,-0.4952546954154968,0.022899605333805084,-0.15745079517364502,0.05705799534916878,-0.016892433166503906,0.04469090700149536,-0.056869298219680786
194,0.2972359047412683,-1.0243945370353842,2.944627438019198,0.15218444168567657,0.8543997406959534,-0.4968310296535492,-0.006987341679632664,-0.3159170150756836,0.09418869763612747,-0.004738762974739075,-0.03930574655532837,0.002766728401184082
195,0.3044279713731144,-1.0148834440127052,2.985366199606321,0.15818241238594055,0.8494190573692322,-0.5034536123275757,0.07043961435556412,-0.16119742393493652,0.3493446409702301,-0.0044806599617004395,0.026511669158935547,0.03949493169784546
196,0.3083530773812368,-1.0051674584607493,3.018918465112503,0.16265441477298737,0.8442517518997192,-0.5106687545776367,-0.06183815002441406,-0.3035163879394531,0.04036106914281845,0.02301451563835144,0.07277095317840576,0.01912212371826172
197,0.28873977445486737,-1.0045695501000829,3.0256907289753125,0.1527515947818756,0.8439311385154724,-0.5142444372177124,0.038220010697841644,-0.17576825618743896,0.09257261455059052,0.0042918771505355835,0.01783961057662964,0.04277831315994263
198,0.2780061203697477,-1.0020064196020253,3.0345150421689757,0.14781628549098969,0.8425533771514893,-0.5179325342178345,0.0674266517162323,-0.188040092587471,0.01906113512814045,0.012462005019187927,0.06270474195480347,0.021915137767791748
199,0.25224352158728475,-1.0108000235364287,3.0256378756394287,0.13257114589214325,0.8472570776939392,-0.514373779296875,-0.09474078565835953,-0.17051711678504944,-0.056771136820316315,-0.01282016932964325,0.004229128360748291,0.0346221923828125
200,0.23470327078987463,-1.0153507092393874,3.0195793430590347,0.12263105064630508,0.8496655225753784,-0.5128645896911621,0.015290968120098114,-0.01546459086239338,0.00830378383398056,-0.0032310262322425842,0.019505620002746582,-0.0006089210510253906
201,0.22458631070736093,-1.0137039888730364,3.0119293987358846,0.11774767190217972,0.848796010017395,-0.5154423117637634,-0.13417479395866394,-0.11598175019025803,-0.13039827346801758,-0.023021109402179718,-0.08370506763458252,-0.04263263940811157
202,0.23352592864090577,-1.0163011037559817,3.030351337165076,0.1218402087688446,0.8501663208007812,-0.5122227072715759,0.06574159115552902,-0.029550908133387566,0.23322288691997528,-0.019789427518844604,-0.018455564975738525,-0.0477595329284668
203,0.25848548859477677,-1.0029828385626192,3.0515860827736856,0.13746805489063263,0.8430788516998291,-0.5199235677719116,0.13760435581207275,0.09091774374246597,0.11871069669723511,-0.007844671607017517,0.002029120922088623,-0.1474805474281311
204,0.2373719086304251,-0.993477810549331,3.0286310275577084,0.12833942472934723,0.8379291296005249,-0.5304750204086304,0.04324091970920563,0.015069141983985901,-0.14596693217754364,-0.008893609046936035,-0.09568065404891968,-0.04530012607574463
205,0.24477832586065185,-0.9784733933532566,3.0180844474192665,0.13529662787914276,0.8296460509300232,-0.5416476726531982,0.08324074745178223,0.2936735451221466,0.09556760638952255,-0.006283551454544067,-0.06125921010971069,-0.09009671211242676
206,0.25880307716006135,-0.9701104278474582,3.018730124754107,0.14465022087097168,0.8249481320381165,-0.5463852882385254,-0.049154333770275116,0.10072110593318939,-0.005255959928035736,-0.01829218864440918,-0.005810558795928955,-0.07748556137084961
207,0.26496241560276484,-0.962548779995899,3.0119558522763086,0.14964216947555542,0.8206506967544556,-0.5514886975288391,0.012604924850165844,0.09761376678943634,0.07230782508850098,0.010834529995918274,-0.012392520904541016,-0.05146235227584839
208,0.2792307279620112,-0.9642018296101833,3.0311120635641453,0.15712136030197144,0.8215941786766052,-0.5479927062988281,-0.1388196349143982,-0.0888979434967041,0.24085833132266998,0.035093605518341064,0.02746593952178955,-0.009288787841796875
209,0.2892146495861404,-0.9753314130931805,3.068432841936986,0.1599666327238083,0.8278878331184387,-0.5375986695289612,-0.19408948719501495,-0.2446349859237671,0.05315615236759186,0.07608683407306671,0.10044163465499878,0.07849228382110596
210,0.2822966328903148,-0.9868439393733575,3.0798288155201634,0.1535784751176834,0.8342901468276978,-0.529503345489502,-0.1527385413646698,-0.03870631754398346,0.03540356457233429,0.04138307273387909,0.036071181297302246,0.15961503982543945
211,0.30802747124700186,-1.0098823224513076,3.1049914598638955,0.16127952933311462,0.8467692732810974,-0.5069229006767273,-0.17522110044956207,0.02071291394531727,-0.07177659124135971,-0.004754871129989624,0.05345356464385986,0.0736495852470398
212,0.30518838295853157,-1.0361893705054337,3.1031844533086335,0.15309183299541473,0.8604689240455627,-0.4859590530395508,-0.14335677027702332,-0.045730140060186386,-0.038689590990543365,-0.033356115221977234,-0.00887596607208252,0.03425312042236328
213,0.3155371508623836,-1.0337747503348844,3.1156771685248206,0.15875689685344696,0.8592361807823181,-0.4863223731517792,0.051446158438920975,-0.07190937548875809,0.12688913941383362,-0.0005232393741607666,0.013307154178619385,-0.028097152709960938
214,0.3039117338951636,-1.0324068412543357,3.125873963065293,0.15344414114952087,0.8585355877876282,-0.48925602436065674,0.08030891418457031,-0.2753288745880127,0.03407977893948555,0.020292431116104126,-0.01306140422821045,0.03410160541534424
215,0.31016133153010017,-1.0204870690881382,-3.1347959262196015,0.1596110612154007,0.8523628115653992,-0.49799802899360657,0.051754988729953766,-0.019577842205762863,0.16172826290130615,0.002666175365447998,0.04547959566116333,0.04516291618347168
216,0.32118638129611665,-1.0222121646945397,-3.117528525247162,0.16462717950344086,0.8532637357711792,-0.49481192231178284,-0.055976901203393936,-0.07860500365495682,-0.06315130740404129,0.0018919557332992554,0.06433874368667603,-0.002441495656967163
217,0.30491887694598235,-1.0345404147438726,-3.121683969227758,0.15338659286499023,0.8596276640892029,-0.48735299706459045,-0.13659951090812683,-0.14033089578151703,-0.015329934656620026,0.0024666786193847656,-0.0050896406173706055,0.017641663551330566
218,0.29676824023634363,-1.043562857508251,-3.1147686937884336,0.14713513851165771,0.8642023205757141,-0.48115020990371704,-0.03218469396233559,-0.14559702575206757,0.061151523143053055,0.014577493071556091,0.0021916627883911133,0.011515229940414429
219,0.2835635937365007,-1.0468176466834367,-3.1139111020021324,0.13998137414455414,0.8658353686332703,-0.48034802079200745,-0.08148083090782166,-0.11423880606889725,-0.10144693404436111,-0.008114933967590332,0.06667494773864746,0.006486326456069946
220,0.23870568265385766,-1.0627700656934893,3.1389681164706236,0.11501966416835785,0.8737063407897949,-0.47266027331352234,-0.02936903014779091,-0.2511448562145233,-0.16689079999923706,-0.029723025858402252,-0.025454998016357422,-0.02309781312942505
221,0.1990379354209089,-1.0577869288814792,3.1305909563784646,0.09704438596963882,0.8712714314460754,-0.48111170530319214,0.03288364037871361,-0.5387868285179138,0.06765056401491165,-0.006651327013969421,-0.04622870683670044,-0.07638341188430786
222,0.16086901478945326,-1.0578242740520865,-3.125015571263745,0.0786094218492508,0.8712897896766663,-0.48443228006362915,-0.028325768187642097,-0.7683488130569458,0.35698026418685913,0.03203205764293671,-0.03860241174697876,-0.00906747579574585
223,0.15441786447604977,-1.0534360839649926,-3.047712402704635,0.07606999576091766,0.8691278100013733,-0.48870259523391724,-0.04087505862116814,-0.6998000144958496,0.2946953773498535,0.04398614913225174,0.07851928472518921,0.09919148683547974
224,0.14109094024385746,-1.042065849024355,-3.009063156428872,0.0709356814622879,0.8634481430053711,-0.49942508339881897,0.2125159353017807,-0.20827260613441467,0.24383936822414398,0.017000719904899597,0.023835182189941406,0.10295599699020386
225,0.13771308617410577,-1.017229654056078,-2.9846325337652884,0.07217054069042206,0.8506548404693604,-0.5207473635673523,0.10590557754039764,-0.2571733295917511,0.1264141947031021,0.02849169820547104,0.0297316312789917,0.030757129192352295
226,0.11958568785567553,-1.0027982909644302,-2.974180716207958,0.06417736411094666,0.8429796099662781,-0.5341035723686218,0.09458567202091217,-0.29438579082489014,0.0817352682352066,0.039490848779678345,0.002692997455596924,0.033264338970184326
227,0.10027521433529492,-0.9905843081684508,-2.966094775210713,0.05487892031669617,0.836346447467804,-0.5454474091529846,0.060274459421634674,-0.20959807932376862,-0.002505146898329258,0.05116966366767883,0.07884520292282104,0.06940370798110962
228,0.08404030365681187,-0.9883989608049581,-2.978969380711477,0.046170104295015335,0.835146427154541,-0.5480865240097046,0.06484997272491455,0.10298752784729004,-0.2185203582048416,-0.0004242509603500366,0.05999523401260376,0.051000893115997314
229,0.056963761922147124,-0.9952279611107746,-3.023581787781438,0.0309892725199461,0.8388830423355103,-0.5434287786483765,0.010932552628219128,-0.018282096832990646,-0.21798329055309296,-0.019163714721798897,-0.10412663221359253,-0.07571178674697876
230,0.04378268467597799,-0.9761264643101112,-3.0242412644868804,0.02452077530324459,0.8283334970474243,-0.5596985220909119,0.10460229218006134,-0.18053919076919556,0.13793295621871948,-0.01197805069386959,-0.06676733493804932,-0.049706995487213135
231,0.04340758593307618,-0.9615377140756245,-2.997556610040932,0.024832608178257942,0.8200725317001343,-0.571720540523529,-0.009911634959280491,-0.24491986632347107,0.1374041736125946,-0.02211654558777809,0.0032612085342407227,-0.03712034225463867
232,0.04441571154552692,-0.9594649880583387,-2.9758207651406168,0.025484377518296242,0.8188846111297607,-0.5733920931816101,0.024962028488516808,-0.06275561451911926,0.13694757223129272,0.010831540450453758,0.011864840984344482,-0.05201989412307739
233,0.027029667466950926,-0.9666151518346804,-2.976593212441666,0.01535337045788765,0.822967529296875,-0.5678808689117432,-0.39175182580947876,-0.20673589408397675,-0.11652648448944092,-0.01407163217663765,-0.012115478515625,-0.022069692611694336
234,0.02425457580429406,-0.9978105278644692,-2.95468582685359,0.013148169964551926,0.8402860164642334,-0.541983962059021,-0.29957345128059387,-0.2868337333202362,0.28974592685699463,-0.005137305706739426,-0.0366971492767334,-0.022911667823791504
235,0.02965328072845144,-1.0020784613581677,-2.920561142008233,0.01596749573945999,0.842592179775238,-0.5383153557777405,0.02293892204761505,-0.14554201066493988,0.21538043022155762,-0.02358163334429264,-0.014436721801757812,-0.0032648444175720215
236,0.04482450126614422,-0.9988203801360381,-2.8901931444381113,0.02425513043999672,0.8408330678939819,-0.5407508015632629,0.039974913001060486,-0.06524555385112762,0.2126259207725525,0.003973623737692833,-0.02204650640487671,-0.02754753828048706
237,0.05524873351513549,-0.990524008596056,-2.8631777669508374,0.030274808406829834,0.8363133668899536,-0.5474152565002441,0.05630543455481529,-0.14687354862689972,0.06702267378568649,-0.018876492977142334,0.01784306764602661,-0.01365041732788086
238,0.05253304372286678,-0.983896942462229,-2.8501095631378104,0.029078470543026924,0.8326617479324341,-0.5530179738998413,0.06265206634998322,-0.1440577208995819,0.10222944617271423,-0.014948830008506775,-0.002598881721496582,-0.01975119113922119
239,0.06177034293331924,-0.9722635652811921,-2.8142353719736506,0.03478119894862175,0.8261631727218628,-0.5623564124107361,0.21276286244392395,-0.2888028025627136,0.23616552352905273,-0.02797578275203705,0.05178177356719971,-0.01270151138305664
240,0.057881835875945455,-0.9691709018418339,-2.7936660281881367,0.03274185582995415,0.8244167566299438,-0.5650352835655212,0.012714223936200142,-0.29731103777885437,0.14680373668670654,-0.0014155544340610504,0.021423637866973877,-0.037335872650146484
241,0.05366519014922119,-0.9730706612521962,-2.773638963606937,0.03018634207546711,0.8266176581382751,-0.5619538426399231,-0.018191136419773102,-0.164620503783226,0.1804581880569458,-0.014927558600902557,0.0025754570960998535,0.016375839710235596
242,0.07801862882942308,-0.9641970772546604,-2.724446581306616,0.04443149268627167,0.8215914368629456,-0.5683425664901733,0.24362772703170776,-0.24629884958267212,0.3269358277320862,0.009798239916563034,0.04152190685272217,-0.009202539920806885
243,0.07139135378929592,-0.9769095237629133,-2.711186230688621,0.03991570696234703,0.8287719488143921,-0.5581610202789307,-0.2208535224199295,-0.0837617740035057,-0.07905734330415726,0.024064388126134872,0.04949343204498291,0.02984076738357544
244,0.029337184527202274,-1.0174593176277937,-2.7472573840045285,0.01541533786803484,0.8507755398750305,-0.5253031253814697,-0.15685409307479858,-0.2420853227376938,-0.1822219043970108,0.0077017247676849365,0.00010031461715698242,-0.007854223251342773
245,0.018865769790146005,-1.0206746522398178,-2.748726900251293,0.009862268343567848,0.8524609208106995,-0.522697925567627,0.14574071764945984,0.06504664570093155,0.1304204910993576,0.003794357180595398,0.017854630947113037,0.04489946365356445
246,0.03398937540916545,-1.0119615015455554,-2.7456778096177836,0.01801764778792858,0.8478734493255615,-0.5298923254013062,0.06264711171388626,0.16376924514770508,-0.09138306975364685,0.00830376148223877,0.0546991229057312,-0.020843148231506348
247,0.025933400731380986,-1.0154084648839679,-2.767901906951614,0.013672448694705963,0.8496959805488586,-0.5270956754684448,-0.015377411618828773,-0.050824351608753204,-0.17796485126018524,0.00036562979221343994,-0.007838129997253418,-0.051654934883117676
248,0.011420391372147792,-1.0172758328426947,-2.7875113645414484,0.006003399845212698,0.8506790995597839,-0.5256508588790894,0.10946135967969894,0.04940633475780487,-0.014039959758520126,-0.028235450387001038,0.014356791973114014,-0.00959688425064087
249,0.01851011310489524,-1.0142642135695794,-2.7827982404542317,0.009777313098311424,0.8490921258926392,-0.5281543135643005,0.012097565457224846,-0.0070881168358027935,0.011019660159945488,-0.008419276215136051,0.02886807918548584,-0.025495529174804688
250,0.012172716757330762,-1.0157803850380103,-2.788407605576199,0.006414336618036032,0.8498920202255249,-0.5269176959991455,0.034127913415431976,-0.036790695041418076,-0.07514332979917526,0.03156478703022003,-0.006050586700439453,-0.007231414318084717
251,0.014612616835390915,-1.0120145706988268,-2.7869083740410647,0.007746655959635973,0.8479015827178955,-0.5300970077514648,0.07723914831876755,0.039229732006788254,0.004835388623178005,-0.008021309971809387,0.014799833297729492,0.019003868103027344
252,0.016297381878404234,-1.010226773736998,-2.793238636782868,0.00866442546248436,0.8469524383544922,-0.5315982103347778,0.012056803330779076,0.06509044021368027,-0.006943374406546354,-0.015378295443952084,0.0024892091751098633,-0.004061639308929443
253,0.02299979208265921,-1.0076956452101529,-2.7952896572530834,0.012276452966034412,0.8456040024757385,-0.5336695313453674,0.05168207362294197,0.059101082384586334,0.04423202574253082,0.0015174895524978638,-0.018516600131988525,-0.02106374502182007
254,0.03872199234590637,-1.003908316020815,-2.7827931375781656,0.02078888565301895,0.8435762524604797,-0.536607027053833,0.017514757812023163,0.06046861410140991,0.06952110677957535,-0.02474091202020645,-0.011041402816772461,-0.004606962203979492
255,0.05687812234206776,-0.9993183951620437,-2.76390019837396,0.030747409909963608,0.8411025404930115,-0.5400010347366333,4.301033914089203e-05,0.04251885786652565,0.15973906219005585,0.0012807846069335938,-0.0028457045555114746,-0.0254439115524292
256,0.07561547637826485,-0.9953477111326534,-2.733119682575222,0.04111158102750778,0.8389482498168945,-0.5426560640335083,-0.03687296062707901,-0.11989860981702805,0.18774643540382385,0.004542704671621323,0.0036115050315856934,-0.016837894916534424
257,0.09267987992385594,-0.9951636627025908,-2.7001637610512135,0.050379544496536255,0.8388480544090271,-0.5420293211936951,-0.06118198111653328,-0.06739749014377594,0.13382358849048615,0.006627295166254044,0.012912750244140625,0.019553184509277344
258,0.11510024352607885,-0.9960870413004973,-2.6685343792985323,0.06242937967181206,0.8393503427505493,-0.5399940609931946,0.1491103321313858,-0.06359762698411942,0.2273021936416626,0.03190045803785324,0.025349974632263184,-0.04307478666305542
259,0.12437834061128392,-0.9961822238994271,-2.6454042081018967,0.06742682307958603,0.8394020795822144,-0.5393123030662537,0.03577558696269989,-0.07267970591783524,0.11657574027776718,-0.015195988118648529,0.020339131355285645,-0.0038396120071411133
260,0.13054021532567486,-0.9954844518580869,-2.638535689337473,0.07082492113113403,0.8390226364135742,-0.5394671559333801,0.04676763713359833,0.07592075318098068,0.08766193687915802,0.007498443126678467,-0.010760366916656494,0.017662405967712402
261,0.14738110376885952,-0.9933868147411431,-2.628475582440248,0.0801578238606453,0.837879478931427,-0.5399376749992371,0.025316141545772552,0.07045328617095947,-0.04574991390109062,-0.003467157483100891,0.05810129642486572,-0.01510077714920044
262,0.14336558460915433,-0.9946398143690346,-2.646056283041252,0.07783900201320648,0.8385627865791321,-0.5392157435417175,0.015286637470126152,0.11124517023563385,-0.06691277027130127,0.023586168885231018,-0.029343485832214355,-0.006621718406677246
263,0.14949620936932023,-0.9913799157831601,-2.647033776488357,0.08154995739459991,0.8367823362350464,-0.5414286255836487,-0.008455152623355389,0.07044899463653564,-0.10142543911933899,0.0022818297147750854,0.07352650165557861,0.04550272226333618
264,0.15042928068760814,-0.9846912157016127,-2.6752513508521854,0.0828920304775238,0.8331013321876526,-0.5468738079071045,0.1880563348531723,0.35388925671577454,-0.15259672701358795,-0.007589906454086304,0.015745043754577637,-0.005631625652313232
265,0.14796422142058938,-0.9692736503501268,-2.7046944996909676,0.0834275484085083,0.8244748711585999,-0.559715211391449,0.053351424634456635,0.12371379137039185,-0.2957574427127838,0.006233096122741699,0.046740949153900146,0.0197066068649292
266,0.13054430068183434,-0.971558118619241,-2.740992601601951,0.07341981679201126,0.8257654905319214,-0.5592145323753357,0.11753018200397491,0.03330875188112259,-0.04221087694168091,0.036092519760131836,-0.06400096416473389,-0.007893621921539307
267,0.13216052583078988,-0.9599012861593824,-2.745846868868747,0.07558689266443253,0.8191349506378174,-0.5685986876487732,0.09388867765665054,-0.06818224489688873,-0.05486896634101868,0.06807459890842438,0.017367064952850342,-0.011830329895019531
268,0.13608800354354578,-0.9621338138796945,-2.737960299252672,0.07757118344306946,0.8204134702682495,-0.5664843320846558,-0.03809765726327896,-0.025503581389784813,0.0731981173157692,0.04478904604911804,0.02434360980987549,0.06968867778778076
269,0.14721785243624388,-0.9691305255152852,-2.7350532267450043,0.08302705734968185,0.8243938684463501,-0.5598938465118408,0.008477773517370224,0.0804036557674408,-0.027235619723796844,0.004894092679023743,-0.011542975902557373,-0.00697016716003418
270,0.15021387165338432,-0.9707535352816362,-2.7314536321169345,0.08450381457805634,0.8253114819526672,-0.558319091796875,0.030766695737838745,-0.11806347221136093,0.019436663016676903,0.039458587765693665,-0.004602193832397461,-0.0443878173828125
271,0.14636024289644062,-0.9719192423388817,-2.716172964625972,0.08221126347780228,0.8259691596031189,-0.5576883554458618,-0.11263439804315567,-0.20601388812065125,0.03086324781179428,0.009112581610679626,0.041233599185943604,0.020807921886444092
272,0.13483040598415608,-0.982409638227214,-2.7181356620169748,0.0746070146560669,0.8318371772766113,-0.549982488155365,-0.03730868920683861,-0.0419883131980896,-0.06255348026752472,-0.0018378421664237976,0.006495952606201172,0.033396244049072266
273,0.12986401519443153,-0.9867493490067121,-2.727637139777985,0.07140651345252991,0.8342379927635193,-0.5467615127563477,0.06430799514055252,0.06623484939336777,-0.07667191326618195,-0.018794208765029907,0.02060520648956299,-0.031973838806152344
274,0.1144743771360701,-0.9874569806993468,-2.743659532638251,0.06291648745536804,0.8346279263496399,-0.5472090840339661,-0.0657355785369873,-0.04972011223435402,-0.03145337477326393,-0.014149397611618042,-0.016619563102722168,-0.0067307353019714355
275,0.11086680008301412,-0.9868804986616609,-2.748103362809042,0.0609951987862587,0.8343102931976318,-0.5479105114936829,0.052108876407146454,0.08240768313407898,-0.024767667055130005,-0.0437985435128212,-0.032644033432006836,-0.009447276592254639
276,0.11744850230837746,-0.9786705744472534,-2.740597290697928,0.06540048122406006,0.8297561407089233,-0.5542811751365662,0.034361083060503006,-0.020924454554915428,0.10524415224790573,0.0009447187185287476,0.00862276554107666,-0.04270368814468384
277,0.12341624291441275,-0.9710017322675187,-2.728568938473291,0.06948840618133545,0.8254515528678894,-0.5601794123649597,0.03615768253803253,-0.0004389421083033085,0.03862098231911659,-0.006729006767272949,0.05379033088684082,0.008253812789916992
278,0.12469802975091449,-0.9732570226636116,-2.7323745929164147,0.06997465342283249,0.8267225027084351,-0.5582412481307983,0.0073979501612484455,0.07903305441141129,0.09583231806755066,0.003313295543193817,-0.03602743148803711,-0.018464624881744385
279,0.13272085609091935,-0.9697485599583946,-2.723567848925807,0.0748344138264656,0.8247435688972473,-0.5605335831642151,-0.2814192771911621,0.10134465992450714,-0.06278614699840546,0.00834125280380249,0.0007722377777099609,0.005815625190734863
280,0.12186617436191954,-0.9845138644046407,-2.7265465682244416,0.06725789606571198,0.8330032229423523,-0.5491647720336914,-0.07467662543058395,-0.23303423821926117,0.008418908342719078,0.001147255301475525,0.020390331745147705,-0.031401634216308594
281,0.08125030286848939,-0.9960157825297005,-2.741953331796054,0.04412318766117096,0.8393116593360901,-0.5418570637702942,-0.3581629991531372,-0.1258128434419632,-0.14390648901462555,-0.03266383334994316,-0.0016804337501525879,0.015581488609313965
282,0.07187695762315947,-1.0140287151073266,-2.74185597959773,0.0379503034055233,0.8489676713943481,-0.5270802974700928,0.022158868610858917,0.04716811701655388,0.10751916468143463,-0.0349443256855011,-0.0070334672927856445,0.06731772422790527
283,0.08370654531589916,-1.008850292998273,-2.73635631100696,0.04454962536692619,0.8462197780609131,-0.5309683680534363,0.12951990962028503,-0.02585555799305439,0.00857072789222002,0.0023101195693016052,0.006288766860961914,-0.03797084093093872
284,0.09052260367490882,-1.000955946239428,-2.724156213857116,0.04877007007598877,0.8419870734214783,-0.5372888445854187,0.22445137798786163,0.06169794872403145,0.19331274926662445,-0.011309735476970673,-0.008750319480895996,0.019542813301086426
285,0.10029889784341298,-0.9681247056933446,-2.7185578831775556,0.05675870552659035,0.8238241672515869,-0.5639967322349548,-0.09351588785648346,0.18289248645305634,-0.20378470420837402,-0.02323514223098755,0.028562307357788086,0.06523269414901733
286,0.10056843515709528,-0.9731704592263147,-2.740391089673513,0.0564926415681839,0.8266738057136536,-0.5598382353782654,0.043206460773944855,0.13295023143291473,0.013400491327047348,0.0026046447455883026,-0.029493749141693115,-0.033865928649902344
287,0.10789687523053611,-0.9729920680975838,-2.7435053006043892,0.06060972809791565,0.8265734314918518,-0.5595560073852539,-0.055301934480667114,0.058849722146987915,0.04333954304456711,-0.0045336708426475525,-0.02621936798095703,-0.02722078561782837
288,0.11577574694660053,-0.9693551815356304,-2.7395662735297086,0.06536330282688141,0.824521005153656,-0.5620434284210205,-0.07014776766300201,0.11047054827213287,-0.05954427272081375,-0.005915060639381409,0.041476309299468994,0.018433809280395508
289,0.1122681800529521,-0.9729738854599764,-2.7554836439542196,0.06305678933858871,0.8265631794929504,-0.559300422668457,0.24148356914520264,0.005581357050687075,-0.007909629493951797,0.04097761958837509,0.03592449426651001,-0.0795544981956482
290,0.10415154454111357,-0.9767827721471259,-2.7763909767466046,0.05818740651011467,0.8287010192871094,-0.5566586256027222,-0.1410089135169983,0.17845113575458527,-0.13017398118972778,0.0006047189235687256,-0.018230438232421875,0.004855036735534668
291,0.13206206372706958,-0.9849498869643167,-2.7722892546822706,0.07280568033456802,0.8332443833351135,-0.5480902791023254,-0.010456445626914501,0.2186843603849411,-0.11720459908246994,0.03293772041797638,0.041099369525909424,0.003931403160095215
292,0.13764778388324686,-0.9921649066233236,-2.795218685959608,0.07503914833068848,0.8372119069099426,-0.5417060256004333,0.022620368748903275,0.2690330147743225,-0.20442114770412445,0.03731131553649902,0.05300110578536987,0.016834139823913574
293,0.12987776957709823,-0.9939671952868686,-2.8431910252068753,0.07063233852386475,0.8381961584091187,-0.5407756567001343,0.15890216827392578,0.42518365383148193,-0.12172484397888184,0.04432738572359085,-0.024780631065368652,-0.012614846229553223
294,0.13216189976812934,-0.9937503394014595,-2.861001014050219,0.07189129292964935,0.8380778431892395,-0.5407930612564087,-0.1790165901184082,0.09184207022190094,-0.15668796002864838,0.025078311562538147,0.001399695873260498,0.05939352512359619
295,0.11243091883833148,-1.0045992524928513,-2.898386807376766,0.06018394976854324,0.8439470529556274,-0.5330397486686707,0.16414029896259308,0.19357280433177948,-0.17578919231891632,0.025631476193666458,0.02395761013031006,0.05760633945465088
296,0.13051476204771084,-0.9993017136202963,-2.8950642761885415,0.07039384543895721,0.8410934805870056,-0.5362894535064697,-0.0028830207884311676,0.05886317789554596,0.012914987280964851,0.07215375453233719,0.04765462875366211,0.022678673267364502
297,0.1473198461301238,-1.0053480137526185,-2.870708483973141,0.07864794135093689,0.8443484902381897,-0.5299907326698303,-0.12633192539215088,-0.15834009647369385,0.1257409006357193,0.04957166314125061,0.0407986044883728,0.08502918481826782
298,0.15357114949315828,-1.0163892361742222,-2.8590749470355314,0.08052847534418106,0.8502126932144165,-0.5202436447143555,0.0025023100897669792,0.08025383204221725,-0.01224880013614893,0.008201375603675842,0.01250392198562622,0.10521990060806274
299,0.16910503884784409,-1.018221605157758,-2.8534278714807653,0.0883374959230423,0.8511759042739868,-0.5173934698104858,0.09250564873218536,0.11403756588697433,0.04696573317050934,0.004481710493564606,0.021947205066680908,0.014357030391693115
300,0.18776208792974916,-1.0086010262200635,-2.8405457121590167,0.09949859231710434,0.8460869789123535,-0.5236763954162598,0.06824201345443726,-0.13362394273281097,0.1233687698841095,0.05470672994852066,0.02963024377822876,-0.07716894149780273
301,0.1640938905196832,-1.0243395866894043,-2.832731350167461,0.0848914086818695,0.854371190071106,-0.5126826167106628,-0.18605434894561768,-0.26143088936805725,-0.049187175929546356,-0.025382131338119507,-0.016358494758605957,0.05356091260910034
302,0.15827267532728995,-1.023902417684929,-2.835008622795537,0.08196437358856201,0.8541439175605774,-0.5135366916656494,0.12397067993879318,0.1368531882762909,0.047438230365514755,-0.0035189464688301086,-0.009463191032409668,0.01017981767654419
303,0.17296382872027524,-1.0238114024769,-2.8392640505400264,0.08951310068368912,0.8540965914726257,-0.5123538374900818,-0.056812480092048645,0.13799887895584106,-0.10859140008687973,-0.04111222177743912,0.03611642122268677,-0.10146147012710571
304,0.15015924626572946,-1.0289791662711676,-2.8741650382265944,0.0771455243229866,0.8567730188369751,-0.5098908543586731,-0.027906598523259163,0.07069616764783859,-0.11709999293088913,-0.047894418239593506,-0.07059437036514282,-0.09733259677886963
305,0.1418566203894839,-1.0267985818438479,-2.876292716315041,0.07317343354225159,0.8556464314460754,-0.512362003326416,-0.06640472263097763,-0.15587997436523438,0.012401007115840912,-0.021369844675064087,0.01799553632736206,-0.055295467376708984
306,0.12365933216441342,-1.0261330286114683,-2.8800916577555227,0.06390846520662308,0.8553017973899841,-0.5141737461090088,-0.014547507278621197,-0.047457557171583176,-0.004980217665433884,-0.034520044922828674,-0.01641935110092163,-0.011049032211303711
307,0.11188197529113227,-1.0272626538097847,-2.8798403363519864,0.05774063989520073,0.8558865189552307,-0.513930082321167,0.023715445771813393,-0.1347535103559494,0.10650818049907684,-0.02607864886522293,-0.04620945453643799,-0.024522066116333008
308,0.11401785441826998,-1.0149663735529817,-2.864173103428301,0.06003108248114586,0.8494628071784973,-0.5242224335670471,0.11115575581789017,-0.08721081167459488,0.1688854843378067,-0.01857294887304306,-0.023748695850372314,-0.039589762687683105
309,0.1136189304743617,-1.006489398336094,-2.8420698684466545,0.06063619256019592,0.8449594974517822,-0.5313819050788879,-0.08306468278169632,-0.2608383297920227,0.11608395725488663,-0.008084919303655624,0.026088476181030273,-0.03461235761642456
310,0.10735494296243453,-1.0035500443666723,-2.8256025971415393,0.05757232755422592,0.8433837890625,-0.5342183709144592,-0.01633463241159916,-0.1083177924156189,0.1207897961139679,-0.01829620450735092,-0.0291290283203125,0.01683861017227173
311,0.11644850610513564,-1.0009588796737758,-2.8000780456011785,0.06268153339624405,0.8419886827468872,-0.5358415842056274,-0.013044925406575203,-0.11674971133470535,0.15784011781215668,-0.010816901922225952,0.016959071159362793,-0.03404366970062256
312,0.10666010352535951,-1.0046614844521218,-2.7918796817353724,0.0571012869477272,0.8439804315567017,-0.5333258509635925,-0.1294098049402237,-0.15750959515571594,-0.04064358025789261,-0.023776095360517502,0.034635841846466064,-0.00840693712234497
313,0.07440762135960778,-1.015377610726365,-2.8157723408105633,0.039198875427246094,0.849679708480835,-0.5258400440216064,-0.18224745988845825,-0.05449710786342621,-0.2019486427307129,-0.04461575672030449,0.023977458477020264,-0.03330296277999878
314,0.051121971113022,-1.0389736207126261,-2.835180476210267,0.025912929326295853,0.8618841767311096,-0.5064427852630615,-0.139857217669487,-0.08927329629659653,-0.10188468545675278,0.00022537261247634888,-0.03710085153579712,-0.029751062393188477
315,0.0355754877637561,-1.0338325368774754,-2.8464899970726343,0.01819407194852829,0.8592657446861267,-0.511205792427063,-0.0019052140414714813,-0.09426755458116531,0.03243369609117508,0.03167165070772171,0.02038818597793579,-0.01946437358856201
316,0.028266284368101174,-1.0384507445602842,-2.843340370719091,0.014344805851578712,0.8616189360618591,-0.5073530077934265,-0.1253201961517334,-0.12088597565889359,-0.11845259368419647,0.021925337612628937,0.03144747018814087,0.07348459959030151
317,0.024717992038366474,-1.0499055396923216,-2.840300296101858,0.012299727648496628,0.8673762083053589,-0.4975008964538574,0.10546216368675232,0.01462843269109726,0.12950077652931213,0.04260139912366867,-0.028219163417816162,0.06456327438354492
318,0.05600819062716873,-1.048555071604609,-2.8093457335841503,0.027923619374632835,0.8667033910751343,-0.49804171919822693,0.017179444432258606,-0.006465668324381113,0.06145915389060974,0.029220551252365112,0.05833017826080322,0.02160125970840454
319,0.06867680384692158,-1.0537904021303144,-2.7882422697518328,0.033918868750333786,0.8693029880523682,-0.4931144714355469,-0.11149995028972626,-0.17905795574188232,0.12325224280357361,0.04225300997495651,-0.011224985122680664,0.010906219482421875
320,0.08308390697907045,-1.068780936405862,-2.756304071469819,0.039933424443006516,0.8766145706176758,-0.47953325510025024,-0.16473093628883362,-0.1331159472465515,0.1273076981306076,0.03463627025485039,0.04648107290267944,0.025889486074447632
321,0.09826438350193312,-1.0894786558090483,-2.727529392532396,0.04541806876659393,0.8863856792449951,-0.4607141315937042,-0.19146457314491272,-0.055324021726846695,0.09770584106445312,0.013709742575883865,-1.7940998077392578e-05,0.0237482488155365
322,0.11960021970481705,-1.1096703785436168,-2.6898304675808067,0.0530901663005352,0.8955520391464233,-0.4417783319950104,-0.14356985688209534,-0.20698979496955872,0.09115516394376755,0.045878343284130096,0.035325706005096436,-0.0013979673385620117
323,0.13288804573571678,-1.1218614273666399,-2.6642675034465917,0.05750463157892227,0.9009099006652832,-0.4301796853542328,-0.07299751043319702,-0.007491465657949448,0.0764419212937355,0.030447036027908325,0.016250133514404297,0.0690804123878479
324,0.15616700051866636,-1.1340320978371072,-2.6494530097554607,0.06579198688268661,0.9061251878738403,-0.41786205768585205,-0.05869321525096893,0.14105184376239777,-0.049550436437129974,-0.010860338807106018,0.03743255138397217,0.03630077838897705
325,0.1695099082447212,-1.1437761477767323,-2.656234898353595,0.0698685422539711,0.9102039337158203,-0.40822431445121765,-0.0382520817220211,0.191337451338768,-0.04905293136835098,0.007951274514198303,0.0017375349998474121,-0.012063771486282349
326,0.18082667337493363,-1.146698981593803,-2.660916019019921,0.07400504499673843,0.9114105701446533,-0.40478911995887756,-0.014498898759484291,0.15039636194705963,-0.019581951200962067,0.0012055188417434692,0.003140270709991455,-0.002223789691925049
327,0.1910789038411963,-1.1460512259742637,-2.665490939933397,0.07826311141252518,0.9111437797546387,-0.4045883119106293,0.015199834480881691,0.14552967250347137,-0.04536166414618492,-0.02304156869649887,0.005100607872009277,-0.023115485906600952
328,0.1906521389276551,-1.1395054595649496,-2.6803700037962077,0.0792190283536911,0.9084268808364868,-0.4104694128036499,0.03105464205145836,0.08751664310693741,-0.004126131068915129,-0.009303249418735504,-0.008875370025634766,-0.026359200477600098
329,0.18815335533826621,-1.1341269436382337,-2.6890822177449376,0.07910584658384323,0.9061653017997742,-0.4154597520828247,0.012635461054742336,0.07685869932174683,7.63838179409504e-05,-0.011021137237548828,-0.00214308500289917,0.02304941415786743
330,0.20326209806246195,-1.137365383070853,-2.68271580381184,0.08478078991174698,0.9075301289558411,-0.41134071350097656,-0.06540234386920929,0.1062040701508522,0.053633350878953934,0.018795862793922424,0.01916658878326416,0.02070048451423645
331,0.23695117612541117,-1.1455139369312037,-2.662300844601481,0.09684862941503525,0.9109222888946533,-0.40104997158050537,-0.04647620767354965,0.17581410706043243,0.03853762522339821,-0.019547604024410248,0.020748913288116455,0.02475297451019287
332,0.2598076656112577,-1.1476743939575116,-2.665608863093848,0.10548333078622818,0.9118114709854126,-0.39682894945144653,0.05550418421626091,0.21041317284107208,0.061803463846445084,0.00483771413564682,-0.0314708948135376,-0.04683560132980347
333,0.2799154167685046,-1.142380798873956,-2.654315192444328,0.11477265506982803,0.9096251130104065,-0.3992609679698944,-0.015635576099157333,0.025112180039286613,0.03119169920682907,-0.007442347705364227,0.03905951976776123,-0.02375844120979309
334,0.29003658536803467,-1.1400987635232287,-2.6513438565805965,0.1194009929895401,0.9086747169494629,-0.4000667929649353,0.041744496673345566,0.1176089271903038,0.03261717036366463,-0.002747565507888794,0.012009978294372559,0.006268024444580078
335,0.29323028774601323,-1.1445748002573473,-2.6523840790600413,0.11950135976076126,0.9105343818664551,-0.39578619599342346,-0.018442615866661072,0.0029512098990380764,-0.004414588212966919,0.014257192611694336,0.016086101531982422,0.0004004240036010742
336,0.2968673800001288,-1.1469867443672401,-2.6534497315967247,0.12029727548360825,0.9115289449691772,-0.3932476341724396,0.04043283686041832,0.13305716216564178,-0.0741085559129715,-0.0036743581295013428,0.05900639295578003,0.0038127899169921875
337,0.28422997735886973,-1.1466946976719612,-2.680821376475726,0.1153927743434906,0.9114087820053101,-0.39499178528785706,0.05564119666814804,0.06583049148321152,-0.02614222653210163,0.012369059026241302,-0.043412625789642334,-0.018033117055892944
338,0.2870250233501279,-1.1390350415808266,-2.6817419513233687,0.1184692308306694,0.9082301259040833,-0.4013515114784241,0.04925202205777168,0.024302251636981964,0.03671770542860031,0.0041351318359375,0.015109658241271973,-0.007996052503585815
339,0.2816772024488035,-1.1380796091748553,-2.6867501164593572,0.1165623888373375,0.9078298807144165,-0.4028128385543823,-0.0082950908690691,-0.03944253921508789,-0.0424920991063118,-0.003647349774837494,0.022117018699645996,-0.0030709505081176758
340,0.2686025993066924,-1.1365197139760994,-2.6957106097079517,0.1116616427898407,0.9071746468544006,-0.405667245388031,0.09480520337820053,-0.049084026366472244,0.053640056401491165,-0.015042990446090698,-0.036523401737213135,0.010632455348968506
341,0.2661734627394859,-1.1283610357665852,-2.6844268231932094,0.11261904239654541,0.9037116765975952,-0.4130643606185913,0.0638151541352272,-0.14955991506576538,0.10110937058925629,-0.01943361759185791,0.03900676965713501,0.005059599876403809
342,0.24784126814668941,-1.1229229739288902,-2.6858212401840307,0.1062321662902832,0.901370108127594,-0.4198174476623535,0.07348122447729111,-0.1572786420583725,0.019259897992014885,-0.003174304962158203,-0.0004912018775939941,0.022142887115478516
343,0.2389755572201987,-1.1137486915610861,-2.6780998331269887,0.10445918142795563,0.897359311580658,-0.42875951528549194,0.11370670050382614,-0.1924331933259964,0.12244624644517899,-0.0050786882638931274,-0.04204314947128296,0.008166253566741943
344,0.24113664969528634,-1.1005230413636546,-2.6513143265445347,0.10821039229631424,0.8914445042610168,-0.4400195777416229,0.10317569226026535,-0.2237360030412674,0.15419049561023712,-0.007075145840644836,0.043553054332733154,0.013948440551757812
345,0.2267605979001806,-1.0901813587980356,-2.639767139406315,0.10394084453582764,0.8867107629776001,-0.45048895478248596,0.10415114462375641,-0.22814112901687622,0.041392214596271515,-0.017667658627033234,0.012871086597442627,0.012744814157485962
346,0.21661451877815505,-1.0790812265398289,-2.623160339096938,0.10147414356470108,0.881524384021759,-0.46110501885414124,0.05885307863354683,-0.2515297830104828,0.07951267808675766,0.0010343939065933228,0.05144375562667847,-0.009537100791931152
347,0.19503666339041636,-1.0771940336326813,-2.6241392816738207,0.09182386845350266,0.8806318044662476,-0.4648182690143585,0.01567891053855419,-0.17233934998512268,0.03115224279463291,0.015872664749622345,-0.02389657497406006,-0.05787152051925659
348,0.17879577167408098,-1.071514380677946,-2.623656175852511,0.08515116572380066,0.8779265880584717,-0.47116246819496155,-0.07147716730833054,-0.19779956340789795,-0.04811396822333336,0.024590037763118744,-0.06269532442092896,-0.06736597418785095
349,0.1693002028117919,-1.0639050657837383,-2.6201785156125488,0.08179671317338943,0.8742579221725464,-0.47852107882499695,0.030585747212171555,-0.06346891075372696,0.04934883862733841,0.031209878623485565,-0.04108226299285889,-0.06362372636795044
350,0.17386930883422047,-1.054830925991806,-2.6091208315014653,0.08535119891166687,0.8698168396949768,-0.4859361946582794,-0.048869676887989044,-0.07691924273967743,-0.011919315904378891,0.01438024640083313,-0.012150764465332031,-0.05712407827377319
351,0.17729369094857358,-1.0460654271864576,-2.6087371460547795,0.08835604041814804,0.8654587864875793,-0.49312710762023926,0.15196150541305542,0.05315753445029259,0.037879496812820435,0.019371017813682556,-0.052668869495391846,-0.06758761405944824
352,0.19009830090845095,-1.0333820638272535,-2.6031568508298393,0.09672939777374268,0.8590352535247803,-0.5026946067810059,0.09098275005817413,-0.02966504730284214,-0.005012642592191696,0.002803690731525421,0.019001245498657227,-0.09989023208618164
353,0.1734089152208101,-1.0176817803663503,-2.6072348201302633,0.09064274281263351,0.8508924841880798,-0.5174610018730164,0.22210773825645447,-0.28578200936317444,0.15165629982948303,-0.0044458359479904175,-0.023988187313079834,-0.09495043754577637
354,0.15431817343368381,-1.0072041261687281,-2.572727482473089,0.08211400359869003,0.8453415036201477,-0.5278778076171875,-0.2232833057641983,-0.7358413934707642,0.1946067214012146,-0.03270604461431503,0.02529442310333252,-0.032318055629730225
355,0.11573431023968844,-1.0205028084430638,-2.5377653156917233,0.06038680300116539,0.852371096611023,-0.5194392800331116,-0.14143022894859314,-0.389083594083786,0.1376398652791977,-0.09449020028114319,0.07922381162643433,0.22203022241592407
356,0.11078888621256092,-1.0237224217453187,-2.5265361921631766,0.05751349404454231,0.8540502786636353,-0.5170012712478638,-0.07549671828746796,-0.1551642268896103,0.06570762395858765,0.019497618079185486,0.022750258445739746,0.07858574390411377
357,0.12993442437256258,-1.036327044803509,-2.490965391621827,0.06600049138069153,0.8605390787124634,-0.5050904750823975,-0.09457703679800034,-0.09196910262107849,0.1806865632534027,0.0027250945568084717,0.02624070644378662,0.08864760398864746
358,0.16293876481785322,-1.0512297512226167,-2.4444423769257075,0.08054224401712418,0.8680344820022583,-0.48992764949798584,-0.03253323212265968,-0.061694975942373276,0.21045446395874023,0.003747299313545227,0.0769728422164917,0.04069364070892334
359,0.16327580137035014,-1.0618236376760934,-2.429019579796361,0.07920806109905243,0.8732455372810364,-0.4807995855808258,-0.052334144711494446,-0.08626115322113037,0.012583183124661446,-0.0008083954453468323,0.024428963661193848,0.0897015631198883
360,0.17497952012399431,-1.0706724513895975,-2.4183246120804363,0.08348114788532257,0.8775231838226318,-0.4722118377685547,0.004351687617599964,0.021325446665287018,-0.0025039869360625744,0.006820343434810638,0.050852060317993164,0.039121657609939575
361,0.18005793272259837,-1.0843352608181764,-2.4163961071464275,0.0837230235338211,0.8839928507804871,-0.45994237065315247,-0.08452387154102325,0.03280363604426384,-0.08647186309099197,0.011217162013053894,0.05095875263214111,0.07223165035247803
362,0.18855833679520428,-1.0947195339599451,-2.4232595849176115,0.0859043151140213,0.8887997269630432,-0.45017266273498535,0.013739749789237976,0.18448150157928467,-0.057491980493068695,0.016924642026424408,0.03394496440887451,0.05602291226387024
363,0.19849937761872402,-1.1015974488476878,-2.4345194592429538,0.08916757255792618,0.8919308185577393,-0.44329288601875305,0.07394246757030487,0.2416621297597885,-0.09632852673530579,-0.002696022391319275,0.04376864433288574,0.07807374000549316
364,0.194996293906515,-1.102967663859595,-2.466973388135715,0.08737727999687195,0.8925495743751526,-0.44240325689315796,0.06054782122373581,0.27236512303352356,-0.14883540570735931,-0.012059897184371948,0.0004558563232421875,0.07477325201034546
365,0.19724338018734036,-1.0925081552105294,-2.495990795823702,0.09019577503204346,0.8877841234207153,-0.4513360261917114,0.09743610769510269,0.27846166491508484,-0.09886380285024643,-0.028489232063293457,0.05171477794647217,0.027996182441711426
366,0.1996901842093493,-1.0789266655332832,-2.529656548645255,0.09368311613798141,0.881451427936554,-0.46288982033729553,0.03897645324468613,0.2454531192779541,-0.2556505799293518,-0.002191416919231415,0.009204208850860596,-0.07046592235565186
367,0.18095555552281412,-1.076797004176323,-2.5758009524033567,0.08533274382352829,0.8804436326026917,-0.46640902757644653,0.14406028389930725,0.24519872665405273,-0.11198019981384277,0.019449353218078613,-0.06531912088394165,-0.09509912133216858
368,0.16676019878078466,-1.0676588427893818,-2.6155193697610133,0.08003569394350052,0.8760740756988525,-0.475487619638443,0.0936298593878746,0.27458590269088745,-0.10188628733158112,0.005779728293418884,-0.12720322608947754,-0.09703737497329712
369,0.18005705295072566,-1.0551364789764732,-2.626245476901883,0.08830878138542175,0.869967520236969,-0.4851371645927429,0.06748178601264954,0.17663715779781342,-0.028762109577655792,0.03492119908332825,-0.03192436695098877,-0.14888077974319458
370,0.17305666134139341,-1.047888479497948,-2.64640630103779,0.08599404245615005,0.866370677947998,-0.49194207787513733,-0.05134750157594681,0.07150604575872421,-0.17544269561767578,0.009358137845993042,-0.04346418380737305,-0.08908206224441528
371,0.16377086802000157,-1.0433174545747863,-2.676128432053899,0.082067109644413,0.8640788197517395,-0.4966212511062622,-0.012828124687075615,0.20513658225536346,-0.07321282476186752,0.009043112397193909,-0.10081899166107178,-0.08859908580780029
372,0.1739049167785847,-1.0347528263532906,-2.6844056371713734,0.08837290853261948,0.8597361445426941,-0.503034770488739,-0.07539349049329758,0.12295864522457123,-0.06203579902648926,0.018545426428318024,0.017537415027618408,-0.10911732912063599
373,0.1608769508989182,-1.0416875728871346,-2.707939458734082,0.0808551013469696,0.8632572889328003,-0.49824628233909607,-0.15880785882472992,0.05287030339241028,-0.1421942263841629,-0.0007006898522377014,-0.05182540416717529,-0.007842004299163818
374,0.17698000158319266,-1.041935234942988,-2.706728264675885,0.08882991224527359,0.8633822798728943,-0.49666929244995117,0.16566653549671173,0.11614974588155746,0.2759539484977722,0.04959782958030701,-0.016717851161956787,-0.052952349185943604
375,0.20689096055365136,-1.0490123842205956,-2.662109348057345,0.10238604992628098,0.8669313788414001,-0.48779812455177307,-0.23576006293296814,-0.08353406190872192,0.10817364603281021,-0.041579775512218475,0.12171602249145508,0.10094201564788818
376,0.20375478085389243,-1.0619057694048035,-2.6692001679584854,0.09858562052249908,0.8732855916023254,-0.47713008522987366,0.02188829705119133,0.17062009871006012,-0.12107010185718536,-0.04116680473089218,0.06004875898361206,0.09175413846969604
377,0.20059032460627707,-1.0737072562645584,-2.6863654801665766,0.09501508623361588,0.878974437713623,-0.4673071801662445,-0.02263699471950531,-0.023051444441080093,0.0940081849694252,-0.025419749319553375,-0.05065113306045532,-0.03162470459938049
378,0.21543825066902278,-1.0773015647194881,-2.645573589723727,0.10126687586307526,0.8806827664375305,-0.4627557098865509,-0.18731029331684113,-0.32262590527534485,0.22565285861492157,9.725242853164673e-05,0.024590611457824707,0.027468234300613403
379,0.22149974238121406,-1.0852190848145074,-2.6091389553871616,0.10253490507602692,0.8844056725502014,-0.4553166925907135,-0.06720326840877533,-0.098283551633358,0.11144059151411057,-0.022075295448303223,0.04546499252319336,0.11062061786651611
380,0.23432341773199142,-1.0890870499425083,-2.588002780960674,0.10756999254226685,0.8862043023109436,-0.45063337683677673,-0.04612875357270241,-0.09612702578306198,0.034691061824560165,0.0028120726346969604,0.027629196643829346,-0.006260544061660767
381,0.22477118274069952,-1.09645002687321,-2.5809714461167443,0.10180354863405228,0.8895915150642395,-0.4452674984931946,-0.09479523450136185,-0.13156165182590485,-0.022640252485871315,-0.0035216882824897766,0.029506385326385498,0.06558305025100708
382,0.2206057724779968,-1.1049178421437928,-2.581685937105406,0.09829599410295486,0.893427312374115,-0.4383213222026825,0.011016221717000008,0.041330598294734955,-0.045976672321558,0.010132953524589539,0.04152446985244751,0.028714388608932495
383,0.21089131230167385,-1.1118683011731925,-2.592997161970442,0.09273118525743484,0.896527886390686,-0.43317264318466187,0.02139778435230255,0.02314288541674614,-0.036385029554367065,-0.012592040002346039,-0.00964134931564331,0.03864142298698425
384,0.21030965586505415,-1.1076712205613837,-2.598890788100626,0.09326394647359848,0.8946607112884521,-0.4369026720523834,0.10777784138917923,0.04464373365044594,-0.020717449486255646,-0.006395675241947174,0.008735835552215576,0.011441856622695923
385,0.21276240602842436,-1.0996087517205653,-2.602029836795827,0.09585536271333694,0.8910298347473145,-0.44370898604393005,0.1406373828649521,0.05487213656306267,0.030405450612306595,-0.006499886512756348,0.019324779510498047,-0.001634061336517334
386,0.19570754993590594,-1.0930705134808705,-2.619651516534088,0.0894053652882576,0.8880428075790405,-0.45098409056663513,0.1447497010231018,0.01550055667757988,-0.05781745910644531,-0.005222633481025696,0.010699868202209473,0.028941214084625244
387,0.19105911402807396,-1.0831592021789493,-2.6260590472149223,0.08897516876459122,0.8834424018859863,-0.46001413464546204,0.11364632099866867,0.017889350652694702,0.023212891072034836,-0.016541704535484314,0.011577129364013672,0.02198004722595215
388,0.19745381961466982,-1.0752632602525258,-2.6213313344447786,0.09328050166368484,0.8797153830528259,-0.46626123785972595,0.049907583743333817,0.018886787816882133,0.023799853399395943,-0.022067725658416748,0.04447895288467407,-0.01481783390045166
389,0.18359699755227635,-1.0803820007260159,-2.6301309821336774,0.0859876349568367,0.8821377754211426,-0.4630756676197052,-0.05573255941271782,-0.049954064190387726,-0.04398078843951225,-0.0200086310505867,0.008197307586669922,-0.03935045003890991
390,0.16739206710900983,-1.0802860605706643,-2.64134785661411,0.07848663628101349,0.8820925951004028,-0.46449151635169983,-0.06316642463207245,-0.0912356823682785,-0.07024158537387848,0.009815976023674011,-0.06087994575500488,-0.07048159837722778
391,0.1431652425207316,-1.0641508334321788,-2.6471186301053273,0.06923340260982513,0.8743771910667419,-0.48028239607810974,0.328412264585495,-0.22772641479969025,0.03645849600434303,0.06370116025209427,0.04897785186767578,-0.10274067521095276
392,0.10353673757846181,-1.045439891054883,-2.670684719591075,0.05183316767215729,0.8651452660560608,-0.4988357126712799,-0.11525063961744308,-0.2676553726196289,-0.417619526386261,0.0009775049984455109,0.05016845464706421,-0.11075291037559509
393,0.018198439074381952,-1.0331409369702231,-2.7380639477305464,0.009319338016211987,0.8589117527008057,-0.5120389461517334,0.3789755403995514,-0.2851960361003876,-0.2170707732439041,0.07742688059806824,-0.059839487075805664,-0.0451052188873291
394,-0.03151113812280194,-0.992225169192772,-2.7767538006870707,-0.017228325828909874,0.8372448086738586,-0.5465567111968994,0.04393354803323746,0.02148648165166378,-0.3034677505493164,0.04362604022026062,-0.001597285270690918,-0.021390676498413086
395,-0.0672213296147196,-0.9630278631194754,-2.7890424143868473,-0.0383569709956646,0.8209243416786194,-0.5697473883628845,0.6953645944595337,-0.487043172121048,-0.018754854798316956,0.0035058706998825073,-0.012467741966247559,0.0012508034706115723
396,-0.10272890553038959,-0.9190960555870925,-2.8088893238203343,-0.062199562788009644,0.7950536608695984,-0.6033414602279663,0.06862956285476685,0.04546234384179115,-0.3878353536128998,-0.013880759477615356,-0.03911799192428589,0.06559121608734131
397,-0.14988549465256099,-0.9247528620048304,-2.8856002315727003,-0.08989837765693665,0.798471987247467,-0.5952821373939514,-0.0792585015296936,0.14074839651584625,-0.4065377712249756,0.030953675508499146,-0.08523041009902954,0.013678133487701416
398,-0.14978235847585997,-0.9294865877847468,-2.920392569226161,-0.08927193284034729,0.8013129234313965,-0.5915471911430359,-0.07129014283418655,0.4049754738807678,-0.05739348381757736,0.07294502854347229,-0.030057430267333984,-0.011983633041381836
399,-0.14954176466963046,-0.935382101448058,-2.9328075080465594,-0.08842423558235168,0.8048259019851685,-0.586887001991272,-0.05168154463171959,0.13817152380943298,-0.04944688081741333,-0.03030439466238022,0.06019479036331177,0.05641525983810425
400,-0.1434504202492579,-0.9405301228692212,-2.9491553979219756,-0.08425425738096237,0.807870626449585,-0.5833063125610352,0.045423559844493866,0.19352884590625763,0.03755289688706398,0.004374496638774872,-0.010125875473022461,-0.038825035095214844
401,-0.1340446811948374,-0.9491997484496547,-2.9434584664718098,-0.07782519608736038,0.8129497766494751,-0.5771099328994751,-0.09117865562438965,-0.06646031141281128,0.08022243529558182,0.009420044720172882,0.0009235143661499023,-0.007652640342712402
402,-0.12957958788841867,-0.9514433604214737,-2.940677642476298,-0.0750117152929306,0.8142542243003845,-0.5756416320800781,-0.05117103084921837,0.040873151272535324,0.12234964966773987,0.0104212686419487,-0.007964611053466797,0.013889312744140625
403,-0.13457214320170127,-0.9473815232176754,-2.9397541794796584,-0.07832778990268707,0.8118895888328552,-0.5785327553749084,0.028630562126636505,-0.12774966657161713,-0.0960053876042366,0.017170563340187073,0.025878965854644775,0.012874186038970947
404,-0.1330738421138637,-0.9317467728054546,-2.931912624602131,-0.07913555949926376,0.8026629686355591,-0.5911595821380615,0.36271968483924866,-0.21504080295562744,0.07746239006519318,0.014102600514888763,-0.0015918612480163574,-0.03339791297912598
405,-0.1281522941605345,-0.9386099251425711,-2.933772331110223,-0.07551936060190201,0.80673748254776,-0.586064338684082,-0.1424318253993988,0.1438441127538681,0.03519174084067345,-0.001964770257472992,-0.018056511878967285,0.011204779148101807
406,-0.11013660853680901,-0.9422582891009915,-2.9245475291221625,-0.06462538987398148,0.8088879585266113,-0.5844003558158875,-0.13420669734477997,0.04467089846730232,0.01353326067328453,0.0009657293558120728,0.003108501434326172,-0.0317341685295105
407,-0.10758403858297862,-0.9417939931267667,-2.9170532818268327,-0.06317378580570221,0.8086148500442505,-0.584936797618866,-0.07903514802455902,-0.00019545434042811394,0.023954635486006737,-0.01350162923336029,0.02001368999481201,0.019781827926635742
408,-0.1121615968910473,-0.9429294214879341,-2.9225332947203695,-0.06574790179729462,0.8092823624610901,-0.5837288498878479,-0.044726788997650146,0.005280016455799341,-0.058478038758039474,0.005613014101982117,-0.008012831211090088,-0.0048331618309021
409,-0.11453213061719322,-0.9419109281365686,-2.9228817900848214,-0.0672256276011467,0.8086836934089661,-0.5843899250030518,0.04380576312541962,-0.020536474883556366,0.04909801855683327,0.001704387366771698,-0.012846231460571289,0.019509553909301758
410,-0.10713513632866926,-0.9399401391462681,-2.91632533996487,-0.06307139247655869,0.8075227737426758,-0.5864546298980713,0.07812471687793732,0.05283910781145096,0.04253076761960983,0.010855808854103088,0.008166313171386719,-0.012605428695678711
411,-0.09616463513684734,-0.9393390091848142,-2.9046217797743545,-0.05668061599135399,0.8071680665016174,-0.5875942707061768,0.044233519583940506,0.03351696953177452,0.051085323095321655,-0.008153975009918213,0.02222341299057007,0.010995149612426758
412,-0.08041166390500475,-0.9403479235260785,-2.8918920873969918,-0.047352179884910583,0.8077632784843445,-0.5876022577285767,0.049456652253866196,0.15353576838970184,0.12801706790924072,0.011768683791160583,-0.004357457160949707,0.02305757999420166
413,-0.05773710402939708,-0.9339040736027896,-2.879994793075649,-0.03431716933846474,0.8039478063583374,-0.593708872795105,0.24219709634780884,0.1796271800994873,-0.03491437807679176,0.0021363869309425354,0.0517803430557251,-0.0063735246658325195
414,-0.03758191809176423,-0.9021988088993652,-2.9185558369060693,-0.023291021585464478,0.7846918106079102,-0.6194483041763306,0.4558693468570709,0.6540387272834778,-0.46399155259132385,0.024130256846547127,0.05417531728744507,0.019243896007537842
415,-0.02566698359967744,-0.8243691035421656,-2.9634932837904957,-0.017426488921046257,0.7341195344924927,-0.678796648979187,0.678681492805481,0.2788461148738861,-0.09808031469583511,0.011887550354003906,0.028056979179382324,0.01847255229949951
416,-0.006773062781587237,-0.8070666523921213,-2.9596531793082415,-0.004684349987655878,0.7222615480422974,-0.6916041374206543,0.074107825756073,-0.08582185208797455,0.2209172248840332,0.01458730548620224,-0.017564892768859863,-0.06274455785751343
417,0.010158942616172738,-0.8144489898903998,-2.9310003333817534,0.006971650291234255,0.7273475527763367,-0.6862338781356812,0.027831854298710823,0.009119154885411263,0.16119766235351562,-0.04475241154432297,0.032891035079956055,0.007706105709075928
418,0.02196862511435678,-0.8140689220862705,-2.9138861813069656,0.015081251040101051,0.7270866632461548,-0.6863799691200256,-0.13969525694847107,0.040733132511377335,0.16115301847457886,-0.00011237803846597672,-0.01546257734298706,-0.01482236385345459
419,0.0011525305814096363,-0.8075123524460633,-2.894110490949225,0.0007967419805936515,0.7225697040557861,-0.6912975907325745,0.2619253396987915,-1.3962175846099854,0.20153580605983734,0.03579383343458176,-0.010594606399536133,-0.24748414754867554
420,-0.028929569169656486,-0.8233173338609289,-2.8667812576067857,-0.01966334693133831,0.7334049344062805,-0.6795075535774231,-0.6477552056312561,0.3980386257171631,0.0728125050663948,-0.0067953914403915405,-0.023245692253112793,0.1402314305305481
421,-0.019318745630312273,-0.8296436611392259,-2.8463740454095587,-0.013042021542787552,0.7376908659934998,-0.6750127077102661,-0.17566491663455963,-0.015070682391524315,0.09652641415596008,-0.01494259387254715,0.004511892795562744,0.07618153095245361
422,-0.013348208059438585,-0.8337392015918463,-2.820866468209223,-0.008971222676336765,0.7404497265815735,-0.6720519661903381,0.023677170276641846,-0.35330551862716675,0.16721704602241516,0.01461697369813919,-0.0014665722846984863,-0.055822789669036865
423,-0.02526626712655226,-0.8539625458750711,-2.801497352124972,-0.01659819483757019,0.7538897395133972,-0.6567912697792053,-0.057431019842624664,-0.20823559165000916,0.11847101151943207,0.0028347689658403397,-0.03257632255554199,-0.05349010229110718
424,-0.03018288752474299,-0.8559860720068255,-2.788556040825385,-0.019781099632382393,0.7552176117897034,-0.6551756858825684,-0.055660806596279144,-0.04814058914780617,0.042494017630815506,0.024099335074424744,-0.03916841745376587,-0.03729867935180664
425,-0.01684072651621854,-0.8565414388520851,-2.7795161931120105,-0.011031074449419975,0.7555815577507019,-0.6549617648124695,-0.040729936212301254,0.025641122832894325,-0.008183169178664684,0.02969256043434143,-0.02447187900543213,-0.06148421764373779
426,-0.011365302855767975,-0.8571513131809431,-2.780400751243079,-0.007439495529979467,0.755980908870697,-0.6545514464378357,-0.08124807476997375,0.02711145393550396,-0.0022043725475668907,0.0171288400888443,-0.01998847723007202,-0.06032288074493408
427,-0.005710853131289725,-0.8591477631152824,-2.786010437633541,-0.003729641204699874,0.7572862505912781,-0.6530724167823792,-0.1038985326886177,0.1452564150094986,-0.06431248039007187,0.0018528106156736612,-0.01816582679748535,0.0009728670120239258
428,0.005405994459977284,-0.86231757310443,-2.7955824106949234,0.0035175520461052656,0.7593526244163513,-0.6506698727607727,0.02278321236371994,0.1894071400165558,-0.06152554228901863,0.005271509289741516,0.007004857063293457,-0.037120044231414795
429,0.009166038708377596,-0.8638465003105915,-2.8054151135353944,0.005953420419245958,0.760346531867981,-0.6494903564453125,-0.11494801938533783,0.09182651340961456,-0.10164286941289902,0.01090753823518753,0.029890894889831543,-0.000335693359375
430,0.004662817659556813,-0.8709461283677661,-2.824471860825189,0.003003324382007122,0.7649387121200562,-0.6440960764884949,-0.0846860408782959,0.0845561996102333,-0.11062398552894592,0.021502293646335602,0.001540839672088623,0.0061566829681396484
431,-0.005803411085545806,-0.8795965133235659,-2.8471378141963912,-0.0036994339898228645,0.7704817056655884,-0.6374513506889343,-0.1287165731191635,-0.011354241520166397,-0.2390875369310379,0.02007210999727249,0.0642351508140564,-0.011092960834503174
432,-0.035000389200466844,-0.890070989595035,-2.8808805664402777,-0.022023240104317665,0.7771164178848267,-0.628971517086029,-0.08168453723192215,-0.020308967679739,-0.40529540181159973,-0.031199410557746887,0.11263883113861084,0.023792624473571777
433,-0.0690129979090449,-0.9172944686915655,-2.9307867545234907,-0.04192455857992172,0.7939596176147461,-0.6065231561660767,0.08667553216218948,0.11888454109430313,-0.09073394536972046,-0.020331289619207382,-0.03381258249282837,0.011354148387908936
434,-0.05835931896264381,-0.9195336366084228,-2.9305518954918015,-0.035356827080249786,0.7953190207481384,-0.6051592230796814,-0.0022086510434746742,0.027264175936579704,0.049380186945199966,-0.013501808047294617,0.006759226322174072,0.0071062445640563965
435,-0.04236135868258584,-0.918446480499559,-2.9242973159685453,-0.025707999244332314,0.7946594953536987,-0.6065107583999634,0.12980037927627563,0.12467440217733383,0.05571282282471657,0.0070465002208948135,0.030917227268218994,-0.004176437854766846
436,-0.03796516302019679,-0.9202058842046835,-2.925950707974789,-0.022988317534327507,0.7957263588905334,-0.6052199006080627,-0.065921850502491,0.02538359723985195,-0.027659399434924126,-0.025198936462402344,0.013493001461029053,-0.014378488063812256
437,-0.043167003291575724,-0.919657377893553,-2.935220384301793,-0.02615508623421192,0.7953940033912659,-0.6055282354354858,-0.040495797991752625,0.027922840788960457,-0.04633403569459915,0.015016168355941772,-0.01385408639907837,0.02688443660736084
438,-0.03484055035377427,-0.9210854676319901,-2.933800618407514,-0.021072741597890854,0.7962587475776672,-0.60458904504776,-0.12815937399864197,0.07826508581638336,-0.025868767872452736,-0.005843758583068848,0.029104411602020264,0.01727825403213501
439,-0.03184249155890108,-0.9281355293177522,-2.943603037364427,-0.019080854952335358,0.8005039095878601,-0.599023699760437,-0.0464884415268898,0.06386033445596695,-0.08460073173046112,-0.003059646114706993,0.004732847213745117,-0.024160444736480713
440,-0.032414372257594054,-0.9312836103539871,-2.954956703502015,-0.01934165507555008,0.8023866415023804,-0.5964909791946411,-0.01619546301662922,0.11102177947759628,-0.0008778198389336467,-0.00041847676038742065,-0.020831525325775146,-0.010244250297546387
441,-0.025845337374337838,-0.9321299857982255,-2.95333208265133,-0.015405341051518917,0.8028914928436279,-0.5959261059761047,-0.07707654684782028,0.018639780580997467,-0.01061556488275528,-0.02045281231403351,0.01296544075012207,0.0032899975776672363
442,-0.02346689558026431,-0.9333340366218691,-2.9533614833971225,-0.013965229503810406,0.8036086559295654,-0.5949941277503967,-0.04809527471661568,-0.03893129155039787,-0.023539863526821136,-0.014309308491647243,0.028315722942352295,-0.050086379051208496
443,-0.031093991375736093,-0.9323727606938346,-2.956350384029597,-0.018526865169405937,0.8030362129211426,-0.5956422686576843,0.08622414618730545,-0.0638030543923378,0.038423310965299606,-0.0032016485929489136,0.005160808563232422,-0.028701603412628174
444,-0.037119019967959015,-0.9296082580018703,-2.953653910211387,-0.02219756878912449,0.8013857007026672,-0.5977360010147095,0.013858266174793243,-0.07656064629554749,0.04224509000778198,0.0009725913405418396,-0.001474142074584961,-0.014934897422790527
445,-0.037388287674546265,-0.9266973700544806,-2.951589312513612,-0.022445619106292725,0.7996411323547363,-0.6000584959983826,-0.016631055623292923,-0.016411196440458298,-0.02859988436102867,0.01400751806795597,-0.0065961480140686035,-0.035439491271972656
446,-0.03283417481359412,-0.9254475092807392,-2.9471816716455534,-0.01974545605480671,0.7988899946212769,-0.6011528968811035,-0.035017553716897964,0.049339357763528824,0.0644138753414154,-0.00523318350315094,-0.01109403371810913,-0.013242244720458984
447,-0.025517989800155638,-0.9294027003545116,-2.944167108841624,-0.015266078524291515,0.8012627363204956,-0.5981178283691406,-0.06319636106491089,0.05780429020524025,-0.018748806789517403,0.004157685674726963,-0.0006798505783081055,-0.0110129714012146
448,-0.019837562356266193,-0.9347216000056169,-2.9433033117487843,-0.011783580295741558,0.8044337034225464,-0.5939254760742188,-0.04808260127902031,0.08136613667011261,0.04938475787639618,-0.012371085584163666,-0.017446458339691162,0.01261138916015625
449,-0.004452201867118475,-0.9399284560664111,-2.935385747072272,-0.002626103814691305,0.8075159192085266,-0.5898399353027344,-0.07756780087947845,0.09155134856700897,0.0486270971596241,-0.0007613450288772583,0.02639216184616089,-0.011569976806640625
450,0.0001560864871591502,-0.9491860073158567,-2.937680168522878,9.089618833968416e-05,0.8129417300224304,-0.5823450088500977,-0.08556188642978668,0.06911104172468185,-0.020862095057964325,-0.02548152208328247,0.016953229904174805,-0.0023717880249023438
451,0.0025802854009844825,-0.9569795787130515,-2.9388563004488515,0.0014862213283777237,0.8174555897712708,-0.5759897828102112,-0.04629563167691231,0.01944706402719021,0.0692298412322998,0.020532213151454926,0.002689063549041748,-0.0008840560913085938
452,0.017252062551696774,-0.9635984087371053,-2.924388233985578,0.009842993691563606,0.8212500214576721,-0.5704835057258606,-0.13710297644138336,0.03929273411631584,0.0488298125565052,0.0016773855313658714,0.037468791007995605,0.04474198818206787
453,0.027766785668425133,-0.9766849495421707,-2.924373203520662,0.01554108690470457,0.8286462426185608,-0.559556782245636,-0.042157866060733795,0.12250957638025284,-0.04394971579313278,0.006752006709575653,0.008420169353485107,-0.016249001026153564
454,0.02927533629307724,-0.9826502922673701,-2.9302450153231625,0.016240209341049194,0.831970751285553,-0.554581880569458,0.001500686164945364,0.024158695712685585,0.01960669457912445,0.02665223926305771,0.0075067877769470215,-0.018965482711791992
455,0.038471120371085306,-0.9842495430929281,-2.932082345518263,0.021288065239787102,0.8328569531440735,-0.553078830242157,0.021071314811706543,0.17746320366859436,-0.08689754456281662,-0.022325657308101654,0.032545268535614014,0.017892003059387207
456,0.039746046440720474,-0.9876300421799111,-2.9537146307177333,0.02188117615878582,0.8347232341766357,-0.5502346754074097,-0.026557322591543198,0.17292487621307373,-0.0577201284468174,-0.004242017865180969,-0.04131203889846802,-0.010419011116027832
457,0.05621593136091253,-0.9860278512939367,-2.9557707068952253,0.03101520799100399,0.8338398933410645,-0.5511343479156494,-0.04261522740125656,0.20176224410533905,-0.07507579028606415,0.0006010048091411591,0.04231971502304077,0.006792306900024414
458,0.06152963752614769,-0.9896238462447939,-2.9745730214515094,0.03375871852040291,0.8358195424079895,-0.5479652881622314,-0.014350082725286484,0.23326511681079865,-0.07718178629875183,0.006707582622766495,-0.017078757286071777,0.01077967882156372
459,0.07385858612079065,-0.9893057205894948,-2.989929875892316,0.04053144156932831,0.8356448411941528,-0.5477726459503174,0.0620216466486454,0.274056077003479,-0.10082168877124786,0.009685233235359192,0.002810359001159668,-0.012194395065307617
460,0.08495461080956607,-0.9892616482232716,-3.0037530617979002,0.04661005362868309,0.835620641708374,-0.5473260283470154,-0.02665458247065544,0.20164886116981506,-0.055200833827257156,-0.005350291728973389,0.015087425708770752,-0.00026613473892211914
461,0.09612533714288367,-0.9912718092957548,-3.0134190524587465,0.05255971476435661,0.8367231488227844,-0.5450980067253113,0.027173582464456558,0.11437169462442398,-0.04914212226867676,-0.013848170638084412,0.0237046480178833,-0.031317949295043945
462,0.08896125418064864,-0.9912936771499046,-3.026187079989037,0.048651646822690964,0.8367351293563843,-0.5454423427581787,0.08489590883255005,0.002498475369066,-0.04630986973643303,-0.029822297394275665,-0.0031627416610717773,-0.010145425796508789
463,0.07021957191259375,-0.9796891323802874,-3.038345172764984,0.039099857211112976,0.8303241729736328,-0.5559073090553284,0.1137467548251152,-0.17413443326950073,-0.013559571467339993,0.043831661343574524,-0.013124465942382812,-0.006653726100921631
464,0.07463510069962893,-0.9658196857218603,-3.017795477521628,0.0424087829887867,0.8225153684616089,-0.5671595335006714,0.14077171683311462,-0.17668773233890533,0.11358790844678879,-0.0450638122856617,0.04975330829620361,0.010686755180358887
465,0.05725664940808649,-0.9668985971737307,-3.009754876418613,0.03249572589993477,0.8231285214424133,-0.5669246912002563,-0.055201541632413864,-0.29210200905799866,0.13388706743717194,-0.0016729719936847687,-0.03225022554397583,-0.03857457637786865
466,0.05851778980624734,-0.9674193960907356,-2.9594227469927112,0.03318559005856514,0.8234241604804993,-0.5664551258087158,0.21806547045707703,-0.4863162040710449,0.4696539342403412,0.02148665487766266,0.06044119596481323,-0.06049799919128418
467,0.0377929713086772,-0.9518379093905324,-2.9182762180492374,0.021921774372458458,0.8144832253456116,-0.5797727704048157,0.11040742695331573,-0.49958890676498413,0.2516111135482788,-0.04152932018041611,0.005768239498138428,0.028228580951690674
468,0.029442998831210817,-0.9367580321149968,-2.862287876898057,0.017439603805541992,0.805641770362854,-0.5921463370323181,0.07322075217962265,-0.5728687047958374,0.32654714584350586,0.019868135452270508,0.071952223777771,-0.01263582706451416
469,-0.005403735694775553,-0.9354513334097888,-2.8183554700170648,-0.003206859575584531,0.8048670291900635,-0.5934465527534485,-0.040671344846487045,-0.8509781360626221,0.20916025340557098,0.04422248899936676,-0.014965295791625977,0.004503071308135986
470,-0.033606999351566365,-0.9385856674753932,-2.7729234416635764,-0.01985563151538372,0.8067231178283691,-0.5905959010124207,0.27044686675071716,-0.32733750343322754,0.4642961621284485,0.02098478376865387,-0.043676912784576416,-0.019191086292266846
471,-0.004393165778644654,-0.9174646577205094,-2.695157041622464,-0.0026703125331550837,0.7940630912780762,-0.6078294515609741,-0.18247121572494507,-0.4432244300842285,0.2726575434207916,0.03874209523200989,0.06129884719848633,-0.06490004062652588
472,-0.03474377382398909,-0.9254929695018026,-2.678518210193152,-0.020892122760415077,0.7989173531532288,-0.6010779142379761,-0.04626788944005966,-0.2090120166540146,-0.05492729693651199,-0.061398521065711975,-0.02325206995010376,0.057514071464538574
473,-0.04688683611956303,-0.915038953378669,-2.6742134667543374,-0.02857922948896885,0.7925863265991211,-0.6090896129608154,0.04210270568728447,-0.20057135820388794,0.11821902543306351,0.021255016326904297,-0.1142263412475586,-0.06954503059387207
474,-0.048746587022066384,-0.8979460535609133,-2.6511085725014225,-0.03036770410835743,0.7820485234260559,-0.6224773526191711,0.13254514336585999,-0.22414427995681763,0.08573678135871887,0.024874534457921982,-0.019322574138641357,-0.05148816108703613
475,-0.04537791459034612,-0.8845038019105779,-2.635061725769289,-0.028744911774992943,0.7736006379127502,-0.6330211162567139,0.046485476195812225,-0.025770865380764008,0.07154996693134308,-0.025072842836380005,-0.02184593677520752,-0.008977174758911133
476,-0.04008378863518964,-0.8836306363528106,-2.6289523226753246,-0.0254202913492918,0.7730470299720764,-0.6338391900062561,-0.1296883523464203,0.005994076374918222,-0.006560910493135452,0.0206748116761446,0.01720559597015381,-0.045192182064056396
477,-0.0396443494771689,-0.8890250388557588,-2.635223068956153,-0.024976110085844994,0.7764577269554138,-0.6296741962432861,0.01851300708949566,0.16022378206253052,0.002114491304382682,-0.00020088255405426025,-0.02932637929916382,0.012517213821411133
478,-0.025292631016522113,-0.8852675319469305,-2.6381992704818487,-0.01601061411201954,0.7740843892097473,-0.6328799724578857,0.09576397389173508,0.11977747082710266,-0.04776642099022865,0.01082262396812439,0.013909995555877686,-0.05315518379211426
479,-0.02402562488900783,-0.8758562734820105,-2.645653371334467,-0.015383075922727585,0.7680920958518982,-0.6401546597480774,0.06768542528152466,0.008605929091572762,-0.05585264414548874,0.011339500546455383,0.03275024890899658,-0.03478735685348511
480,-0.0375931583344486,-0.8706969378489535,-2.660142226338163,-0.0242153313010931,0.7647781372070312,-0.6438385248184204,0.10441050678491592,0.15689796209335327,-0.15872323513031006,-0.025650396943092346,0.04831695556640625,0.07277834415435791
481,-0.034269827826164896,-0.8781242639049908,-2.666453696141099,-0.02188028208911419,0.769542396068573,-0.6382207870483398,-0.23490513861179352,-0.0875745639204979,0.018430879339575768,0.06274332106113434,0.028065025806427002,0.016379356384277344
482,-0.020346879492112297,-0.8973330339832527,-2.646994183410709,-0.012689408846199512,0.7816663384437561,-0.6235677599906921,-0.10155178606510162,0.027143234387040138,0.07914243638515472,0.014688298106193542,0.046245038509368896,0.06498926877975464
483,-0.0009402554226491314,-0.917719688448375,-2.631261897255549,-0.0005713300197385252,0.794218122959137,-0.607632577419281,-0.1384347826242447,0.08592994511127472,0.1756170094013214,-0.016838952898979187,0.021928727626800537,0.03893756866455078
484,0.01759983672824261,-0.9351924096329809,-2.6153862996868353,0.010447842068970203,0.8047133088111877,-0.5935716032981873,-0.08406037837266922,0.06481067091226578,0.04090964049100876,-0.021067962050437927,0.03024756908416748,0.01588916778564453
485,0.02124892665087901,-0.9414077051908282,-2.61039073868055,0.01250725518912077,0.8083875179290771,-0.5885178446769714,-0.009547434747219086,0.020522329956293106,0.07432524859905243,0.004689410328865051,-0.0030744075775146484,0.018281638622283936
