,attitude.roll,attitude.pitch,attitude.yaw,gravity.x,gravity.y,gravity.z,rotationRate.x,rotationRate.y,rotationRate.z,userAcceleration.x,userAcceleration.y,userAcceleration.z
0,0.21343267607988617,-0.9595858785681438,-2.7333822545683217,0.12155252695083618,0.8189539909362793,-0.5608381032943726,-0.09285380691289902,0.001010990235954523,-0.03672399744391441,0.0028676390647888184,-0.025771617889404297,-0.02340567111968994
1,-0.5790641701452605,0.25961796537012904,2.1850067789851026,-0.5289018750190735,-0.25671133399009705,-0.8089265823364258,0.20028306543827057,-0.5131382346153259,0.08705602586269379,-0.04356217384338379,0.06312310695648193,-0.09549236297607422
2,-0.6058207365082372,0.2410677013228449,2.201419705703644,-0.5529708862304688,-0.23873959481716156,-0.798264741897583,-0.23448745906352997,-0.11344870924949646,0.2993221879005432,0.06049346923828125,-0.029311567544937134,0.013718843460083008
3,-0.5994519420827225,0.20963980945682514,2.208037280291132,-0.5518376231193542,-0.2081076055765152,-0.8075682520866394,0.05699198693037033,-0.2210983783006668,0.07572195678949356,0.018787145614624023,-0.021033599972724915,-0.0781434178352356
4,-0.6254070571193143,0.20885291913040535,2.2243223931895124,-0.5727056264877319,-0.207337886095047,-0.7931073307991028,-0.18913906812667847,0.46611928939819336,0.4236564040184021,0.001477658748626709,-0.028318852186203003,-0.04629391431808472
5,-0.6159558946196415,0.19629478576719672,2.2472193676654055,-0.5666440725326538,-0.1950366199016571,-0.8005467653274536,-0.10253352671861649,0.17300663888454437,0.38984277844429016,0.051339566707611084,-0.0273907333612442,-0.013677418231964111
6,-0.6270907536943229,0.17758081943928752,2.2505287574263972,-0.5775635838508606,-0.17664895951747894,-0.7970040440559387,0.653164267539978,-1.6294738054275513,-0.7155449986457825,0.006656050682067871,0.06434428691864014,-0.2531515955924988
7,-0.8730441874364645,0.21756911604689422,2.2582686272651378,-0.7482231259346008,-0.21585668623447418,-0.6273499727249146,-0.9051651954650879,-1.7458254098892212,0.2033558487892151,0.1493004560470581,-0.050760120153427124,0.16874712705612183
8,-1.0558428706662901,0.12719491507079458,2.2119893468405394,-0.8632849454879761,-0.12685221433639526,-0.48851582407951355,0.46101054549217224,-0.5529263615608215,0.36700570583343506,0.004199862480163574,0.058889567852020264,-0.08358198404312134
9,-1.032192011836713,0.15045520474590998,2.2386159213586465,-0.8487277626991272,-0.14988821744918823,-0.5071437358856201,-0.14013618230819702,0.03540123626589775,-0.010722383856773376,0.1117892861366272,-0.0032489895820617676,-0.027737855911254883
10,-0.9751718602118691,0.1272572309557741,2.2366378873367823,-0.8211045265197754,-0.12691403925418854,-0.5564891695976257,-0.5217678546905518,1.039201259613037,0.48829877376556396,0.06519937515258789,-0.007241234183311462,0.03491330146789551
11,-0.9201456394404336,0.06840659380777883,2.1762067125988733,-0.7938289046287537,-0.06835325807332993,-0.6042876839637756,-1.1801331043243408,1.1647701263427734,0.36124762892723083,-0.012582898139953613,0.07080993056297302,0.055917322635650635
12,-0.8645097518698579,-0.026855871899146594,2.1154420885105703,-0.760502815246582,0.026852643117308617,-0.6487790942192078,-0.5561192035675049,-0.3256904184818268,0.38024041056632996,0.06931018829345703,-0.02218344807624817,-0.12311720848083496
13,-0.926867594315859,-0.0969976287609165,2.0836156105455346,-0.7959840297698975,0.0968455970287323,-0.5975200533866882,-0.5548027753829956,-0.6345061659812927,-0.18884195387363434,-0.009451091289520264,0.06874275207519531,0.05532950162887573
14,-0.9845632920438736,-0.051263101963010996,2.1014529031171407,-0.831936240196228,0.05124065279960632,-0.5525001883506775,0.44075003266334534,-0.4384400248527527,-0.13889020681381226,0.021023213863372803,-0.04384014010429382,0.11193317174911499
15,-1.020230291921126,-0.05635843050353332,2.1428373033852535,-0.8508754372596741,0.05632860213518143,-0.5223390460014343,0.32321444153785706,0.2332754135131836,0.2978297472000122,0.03849750757217407,0.01180189847946167,0.06425493955612183
16,-1.0321505258605794,-0.052771248756095096,2.175621616015996,-0.8572091460227966,0.05274675786495209,-0.5122599005699158,0.7333373427391052,-0.2740657925605774,0.18938933312892914,-0.020918846130371094,0.01845073327422142,-0.012489795684814453
17,-0.9950691012498603,-0.04859652171045993,2.275400753328778,-0.8378063440322876,0.04857739806175232,-0.5438022017478943,0.2804461419582367,0.2527804672718048,0.6005767583847046,-0.005653738975524902,-0.02851209044456482,0.0006045103073120117
18,-1.00402560891773,-0.03623974527641656,2.2950165044781246,-0.8430853486061096,0.036231812089681625,-0.5365580320358276,0.16283687949180603,-0.7760747671127319,-0.3042837679386139,0.08156490325927734,0.012443721294403076,-0.05212604999542236
19,-0.9841615352519815,-0.05656134053100292,2.281281523914993,-0.8314763903617859,0.056531187146902084,-0.5526763200759888,-0.4140259623527527,0.5417386293411255,0.28460338711738586,0.049234628677368164,-0.04737592115998268,-0.050717175006866455
20,-0.9993974512316024,-0.05036625724428101,2.2624187856862044,-0.840078592300415,0.05034496635198593,-0.5401234030723572,-0.024250082671642303,-0.0008301245979964733,-0.05969174951314926,0.04286789894104004,-0.02693799138069153,-0.009528636932373047
21,-0.9731150307537645,-0.07442967962314626,2.248443053679268,-0.8243539929389954,0.07436098158359528,-0.5611692667007446,-0.14564386010169983,-0.12138274312019348,0.07957570254802704,0.009382069110870361,0.018198810517787933,-0.1263306736946106
22,-1.0262887299037966,-0.06776322768786094,2.2467769142910385,-0.8534193634986877,0.06771138310432434,-0.5168081521987915,-0.07851387560367584,-0.7525399327278137,0.03975551575422287,-0.008122384548187256,-0.02190449833869934,-0.036155104637145996
23,-1.063087196536338,-0.07250552297005884,2.243482400731581,-0.8715645670890808,0.07244201004505157,-0.48489922285079956,0.15602195262908936,-0.37372860312461853,-0.2023967057466507,-0.018953561782836914,0.08306031674146652,-0.026956826448440552
24,-1.0641801476175345,-0.06144313225012331,2.255406404587327,-0.8727414608001709,0.061404477804899216,-0.48430564999580383,-0.044128723442554474,0.15365979075431824,-0.0359448567032814,-0.0540010929107666,0.00689387321472168,0.13184285163879395
25,-1.0640387108216292,-0.04520180137716188,2.239246477515995,-0.8734296560287476,0.04518641158938408,-0.48484915494918823,0.07558207958936691,0.05696646124124527,-0.10819260776042938,0.016328275203704834,0.04224645718932152,0.07187005877494812
26,-1.0671527144565423,-0.05998575143608842,2.238659810133755,-0.8742546439170837,0.059949781745672226,-0.4817518889904022,-0.10248652845621109,-0.06808138638734818,0.12002536654472351,0.0029931068420410156,0.0033131539821624756,0.00975179672241211
27,-1.0878048864781866,-0.06662336018013025,2.2502023093895476,-0.8836448788642883,0.0665740817785263,-0.4634001851081848,0.37915897369384766,-0.13578280806541443,0.17822453379631042,0.0007408261299133301,0.03588870167732239,-0.033929526805877686
28,-1.1030377669511757,-0.058279992733208746,2.2685547678280717,-0.891065776348114,0.05824700742959976,-0.4501212537288666,0.035463783890008926,-0.4827476143836975,-0.03898144140839577,0.012220561504364014,0.031581491231918335,-0.006131768226623535
29,-1.107462415347458,-0.06212836098864771,2.2806529704188367,-0.8928415179252625,0.06208840012550354,-0.44607070088386536,-0.0524446927011013,-0.24833199381828308,-0.2391965538263321,-0.05028897523880005,-0.04933205246925354,-0.0025377273559570312
30,-1.170438664415691,-0.03495926065192008,2.2777237836619193,-0.9203590750694275,0.03495214134454727,-0.3895096480846405,-0.18110018968582153,-0.6081266403198242,-0.38473382592201233,0.0068762898445129395,-0.006067242473363876,0.08022916316986084
31,-1.1820343981908463,-0.05440014738343723,2.2377191395123193,-0.9240100979804993,0.05437332019209862,-0.37848228216171265,-0.34823906421661377,-0.18952800333499908,0.10965968668460846,0.05847060680389404,-0.015738073736429214,-0.016796618700027466
32,-1.1998239189999884,-0.08202138407934476,2.2578489537691064,-0.9288421869277954,0.08192944526672363,-0.3613031506538391,0.3129594027996063,-0.019345244392752647,0.37364280223846436,-0.02234506607055664,-0.06369518488645554,0.011709004640579224
33,-1.2258293966745872,-0.09271690839167729,2.273840248980304,-0.9370445609092712,0.09258412569761276,-0.33671310544013977,0.09662851691246033,-0.22228297591209412,0.2399243265390396,-0.042523860931396484,-0.03206777572631836,0.024045228958129883
34,-1.2517537915160588,-0.08801496395301532,2.312919635216809,-0.9458606243133545,0.08790136873722076,-0.31244343519210815,0.2667417824268341,-0.16537927091121674,-0.16652457416057587,-0.10560721158981323,-0.032023705542087555,0.11261436343193054
35,-1.2696930802287216,-0.09530571626987452,2.3177603443398542,-0.9506758451461792,0.09516150504350662,-0.29522809386253357,-0.11807616800069809,0.36230260133743286,0.17796020209789276,-0.10279089212417603,0.04143514484167099,0.08468732237815857
36,-1.2528977074665602,-0.09007396414713777,2.326137946368882,-0.9460435509681702,0.08995221555233002,-0.3113040328025818,0.24177539348602295,-0.07694824039936066,-0.018888939172029495,0.07295095920562744,-0.010225065052509308,0.012369126081466675
37,-1.2456601735136863,-0.0959664870875747,2.3229973558263195,-0.9432469606399536,0.09581924974918365,-0.31796795129776,-0.05053913593292236,0.3064357042312622,0.1200423389673233,-0.025640249252319336,0.09915752708911896,-0.0376838743686676
38,-1.2441883563643776,-0.08815234328284663,2.3280453549731224,-0.9434583783149719,0.08803822100162506,-0.3195863962173462,0.20635929703712463,-0.19536727666854858,-0.14250752329826355,0.0722121000289917,-0.011225499212741852,-0.02295812964439392
39,-1.2233396271492332,-0.08924134708218485,2.314419186535607,-0.9365002512931824,0.0891229435801506,-0.33915260434150696,-0.3120225667953491,0.18786142766475677,-0.14443844556808472,0.003837287425994873,0.08716186881065369,-0.08090662956237793
40,-1.2334720893637199,-0.07698113457024862,2.2992338137312087,-0.9408489465713501,0.07690512388944626,-0.3299831449985504,-0.13367541134357452,-0.10205075889825821,-0.23338425159454346,-0.014015555381774902,-0.0011299550533294678,0.023601889610290527
41,-1.2388210528171926,-0.07101467077594166,2.260583191775073,-0.9430175423622131,0.07095499336719513,-0.32508963346481323,-0.3519846498966217,0.16272491216659546,0.05876420438289642,0.048226892948150635,0.034406960010528564,-0.022887051105499268
42,-1.2351991458807554,-0.07936371289766146,2.2237842594956274,-0.9412418007850647,0.07928042858839035,-0.3282964825630188,-0.3203819692134857,-0.10368935018777847,-0.05298846960067749,0.022662699222564697,0.015461385250091553,-0.0619928240776062
43,-1.2389901220326334,-0.0909452056544998,2.2096715651676737,-0.9415482878684998,0.09081988781690598,-0.3244050443172455,-0.324651300907135,0.13129854202270508,0.06417814642190933,-0.003703176975250244,-0.031249582767486572,-0.005444228649139404
44,-1.2315994736628701,-0.09781842640037505,2.1879608931068724,-0.9385141730308533,0.09766250848770142,-0.3311392366886139,-0.15896430611610413,0.035016871988773346,-0.013010424561798573,-0.008553028106689453,-0.008673250675201416,-0.049582839012145996
45,-1.2201634539279318,-0.10118405798326473,2.1720538797690594,-0.9343520402908325,0.1010114923119545,-0.3417353928089142,-0.16199159622192383,-0.048006560653448105,-0.12196328490972519,-0.0069931745529174805,-0.02599930763244629,-0.0503087043762207
46,-1.219203526799778,-0.10335817475060932,2.14447730233755,-0.9338151216506958,0.10317424684762955,-0.3425556719303131,-0.1742754727602005,0.057269319891929626,0.08780423551797867,0.0334397554397583,-0.016367025673389435,-0.04779466986656189
47,-1.2218893598890437,-0.10644721359158316,2.111501828234373,-0.9344279170036316,0.10624630004167557,-0.339935839176178,-0.33612123131752014,0.05068744346499443,-0.0021588425152003765,0.027964293956756592,-0.02673274278640747,-0.1049036979675293
48,-1.2260383051053965,-0.10541793812962212,2.082929944127959,-0.9359325766563416,0.10522279888391495,-0.3360927700996399,-0.2301347255706787,-0.06496672332286835,-0.09960298240184784,0.030201375484466553,-0.02023133635520935,-0.03356665372848511
49,-1.223957791092306,-0.10871538176783671,2.0574546686484507,-0.9348999857902527,0.1085013598203659,-0.3379195034503937,-0.17499832808971405,-0.031162256374955177,-0.06515653431415558,-0.00394284725189209,0.006183728575706482,-0.013398855924606323
50,-1.2322626269259478,-0.10638642135851938,2.0300630314649037,-0.9379097819328308,0.10618585348129272,-0.33022674918174744,-0.35897913575172424,-0.009564117528498173,-0.1017104834318161,0.041486501693725586,-0.03034968674182892,0.013759464025497437
51,-1.2317670354246115,-0.11561816104120215,2.0018588855492863,-0.9367817044258118,0.11536074429750443,-0.33035144209861755,-0.15460631251335144,0.09560426324605942,0.07487951219081879,-0.018143832683563232,0.034953564405441284,-0.03437936305999756
52,-1.2392640095438403,-0.1198769673081969,1.9854646919157481,-0.9387589693069458,0.11959005892276764,-0.3231563866138458,-0.11498939990997314,-0.15273897349834442,-0.03711520507931709,0.00730133056640625,-0.02216266095638275,0.03026387095451355
53,-1.2456023662703117,-0.125602864879079,1.9597372327602711,-0.940123975276947,0.12527287006378174,-0.31697574257850647,-0.15516996383666992,0.015946293249726295,0.0858679786324501,-0.010345995426177979,0.07003962993621826,0.017247319221496582
54,-1.2561465741358617,-0.12530745124786968,1.9492010518291358,-0.9434490203857422,0.12497977912425995,-0.30705684423446655,-0.03790970891714096,-0.169661283493042,-0.04461025074124336,0.05109983682632446,-0.002878941595554352,0.03036925196647644
55,-1.2713791541089408,-0.13762289546386874,1.946190117253849,-0.9464742541313171,0.1371888816356659,-0.29217448830604553,-0.2335289716720581,-0.01612122170627117,0.06749621033668518,-0.05572313070297241,-0.020779594779014587,0.10746678709983826
56,-1.2937505549497985,-0.1453815517189766,1.922470283143452,-0.951720654964447,0.14486996829509735,-0.2706298828125,-0.384147971868515,-0.051617540419101715,-0.15956126153469086,-0.01731926202774048,-0.04693908989429474,0.06596377491950989
57,-1.2933025880652527,-0.15648168037781524,1.8687045453884352,-0.9499941468238831,0.1558438539505005,-0.27059897780418396,-0.46268582344055176,0.08398263901472092,0.07295814156532288,0.024853765964508057,-0.06069004535675049,-0.04927098751068115
58,-1.2773787482976635,-0.17722320941699232,1.8329852200765078,-0.9422675371170044,0.17629696428775787,-0.2846953272819519,-0.18793657422065735,0.18231332302093506,0.07244324684143066,-0.0067223310470581055,-0.05669859051704407,-0.10173356533050537
59,-1.2692000628132603,-0.18438808013949667,1.8360277499179172,-0.9386773109436035,0.1833450198173523,-0.29200947284698486,0.07214703410863876,0.15463782846927643,0.13604070246219635,0.006990909576416016,-0.1181594729423523,0.015245556831359863
60,-1.2563974865476706,-0.18708256851671762,1.842027721718435,-0.9343888163566589,0.18599316477775574,-0.30384883284568787,0.11398009955883026,0.19670435786247253,0.1445913463830948,-0.04093766212463379,-0.09065625071525574,-0.053573012351989746
61,-1.2383769604283188,-0.17357337238976006,1.8739052623698973,-0.931052029132843,0.1727031171321869,-0.3214274048805237,0.5347585082054138,0.08192893117666245,0.044217467308044434,-0.06038773059844971,-0.01779593527317047,-0.07318010926246643
62,-1.2176353902807713,-0.15300734198984337,1.9152480484739764,-0.9273223280906677,0.15241102874279022,-0.3418246805667877,0.5041570663452148,0.15487398207187653,-0.15959537029266357,-0.024566650390625,0.11580796539783478,-0.026873379945755005
63,-1.204334284836485,-0.13781520930883495,1.945429669085774,-0.924748957157135,0.13737936317920685,-0.3549172878265381,0.230863556265831,0.13652019202709198,0.2354680597782135,-0.012857794761657715,0.08858799934387207,-0.002092599868774414
64,-1.2036770348751031,-0.12283145452230482,1.972651190902833,-0.926332950592041,0.12252281606197357,-0.3562239110469818,0.48605114221572876,-0.09807966649532318,-0.2808978855609894,0.034914493560791016,0.11298131942749023,-0.0665055513381958
65,-1.2027683165630398,-0.08596238511319321,1.9937461832718688,-0.9295933246612549,0.08585655689239502,-0.35844770073890686,0.1770075410604477,0.11270400136709213,-0.1860954910516739,0.07565057277679443,0.08145605772733688,0.0037266314029693604
66,-1.1969484712635126,-0.07098749761666544,1.9931198754432031,-0.9285843968391418,0.07092789560556412,-0.36428043246269226,-0.012856311164796352,-0.010521253570914268,-0.24151065945625305,-0.001865983009338379,0.06652327626943588,0.006492346525192261
67,-1.1898906072873585,-0.0649703525288077,1.9726449812205145,-0.9263697266578674,0.06492465734481812,-0.37097710371017456,-0.3455711901187897,0.13379544019699097,-0.1809195578098297,0.056008338928222656,0.02162320166826248,-0.023615211248397827
68,-1.190175000324019,-0.05561954632013361,1.9422023376038098,-0.9269982576370239,0.05559087544679642,-0.37092289328575134,-0.20540691912174225,0.014265991747379303,-0.20291854441165924,0.014980494976043701,0.012875284999608994,-0.04582509398460388
69,-1.1848432953879218,-0.05222891736884412,1.9161483612652588,-0.925176739692688,0.052205175161361694,-0.3759289085865021,-0.2526509761810303,0.014982430264353752,-0.12826134264469147,0.020620524883270264,0.0025586187839508057,-0.03988838195800781
70,-1.1830056354439504,-0.05633812353188683,1.8864746590406327,-0.9242780804634094,0.0563083253800869,-0.3775441646575928,-0.28813856840133667,0.0651416927576065,-0.02861998975276947,-0.015281856060028076,0.027981221675872803,-0.04765725135803223
71,-1.193851862052941,-0.04119062079858393,1.8618353131121173,-0.9290050268173218,0.041178975254297256,-0.3677689731121063,-0.18395014107227325,-0.06936286389827728,-0.37575751543045044,0.026798605918884277,-0.012126237154006958,-0.012892007827758789
72,-1.1909971975589373,-0.04078438810024939,1.8132406707582163,-0.927966833114624,0.04077308252453804,-0.37042564153671265,-0.5457686185836792,0.040534280240535736,-0.09585081040859222,-0.00017952919006347656,0.05593714118003845,-0.040585100650787354
73,-1.200499227695886,-0.05239252120035273,1.7454921007427233,-0.9309406876564026,0.05236855521798134,-0.36139583587646484,-0.7156251668930054,0.029627162963151932,-0.2354600876569748,-0.06956279277801514,0.026198923587799072,-0.055260658264160156
74,-1.2188597311823746,-0.045820983772211075,1.6661353573557829,-0.9377216100692749,0.0458049513399601,-0.344354510307312,-0.6413019895553589,-0.16317398846149445,-0.14637555181980133,0.12101024389266968,-0.0007610060274600983,-0.1112576425075531
75,-1.23381435850307,-0.054670115492491664,1.5922701982602563,-0.9423468112945557,0.05464288592338562,-0.33014631271362305,-0.7722622752189636,0.02474891021847725,-0.11241429299116135,-0.03757256269454956,0.07916143536567688,-0.08443495631217957
76,-1.2410450045668897,-0.052407315172946396,1.5335069308575038,-0.9448238611221313,0.05238332971930504,-0.32336318492889404,-0.4491916298866272,-0.050038546323776245,-0.2789355218410492,0.07176178693771362,0.012573327869176865,-0.01304730772972107
77,-1.2360923605851704,-0.03477897402049077,1.480090123012646,-0.9439364075660706,0.03477196395397186,-0.3282909393310547,-0.4126177430152893,0.06846044957637787,-0.31760209798812866,-0.001253962516784668,0.05061623454093933,0.016340255737304688
78,-1.227711028171523,-0.012812795684263684,1.4162174053780887,-0.9416439533233643,0.012812444940209389,-0.33636656403541565,-0.6395351886749268,-0.0818774625658989,-0.5764042735099792,0.014748871326446533,0.028111636638641357,0.05777159333229065
79,-1.2342288829900745,-0.010088537980537006,1.3281855485441467,-0.943845808506012,0.010088366456329823,-0.33023226261138916,-1.0407918691635132,-0.03711672127246857,-0.1734173595905304,0.020460188388824463,0.03472667932510376,0.06509554386138916
80,-1.2708785591965832,-0.0371198875656138,1.2421695522163543,-0.954702615737915,0.03711136430501938,-0.29523810744285583,-0.7522298097610474,-0.3779882788658142,0.01321764662861824,-0.07718813419342041,0.031659986823797226,0.0022541582584381104
81,-1.3118362909477095,-0.0354753406353101,1.1519182110055297,-0.9660487174987793,0.03546790033578873,-0.2559143006801605,-0.6146112084388733,-0.5464553833007812,-0.3144962787628174,0.08555543422698975,0.02372095361351967,-0.11551520228385925
82,-1.350446517086233,-0.024670371571447913,1.0856582360213822,-0.9755240678787231,0.02466786839067936,-0.21850447356700897,-0.538935124874115,-0.27975624799728394,-0.18137980997562408,0.00773543119430542,0.030629990622401237,-0.033570751547813416
83,-1.3810351356470947,-0.009365647666943986,1.03392109872948,-0.9820061922073364,0.009365511126816273,-0.1886160969734192,-0.5691303610801697,-0.330430805683136,-0.3777717053890228,-0.011539280414581299,0.009341775439679623,0.0038779526948928833
84,-1.3960264511202758,0.005982212491594672,0.9702747275880168,-0.9847490191459656,-0.0059821768663823605,-0.17387841641902924,-0.5661028027534485,0.04542269557714462,-0.16605733335018158,0.028816401958465576,0.039871931076049805,-0.01714634895324707
85,-1.4092548371842448,0.02853881860194251,0.9392889036375744,-0.9865787029266357,-0.028534945100545883,-0.1607743352651596,0.09234364330768585,-0.4406881034374237,-0.3450387418270111,-0.01606118679046631,0.1113748848438263,-0.0778731256723404
86,-1.4391637604062988,0.07351573895525873,0.9348156626180185,-0.9886712431907654,-0.07344953715801239,-0.13089823722839355,-0.05880012363195419,-0.15731796622276306,-0.48507046699523926,0.037804603576660156,-0.006796419620513916,0.036446332931518555
87,-1.4306713290906465,0.08992635162072235,0.9077538305614611,-0.9861974120140076,-0.08980520069599152,-0.1391025334596634,-0.6464070677757263,0.27843451499938965,0.0017520843539386988,0.02480226755142212,0.002616472542285919,0.07814373075962067
88,-1.4346041704123909,0.10060067724083908,0.8729493626291325,-0.9857311248779297,-0.10043107718229294,-0.1350850760936737,-0.18960435688495636,-0.018716590479016304,-0.1294119507074356,0.023908495903015137,0.0018745511770248413,-0.0100412517786026
89,-1.4230834874622627,0.10771316017048127,0.86674640109597,-0.9833779335021973,-0.10750499367713928,-0.1463233083486557,0.13177669048309326,0.0810507982969284,-0.04880795627832413,0.021128177642822266,-0.012154430150985718,0.005484640598297119
90,-1.4149820992432685,0.114073622001753,0.8635551271789762,-0.9814649224281311,-0.11382637917995453,-0.15417592227458954,-0.16629517078399658,0.2711576819419861,0.06803109496831894,-0.028193891048431396,-0.006870649755001068,0.02522386610507965
91,-1.3994892618963815,0.1164385394358576,0.8513820317051382,-0.9786905646324158,-0.11617560684680939,-0.1693161129951477,-0.020670603960752487,0.063923679292202,-0.10535182803869247,0.04714155197143555,0.02152533084154129,-0.045054540038108826
92,-1.390078408778595,0.10860658211110777,0.8501528230257721,-0.9779189229011536,-0.10839319974184036,-0.17867685854434967,-0.10359553247690201,0.12689226865768433,-0.038628388196229935,-0.10788118839263916,0.07691431790590286,0.01368357241153717
93,-1.3843779162383523,0.11948992811501165,0.8354953657545174,-0.975667417049408,-0.1192057877779007,-0.18401898443698883,-0.10003042221069336,-0.038188252598047256,-0.23139598965644836,0.035817623138427734,0.025181151926517487,-0.02125750482082367
94,-1.3732890327327134,0.1233570284934152,0.802054653493506,-0.973107635974884,-0.12304441630840302,-0.1947346180677414,-0.40558815002441406,0.10943243652582169,-0.030270708724856377,0.02735269069671631,0.043256230652332306,-0.049695953726768494
95,-1.3713901891878644,0.11983507229182049,0.7763713121209226,-0.9731547832489014,-0.11954846233129501,-0.1966666430234909,-0.21947410702705383,-0.17164164781570435,-0.0988057553768158,-0.04724609851837158,0.030040428042411804,-0.03897479176521301
96,-1.3734159474035954,0.1286813267783379,0.7393132839996744,-0.9724761247634888,-0.12832649052143097,-0.19447986781597137,-0.5284451842308044,0.034964606165885925,-0.19405163824558258,0.06500548124313354,-0.04255668818950653,-0.006966620683670044
97,-1.3603512017632902,0.12220204959716693,0.6734791380962498,-0.9706451892852783,-0.12189812958240509,-0.2073374092578888,-0.6013857126235962,0.0931740403175354,0.027085211127996445,0.03073430061340332,0.008479565382003784,-0.11135762929916382
98,-1.3502171185194187,0.11829438879536612,0.6318181428146254,-0.9689515233039856,-0.11801868677139282,-0.21726574003696442,-0.1833714097738266,0.027386832982301712,-0.15388673543930054,-0.042370378971099854,0.013251855969429016,-0.1284221112728119
99,-1.3421760003913998,0.130746101849403,0.6168627087452284,-0.9656670093536377,-0.13037391006946564,-0.22469961643218994,-0.12200724333524704,0.10084794461727142,-0.07746309041976929,0.061064958572387695,-0.04388146102428436,-0.06622445583343506
100,-1.326429112750789,0.14154149340339367,0.6114726031565378,-0.9605874419212341,-0.14106935262680054,-0.23952290415763855,0.1333179622888565,0.09848125278949738,-0.023105932399630547,0.042115211486816406,-0.000852629542350769,-0.10924720764160156
101,-1.3087927085866886,0.14156953547043596,0.6332029802279815,-0.9562100768089294,-0.14109712839126587,-0.25642505288124084,0.37693533301353455,0.15260960161685944,0.12272404134273529,-0.0030946731567382812,-0.005616128444671631,-0.08763015270233154
102,-1.3016497750442875,0.1419356990547521,0.685084200765251,-0.9543043375015259,-0.1414596140384674,-0.26323485374450684,0.5132916569709778,0.02897375077009201,0.17964980006217957,0.02638685703277588,-0.0006149560213088989,-0.052561044692993164
103,-1.2945011144272323,0.1339246476356824,0.7442445331345494,-0.9534577131271362,-0.13352467119693756,-0.27035051584243774,0.5102196335792542,0.13594794273376465,0.27373331785202026,0.063748300075531,0.013285413384437561,-0.04443827271461487
104,-1.2979221170035702,0.12259396689921948,0.8107038195089223,-0.9557726979255676,-0.12228711694478989,-0.26747775077819824,0.7419913411140442,-0.02124740555882454,0.2308160662651062,-0.0471264123916626,0.031237944960594177,-0.07293054461479187
105,-1.3050268024121663,0.1251986956084778,0.8697405675004569,-0.9573383927345276,-0.1248718798160553,-0.26059603691101074,0.5023391246795654,0.04079511761665344,0.13559900224208832,0.005357801914215088,0.012124687433242798,0.008459806442260742
106,-1.3028290924953434,0.12227434856104248,0.9126989138517098,-0.9571114778518677,-0.12196988612413406,-0.26279494166374207,0.3763970732688904,0.038230691105127335,0.1196976751089096,0.0275307297706604,0.043616026639938354,-0.04413557052612305
107,-1.3023596173900567,0.11294070507838733,0.9598147841832956,-0.9580439329147339,-0.11270075291395187,-0.2635347247123718,0.46317943930625916,0.08937177807092667,0.2641007900238037,0.02686101198196411,0.00994807481765747,-0.027068912982940674
108,-1.3009835855215546,0.10110354664258726,1.0121916318387105,-0.9588989019393921,-0.10093139111995697,-0.2651897668838501,0.5513560175895691,0.11582110822200775,0.2522270083427429,0.0026459097862243652,0.029520250856876373,-0.052864402532577515
109,-1.3011920024233417,0.09386015698868186,1.077220390573391,-0.9596337080001831,-0.093722403049469,-0.2651776969432831,0.5796203017234802,0.10361635684967041,0.24619808793067932,0.02752012014389038,0.02099902182817459,-0.0009660422801971436
110,-1.2956418686827726,0.08525106528420752,1.1465904348437292,-0.9588881731033325,-0.08514783531427383,-0.2707088589668274,0.70392906665802,0.03163210675120354,0.28033092617988586,-0.01349341869354248,0.07442089915275574,0.019381344318389893
111,-1.3034310205831863,0.07379026162373993,1.2201299928379647,-0.9618457555770874,-0.07372331619262695,-0.2634723484516144,0.631653368473053,-0.07871656119823456,0.3447468876838684,-0.026511788368225098,0.05011797696352005,0.07514837384223938
112,-1.3167436811335627,0.06136435793746553,1.2840006079581654,-0.9660800099372864,-0.06132585182785988,-0.2508555054664612,0.5581016540527344,-0.07463911175727844,0.23475518822669983,-0.017379403114318848,0.04696733504533768,0.05162152647972107
113,-1.3205858341006516,0.052185687701966,1.3425257331424147,-0.9675413966178894,-0.05216200277209282,-0.2472708374261856,0.5812939405441284,0.10801070183515549,0.3223699927330017,0.04189741611480713,0.047752223908901215,-0.019193440675735474
114,-1.3241320427007466,0.037402130885400814,1.4160896223170965,-0.969054102897644,-0.03739340975880623,-0.24399980902671814,0.7435181140899658,-0.012669642455875874,0.20196905732154846,-0.05780136585235596,0.11963829398155212,0.0028957128524780273
115,-1.3220877645186149,0.03671475538718998,1.495702931444531,-0.9685779213905334,-0.036706507205963135,-0.24598658084869385,0.7110196352005005,-0.007927808910608292,0.19033919274806976,-0.005985617637634277,0.06047973036766052,0.08198511600494385
116,-1.3264521663014495,0.035856182236555546,1.550589850002706,-0.9696725010871887,-0.03584849834442139,-0.24176451563835144,0.3097096085548401,0.10792122781276703,0.1182161420583725,-0.01606053113937378,0.039388507604599,0.11035585403442383
117,-1.323372389881888,0.03088958857120448,1.568414529231813,-0.9690839648246765,-0.030884675681591034,-0.24479031562805176,0.07569676637649536,-0.015982281416654587,0.04626241326332092,-0.002824544906616211,0.03706449270248413,0.008507981896400452
118,-1.3304833525462398,0.02876197670317878,1.5808387556712673,-0.9708617925643921,-0.028758011758327484,-0.23790816962718964,0.16924335062503815,-0.008418163284659386,-0.03415202349424362,-0.028985559940338135,0.05059331655502319,-0.026908084750175476
119,-1.3277990466056981,0.034547309600677964,1.5984500397613643,-0.9700419902801514,-0.034540437161922455,-0.24046935141086578,0.06101735681295395,0.0044245910830795765,-0.07937010377645493,-0.021428346633911133,0.04030826687812805,0.07976377010345459
120,-1.329562950682406,0.03708108265757218,1.5849475893600087,-0.9703765511512756,-0.03707258403301239,-0.23873625695705414,-0.23371857404708862,-0.011165219359099865,-0.1620829701423645,-0.026388585567474365,0.045190274715423584,0.05108368396759033
121,-1.3338642546530899,0.04518234709988164,1.5506527528662655,-0.9710707068443298,-0.045166976749897,-0.23448199033737183,-0.37648406624794006,0.022445065900683403,-0.1743214726448059,0.010575652122497559,0.036011695861816406,0.007354915142059326
122,-1.331440916572194,0.05306659639022025,1.513663048220273,-0.9701235294342041,-0.053041692823171616,-0.2367427498102188,-0.29249635338783264,0.05253632739186287,-0.13320305943489075,-0.0192716121673584,0.043184518814086914,-0.022046327590942383
123,-1.329483733502961,0.06465041847320298,1.4828894702145594,-0.9689964652061462,-0.06460539251565933,-0.23847812414169312,-0.3378557860851288,0.04184001311659813,-0.23192371428012848,-0.022534847259521484,0.03585783392190933,0.03481908142566681
124,-1.3228407462282759,0.07320298786532696,1.4473731982993712,-0.9668200612068176,-0.07313762605190277,-0.24476532638072968,-0.39826446771621704,0.06947063654661179,-0.12424764037132263,0.03081536293029785,0.019380927085876465,0.008452415466308594
125,-1.3103268995332489,0.07281680342443865,1.4086461324723596,-0.9637085795402527,-0.0727524682879448,-0.2568517029285431,-0.3531858026981354,0.04399343952536583,-0.11081866919994354,-0.032614052295684814,0.03683331608772278,-0.018477916717529297
126,-1.3035017389683035,0.07850426560911662,1.3818032185894946,-0.9615184664726257,-0.07842365652322769,-0.2633095979690552,-0.23062965273857117,0.03766670078039169,-0.11146316677331924,0.005418062210083008,0.030221134424209595,0.032428860664367676
127,-1.2923640448152671,0.08075952250861194,1.355121290781726,-0.9583538770675659,-0.0806717649102211,-0.2739528715610504,-0.21840643882751465,0.07038915902376175,-0.06013588607311249,-0.002904176712036133,0.040953151881694794,0.00764116644859314
128,-1.287433943655451,0.08249699908396489,1.3298621705046234,-0.9568555355072021,-0.08240345865488052,-0.2786346673965454,-0.30907613039016724,-0.010373992845416069,-0.14350628852844238,-0.02422356605529785,0.007192879915237427,0.01775515079498291
129,-1.283888304933673,0.09615608426407782,1.2899517498905126,-0.9546928405761719,-0.09600797295570374,-0.28168076276779175,-0.3378503620624542,-0.07918553799390793,-0.2922910153865814,-0.002750396728515625,0.028350502252578735,-0.03301650285720825
130,-1.282934654890252,0.11946311835460292,1.242659078516849,-0.9520191550254822,-0.11917916685342789,-0.28187909722328186,-0.47087913751602173,0.04122920706868172,-0.35582712292671204,0.026772022247314453,0.019615568220615387,-0.00660356879234314
131,-1.2573884223780807,0.1319615032296314,1.182516731361879,-0.9430176019668579,-0.13157884776592255,-0.30562183260917664,-0.5647843480110168,0.32085415720939636,-0.17053376138210297,0.020181357860565186,0.00845569372177124,-0.027492761611938477
132,-1.1957442766993982,0.12189489133125062,1.1304552411180322,-0.9235842823982239,-0.12159325927495956,-0.3636028468608856,-0.54549241065979,0.4913099408149719,0.02794499695301056,0.12466466426849365,-0.02345680445432663,-0.1082904040813446
133,-1.1935904547600618,0.11739376498097064,1.1250514456496232,-0.9232984781265259,-0.11712431162595749,-0.36578911542892456,0.10006148368120193,-0.01387898251414299,-0.03349950164556503,0.036640822887420654,-0.057420991361141205,-0.021951943635940552
134,-1.19192141432406,0.11615932155055939,1.1104610018199736,-0.9228203296661377,-0.11589827388525009,-0.36738282442092896,-0.3006823658943176,0.2558969259262085,0.11941266804933548,0.01733332872390747,-0.011741481721401215,-0.0027495920658111572
135,-1.1790335919439514,0.10904195995503907,1.092989717957395,-0.9187482595443726,-0.10882600396871567,-0.3795505166053772,-0.03477466478943825,0.025285329669713974,0.04611369967460632,0.02797067165374756,0.003219902515411377,-0.0625423789024353
136,-1.1442011569032213,0.10578526304592432,1.0812904972218746,-0.9052907824516296,-0.10558807104825974,-0.4114605188369751,-0.10216719657182693,0.5295183062553406,-0.09769841283559799,-0.013059377670288086,0.006466954946517944,-0.0410388708114624
137,-1.1278585331691877,0.10688604536064468,1.0820735324851936,-0.8983402848243713,-0.10668263584375381,-0.4261496365070343,-0.11609397083520889,-0.06438303738832474,0.06865157932043076,0.03524214029312134,0.017220348119735718,0.00807410478591919
138,-1.1210735087051644,0.08323313903004746,1.083168574221662,-0.8974500298500061,-0.08313707262277603,-0.4332110285758972,0.029581250622868538,-0.008779696188867092,0.19045479595661163,-0.016231000423431396,0.025596171617507935,-0.06640756130218506
139,-1.127378072191915,0.07454381528972252,1.0878703363105433,-0.9007818698883057,-0.07447479665279388,-0.42783817648887634,-0.06382878124713898,0.04527242109179497,0.03247546777129173,-0.023931264877319336,0.03373381495475769,0.0043762922286987305
140,-1.1359762256632704,0.06799476963771826,1.0880105052666198,-0.9048500657081604,-0.06794238835573196,-0.4202738106250763,-0.04680100828409195,-0.09468487650156021,0.06571739166975021,-0.005550265312194824,-0.011143885552883148,-0.01714983582496643
141,-1.1353347787408234,0.06377607011972708,1.0807102997804334,-0.904832124710083,-0.06373284757137299,-0.4209713339805603,-0.01268611941486597,-0.08865801244974136,-0.05521806329488754,0.012574493885040283,0.02369377762079239,-0.053943246603012085
142,-1.145138237690923,0.06537341421736571,1.0874434516527378,-0.908821702003479,-0.06532686203718185,-0.4120382070541382,0.12409956008195877,-0.18272152543067932,0.012103174813091755,0.03017491102218628,-0.001750759780406952,0.04405727982521057
143,-1.1490389016504203,0.056461265361821535,1.0638874228388215,-0.9109170436859131,-0.05643127113580704,-0.4087121784687042,-0.41791149973869324,-0.1937657743692398,-0.1932702660560608,-0.007723093032836914,0.02217528223991394,0.004140675067901611
144,-1.180753309490462,0.0806114401241781,1.0315483802549816,-0.9218892455101013,-0.08052416145801544,-0.3789934515953064,-0.3108481168746948,-0.15795452892780304,-0.22444896399974823,0.10714620351791382,-0.06643324345350266,0.14142939448356628
145,-1.1655853959853046,0.06204060029312901,0.9579433107605546,-0.9172511100769043,-0.062000807374715805,-0.3934541642665863,-0.5920392870903015,0.05448230728507042,-0.15971575677394867,-0.05293309688568115,0.0463910773396492,-0.09812295436859131
146,-1.1723005630641923,0.052719116354595315,0.9329488013958607,-0.9203652739524841,-0.05269470065832138,-0.3874933123588562,-0.09673674404621124,-0.18112222850322723,-0.11405981332063675,0.044144511222839355,-0.01253662258386612,-0.041431307792663574
147,-1.2103161020505575,0.07305690291838794,0.8998130291444749,-0.9332315325737,-0.07299192994832993,-0.35178276896476746,-0.39056289196014404,-0.4321677088737488,-0.2535698413848877,0.13969820737838745,-0.05034485459327698,0.11012929677963257
148,-1.1771094191433806,0.05614291986414061,0.8349699099014586,-0.9220459461212158,-0.05611342936754227,-0.3829914629459381,-0.8605695962905884,0.7241411805152893,-0.0924278199672699,0.2979004979133606,-0.047280099242925644,0.22581073641777039
149,-1.1689205260704594,0.057192277233068294,0.7172722824076958,-0.9188241958618164,-0.057161103934049606,-0.390505850315094,-1.0353881120681763,-0.5081602334976196,-0.7570756077766418,0.2273874282836914,0.1601426601409912,0.059207022190093994
150,-1.2740289213975269,0.09708413202648221,0.6778696890485955,-0.9517836570739746,-0.09693169593811035,-0.2910533845424652,-0.19126863777637482,-0.7417097687721252,0.20031115412712097,0.01144552230834961,0.21543145179748535,0.0660625696182251
151,-1.329932050120662,0.017554755870589012,0.7177782072670368,-0.970982551574707,-0.01755385473370552,-0.2385052889585495,0.5301658511161804,0.4873100221157074,1.7662243843078613,-0.33924388885498047,0.14675003290176392,0.19137084484100342
152,-1.3232257830467091,-0.14783523935843312,0.8212433102905201,-0.9589354395866394,0.14729733765125275,-0.24237637221813202,-0.3779750466346741,0.444415807723999,1.2065763473510742,-0.12562870979309082,0.08921389281749725,-0.02475927770137787
153,-1.323785843675384,-0.3069657363182743,0.7071850055991081,-0.9243213534355164,0.3021675944328308,-0.2330767959356308,-0.9902433156967163,-0.2629387378692627,0.6045175194740295,-0.23824572563171387,0.09857398271560669,-0.03131228685379028
154,-1.382172038066319,-0.35722071788573023,0.6178520288582372,-0.9202550053596497,0.34967175126075745,-0.1756708025932312,-0.2729717195034027,-0.25492221117019653,0.47908955812454224,-0.18030035495758057,-0.07641741633415222,-0.2285192459821701
155,-1.4064674047814567,-0.3262775683939489,0.6257983670208828,-0.9344810843467712,0.32051920890808105,-0.15495963394641876,0.5721516013145447,-0.3914329409599304,-0.9367056488990784,-0.14758062362670898,-0.05825117230415344,-0.10073189437389374
156,-1.3792207506099519,-0.27553724918127875,0.6089459995491796,-0.9446747899055481,0.2720639705657959,-0.1832236349582672,-0.27603158354759216,1.3179564476013184,-0.2696276605129242,-0.1509825587272644,0.08891323208808899,-0.09993374347686768
157,-1.2631045648431278,-0.19935662310017896,0.6869938574988382,-0.9341595768928528,0.1980387419462204,-0.2968612313270569,1.7272344827651978,0.9041311740875244,-0.7766883969306946,-0.09222286939620972,-0.1141916960477829,-0.21870267391204834
158,-1.1300793474664335,-0.13578289063268176,0.7113761954360074,-0.8961211442947388,0.1353660374879837,-0.42266154289245605,0.5560479760169983,0.9076185822486877,-1.151352882385254,-0.12441712617874146,0.1339820772409439,-0.11118242144584656
159,-1.128499839729512,-0.03010177846795339,0.7215236473606668,-0.9033616781234741,0.0300972331315279,-0.42782220244407654,-0.08592094480991364,0.3408663868904114,-0.5765722393989563,-0.01967298984527588,0.13529279828071594,0.22413259744644165
160,-1.1156374833925087,-0.031456519051753486,0.6541874298072516,-0.8977469205856323,0.031451333314180374,-0.4393875300884247,-0.4828065037727356,0.23839932680130005,-0.045743197202682495,-0.035404324531555176,0.06190192699432373,-0.01106715202331543
161,-1.2013492614259742,-0.041279234215938945,0.6529440636798569,-0.9317327737808228,0.0412675105035305,-0.36079227924346924,-0.3769684135913849,0.4726521968841553,0.30251049995422363,0.0075536370277404785,0.0029372014105319977,0.12690553069114685
162,-1.1932080936805602,-0.015363044530417348,0.6518566599847245,-0.929446816444397,0.01536244060844183,-0.3686361610889435,0.6449968814849854,-0.25000083446502686,0.0470234714448452,0.09003031253814697,-0.047650039196014404,-0.02148526906967163
163,-1.1998704885522689,-0.0010852353003436496,0.704010367852127,-0.9319915175437927,0.0010852350387722254,-0.36247822642326355,0.24456660449504852,-0.31587982177734375,0.15952663123607635,0.0612640380859375,-0.003282517194747925,0.027837783098220825
164,-1.2639697189927885,0.045501155814119544,0.7424714082243895,-0.9523101449012756,-0.04548545554280281,-0.30172234773635864,1.136286973953247,-0.705527663230896,-0.675983190536499,-0.02448117733001709,0.0724477469921112,0.03925594687461853
165,-1.2919322128933335,0.045109459216219235,0.8093374424206333,-0.9603906869888306,-0.04509416222572327,-0.2749837636947632,0.17884162068367004,0.3416430354118347,0.298469215631485,-0.05009198188781738,0.0061537399888038635,0.009236752986907959
166,-1.2818631432179943,0.0458149497052915,0.809291462529153,-0.9575426578521729,-0.04579892382025719,-0.28463083505630493,-0.03750878572463989,0.011009721085429192,-0.1756882518529892,-0.0693281888961792,0.012183811515569687,0.016686469316482544
167,-1.3103534403866985,0.05945991370387891,0.845863576745306,-0.9645683765411377,-0.059424884617328644,-0.2570534646511078,0.9166408777236938,-0.8814484477043152,-0.18076224625110626,0.09170466661453247,0.09101057052612305,-0.0339164137840271
168,-1.4690514925577705,0.04551648876190358,0.9734869300933644,-0.9937981367111206,-0.045500773936510086,-0.101464182138443,1.2037831544876099,-1.1324325799942017,0.9074451923370361,0.1794670820236206,0.12390044331550598,0.014229655265808105
169,-1.4725252658580053,-0.07385690867825764,1.005515149403886,-0.9924622774124146,0.07378978282213211,-0.09784549474716187,-0.4538848102092743,0.3918406069278717,1.2643070220947266,-0.01806628704071045,0.06523305177688599,-0.14405208826065063
170,-1.4828619635425346,-0.16980492713243608,1.045102633780927,-0.9818096160888672,0.1689900904893875,-0.0865580216050148,0.6574374437332153,0.0505104586482048,1.116610050201416,0.013319015502929688,0.013840705156326294,-0.08778887987136841
171,-1.497138020144056,-0.23122291821799149,1.1481949646060574,-0.9707476496696472,0.22916807234287262,-0.0716332271695137,0.48361754417419434,0.4213685095310211,0.4905385971069336,-0.10485982894897461,-0.056957364082336426,0.11228262633085251
172,-1.4734912839718048,-0.2715697264484959,1.2171777699533315,-0.9587939977645874,0.2682439684867859,-0.09359105676412582,0.6501402258872986,-0.04144709184765816,0.3611728549003601,-0.0494304895401001,-0.0676824152469635,0.08451205492019653
173,-1.4431456982352386,-0.29287748675352654,1.2129054088536109,-0.9496273398399353,0.288708359003067,-0.12188326567411423,-0.06039315462112427,0.23067183792591095,0.07693557441234589,0.05266988277435303,0.04046949744224548,-0.06485380232334137
174,-1.43244860260815,-0.331074280405892,1.2091367136451456,-0.9366577863693237,0.3250591456890106,-0.130417600274086,0.03130166605114937,-0.14046914875507355,0.6119559407234192,0.05328071117401123,0.004713773727416992,-0.02365034818649292
175,-1.4982413253196312,-0.41130899210208755,1.242241085437747,-0.9141867160797119,0.39980947971343994,-0.06644545495510101,0.6110982894897461,-0.6296262145042419,0.48345261812210083,-0.1785866618156433,0.02853521704673767,-0.034293048083782196
176,-1.5073294743063246,-0.4496048012888173,1.2943312815435826,-0.8988056778907776,0.43460965156555176,-0.05712108314037323,0.22826451063156128,0.22647303342819214,0.252726674079895,-0.1375865340232849,-0.050423890352249146,0.0038831867277622223
177,-1.5078577151762722,-0.45904585875481996,1.3055554419855324,-0.8947007656097412,0.443092942237854,-0.056385695934295654,-0.28925201296806335,-0.19951476156711578,-0.09080774337053299,-0.1381208896636963,-0.09659633040428162,-0.028086960315704346
178,-1.5096416228042169,-0.4236764862598027,1.3492665574466434,-0.9098795652389526,0.4111146628856659,-0.05571288615465164,0.6170790195465088,-0.5066225528717041,-0.5686507821083069,0.06695359945297241,0.038760215044021606,0.16028136014938354
179,-1.504929804297377,-0.3832512005848147,1.352495156697451,-0.9254427552223206,0.37393778562545776,-0.06104399636387825,-0.014837298542261124,-0.09604695439338684,-0.07090882956981659,0.04327106475830078,0.026590168476104736,0.030633211135864258
180,-1.5242404674755188,-0.3620707150943624,1.347182319171733,-0.9341520667076111,0.3542114496231079,-0.043521698564291,-0.16182157397270203,-0.36599355936050415,-0.364629864692688,-0.07312631607055664,-0.010720908641815186,-0.0542566142976284
181,-1.502190371270586,-0.33371521296113943,1.2897879461091735,-0.9426091313362122,0.3275555372238159,-0.06477025151252747,-0.7565535306930542,0.3358836770057678,-0.38021689653396606,0.2049536108970642,-0.1501416563987732,0.09241915494203568
182,-1.543048166977463,-0.31071792837878126,1.2572346732513728,-0.9517479538917542,0.3057422637939453,-0.026416035369038582,0.02072674036026001,-0.5377727746963501,-0.16784174740314484,0.07061374187469482,0.0026532113552093506,0.05643003433942795
183,-1.5837908867560393,-0.2812585618378548,1.2565489338467468,-0.9606257677078247,0.27756497263908386,0.012483611702919006,-0.014040294103324413,-0.22478848695755005,-0.33622437715530396,0.001320958137512207,0.05756381154060364,0.06310844421386719
184,-1.6026314839352047,-0.28447349028660823,1.2522416334429796,-0.9593232274055481,0.28065213561058044,0.030550526455044746,0.34859660267829895,0.04455236718058586,0.31633204221725464,-0.017437636852264404,0.021059870719909668,0.030759332701563835
185,-1.610430215644514,-0.29857257761905626,1.2783553121492268,-0.9550067782402039,0.2941562235355377,0.037870462983846664,0.05654890090227127,0.09415893256664276,-0.17264387011528015,0.03424566984176636,0.10542568564414978,0.05807685852050781
186,-1.5689521056449554,-0.28285411069788674,1.268596416310185,-0.9602610468864441,0.27909746766090393,-0.001770935719832778,-0.03692244738340378,-0.19345040619373322,0.041247352957725525,0.06107598543167114,-0.027892082929611206,-0.03842073678970337
187,-1.591523924985882,-0.2667297589887628,1.2758110625036696,-0.9644308090209961,0.26357826590538025,0.019993197172880173,0.008790715597569942,-0.36550864577293396,-0.1198829784989357,0.0869436264038086,-0.02038365602493286,-0.012226462364196777
188,-1.640984843901622,-0.2549278862282585,1.2557629221211057,-0.9652989506721497,0.25217562913894653,0.06786438077688217,-0.26969751715660095,-0.10492580384016037,-0.4713417887687683,0.07452130317687988,0.07912322878837585,0.03327084332704544
189,-1.6552150084684996,-0.25159314242946085,1.2429092710776342,-0.965067982673645,0.24894726276397705,0.08166385442018509,-0.12451227009296417,-0.1429193913936615,-0.057301104068756104,0.004084765911102295,0.06362901628017426,0.10623287409543991
190,-1.6924290380369813,-0.22998759329532353,1.215226084271867,-0.9664756059646606,0.22796544432640076,0.11813821643590927,-0.23520925641059875,-0.40562957525253296,-0.3046223521232605,0.00234907865524292,0.05775536596775055,0.008250348269939423
191,-1.710538827256255,-0.22339482889974538,1.1884091468525075,-0.9656450748443604,0.2215413600206375,0.1358269453048706,-0.28610578179359436,-0.06999590992927551,0.11412101984024048,0.04909545183181763,-0.0113668292760849,0.0091010183095932
192,-1.7285897826659218,-0.21863269306535066,1.1611431157268204,-0.9640669822692871,0.21689507365226746,0.15339872241020203,-0.07934439927339554,-0.11412222683429718,-0.22749146819114685,0.01825106143951416,0.022088080644607544,0.021100744605064392
193,-1.7348316254222482,-0.2012303805798046,1.1691161588124088,-0.9666686058044434,0.19987504184246063,0.16000546514987946,-0.011926929466426373,0.11737950891256332,-0.3523154854774475,0.06475216150283813,0.021942004561424255,0.07523928582668304
194,-1.7327517184564198,-0.19474269228069122,1.1573303806822546,-0.9682586193084717,0.19351409375667572,0.15820030868053436,0.031076697632670403,-0.04862364009022713,0.21340130269527435,0.02879035472869873,-0.013155251741409302,-0.034710898995399475
195,-1.7333792220708342,-0.20034117721949923,1.1414084496817178,-0.9670749306678772,0.1990036964416504,0.15863001346588135,-0.4547971189022064,0.15071441233158112,0.20843854546546936,0.04022562503814697,-0.0324234813451767,0.05874668061733246
196,-1.7357019951282726,-0.2066509273079418,1.1270417490868943,-0.9654460549354553,0.2051832377910614,0.1606665551662445,0.025363177061080933,0.05795392394065857,-0.0651976615190506,-0.026649892330169678,-0.011564508080482483,0.08957765996456146
197,-1.7104789799451954,-0.18190191913133513,1.1215711611313295,-0.9739224314689636,0.180900439620018,0.13693179190158844,-0.0409294068813324,0.12947319447994232,-0.15017840266227722,-0.0026096701622009277,-0.011344745755195618,-0.023452147841453552
198,-1.660917259045293,-0.14596878335275096,1.1142881894998427,-0.9853504300117493,0.14545097947120667,0.08904188871383667,-0.06368135660886765,0.4650316834449768,-0.32244911789894104,-0.04231375455856323,-0.03694576025009155,-0.035971879959106445
199,-1.6307306934004666,-0.1440830351660235,1.1133955403044293,-0.9878610372543335,0.14358502626419067,0.05927782133221626,0.07559721171855927,0.18004348874092102,0.019685707986354828,0.06043189764022827,-0.01025371253490448,-0.18638360500335693
200,-1.6252276595429243,-0.1304735532128365,1.1497852988192534,-0.990031898021698,0.1301036924123764,0.05394203960895538,0.3708716630935669,-0.24253426492214203,-0.027143336832523346,0.01848965883255005,0.013420477509498596,-0.13212800025939941
201,-1.6326244438808346,-0.13290910140386072,1.172725516890378,-0.9892866611480713,0.13251814246177673,0.06124379113316536,0.21920481324195862,-0.16693377494812012,0.02866917848587036,0.01656937599182129,0.019993484020233154,-0.15517687797546387
202,-1.6271865014258133,-0.13409212555429686,1.1884494979000937,-0.9894478917121887,0.13369064033031464,0.05585435405373573,-0.0044157011434435844,-0.1336604505777359,0.024709105491638184,0.01659327745437622,-0.00867539644241333,-0.06439924240112305
203,-1.6229967855435514,-0.13581720774892259,1.1895254891838216,-0.9894413948059082,0.13540004193782806,0.051696259528398514,0.17502717673778534,-0.16423825919628143,-0.004912237636744976,0.0071569085121154785,-0.006310701370239258,-0.0819849967956543
204,-1.631714536703316,-0.1369424425388656,1.207667872073979,-0.9888003468513489,0.1365148276090622,0.060310568660497665,0.29964184761047363,-0.2624552547931671,0.021335821598768234,0.03916972875595093,0.021749332547187805,0.010734312236309052
205,-1.6459653250245705,-0.14014439027801642,1.2301756395259797,-0.9873996376991272,0.13968609273433685,0.07436195015907288,0.07938561588525772,-0.11518269777297974,0.0013530589640140533,0.029742777347564697,0.008415699005126953,0.015298604965209961
206,-1.670077293884105,-0.14165924237847963,1.2342798305678444,-0.9851081371307373,0.14118592441082,0.09812510013580322,-0.018942590802907944,-0.34566086530685425,0.02392883412539959,-0.0018761157989501953,0.044147342443466187,0.15543019771575928
207,-1.694672777729035,-0.1443049782166992,1.2240005323968717,-0.9820230007171631,0.143804669380188,0.12227562069892883,-0.18287445604801178,-0.031951792538166046,0.05888543277978897,-0.018740057945251465,0.03763763606548309,0.06296612322330475
208,-1.708660457891133,-0.14971911468087495,1.2052921617749213,-0.9794309735298157,0.14916040003299713,0.1358904242515564,-0.14965392649173737,-0.11198597401380539,0.022698424756526947,0.024307072162628174,-0.0017452239990234375,0.06638002395629883
209,-1.7269117753287508,-0.14905588040700413,1.1849089635755414,-0.9768853187561035,0.14850455522537231,0.15375806391239166,-0.21751779317855835,-0.07570946216583252,0.019557800143957138,-0.004117488861083984,0.019876182079315186,0.011235237121582031
210,-1.740405095981489,-0.1480539399990731,1.1664307609011724,-0.9748678803443909,0.14751364290714264,0.16695010662078857,-0.140623539686203,-0.08620710670948029,0.02348809316754341,0.02749544382095337,0.019936323165893555,0.031292080879211426
211,-1.7493117654420856,-0.151366879501441,1.1451522201894506,-0.9728559255599976,0.1507895290851593,0.17553845047950745,-0.2914396822452545,0.03899315372109413,0.10718139261007309,0.01986837387084961,0.022748693823814392,0.012632951140403748
212,-1.75541962860851,-0.16212617624387238,1.1198286379037756,-0.9701146483421326,0.16141685843467712,0.18116889894008636,-0.2426709532737732,-0.011626207269728184,0.1010819673538208,0.009268701076507568,0.0022488832473754883,0.013670563697814941
213,-1.7588898392434593,-0.16672123573204348,1.0825781808675343,-0.968741238117218,0.16594994068145752,0.18439365923404694,-0.3901362419128418,0.0536075122654438,0.12169820815324783,0.003027796745300293,0.004093989729881287,-0.00037266314029693604
214,-1.7603005244945071,-0.1708579696815481,1.0456205826426987,-0.9677976369857788,0.17002788186073303,0.18562914431095123,-0.31319481134414673,0.053962450474500656,0.07435715943574905,0.021706998348236084,-0.008010104298591614,0.003259405493736267
215,-1.7610915857006066,-0.17494135155645846,1.0077834528801233,-0.9669606685638428,0.17405039072036743,0.18626180291175842,-0.33498862385749817,0.09247288852930069,0.11193003505468369,-0.004123866558074951,-0.0008936375379562378,0.005525931715965271
216,-1.7561428175989422,-0.18237773393517726,0.9766046125016278,-0.9665717482566833,0.1813683807849884,0.18123073875904083,-0.2844665050506592,0.08705262094736099,0.12593074142932892,-0.002346038818359375,-0.018633395433425903,0.027662038803100586
217,-1.7489717731582175,-0.18710228772377901,0.947833400318661,-0.9669924378395081,0.18601253628730774,0.17414100468158722,-0.283425509929657,0.12402509152889252,0.08972621709108353,0.019803106784820557,-0.01395443081855774,0.02079010009765625
218,-1.740079051256392,-0.1919670308677881,0.9236850615956458,-0.9675991535186768,0.19079016149044037,0.165380597114563,-0.17285320162773132,0.16864176094532013,0.0860058069229126,0.013726592063903809,-0.02700236439704895,0.04773889482021332
219,-1.7291380981302793,-0.19492380753156197,0.9020941957712614,-0.9687893986701965,0.19369179010391235,0.1546948403120041,-0.22115856409072876,0.15045863389968872,0.02242053486406803,0.008859038352966309,-0.024258211255073547,0.04826222360134125
220,-1.7182028660146762,-0.1933609319541406,0.8822817286277511,-0.9707212448120117,0.1921582669019699,0.14413614571094513,-0.16833946108818054,0.15674535930156708,0.036768704652786255,0.01991569995880127,-0.0395551472902298,0.0783369392156601
221,-1.7083333460297905,-0.18858689915203705,0.8684951972129589,-0.9729943871498108,0.18747103214263916,0.13467299938201904,-0.09127417206764221,0.23749040067195892,-0.015616451390087605,0.00474780797958374,-0.044511422514915466,0.10406602919101715
222,-1.698830855469816,-0.18094886006511068,0.8572312769718315,-0.9756219387054443,0.17996302247047424,0.12560035288333893,0.0012619406916201115,0.1881391704082489,-0.06904473900794983,-0.08046948909759521,-0.02345360815525055,0.06815578043460846
223,-1.692056656755558,-0.16700290211652596,0.8700657547438172,-0.978846549987793,0.16622769832611084,0.11928046494722366,0.2107073813676834,0.03128649666905403,-0.07281184941530228,0.09704113006591797,0.02049410343170166,-0.0018335580825805664
224,-1.6996632643373286,-0.16735164166335803,0.8791013903100006,-0.9778532385826111,0.16657157242298126,0.12671516835689545,0.1359533965587616,-0.03020436130464077,-0.11395583301782608,-0.06612247228622437,0.07938484847545624,-0.15608836710453033
225,-1.6740365903093224,-0.16644268511628624,0.9119646939583366,-0.9809293150901794,0.16567525267601013,0.1016327440738678,0.31333285570144653,0.2283535599708557,-0.08434929698705673,0.012209951877593994,0.005940333008766174,-0.1658722311258316
226,-1.6442232238764196,-0.1596683222564258,0.9427405565558035,-0.9846197962760925,0.1589907556772232,0.07242778688669205,0.01301692146807909,0.1113206073641777,-0.2082182914018631,-0.02664119005203247,-0.016275301575660706,-0.12728309631347656
227,-1.613764432339572,-0.12754954180379535,0.9111006664244642,-0.9909611344337463,0.12720397114753723,0.04260594770312309,-0.18202602863311768,0.4371514618396759,-0.21736778318881989,0.07457929849624634,0.0005883872509002686,-0.13246500492095947
228,-1.577185675467261,-0.13053789953880468,0.9196546934513765,-0.9914718270301819,0.13016748428344727,0.006334945093840361,0.03797074034810066,0.3266574442386627,0.15414658188819885,-0.043272435665130615,0.0022330284118652344,-0.0028558969497680664
229,-1.5541676391081327,-0.14182654784503027,0.926638688025289,-0.9898226857185364,0.14135155081748962,-0.016460970044136047,0.1923559457063675,0.022883890196681023,0.0837457925081253,-0.026870548725128174,-0.00985129177570343,0.013897476717829704
230,-1.5533527343659053,-0.14776177188602718,0.9366566882727223,-0.9889524579048157,0.14722466468811035,-0.017252633348107338,0.1439562886953354,0.012602357193827629,0.051655594259500504,0.029464662075042725,-0.03223446011543274,-0.03452044352889061
231,-1.557165495526942,-0.1534322631494083,0.9593934813340855,-0.9881603717803955,0.15283097326755524,-0.013470281846821308,0.268927663564682,-0.1503446102142334,0.09471599012613297,0.001252591609954834,-0.00926104187965393,-0.07005631923675537
232,-1.5515816481329179,-0.16227243396622879,0.9794436128063839,-0.9866804480552673,0.16156120598316193,-0.01896108128130436,0.11322885006666183,0.1083555817604065,-0.03007376380264759,-0.015211522579193115,0.0026386231184005737,-0.06151378154754639
233,-1.527949364337387,-0.15389739572263592,0.9886565007778307,-0.987274169921875,0.15329061448574066,-0.042327605187892914,0.0909421294927597,0.10806942731142044,-0.07466521859169006,0.008575499057769775,0.03279028832912445,-0.02478056773543358
234,-1.5039345065060115,-0.15728193417986894,0.9893649244453742,-0.9854496717453003,0.15663427114486694,-0.06598731875419617,-0.004130003973841667,0.30909234285354614,0.10178416222333908,0.004462301731109619,0.010037422180175781,-0.026740357279777527
235,-1.4758775000499638,-0.16406507826656086,0.9934252647177862,-0.9821304678916931,0.16333003342151642,-0.09350364655256271,0.072962187230587,0.23228324949741364,0.0325733907520771,-0.02856588363647461,-0.03337092697620392,0.009031005203723907
236,-1.4540489802570828,-0.1612654979135406,0.9998428373219913,-0.9803060293197632,0.16056741774082184,-0.11497095227241516,0.06362773478031158,-0.03338730335235596,-0.051571544259786606,0.005055785179138184,-0.011794209480285645,-0.0036356449127197266
237,-1.4356612798591593,-0.16078439879612033,1.005020972619659,-0.9781026840209961,0.1600925326347351,-0.13298644125461578,0.030392279848456383,0.17915134131908417,0.15567219257354736,0.04707247018814087,-0.03501628339290619,-0.019876107573509216
238,-1.431907817368727,-0.17130252469815843,1.0166931596794555,-0.9758751392364502,0.17046596109867096,-0.13641613721847534,0.2154151052236557,-0.1647510528564453,0.19865378737449646,0.038237690925598145,0.037084147334098816,-0.013959243893623352
239,-1.444661266735443,-0.1791805703283461,1.0328769996624398,-0.9761728644371033,0.17822332680225372,-0.1237867996096611,-0.3227950930595398,-0.05708184093236923,-0.044885627925395966,-0.054009079933166504,0.01881343126296997,0.0984877347946167
240,-1.4593078126624393,-0.18037484410663873,0.9990613688560119,-0.977668821811676,0.1793983429670334,-0.10945270955562592,-0.12107875943183899,-0.11767633259296417,0.0401155948638916,-0.0080946683883667,-0.02816849946975708,-0.07751321792602539
241,-1.4695531170809215,-0.1887960596593334,1.028922636000511,-0.9772012233734131,0.18767648935317993,-0.0992744117975235,0.6331324577331543,-0.2130146622657776,0.1633051037788391,0.07076811790466309,-0.03894907236099243,-0.0989067554473877
242,-1.4732109098077195,-0.20486875396496015,1.0875622268518181,-0.9744296073913574,0.2034386545419693,-0.0953931212425232,0.4636991024017334,-0.020006252452731133,0.32003161311149597,0.02609574794769287,0.010459095239639282,-0.057560995221138
243,-1.4695016989372196,-0.23340761666153087,1.1228339186580507,-0.9678969383239746,0.23129408061504364,-0.0983794629573822,0.1795927733182907,0.04260733351111412,0.174319788813591,-0.04163980484008789,-0.06204354763031006,-0.01990664005279541
244,-1.471286205941676,-0.2403150159885133,1.1442285577714617,-0.9664581418037415,0.23800860345363617,-0.09649106860160828,0.288336843252182,-0.28903380036354065,0.12430021911859512,-0.01222527027130127,-0.04048357903957367,-0.05530332773923874
245,-1.4930602431897306,-0.24013786629642295,1.1785979766444734,-0.9683720469474792,0.2378365397453308,-0.07542945444583893,0.2851009964942932,-0.2627650797367096,-0.01101170014590025,0.0451388955116272,-0.028028130531311035,-0.07482386380434036
246,-1.5092883154367465,-0.24832835791935123,1.200572561127732,-0.967491626739502,0.2457839399576187,-0.059583645313978195,0.2750476598739624,-0.01914345473051071,0.24214109778404236,-0.05194807052612305,-0.00908958911895752,-0.1336688995361328
247,-1.5041604798449748,-0.25418974579701803,1.2724169945086785,-0.9657194018363953,0.2514612674713135,-0.06444694846868515,0.6074134707450867,-0.36655592918395996,-0.0707775354385376,0.006368756294250488,-0.0171930193901062,0.07563161104917526
248,-1.5288176742448647,-0.2530723018255612,1.3132089698592593,-0.9672948718070984,0.2503795921802521,-0.04062960296869278,0.4031640589237213,-0.4045816659927368,0.054112713783979416,-0.02634221315383911,0.04760926961898804,-0.01672815904021263
249,-1.5531876950017431,-0.2540636951696259,1.3679200562781624,-0.9677489399909973,0.25133925676345825,-0.01704249531030655,0.4551035165786743,-0.31533747911453247,0.00511901592835784,0.01898801326751709,0.04497113823890686,0.04176175594329834
250,-1.5709655623537573,-0.25102467077253887,1.3880695097255478,-0.9686583280563354,0.24839664995670319,0.0001639314432395622,0.17625035345554352,-0.12780122458934784,-0.05064481124281883,0.0587005615234375,0.03366205096244812,-0.047664523124694824
251,-1.5795650359752385,-0.25501933174294805,1.412269813642542,-0.9676211476325989,0.2522641122341156,0.008485006168484688,0.25345802307128906,-0.17693109810352325,0.007435937412083149,-0.03662073612213135,0.0456027090549469,-0.008942723274230957
252,-1.5973017685301432,-0.2588726480258003,1.4523391784041337,-0.9663397669792175,0.2559909224510193,0.0256192609667778,0.4611925780773163,-0.4022700786590576,0.011037120595574379,0.024994492530822754,0.04710966348648071,0.1370394229888916
253,-1.6197954979141012,-0.2608766549166623,1.4647878615990473,-0.9650046825408936,0.25792765617370605,0.04732230678200722,-0.07884220033884048,-0.2238314151763916,0.06320774555206299,0.007637739181518555,0.0013344287872314453,0.03237438201904297
254,-1.6489714475065276,-0.2609479757798454,1.4561585967114767,-0.9631949663162231,0.2579965591430664,0.07545164972543716,-0.08004473149776459,-0.25790196657180786,-0.07491502910852432,-0.033905744552612305,-0.003281623125076294,0.04745792597532272
255,-1.6686592287256694,-0.25829274369929617,1.4585170209462959,-0.9622012972831726,0.25543031096458435,0.09446557611227036,0.15665104985237122,-0.1620713770389557,0.031837496906518936,0.031033813953399658,-0.0011273622512817383,0.005250558257102966
256,-1.6692764310462935,-0.27079876136306535,1.4897924320634364,-0.9588889479637146,0.26750117540359497,0.0947379469871521,0.4330447316169739,-0.10878456383943558,0.09219731390476227,0.011394381523132324,-0.04684379696846008,0.009937286376953125
257,-1.6735153388781983,-0.27595393180281624,1.5289066703006278,-0.9570942521095276,0.27246490120887756,0.09865900874137878,0.2827073931694031,-0.12611711025238037,0.014167009852826595,0.05380439758300781,0.006221652030944824,-0.004420742392539978
258,-1.6743842350617033,-0.2793995688459757,1.5513439124069432,-0.9560685157775879,0.27577856183052063,0.09939290583133698,0.11546701937913895,-0.03921043872833252,-0.023283693939447403,-0.01567208766937256,0.01041528582572937,0.016222938895225525
259,-1.6780174720883985,-0.27209888085576883,1.5527186285832604,-0.9576774835586548,0.26875367760658264,0.10307858884334564,-0.06383722275495529,-0.026497840881347656,-0.09986741840839386,0.0068871378898620605,0.03608638048171997,-0.018392331898212433
260,-1.6808008801615155,-0.2624854382094737,1.5354533527540308,-0.9599106311798096,0.25948166847229004,0.10602254420518875,-0.20888207852840424,0.04296379163861275,-0.09290385991334915,0.00831151008605957,0.028482168912887573,-0.00623011589050293
261,-1.6811433201055057,-0.26066808313435513,1.5250539667490057,-0.9603412747383118,0.25772613286972046,0.10640299320220947,-0.13884909451007843,-0.02110866643488407,-0.04082079976797104,-0.0035104751586914062,0.026072025299072266,0.0011867061257362366
262,-1.6846674268770152,-0.2609968022787657,1.510511116145434,-0.9598762392997742,0.25804373621940613,0.1097770556807518,-0.1808096021413803,-0.002770735416561365,0.011282641440629959,-0.013527631759643555,0.014768123626708984,-0.0018820837140083313
263,-1.6936618006837674,-0.26277966455997104,1.4891114289590304,-0.9583919048309326,0.2597658038139343,0.11834941059350967,-0.23248274624347687,-0.0664905309677124,0.05991711467504501,-0.014706790447235107,0.0169827938079834,0.011914961040019989
264,-1.7037367236614505,-0.2633128220894624,1.4605921217219398,-0.9570135474205017,0.2602806091308594,0.12798058986663818,-0.2553662955760956,-0.025422651320695877,0.07474533468484879,0.007886350154876709,-0.03336721658706665,0.0039621442556381226
265,-1.717793419208753,-0.26108855835941314,1.4368608250864197,-0.9556905031204224,0.25813236832618713,0.1415044069290161,-0.2715083062648773,-0.08150383830070496,0.0650985911488533,-0.025312304496765137,-0.02250617742538452,-0.011743664741516113
266,-1.7272857036573583,-0.25904658814475423,1.426128809141584,-0.9548227787017822,0.25615906715393066,0.15065139532089233,0.03308054059743881,-0.09766223281621933,-0.07098226994276047,-0.016399025917053223,-0.039209604263305664,0.011625751852989197
267,-1.7332857169436775,-0.2502906088090208,1.4343552107375557,-0.9560787081718445,0.2476855218410492,0.15673449635505676,0.02609744668006897,-0.06693247705698013,-0.037852730602025986,0.03432565927505493,0.016444116830825806,-0.03342817723751068
268,-1.7312941770405252,-0.25362968472072384,1.4310276234924386,-0.9555672407150269,0.2509191632270813,0.15469709038734436,-0.04074884578585625,0.005289984401315451,0.04028075933456421,-0.010329484939575195,-0.0015447437763214111,0.02528037130832672
269,-1.7327213990239416,-0.256370287309796,1.4215262047764738,-0.9546629190444946,0.25357115268707275,0.15594923496246338,-0.07907013595104218,0.007729706820100546,0.061010003089904785,-0.00928044319152832,-0.0005957186222076416,0.016658172011375427
270,-1.7358383725231166,-0.2603208594641044,1.4160145049969994,-0.9531766176223755,0.2573906183242798,0.15875831246376038,0.026475198566913605,-0.017903750762343407,0.05449298396706581,-0.001764059066772461,-0.012853294610977173,-0.0012723356485366821
271,-1.7375550835891493,-0.26402082798893706,1.4155091373141755,-0.9519571661949158,0.26096415519714355,0.16023525595664978,0.019509822130203247,-0.007271882612258196,0.07320039719343185,-0.003502488136291504,-0.0019004344940185547,0.005917668342590332
272,-1.7379973426692716,-0.27473057093304426,1.4211888819451532,-0.9490756392478943,0.27128762006759644,0.1601818948984146,0.1642836332321167,-0.03996424749493599,0.09803769737482071,-0.011739671230316162,-0.010087668895721436,-0.002604380249977112
273,-1.7369576582476058,-0.28120070558016425,1.4374155842942493,-0.9474907517433167,0.2775093913078308,0.1589014232158661,0.05327960103750229,-0.008053252473473549,0.0188496932387352,0.0157586932182312,0.00790625810623169,0.0037267059087753296
274,-1.734114215594217,-0.2814978549323987,1.4386134410012505,-0.9478574395179749,0.27779486775398254,0.15619325637817383,-0.00371637474745512,0.06754358112812042,-0.02114219032227993,0.016354143619537354,-0.011727362871170044,0.003139019012451172
275,-1.726707200935709,-0.2755673897465003,1.4425715991772428,-0.9505990743637085,0.2720929682254791,0.14942142367362976,0.13058620691299438,0.023635705932974815,-0.11182188242673874,-0.0055013298988342285,-0.0022108256816864014,0.015571817755699158
276,-1.717928827603611,-0.26501042977928146,1.4514307313081551,-0.9546623229980469,0.2619193196296692,0.14148427546024323,0.06357371807098389,0.09639392793178558,-0.08961395174264908,0.0457574725151062,0.021558374166488647,0.006846398115158081
277,-1.7090189564503693,-0.2611932667349588,1.4557741463917175,-0.9568684101104736,0.25823351740837097,0.1331096589565277,0.12096798419952393,0.11556143313646317,-0.09215892106294632,-0.010218322277069092,-0.02268362045288086,-0.0009991079568862915
278,-1.698112440499306,-0.2511014633610785,1.472332799817449,-0.9607994556427002,0.24847103655338287,0.12299050390720367,0.055362116545438766,0.10602245479822159,-0.10598355531692505,0.0004417896270751953,0.02205204963684082,0.04922020435333252
279,-1.6896520944219193,-0.24367162880663315,1.483444389340829,-0.9636123180389404,0.24126741290092468,0.11507325619459152,0.057942140847444534,0.0843467265367508,-0.07953790575265884,0.04550600051879883,0.04700168967247009,0.059182196855545044
280,-1.6794618509292474,-0.24745650145388276,1.4899010947197007,-0.9638199210166931,0.24493873119354248,0.10514819622039795,0.023439353331923485,0.2079034149646759,0.007295548915863037,-0.02667379379272461,0.028941258788108826,0.051345936954021454
281,-1.6699925149275672,-0.2536235768527867,1.498382354608699,-0.9632510542869568,0.25091326236724854,0.09586547315120697,0.11514279991388321,0.13524532318115234,-0.05804387107491493,-0.008978068828582764,-0.010984033346176147,-0.02549193799495697
282,-1.6463628225837785,-0.2502768831595562,1.511596585433963,-0.96607905626297,0.24767223000526428,0.07314248383045197,0.15577509999275208,0.23835313320159912,-0.014741850085556507,-0.02154606580734253,-0.012717410922050476,-0.026420123875141144
283,-1.6176340732174619,-0.24638130905418024,1.5163916660819154,-0.9687377214431763,0.24389615654945374,0.04540669918060303,0.055218737572431564,0.22231438755989075,-0.07666812837123871,-0.005490124225616455,0.0015414506196975708,-0.031353358179330826
284,-1.6002392938078178,-0.24227089978863972,1.5355984530554994,-0.9703747034072876,0.23990781605243683,0.028578970581293106,0.2090478390455246,0.08831343054771423,-0.027663525193929672,0.032020390033721924,-0.016671791672706604,-0.05677724629640579
285,-1.5822061636578308,-0.24769761715441813,1.5589686890450014,-0.9694163203239441,0.24517250061035156,0.011061361990869045,0.21279355883598328,0.13274675607681274,0.0455913245677948,-0.018513917922973633,-0.03997233510017395,-0.08968997001647949
286,-1.5591765017794288,-0.2446497616130512,1.5821230506042885,-0.9701568484306335,0.24221652746200562,-0.011273560114204884,0.2584940493106842,0.023073308169841766,-0.028030680492520332,-0.01148688793182373,-0.020262181758880615,-0.026232600212097168
287,-1.5496814894867452,-0.23939560608398763,1.6036962791766876,-0.9712650179862976,0.2371155172586441,-0.02051115222275257,0.19058267772197723,0.12364687025547028,-0.02295321226119995,0.000561833381652832,0.015264898538589478,-0.03323030471801758
288,-1.5342530021510348,-0.2401229584215696,1.618836667363499,-0.9706603288650513,0.2378220558166504,-0.03548695147037506,0.10624793916940689,0.07172074913978577,-0.07090868055820465,-0.02564704418182373,-0.01696637272834778,-0.023732423782348633
289,-1.519125891445001,-0.23631597533990667,1.6299885685677833,-0.9709095358848572,0.23412258923053741,-0.050212014466524124,0.1255093812942505,0.028097959235310555,0.05803253501653671,0.04555559158325195,-0.004508346319198608,0.0041457414627075195
290,-1.5171831639211093,-0.24406852211914679,1.636957464941014,-0.9689685702323914,0.24165256321430206,-0.051999300718307495,0.08218548446893692,0.014911521226167679,0.10809995234012604,-0.012369871139526367,-0.022017568349838257,-0.017763853073120117
291,-1.5096764149129258,-0.24931480785963978,1.6441041470243571,-0.9672722816467285,0.24674001336097717,-0.05919332429766655,0.07798486948013306,-0.004555714316666126,0.03161425516009331,-0.024701595306396484,-0.05080190300941467,-0.021754562854766846
292,-1.507188059159734,-0.24007914501064392,1.6543038899086113,-0.9693548083305359,0.23777949810028076,-0.06174227222800255,0.13634741306304932,0.00014895619824528694,-0.049221061170101166,0.007425546646118164,0.005613431334495544,-0.017923887819051743
293,-1.5007328606911414,-0.23843844988816265,1.6675914781523369,-0.969323992729187,0.23618555068969727,-0.06802554428577423,0.08129735291004181,0.007931789383292198,0.027003886178135872,0.02195155620574951,0.016240626573562622,-0.0056133270263671875
294,-1.4933021876828096,-0.24321704257272678,1.6708939875008078,-0.9676554799079895,0.24082621932029724,-0.07513809949159622,-0.05258088931441307,0.07332605868577957,0.0037805817555636168,-0.022090613842010498,-0.005734086036682129,0.024250030517578125
295,-1.4919661478931439,-0.24184320543045987,1.6626401446258394,-0.9678832292556763,0.23949259519577026,-0.07645684480667114,-0.053779613226652145,-0.02852482534945011,-0.032248903065919876,-0.027707159519195557,-0.01669895648956299,0.00799059122800827
296,-1.495806671874987,-0.2342959958780801,1.6623418879331224,-0.969944417476654,0.23215827345848083,-0.07287244498729706,0.014151886105537415,0.019222384318709373,-0.031232303008437157,0.009830892086029053,0.006611242890357971,-0.010120086371898651
297,-1.4918024671116972,-0.23111560967731418,1.6630332152203267,-0.9703759551048279,0.22906361520290375,-0.07681358605623245,-0.0781242698431015,0.013519840314984322,-0.03609223663806915,-0.008170127868652344,0.015000686049461365,0.010727770626544952
298,-1.4879242275229663,-0.23100625496127677,1.6541287920160703,-0.9700957536697388,0.2289571613073349,-0.08057842403650284,-0.018577681854367256,0.07467266917228699,0.030266402289271355,-0.0021179914474487305,-0.026579856872558594,-0.015460371971130371
299,-1.4813924036003427,-0.23040923465889362,1.6672204890064624,-0.9696846604347229,0.22837595641613007,-0.08692533522844315,0.18712396919727325,-0.017694473266601562,0.02181745134294033,-0.0012320876121520996,-0.01891861855983734,-0.0009652301669120789
300,-1.4771654214922052,-0.23143354955589865,1.691333644445311,-0.9690753221511841,0.22937308251857758,-0.0910014808177948,0.35344770550727844,-0.04735291004180908,0.07195247709751129,-0.004237174987792969,-0.007830679416656494,-0.00985909253358841
301,-1.4743294794829553,-0.23786240779738602,1.7223050480443378,-0.9673253297805786,0.235625758767128,-0.09360536932945251,0.2418823540210724,-0.005527039058506489,0.17503361403942108,0.024744272232055664,0.007233083248138428,-0.023078612983226776
302,-1.4682895434313332,-0.24972688709053012,1.7564189044962684,-0.9638935923576355,0.2471393346786499,-0.09915316849946976,0.3689488172531128,-0.04569130763411522,0.09506108611822128,-0.023731470108032227,-0.027763694524765015,-0.01521146297454834
303,-1.4645072887314772,-0.2545176479247671,1.7996270203272704,-0.9623233079910278,0.25177863240242004,-0.10267134755849838,0.42230796813964844,-0.11948104202747345,0.031186282634735107,-0.023608088493347168,-0.009346991777420044,-0.003834962844848633
304,-1.4667019562497683,-0.251986465044677,1.8369021709226114,-0.9631771445274353,0.24932818114757538,-0.10062502324581146,0.2878453731536865,-0.11285479366779327,0.013543750159442425,-0.0009037256240844727,0.0359196662902832,-0.013968482613563538
305,-1.4674605115989892,-0.2537213266444007,1.86523083196388,-0.962821364402771,0.25100788474082947,-0.09984959661960602,0.22623440623283386,-0.06351323425769806,0.020393751561641693,-0.01940208673477173,0.022566944360733032,-0.01846706122159958
306,-1.4590343679092195,-0.25064748354472427,1.8887660085562936,-0.962708055973053,0.24803125858306885,-0.10804436355829239,0.1845511943101883,0.030644960701465607,0.01422940194606781,0.022064805030822754,-0.008376717567443848,-0.01117253303527832
307,-1.4498080408530338,-0.24115916591891978,1.8974114673152882,-0.9639632105827332,0.2388284057378769,-0.11720068007707596,0.07874475419521332,0.06334545463323593,-0.21901512145996094,-0.09751451015472412,0.0486777126789093,0.019010424613952637
308,-1.4503306973911325,-0.23026069909685049,1.9261723252011638,-0.9665510654449463,0.22823135554790497,-0.1170027107000351,0.42377209663391113,-0.020157985389232635,0.011702009476721287,0.09531986713409424,0.09217274188995361,0.0804273933172226
309,-1.438516746386163,-0.23572981126101686,1.9551124881624022,-0.963849663734436,0.23355267941951752,-0.1282465159893036,0.1100313663482666,0.02148415334522724,0.13896942138671875,-0.021013617515563965,0.06272724270820618,0.021770715713500977
310,-1.436343000865473,-0.245164897441754,1.9625248360194325,-0.9613420367240906,0.24271629750728607,-0.13004018366336823,-0.011341373436152935,-0.01569199375808239,0.07976911962032318,-0.0188063383102417,0.041188716888427734,0.09198474884033203
311,-1.4520312447840085,-0.25548608430893854,1.9585575855356037,-0.960724949836731,0.25271573662757874,-0.11464008688926697,0.00029499735683202744,-0.05294998362660408,0.0014885668642818928,-0.012480616569519043,0.012649863958358765,-0.0071707963943481445
312,-1.4503137866641709,-0.25604318930582975,1.9571430791339102,-0.9603866338729858,0.2532547414302826,-0.11627297103404999,0.018556293100118637,0.04096132889389992,0.034697651863098145,-0.01873922348022461,0.016123920679092407,-0.0132436603307724
313,-1.4488624309384215,-0.26015342823224163,1.9609507954744103,-0.959175705909729,0.257228821516037,-0.11753913015127182,-0.037427786737680435,-0.04455968365073204,-0.02317802794277668,0.009728074073791504,-0.0081900954246521,-0.010390520095825195
314,-1.4504886386100413,-0.26185317979183625,1.9510980674032417,-0.9589301347732544,0.2588709890842438,-0.11592651158571243,-0.10490801930427551,0.06838183850049973,0.08666882663965225,0.022803306579589844,-0.023672014474868774,-0.04291750490665436
315,-1.4430138260660565,-0.26660117648919285,1.93895257907754,-0.9568068385124207,0.26345422863960266,-0.12293300032615662,-0.1714334636926651,0.07628083974123001,0.023526659235358238,-0.03557896614074707,-0.03606778383255005,-0.0203469917178154
316,-1.4364313399362976,-0.26266357049069317,1.9314807392185824,-0.9569975137710571,0.2596536874771118,-0.1293664276599884,0.07699260115623474,0.018570996820926666,-0.006880003027617931,0.008404433727264404,-0.036707520484924316,-0.00933597981929779
317,-1.435371006907711,-0.26037710770599404,1.944898103582828,-0.9574456810951233,0.25744497776031494,-0.1304609179496765,0.11598211526870728,-0.08818964660167694,0.048928506672382355,-0.00738292932510376,-0.019224733114242554,-0.024339452385902405
318,-1.433740641726163,-0.2595644959206244,1.955917170578059,-0.957438588142395,0.2566596567630768,-0.1320502609014511,0.1197076290845871,0.06058269366621971,0.01957722008228302,0.01150047779083252,-0.02242201566696167,-0.036803483963012695
319,-1.428498448371886,-0.2604454393024097,1.9661122735098338,-0.9565090537071228,0.2575109899044037,-0.13703538477420807,0.053087685257196426,0.018759626895189285,0.006327865179628134,-0.014407753944396973,-0.018100589513778687,-0.014484405517578125
320,-1.4283873106128446,-0.26036875274637794,1.972357693457876,-0.9565132856369019,0.2574369013309479,-0.13714447617530823,0.035404935479164124,0.009147075936198235,0.06456410884857178,-0.0077811479568481445,-0.009466320276260376,-0.01091158390045166
321,-1.4197193867269868,-0.2751864424258497,1.9896297541501409,-0.9514126777648926,0.2717263698577881,-0.14484015107154846,0.12098457664251328,0.05959895998239517,0.2021620124578476,0.018307268619537354,-0.035795003175735474,-0.006755933165550232
322,-1.4203118062085727,-0.290250872167697,1.995340403550158,-0.9473433494567871,0.2861926257610321,-0.1436464637517929,-0.06120205670595169,-0.12927938997745514,0.1811971366405487,0.0026717782020568848,-0.026655912399291992,-0.017593130469322205
323,-1.4400481263462024,-0.29297195432989703,1.9856916662670192,-0.9492181539535522,0.28879880905151367,-0.12482064962387085,-0.1372203677892685,-0.26751601696014404,-0.04815416783094406,-0.032288193702697754,-0.0013995170593261719,-0.01116567850112915
324,-1.4840705696403371,-0.2973927690763932,1.967857304696054,-0.9525104761123657,0.29302841424942017,-0.08281492441892624,0.11123388260602951,-0.1712266355752945,-0.036339160054922104,-0.005772113800048828,0.08302444219589233,-0.02398134022951126
325,-1.4882550684402047,-0.3020854209441116,1.988484076431506,-0.951467752456665,0.29751184582710266,-0.07871418446302414,0.07186639308929443,-0.14148618280887604,0.08351417630910873,0.03964829444885254,0.06926369667053223,0.06658351421356201
326,-1.5203905471727746,-0.3113417133819748,1.9909559512562653,-0.9507144093513489,0.3063361346721649,-0.04796212911605835,0.054739080369472504,-0.2847333252429962,0.053467728197574615,0.010834038257598877,0.07058650255203247,0.035282015800476074
327,-1.5513930102971842,-0.3193242436028206,1.9847659214683342,-0.9492689371109009,0.31392502784729004,-0.018421277403831482,-0.054529495537281036,-0.3634977340698242,0.0744420737028122,0.0034835338592529297,0.05375072360038757,0.046238064765930176
328,-1.587020082113399,-0.3186624198324535,1.9741857156475668,-0.9495303630828857,0.3132965862751007,0.015406300313770771,-0.2267473191022873,-0.1351965218782425,-0.08034860342741013,-0.020547151565551758,0.018353193998336792,0.05142712593078613
329,-1.613203956613659,-0.3072321778872523,1.9657883993647518,-0.9523173570632935,0.30242156982421875,0.04040974751114845,-0.0899188444018364,-0.3052041828632355,-0.09217963367700577,0.017686009407043457,0.08618924021720886,0.03061985969543457
330,-1.6383652832299092,-0.30567935597098306,1.9507185029172873,-0.9514667391777039,0.3009411096572876,0.06438763439655304,-0.1543215662240982,-0.11747785657644272,0.013450282625854015,0.04077637195587158,0.0618060827255249,0.04047071933746338
331,-1.6524602671191926,-0.31026552225556264,1.9326451360769479,-0.9490790963172913,0.30531150102615356,0.07767829298973083,-0.05766730383038521,-0.058292634785175323,0.02098051644861698,0.00526195764541626,0.0013596415519714355,-0.03339731693267822
332,-1.6453627375216708,-0.3132341345648977,1.933031484020102,-0.9486985206604004,0.3081369996070862,0.07087244093418121,-0.012956809252500534,0.15967436134815216,0.013954711146652699,-0.02084505558013916,0.036437004804611206,0.05177772790193558
333,-1.6467581252205121,-0.31138085052454145,1.924001420876641,-0.9491662383079529,0.30637338757514954,0.07223937660455704,-0.19324351847171783,-0.02018212154507637,-0.10224311053752899,0.07221323251724243,-0.016670048236846924,0.060161106288433075
334,-1.664338258754392,-0.30566393922027696,1.892873613086977,-0.949478268623352,0.30092641711235046,0.08907599002122879,-0.4613596200942993,0.12768682837486267,0.032539770007133484,-0.0004730224609375,0.026237308979034424,-0.006571762263774872
335,-1.664041079196868,-0.29959020818112864,1.8454353328622666,-0.9513067603111267,0.2951287031173706,0.08896234631538391,-0.15185020864009857,0.035227999091148376,-0.03415776789188385,0.01987987756729126,-0.04065793752670288,0.00631355494260788
336,-1.6684021180735211,-0.30498071165959123,1.861806589207025,-0.9493128657341003,0.3002747893333435,0.09295380860567093,0.47754228115081787,-0.13395828008651733,0.14651107788085938,0.07451105117797852,-0.03394785523414612,-0.049206845462322235
337,-1.6518422390716445,-0.32228704152544896,1.9067180835091753,-0.9454001784324646,0.3167366683483124,0.0767890214920044,0.378100723028183,-0.0029776189476251602,0.024346347898244858,-0.0647469162940979,-0.026545047760009766,0.019341349601745605
338,-1.6557046416498007,-0.3253593096002518,1.934345676328393,-0.9441223740577698,0.31964927911758423,0.08035704493522644,0.38932305574417114,-0.13259349763393402,0.051916398108005524,0.0025178194046020508,0.04070231318473816,-0.03296327590942383
339,-1.6463811342136914,-0.32784727314956497,1.9737621463619288,-0.9440344572067261,0.3220057189464569,0.07149085402488708,0.12360581010580063,0.01854509487748146,-0.07242503762245178,-0.0686606764793396,0.002899646759033203,0.053203925490379333
340,-1.646168240078927,-0.3209242079883827,1.9906722055767188,-0.9462500214576721,0.3154437243938446,0.07145603746175766,0.196327805519104,-0.06496395170688629,-0.09063791483640671,-0.0004814267158508301,0.04622000455856323,0.03149496018886566
341,-1.6497473048038298,-0.3209862314183327,1.9910540653587774,-0.9459688663482666,0.3155025839805603,0.0748407319188118,-0.003553316928446293,0.07412540167570114,-0.041535135358572006,0.0229189395904541,0.012424051761627197,-0.03847908973693848
342,-1.641223390824174,-0.3259751617685355,2.0124960925599167,-0.9449903964996338,0.3202327489852905,0.06666315346956253,0.2371450811624527,0.030042899772524834,-0.013357224874198437,-0.011552512645721436,-0.023846060037612915,-0.07276666909456253
343,-1.635601785030079,-0.31838351854230906,2.0351048026901566,-0.9477489590644836,0.31303173303604126,0.061505433171987534,0.15087802708148956,-0.14527854323387146,-0.10055416822433472,-0.020955204963684082,0.03837814927101135,-0.06068146601319313
344,-1.6346352955178922,-0.31111087621814437,2.05152347303776,-0.9500547647476196,0.30611637234687805,0.060733042657375336,0.02175774984061718,-0.10448063164949417,-0.06502413749694824,0.03503108024597168,0.08312007784843445,-0.012439019978046417
345,-1.6405574153025881,-0.31662238876621607,2.045663205688486,-0.9479808807373047,0.31135863065719604,0.06623966991901398,-0.125502809882164,-0.11188875138759613,0.013232048600912094,0.012632548809051514,0.07102656364440918,-0.0325939804315567
346,-1.6513366936177718,-0.32044070837782807,2.0175109213226534,-0.9460200667381287,0.31498485803604126,0.07635798305273056,-0.35488542914390564,-0.04419063404202461,-0.0008645155467092991,0.0048122406005859375,0.022844702005386353,-0.013842709362506866
347,-1.6667100872791298,-0.3175171834527791,1.9834292233371413,-0.945647120475769,0.31220880150794983,0.09097972512245178,-0.36240288615226746,-0.04239526763558388,-0.04805350303649902,0.003508448600769043,0.011277526617050171,-0.015143513679504395
348,-1.6790524538694922,-0.30724645884803026,1.9349601939841605,-0.9475901126861572,0.3024351894855499,0.10298506170511246,-0.4908027648925781,0.038765884935855865,-0.013876224867999554,0.010120630264282227,0.026330649852752686,0.024853110313415527
349,-1.688973424527216,-0.30870780988497815,1.8953954721413353,-0.9460819363594055,0.30382779240608215,0.11232862621545792,-0.29121267795562744,0.051554590463638306,0.10728111118078232,0.0018985271453857422,-0.007837772369384766,0.002600565552711487
350,-1.699446030660086,-0.32393174457247953,1.85829371281878,-0.9401571154594421,0.31829628348350525,0.12162265926599503,-0.20072028040885925,-0.08278651535511017,0.22360053658485413,0.006334483623504639,0.02037253975868225,0.048421263694763184
351,-1.7110558827346636,-0.3470320924108416,1.8340356932010522,-0.9311515688896179,0.34010833501815796,0.13146613538265228,-0.26388195157051086,0.02253185212612152,0.21836932003498077,0.026549339294433594,-0.05009979009628296,-0.0019037574529647827
352,-1.718443562579038,-0.353839675700104,1.8035486919477821,-0.9278432130813599,0.3465021550655365,0.13799771666526794,-0.14484001696109772,0.09617015719413757,0.12841898202896118,-0.016752123832702637,-0.05695134401321411,-0.004208564758300781
353,-1.7128353215109824,-0.35881882465091275,1.8042493180833616,-0.9268829226493835,0.35116854310035706,0.1325460970401764,-0.02270764485001564,0.12255959957838058,-0.046318184584379196,-0.025051772594451904,-0.04188820719718933,0.07709440588951111
354,-1.7222034349694297,-0.3489334541734671,1.7846395995117448,-0.9289870858192444,0.34189572930336,0.14173999428749084,0.0034883078187704086,-0.012821691110730171,0.0333067886531353,0.06866610050201416,0.01914241909980774,-0.04907335340976715
355,-1.718831513146898,-0.36680005420204603,1.801086859289655,-0.9232702255249023,0.3586301803588867,0.13768370449543,0.02946477383375168,0.1929820030927658,0.20689190924167633,0.020911037921905518,0.02431964874267578,0.01406504213809967
356,-1.699360656102951,-0.3875208740388731,1.7730348450130795,-0.9182078838348389,0.3778942823410034,0.11870350688695908,-0.2620365023612976,0.06791864335536957,0.14171092212200165,0.0010477304458618164,-0.018015682697296143,0.06333388388156891
357,-1.6948266538697283,-0.3907466484217945,1.7474709124075136,-0.9175220727920532,0.38087889552116394,0.11438772082328796,-0.11400590091943741,0.11733026802539825,-0.014441831037402153,-0.016956686973571777,-0.02096983790397644,0.03740668296813965
358,-1.6909335139120572,-0.3819986650868993,1.731388642512043,-0.9212331175804138,0.3727758228778839,0.11120989918708801,-0.1902656853199005,0.1013050377368927,-0.09227525442838669,0.004256248474121094,-0.009250432252883911,0.04510115832090378
359,-1.6839800133275986,-0.37109344922700016,1.7178541158923135,-0.9259684085845947,0.36263465881347656,0.10525435954332352,-0.02511671930551529,0.24971845746040344,-0.10119425505399704,0.009861350059509277,-0.03275492787361145,0.004013761878013611
360,-1.6348543420991073,-0.3700009353480754,1.7350568503875126,-0.9304146766662598,0.361616313457489,0.059682175517082214,0.32083356380462646,0.4248789846897125,0.08207694441080093,0.022547364234924316,-0.0180952250957489,-0.02257276326417923
361,-1.598696488128316,-0.38404164417441944,1.7419103632108863,-0.9267971515655518,0.37467077374458313,0.025864502415060997,-0.10097841173410416,0.285581111907959,0.00993340089917183,-0.07031893730163574,0.021661043167114258,0.009230732917785645
362,-1.5914467324727282,-0.3896791171557317,1.7322349268346566,-0.9248336553573608,0.37989160418510437,0.01910090632736683,-0.14139345288276672,0.014605771750211716,0.13490045070648193,0.01794290542602539,8.270144462585449e-05,0.03369450569152832
363,-1.5905923978392482,-0.40276863155394244,1.7164556403564701,-0.9197992086410522,0.39196693897247314,0.018210789188742638,-0.1581140160560608,0.10072211176156998,0.08910229057073593,-0.030747175216674805,-0.006407797336578369,0.003105761483311653
364,-1.5838064767309703,-0.4109247359721552,1.6966933449404475,-0.9166741967201233,0.39945724606513977,0.011926742270588875,-0.34940826892852783,0.2096307873725891,0.1715656965970993,0.005419373512268066,-0.03693896532058716,-0.008676648139953613
365,-1.5830367454035208,-0.4138429263285247,1.6777217273864868,-0.9155134558677673,0.4021308124065399,0.01120682805776596,-0.1652069240808487,-0.005712438374757767,0.025150950998067856,-0.01287686824798584,-0.02377396821975708,-0.01230550091713667
366,-1.5833554519454351,-0.4173161376128218,1.6697665937776385,-0.9141077995300293,0.40530839562416077,0.011480998247861862,-0.0267411470413208,0.12755002081394196,0.04171241819858551,-0.026230156421661377,-0.05643150210380554,-0.03172945976257324
367,-1.5799854205310457,-0.4255120118200238,1.6856935521094891,-0.9107890725135803,0.41278719902038574,0.008369561284780502,0.30034205317497253,-0.20514577627182007,0.20230306684970856,-0.017052114009857178,-0.05275610089302063,-0.0353928804397583
368,-1.5787144695054889,-0.4313978494744335,1.708894445436529,-0.9083536267280579,0.4181409776210785,0.0071926238015294075,0.26255327463150024,-0.10593218356370926,0.09386508166790009,-0.04969990253448486,-0.052967727184295654,-0.04675865173339844
369,-1.5693054250065759,-0.43924667511142373,1.7495907968258677,-0.9050713777542114,0.42525777220726013,-0.0013493734877556562,0.3477076590061188,-0.09060801565647125,0.058049678802490234,-0.035221099853515625,-0.049799948930740356,-0.01749521493911743
370,-1.5679213157318568,-0.4417872597463614,1.7872214342979933,-0.9039852619171143,0.42755579948425293,-0.0025989748537540436,0.31706079840660095,-0.1033238098025322,-0.011481993831694126,-0.03597140312194824,-0.02412867546081543,-0.015833616256713867
371,-1.5689005840792465,-0.44296007648285957,1.812245271576595,-0.9034852385520935,0.4286157190799713,-0.001712777535431087,0.25055357813835144,-0.1141371801495552,0.05771588534116745,-0.016558706760406494,-0.02958318591117859,-0.054195404052734375
372,-1.5659893705945025,-0.44739710406249256,1.8449159807915922,-0.9015657901763916,0.4326202869415283,-0.0043338206596672535,0.227036714553833,-0.05566316470503807,0.023584919050335884,-0.025420844554901123,-0.051532089710235596,-0.019790291786193848
373,-1.5652955006896554,-0.44571012836669266,1.879000199953207,-0.9022911787033081,0.43109872937202454,-0.0049633970484137535,0.3706584572792053,-0.2158614546060562,-0.03664674609899521,0.014534831047058105,-0.016029179096221924,-0.012126445770263672
374,-1.5681574424359344,-0.44199715130085554,1.90338324510028,-0.9038960337638855,0.4277455508708954,-0.0023852826561778784,0.24106161296367645,-0.0626327246427536,0.037431105971336365,-0.0017130374908447266,0.034595757722854614,-0.03367125988006592
375,-1.563092205647321,-0.4494431489049203,1.9380534887099978,-0.9006622433662415,0.4344640374183655,-0.006938948296010494,0.15790390968322754,-0.20112819969654083,0.07136151194572449,0.03352069854736328,0.012252211570739746,0.06678390502929688
376,-1.5756912615921854,-0.46238505694080284,1.963002450465478,-0.8949803113937378,0.44608399271965027,0.004380905069410801,0.32284149527549744,-0.28037023544311523,0.126393660902977,-0.0034265518188476562,0.015784263610839844,0.03373551368713379
377,-1.5950471898884493,-0.4714381643018069,1.9928283738233734,-0.8906541466712952,0.45416805148124695,0.02160336636006832,0.2651323974132538,-0.3186050355434418,0.09542495012283325,0.002211153507232666,0.05784064531326294,0.01773381233215332
378,-1.609368105496935,-0.48171120659542294,2.025041636814016,-0.8855441808700562,0.4632963240146637,0.03417396545410156,0.32449257373809814,-0.28848135471343994,0.09594584256410599,0.023560047149658203,0.02411511540412903,0.02528953179717064
379,-1.6264584813248992,-0.4902866318758198,2.0613776310672183,-0.8808315992355347,0.4708787798881531,0.04907968267798424,0.3010803461074829,-0.32551655173301697,-0.00858624093234539,0.025057733058929443,0.039985448122024536,0.022529836744070053
380,-1.6393531957146503,-0.4931035827622937,2.089720295410109,-0.8787986636161804,0.473361998796463,0.060342252254486084,0.22283412516117096,-0.20827580988407135,0.03396877273917198,0.01768428087234497,0.0294455885887146,0.0003876611590385437
381,-1.6436097577860573,-0.49634392036749714,2.1217841674983577,-0.87699955701828,0.47621384263038635,0.06397043913602829,0.29433953762054443,-0.16415442526340485,0.004123242571949959,0.02568119764328003,0.012998223304748535,0.009775280952453613
382,-1.642213101162626,-0.4974951493730025,2.1548835268164606,-0.8765406608581543,0.47722581028938293,0.0627063512802124,0.29541096091270447,-0.13688437640666962,-0.020943358540534973,0.019378185272216797,0.03650712966918945,0.00017511844635009766
383,-1.637285630031627,-0.49762232654531996,2.1850642029601324,-0.8767785429954529,0.4773375689983368,0.05838245153427124,0.23093079030513763,-0.07857941836118698,-0.003914983011782169,0.03400498628616333,0.03403031826019287,0.02428961545228958
384,-1.6387103294387928,-0.49377265903061485,2.1965553503053616,-0.878521203994751,0.4739512801170349,0.05975579097867012,-0.0926903560757637,0.05799967050552368,-0.1507173776626587,-0.03807425498962402,0.029497206211090088,0.037106990814208984
385,-1.6406307831705627,-0.4778791672722976,2.1879675799048783,-0.8858078718185425,0.459896981716156,0.06196066737174988,-0.17541839182376862,0.030329100787639618,-0.17363694310188293,0.029011666774749756,0.030779898166656494,0.06630468368530273
386,-1.650407337385079,-0.4709767619944182,2.1636021918321475,-0.8883031010627747,0.4537569284439087,0.07086849212646484,-0.16302761435508728,0.02678798697888851,-0.032806821167469025,0.020154237747192383,0.018395841121673584,-0.001990310847759247
387,-1.6514066361376694,-0.4630680623588429,2.152427974415549,-0.8917810320854187,0.44669514894485474,0.07204285264015198,-0.019996050745248795,0.1548084020614624,-0.1618935912847519,0.010173976421356201,0.005010753870010376,0.03946840763092041
388,-1.6286606453939305,-0.45683896530278767,2.169183626601118,-0.8959494829177856,0.4411134421825409,0.0519014447927475,0.2010517120361328,0.15360696613788605,0.004447177052497864,-0.007782936096191406,0.030764639377593994,0.010461218655109406
389,-1.602423467558765,-0.46562166589005227,2.202364280140287,-0.893095850944519,0.44897836446762085,0.028255488723516464,0.5315592288970947,-0.07309094071388245,0.04442092403769493,0.001219630241394043,-0.006000488996505737,0.005283355712890625
390,-1.577579745673954,-0.4652643412654149,2.24122517249726,-0.8936823606491089,0.4486590623855591,0.006062314845621586,0.06357452273368835,0.12554745376110077,-0.1942322999238968,-0.05191999673843384,-0.03607672452926636,0.00844883918762207
391,-1.5656809349106207,-0.4471971282936243,2.26454125852101,-0.9016510248184204,0.43243998289108276,-0.004612338729202747,0.2711884379386902,0.028065431863069534,-0.15516267716884613,-0.01970517635345459,-0.015783488750457764,0.011814475059509277
392,-1.5498942124793593,-0.4278865281231481,2.2828819043557247,-0.9096460342407227,0.41494879126548767,-0.019016293808817863,0.2435017228126526,0.15014441311359406,-0.06270109862089157,0.05455881357192993,-0.03090032935142517,-0.02523416094481945
393,-1.5322233764669282,-0.4279463578152942,2.334065785151549,-0.9091432690620422,0.41500324010849,-0.03508574143052101,0.5497474670410156,-0.10531258583068848,0.006060700863599777,0.001962423324584961,-0.04686969518661499,-0.012353897094726562
394,-1.5199469745944354,-0.42357252492501707,2.389296241030572,-0.9104481339454651,0.411019891500473,-0.04633564129471779,0.49413350224494934,-0.1308903843164444,-0.026284921914339066,-0.027601182460784912,0.01592099666595459,-0.01982647180557251
395,-1.5060033229279242,-0.4172322613044251,2.4350221721574457,-0.9122957587242126,0.4052317142486572,-0.059193238615989685,0.2893122434616089,-0.05848236754536629,-0.06587224453687668,-0.005245804786682129,0.010066747665405273,0.06729567050933838
396,-1.5089071963232212,-0.4076031875328288,2.460314274814441,-0.9163159132003784,0.3964100182056427,-0.05678251013159752,0.18820610642433167,-0.12681259214878082,-0.1075780913233757,0.008234858512878418,0.018583238124847412,-0.00625157356262207
397,-1.507221666562625,-0.40160028012583965,2.47601711698701,-0.9185771346092224,0.39089179039001465,-0.05847703292965889,0.12260937690734863,-0.0038787969388067722,-0.02649395912885666,-0.0053119659423828125,0.020210444927215576,-0.019907351583242416
398,-1.499199908453507,-0.3968477292163321,2.4815474683295093,-0.9199212193489075,0.38651296496391296,-0.06597583740949631,-0.11550558358430862,0.12121175974607468,-0.09942548722028732,-0.0006720423698425293,-0.011848628520965576,0.029034316539764404
399,-1.4992828785701287,-0.3903103472981625,2.4647892184590994,-0.9224273562431335,0.3804754316806793,-0.06607864797115326,-0.04701092839241028,-0.0035521583631634712,-0.046572428196668625,0.004794299602508545,-0.009747922420501709,-0.017493724822998047
400,-1.5022613088857024,-0.3822674996674474,2.461087427210137,-0.9256430864334106,0.3730252683162689,-0.06353847682476044,-0.06459444761276245,-0.013381370343267918,-0.04208936542272568,-0.0058602094650268555,0.0001131892204284668,-0.00042641162872314453
401,-1.5040234054594654,-0.37799311463384677,2.4572659356035182,-0.9273358583450317,0.36905598640441895,-0.06201311573386192,-0.03734562173485756,-0.03022751398384571,-0.08672209829092026,-0.009614706039428711,-0.010581284761428833,0.017793182283639908
402,-1.5099099467707586,-0.3728199899246207,2.4500867381701634,-0.9295782446861267,0.36424314975738525,-0.05666869878768921,-0.05665047839283943,-0.016899501904845238,-0.06063913181424141,-0.0015131235122680664,0.0019220411777496338,-0.012224741280078888
403,-1.5182935612853523,-0.36759805973660126,2.4367488248052944,-0.9319072961807251,0.359375,-0.0489727184176445,-0.0697728618979454,-0.04425158351659775,-0.0009638111805543303,-0.007927238941192627,0.0109100341796875,-0.026802420616149902
404,-1.5222168440377386,-0.3340746275075879,2.4254759095603107,-0.9435996413230896,0.3278951048851013,-0.0458756759762764,-0.32974937558174133,-0.012127592228353024,-0.526532769203186,0.0150260329246521,-0.020400017499923706,0.0333482064306736
405,-1.5335180294435522,-0.31085540837198034,2.40496248399076,-0.9514106512069702,0.30587315559387207,-0.035483408719301224,-0.0363064706325531,-0.11178241670131683,-0.016430582851171494,0.03274017572402954,0.012791335582733154,-0.016503266990184784
406,-1.5337034960919862,-0.3157347968349202,2.4048679400821924,-0.9499146938323975,0.31051501631736755,-0.0352511927485466,-0.007737449370324612,0.05251257121562958,0.015549096278846264,0.013665914535522461,-0.03040945529937744,0.012958109378814697
407,-1.5313352805003295,-0.3212878717935457,2.407073102089753,-0.9480908513069153,0.31578880548477173,-0.03743208944797516,0.04150138050317764,0.062341202050447464,0.04277196153998375,-0.007078826427459717,-0.03092247247695923,-0.003491997718811035
408,-1.5238683377824067,-0.3235819501721674,2.414976765147584,-0.9470587968826294,0.317964643239975,-0.044476218521595,0.0954093188047409,0.03510430455207825,0.013693883083760738,-0.010872721672058105,-0.025728344917297363,-7.94529914855957e-05
409,-1.5204773418590307,-0.32295626023333,2.4210448095407755,-0.9471011757850647,0.3173713684082031,-0.04769743233919144,-0.04556842893362045,0.01780262403190136,0.004426269326359034,-0.0062986016273498535,-0.005390137434005737,0.021681182086467743
410,-1.519241546553605,-0.32270772411785603,2.415388240557134,-0.9471202492713928,0.31713566184043884,-0.048871882259845734,-0.004822305403649807,0.024701986461877823,0.054212674498558044,0.0025553107261657715,-0.007321208715438843,0.00777994841337204
411,-1.5161457014349475,-0.3286209216807303,2.415209981359501,-0.9450752139091492,0.32273805141448975,-0.05170043185353279,0.015976378694176674,0.026729265227913857,0.02979680337011814,-0.005989789962768555,-0.016662031412124634,-0.014461632817983627
412,-1.5103288331049847,-0.33073800780756485,2.4254612382505405,-0.9440742135047913,0.3247411251068115,-0.05715547874569893,0.1491539180278778,0.011535406112670898,0.061922587454319,0.010907888412475586,-0.03107050061225891,0.003719218075275421
413,-1.5071408389789585,-0.3366276563144832,2.4404302722569198,-0.9419623613357544,0.33030590415000916,-0.06004219129681587,0.1766040325164795,-0.048648443073034286,0.155656099319458,-0.028969645500183105,-0.012266933917999268,-0.024064302444458008
414,-1.5010861839578171,-0.3417365468705843,2.4585240155377037,-0.9398859143257141,0.3351237177848816,-0.06562592089176178,0.1744360327720642,-0.028639337047934532,-0.011345149949193,-0.02579718828201294,-0.026972442865371704,-0.005678363144397736
415,-1.5025508059738772,-0.33931133845848327,2.4699962526833277,-0.940788984298706,0.3328377604484558,-0.06430449336767197,0.03328033164143562,-0.10914988070726395,0.04369427263736725,-0.01747816801071167,0.006609231233596802,0.019413121044635773
416,-1.5158330070728805,-0.3392039962212432,2.4648418767117932,-0.941595733165741,0.3327365517616272,-0.05180540680885315,-0.09303346276283264,-0.024802634492516518,0.05867372453212738,0.006308317184448242,0.045330435037612915,-0.029844339936971664
417,-1.51355440319242,-0.3499832013390892,2.456124995529069,-0.9378397464752197,0.34288203716278076,-0.05374246463179588,-0.09178458154201508,-0.04212493076920509,0.12216903269290924,0.023014485836029053,-0.018083512783050537,0.010850023478269577
418,-1.522289553215733,-0.3604632865261626,2.4383610928828383,-0.9346328377723694,0.35270777344703674,-0.04537161439657211,-0.2057868242263794,0.01204131729900837,0.07353363931179047,-0.05703580379486084,0.002226918935775757,-0.021355029195547104
419,-1.5278879046719036,-0.35958395299191565,2.4325809924689743,-0.935181736946106,0.3518848121166229,-0.04015181586146355,0.04709897190332413,-0.14434179663658142,0.04829392582178116,0.03405869007110596,0.0382518470287323,0.018194440752267838
420,-1.54219917053925,-0.3689792502824093,2.43298882376078,-0.9323145747184753,0.3606635630130768,-0.026668816804885864,-0.0645056739449501,-0.07442845404148102,0.08654581755399704,0.007540464401245117,0.05695420503616333,0.018062829971313477
421,-1.55419698479192,-0.3839883361458284,2.431152835243363,-0.9270501732826233,0.37462133169174194,-0.015389836393296719,0.013987833634018898,-0.15691891312599182,0.10837291926145554,0.03193908929824829,0.03230005502700806,0.017785489559173584
422,-1.5704399589038367,-0.39548251042867016,2.4270052781094518,-0.9228107333183289,0.3852534890174866,-0.0003288601292297244,-0.15371182560920715,-0.07701104879379272,0.0581955723464489,-0.008005917072296143,0.01988258957862854,0.028176188468933105
423,-1.5852068963478128,-0.3996041824735236,2.4099810217979463,-0.9211195111274719,0.38905373215675354,0.013274774886667728,-0.12232085317373276,-0.0961289256811142,0.0012849888298660517,0.014259099960327148,0.01591452956199646,0.014404654502868652
424,-1.6001002751625457,-0.3993849188121818,2.390149552415064,-0.920904815196991,0.38885173201560974,0.026993874460458755,-0.199005126953125,-0.08360516279935837,-0.026328200474381447,0.027868926525115967,0.008761793375015259,-0.012940526008605957
425,-1.6141466627095065,-0.3997523178877729,2.3779977612483236,-0.9202919602394104,0.3891901969909668,0.03991997241973877,-0.0002608979120850563,-0.08611061424016953,0.0679129883646965,0.004810452461242676,0.035934895277023315,-0.03744805231690407
426,-1.621119218967494,-0.4056884576952751,2.365679859063445,-0.9176678657531738,0.3946514427661896,0.04621872305870056,-0.245308056473732,-0.11600777506828308,0.028801217675209045,0.029468894004821777,0.04062080383300781,0.04089367762207985
427,-1.6480345288820555,-0.41184357126978555,2.323636272169005,-0.9136523008346558,0.40029942989349365,0.07070952653884888,-0.5060592889785767,0.0024151518009603024,0.05867386236786842,-0.0027753114700317383,0.04472315311431885,0.012527227401733398
428,-1.6603800986239439,-0.4234954053111508,2.2783942562477866,-0.9080024361610413,0.41094955801963806,0.08156058192253113,-0.35653388500213623,0.11033698916435242,0.17705368995666504,0.007535457611083984,0.007782101631164551,0.015073299407958984
429,-1.6626182477750644,-0.4347164085455771,2.2359565215540402,-0.9031686186790466,0.4211532175540924,0.08316453546285629,-0.47182536125183105,0.21920357644557953,0.11516191810369492,-0.0032949447631835938,0.0031631886959075928,0.004298798739910126
430,-1.6651938787912934,-0.44044897084176987,2.1843312403751036,-0.900533139705658,0.4263456165790558,0.0852615237236023,-0.37192049622535706,0.1729094684123993,0.07464555650949478,0.01616424322128296,3.069639205932617e-05,-0.00432896614074707
431,-1.6645366972140856,-0.4455757008540692,2.1431033896162384,-0.8984007835388184,0.4309774339199066,0.08446396887302399,-0.3332395553588867,0.1854569911956787,0.10831861197948456,0.014703452587127686,0.014167100191116333,0.0006800740957260132
432,-1.6624131703946021,-0.4528291986918971,2.111939014651556,-0.8954417109489441,0.4375113248825073,0.08226785063743591,-0.3078556954860687,0.1822849065065384,0.0944269597530365,-0.003224670886993408,0.009159177541732788,0.02910614013671875
433,-1.6572792508003622,-0.45659747582650106,2.082384728782354,-0.8942033648490906,0.4408966898918152,0.07752670347690582,-0.2055438607931137,0.15517425537109375,-0.0020816174801439047,-0.011741459369659424,-0.01981520652770996,0.03311479091644287
434,-1.653698373855784,-0.44902432448062535,2.0580414551538864,-0.8977770805358887,0.43408676981925964,0.0745985358953476,-0.2152787148952484,0.12188119441270828,-0.07980569452047348,-0.017902791500091553,0.020182639360427856,0.012880079448223114
435,-1.644822036689397,-0.43750529721694686,2.0358751982961203,-0.9033308029174805,0.4236810505390167,0.06699211150407791,-0.19524885714054108,0.22323603928089142,-0.10968377441167831,0.02376842498779297,-0.0020501911640167236,0.003442525863647461
436,-1.634132777004495,-0.4324701297919471,2.02000540152754,-0.9061128497123718,0.4191147983074188,0.05746683478355408,-0.10798445343971252,0.181253582239151,0.006683230400085449,-0.025955021381378174,-0.015718191862106323,0.005567193031311035
437,-1.626423175452321,-0.42265611112987533,2.0051248111503592,-0.9105921387672424,0.41018426418304443,0.0507056824862957,-0.12705545127391815,0.16215620934963226,-0.05041956901550293,0.02115720510482788,-0.008405089378356934,0.0036919191479682922
438,-1.617314708447489,-0.4185282448082615,1.9937851556069277,-0.9126995205879211,0.4064161777496338,0.04248795658349991,-0.03875619173049927,0.13836343586444855,-0.06795574724674225,0.025736749172210693,-0.042021095752716064,0.024009820073843002
439,-1.6198937496733543,-0.4158261521397553,1.9814760821751025,-0.9136805534362793,0.40394580364227295,0.044895440340042114,-0.22409552335739136,0.01101662963628769,0.12513810396194458,-0.05818217992782593,0.02018749713897705,-0.0047190189361572266
440,-1.6175623414826352,-0.41816617174269893,1.9603763770763807,-0.9128361344337463,0.4060853123664856,0.04272085800766945,-0.0796724185347557,0.15709851682186127,-0.1476323902606964,-0.024343490600585938,-0.05040284991264343,0.0043525733053684235
441,-1.6218409133781861,-0.40391046593714724,1.9441192291770983,-0.9183333516120911,0.39301714301109314,0.04691670089960098,-0.23948927223682404,-0.004314259625971317,0.005596895702183247,-0.00863802433013916,-0.013332754373550415,-0.017513040453195572
442,-1.6255999511420545,-0.3990667390851639,1.9315784614619933,-0.9200406074523926,0.38855859637260437,0.05047209933400154,-0.09633773565292358,0.041340745985507965,-0.08503832668066025,0.011456072330474854,-0.03447842597961426,-0.03376365080475807
443,-1.6190635504171036,-0.39082190024809266,1.9214966710311112,-0.9235194325447083,0.3809484839439392,0.044610366225242615,-0.07080185413360596,0.08327475190162659,0.012727282010018826,0.004467368125915527,0.005602389574050903,-0.04190969094634056
444,-1.6089298785132038,-0.3967736023430243,1.9108493125734436,-0.921642005443573,0.3864445984363556,0.03516252711415291,-0.12558920681476593,0.06296302378177643,0.10295386612415314,-0.03171175718307495,-0.03562980890274048,-0.0036988332867622375
445,-1.607376599430906,-0.3998590476542497,1.89619247008419,-0.9204996228218079,0.3892885148525238,0.033687155693769455,-0.10245922207832336,0.07003764808177948,0.002114754170179367,-0.04126179218292236,-0.03327047824859619,-0.04983091726899147
446,-1.596019937313464,-0.3889963087125562,1.891866073902047,-0.9249958992004395,0.3792599141597748,0.023336684331297874,0.015500213019549847,0.028415106236934662,-0.06382530927658081,-0.008521556854248047,0.0021030306816101074,-0.008962869644165039
447,-1.5904871874483124,-0.3804608710806122,1.8913581056422788,-0.9283137321472168,0.37134841084480286,0.018281659111380577,-0.13863912224769592,0.07076063007116318,-0.06458523124456406,0.02567988634109497,0.015644997358322144,0.03358292579650879
448,-1.594955287498954,-0.378900767330342,1.8722216424572662,-0.9288005828857422,0.3698994219303131,0.022443223744630814,-0.17284029722213745,-0.024872545152902603,-0.05834706872701645,0.0029126405715942383,0.00716051459312439,0.009188173338770866
449,-1.5988330779703868,-0.37899672155590586,1.8465425428356326,-0.9286710023880005,0.3699885606765747,0.026043742895126343,-0.1894340217113495,0.10051992535591125,0.07807563245296478,0.0007689595222473145,0.006033718585968018,-0.029736405238509178
450,-1.5913629542438827,-0.38412293474153486,1.8307014994723374,-0.926931619644165,0.3747461438179016,0.019066546112298965,-0.1647869348526001,0.12808051705360413,-0.020208008587360382,-0.014276504516601562,-0.04898613691329956,0.018058065325021744
451,-1.5879455793231083,-0.37626228861003486,1.8194561801325004,-0.9299077391624451,0.36744681000709534,0.015948787331581116,-0.044457100331783295,0.04335852712392807,0.0037197500932961702,-0.0020532608032226562,-0.007781863212585449,-0.005450725555419922
452,-1.5837724446670558,-0.377330986907823,1.819208678311512,-0.9295729994773865,0.36844053864479065,0.012062925845384598,0.06804756820201874,0.011449113488197327,0.03702675178647041,-0.01322174072265625,-0.01417723298072815,-0.0037163496017456055
453,-1.5830172370327906,-0.3786232698023626,1.830370626506353,-0.9291051626205444,0.36964160203933716,0.011355075985193253,0.12598218023777008,-0.028972411528229713,0.048236485570669174,0.0004703998565673828,-0.009457826614379883,-0.016787171363830566
454,-1.578825257325509,-0.3841261638032276,1.8542146940652726,-0.9270963668823242,0.3747491240501404,0.0074437521398067474,0.26133498549461365,-0.09064145386219025,0.06157353147864342,-0.01806354522705078,-0.02225586771965027,-0.010373353958129883
455,-1.5727269908892214,-0.3904318805236348,1.8868146532285273,-0.9247430562973022,0.3805878162384033,0.001785370404832065,0.32766851782798767,-0.07309271395206451,0.12488425523042679,0.007766127586364746,-0.01654362678527832,-0.00801098346710205
456,-1.5691073980949857,-0.4019608872975966,1.9224128556105635,-0.9202945232391357,0.3912236988544464,-0.0015543133486062288,0.31450071930885315,-0.1136198565363884,0.08023034781217575,-0.03280007839202881,-0.025760382413864136,0.001569628482684493
457,-1.5689932722283755,-0.40902542146515003,1.952856238112423,-0.917507529258728,0.39771533012390137,-0.0016543178353458643,0.25298699736595154,-0.16130338609218597,0.09977517277002335,-0.028140783309936523,-0.03257244825363159,-0.018624603748321533
458,-1.569900686926813,-0.4182273681143521,1.992015942327873,-0.9138098955154419,0.4061412513256073,-0.0008184447651728988,0.5229287147521973,-0.1811472326517105,0.09206703305244446,-0.021523237228393555,-0.03262138366699219,-0.04918462038040161
459,-1.5660177604376404,-0.42813490719867625,2.052113145962435,-0.9097311496734619,0.41517478227615356,-0.004347243811935186,0.5063921809196472,-0.28038808703422546,0.0596950463950634,-0.018277764320373535,-0.04437100887298584,-0.0021987552754580975
460,-1.5668556412263355,-0.4301677923197959,2.110149210903822,-0.9088888168334961,0.41702330112457275,-0.0035816633608192205,0.5747948884963989,-0.20129629969596863,-0.012145349755883217,0.022978782653808594,-0.009308457374572754,-0.022159934043884277
461,-1.567388023870264,-0.4286586936304251,2.1620418046510554,-0.9095188975334167,0.41565123200416565,-0.0030999279115349054,0.40955138206481934,-0.22555212676525116,0.0248829647898674,0.03786051273345947,0.07780277729034424,0.005815982352942228
462,-1.57200555214848,-0.43492072569954365,2.200828695437912,-0.9069027304649353,0.4213384985923767,0.0010966502595692873,0.21242362260818481,-0.18067632615566254,0.0983922928571701,0.018459796905517578,0.04927298426628113,0.06294441223144531
463,-1.585827712376913,-0.43929717151154857,2.222061228590942,-0.9049485921859741,0.42530348896980286,0.01360365655273199,0.24294601380825043,-0.22697728872299194,-0.032666634768247604,-0.012562394142150879,0.0069780051708221436,-0.022499561309814453
464,-1.602003648091874,-0.4362040056613307,2.2555607265185658,-0.9059207439422607,0.42250198125839233,0.02828054130077362,0.3208276331424713,-0.3608122169971466,0.006834990344941616,0.009314298629760742,0.06907519698143005,0.03476881980895996
465,-1.6308321267691923,-0.43731292984106374,2.2829333407978543,-0.9042608737945557,0.42350679636001587,0.054353341460227966,0.24634946882724762,-0.5376034379005432,-0.003552887588739395,0.027551889419555664,0.05738916993141174,0.06570279598236084
466,-1.6737075388516103,-0.4384220692060465,2.303246325724364,-0.9006322622299194,0.4245113134384155,0.09301374852657318,0.08605466783046722,-0.3604612946510315,-0.046029482036828995,0.02511352300643921,0.041629403829574585,-0.012859351933002472
467,-1.6907985328212516,-0.4316708800598312,2.326555183517212,-0.9017359614372253,0.4183889925479889,0.10873274505138397,0.26720625162124634,-0.183206707239151,-0.14460553228855133,0.018893003463745117,0.08566981554031372,-0.031157024204730988
468,-1.7058286576803665,-0.419112390837849,2.330186964188136,-0.905135452747345,0.40694981813430786,0.12297086417675018,-0.27805453538894653,-0.13644172251224518,-0.07446649670600891,0.0836479663848877,0.09305018186569214,0.0554654598236084
469,-1.731670238517916,-0.406962651513248,2.2730841222819507,-0.9064695239067078,0.39582186937332153,0.14709848165512085,-0.7128981351852417,0.10821106284856796,-0.006063329987227917,0.006948709487915039,0.04076254367828369,0.0006218999624252319
470,-1.7268902742244172,-0.40065222951953866,2.2172386025417263,-0.909611701965332,0.3900189995765686,0.14314940571784973,-0.28244632482528687,0.32265505194664,0.03706732019782066,0.01689624786376953,-0.022022783756256104,-0.020926475524902344
471,-1.7133226459138562,-0.4053358598150388,2.2240169361339572,-0.909652054309845,0.39432743191719055,0.13053444027900696,0.39578238129615784,-0.07193882018327713,0.018479349091649055,-0.007660567760467529,-0.012109994888305664,-0.02791905403137207
472,-1.7025124894699335,-0.4123312390596795,2.2619493375222657,-0.908253014087677,0.40074625611305237,0.12032827734947205,0.2373964637517929,0.02469053491950035,0.03524484112858772,0.045276939868927,0.008524954319000244,0.061983704566955566
473,-1.6909401235404824,-0.42325226243505354,2.2975302527748274,-0.9051855802536011,0.4107278883457184,0.10927873104810715,0.5179916620254517,-0.09498190879821777,0.06941629946231842,0.024265050888061523,-0.017279982566833496,0.008976832032203674
474,-1.6790987512993751,-0.43056760853619414,2.335003150601492,-0.9034046530723572,0.4173866808414459,0.09822525829076767,0.32259896397590637,-0.017830826342105865,0.018275447189807892,0.02381187677383423,-0.0050637125968933105,0.023616179823875427
475,-1.6731735299032553,-0.43388629162882897,2.3592255626607623,-0.9025881290435791,0.42040014266967773,0.0927286446094513,0.09355129301548004,0.026065658777952194,-0.00742335757240653,-0.058517277240753174,-0.014180600643157959,0.11686611920595169
476,-1.677025449261309,-0.43000758483418833,2.3801185282008053,-0.9038387537002563,0.4168776869773865,0.09637679159641266,0.385606974363327,-0.07351651787757874,-0.11732630431652069,-0.03204381465911865,0.005546599626541138,0.060086846351623535
477,-1.6671046438248445,-0.418554968013764,2.415190337361684,-0.9094433784484863,0.4064405858516693,0.08785876631736755,0.4344679117202759,-0.08856409788131714,-0.11672497540712357,0.022709250450134277,0.037193506956100464,-0.019987575709819794
478,-1.6559870272810067,-0.42312796921249124,2.4800442237818268,-0.9085022807121277,0.41061457991600037,0.07758372277021408,0.646101713180542,-0.22314253449440002,0.06805542856454849,0.03040480613708496,0.032943129539489746,-0.04198504239320755
479,-1.6386698259309935,-0.43827911010003234,2.5594647757499494,-0.903398334980011,0.4243818521499634,0.061411138623952866,0.8324766755104065,-0.11197016388177872,0.017473924905061722,-0.025709211826324463,-0.0019728243350982666,-0.04009461775422096
480,-1.6208128829132975,-0.431321963839583,2.633964047487978,-0.9072778820991516,0.41807204484939575,0.04541679471731186,0.531802773475647,-0.07744580507278442,-0.24691437184810638,-0.021463632583618164,0.0054814815521240234,0.007576946169137955
481,-1.6101262246339068,-0.40037371105122965,2.681970980531125,-0.9202032685279846,0.3897625207901001,0.03621017560362816,0.2491314858198166,-0.09018097817897797,-0.3613114058971405,0.05815798044204712,0.0352710485458374,-0.03744614124298096
482,-1.605235522149284,-0.3741116394433426,2.6881634420005622,-0.9302806854248047,0.3654457628726959,0.03205079212784767,-0.07857396453619003,0.10251668840646744,-0.06571421027183533,0.05189323425292969,0.06653055548667908,-0.07192206382751465
483,-1.5832880687315958,-0.36949039523213756,2.669635812588743,-0.9324387907981873,0.36114028096199036,0.01164839044213295,-0.28676682710647583,0.24396736919879913,-0.10141737014055252,-0.00030046701431274414,0.0024919509887695312,-0.03548264503479004
