,attitude.roll,attitude.pitch,attitude.yaw,gravity.x,gravity.y,gravity.z,rotationRate.x,rotationRate.y,rotationRate.z,userAcceleration.x,userAcceleration.y,userAcceleration.z
0,-1.227605458825621,0.08850490412641455,1.5403350183970599,-0.9380000233650208,-0.08838940411806107,-0.33517658710479736,-0.2503797709941864,0.03759806230664253,-0.1963157057762146,-0.04504740238189697,0.013316124677658081,-0.027295947074890137
1,0.760986137646661,0.4135008947418476,0.49447640447401514,0.631513237953186,-0.4018176198005676,-0.6631242036819458,0.8118817210197449,0.2286895513534546,0.22425304353237152,0.07800525426864624,0.09310179948806763,-0.0267256498336792
2,0.7223187019303051,0.42069802922591926,0.5247718441250879,0.6034786105155945,-0.40839770436286926,-0.6848539113998413,-0.2614479064941406,-0.6269999146461487,-0.035863086581230164,0.022574245929718018,0.02401357889175415,0.03626382350921631
3,0.7369409245894991,0.46726584896655665,0.4768559554093828,0.599986732006073,-0.4504469037055969,-0.6611455678939819,1.5682038068771362,0.7348832488059998,-0.16808493435382843,0.134266197681427,0.0070112645626068115,0.03213256597518921
4,0.7468873558674765,0.46893103855334145,0.4489957841277426,0.6060225963592529,-0.45193296670913696,-0.6545939445495605,-0.7817550897598267,-0.888065755367279,-0.14522820711135864,0.12667393684387207,0.07456785440444946,0.03453779220581055
5,0.7852469072114674,0.46348780050412786,0.5735837915440841,0.6324103474617004,-0.4470706582069397,-0.6326016783714294,-0.9018128514289856,2.093005418777466,1.970137357711792,0.11314934492111206,0.016635477542877197,0.3002653121948242
6,0.8792638846173977,0.47737542059576005,0.7134454054347455,0.6841564774513245,-0.4594495892524719,-0.5664238929748535,0.4323103427886963,0.9962641000747681,-0.9838476777076721,-0.021909773349761963,0.3437727093696594,0.4229912757873535
7,1.216488242821111,0.5014311044625049,0.509957482823665,0.8224287033081055,-0.4806809723377228,-0.3042314648628235,2.505812644958496,2.757514238357544,-0.7669211626052856,-0.10335832834243774,0.46439987421035767,0.3052996098995209
8,1.6227746571100248,0.29205559378861523,0.2375013069649766,0.9563606977462769,-0.28792136907577515,0.04975484684109688,1.5553593635559082,2.5763261318206787,-3.1554720401763916,0.38499367237091064,0.26159998774528503,-0.3272054195404053
9,1.7007561547530436,-0.014591921474342559,0.2538629583974103,0.9914615154266357,0.014591403305530548,0.1295805126428604,-3.7187280654907227,-1.1112760305404663,-4.230690956115723,0.506753146648407,-0.09357089549303055,-0.5484189987182617
10,1.6087910040592113,-0.25915891997525037,0.5440424967983143,0.9659082293510437,0.25626763701438904,0.03671703860163689,-0.849930465221405,-1.28390371799469,-0.9896133542060852,0.311969518661499,-0.4670220911502838,-0.3317457437515259
11,1.529973365347095,-0.38006604951420936,0.565725334744083,0.9278662800788879,0.3709818124771118,-0.03789930418133736,0.06025401130318642,-0.5452439188957214,-0.9064924716949463,0.28235387802124023,-0.5895792841911316,0.10032302886247635
12,1.534936531374907,-0.4553231609360936,0.52947850014787,0.8975415825843811,0.43975257873535156,-0.03219946101307869,1.0673726797103882,1.2102141380310059,-0.47950780391693115,0.3887590765953064,-0.46865272521972656,0.0387302041053772
13,1.546390778050889,-0.38128464949575874,0.355511493126627,0.9279109835624695,0.3721131682395935,-0.022650673985481262,1.2246426343917847,-0.3854968547821045,1.2466984987258911,0.14484292268753052,0.017779409885406494,-0.27507883310317993
14,1.5141127659363787,-0.2724640640176955,0.26911084500955285,0.9615638256072998,0.2691054046154022,-0.054563313722610474,1.8662444353103638,0.8807806372642517,0.7025724053382874,-0.07888871431350708,0.1949753761291504,-0.11961579322814941
15,1.5236335864452988,-0.13980289710483132,0.025760659379553037,0.9891422986984253,0.13934794068336487,-0.04668528214097023,2.624037742614746,0.6064649820327759,1.2619961500167847,-0.039420127868652344,0.30407243967056274,0.06119639053940773
16,1.5634214974108072,-0.03174237757403086,-0.18336472845474241,0.999468982219696,0.03173704817891121,-0.007371046580374241,1.470358967781067,0.6274238228797913,0.5542968511581421,-0.03760075569152832,0.4163372814655304,0.03378403186798096
17,1.5712572116114794,-0.011998043216022929,-0.322611033406666,0.999927818775177,0.011997755616903305,0.000460851559182629,1.4985151290893555,-0.08810947090387344,-0.3725338876247406,-0.07727473974227905,0.3052782416343689,0.01423335075378418
18,1.5644095697716516,-0.06295117782570737,-0.4628279438049394,0.9979989528656006,0.06290961056947708,-0.006374063435941935,0.9945876002311707,-0.12085060775279999,-0.48208892345428467,-0.028135061264038086,0.08890008926391602,0.0635029673576355
19,1.5572051912967055,-0.11768630475037482,-0.5588349094467827,0.9929912686347961,0.11741483211517334,-0.013496709987521172,1.0273287296295166,0.05213705822825432,-0.017493491992354393,0.026463687419891357,-0.00460660457611084,0.005852043628692627
20,1.5636377643556456,-0.1141836129295344,-0.6454777291694651,0.9934628009796143,0.11393565684556961,-0.007111886981874704,0.6171838641166687,-0.0783536285161972,-0.15794318914413452,0.007941126823425293,0.08780080080032349,-0.13035452365875244
21,1.5691291274890482,-0.13773899238622273,-0.7367127826753997,0.9905277490615845,0.13730387389659882,-0.001651408732868731,0.9938611388206482,0.35902777314186096,-0.35998332500457764,0.13953828811645508,0.10372395813465118,-0.10403096675872803
22,1.5065145693645878,-0.13116663388110633,-0.7512172614622218,0.9893624186515808,0.1307908445596695,-0.06368570029735565,-0.20024283230304718,-1.5385076999664307,0.9794058799743652,-0.034284234046936035,0.05902852118015289,-0.11415547877550125
23,1.3717386777368072,-0.08401913118236234,-0.7093154008464353,0.976795494556427,0.08392031490802765,-0.1970481276512146,-0.952452540397644,-1.0288480520248413,0.47494614124298096,-0.2535136342048645,-0.08273014426231384,0.1306418776512146
24,1.3400352948152463,-0.05231322033135267,-0.5742361912353908,0.9721607565879822,0.052289362996816635,-0.22840553522109985,-0.9858101010322571,0.2631223499774933,0.1546688973903656,-0.09821367263793945,0.10039007663726807,-0.13113725185394287
25,1.4213397515398989,-0.12349747005218531,-0.5647466832093799,0.9813209772109985,0.12318378686904907,-0.14776673913002014,0.9010632634162903,1.3289872407913208,-1.182888150215149,0.22647321224212646,-0.005004465579986572,-0.05912715196609497
26,1.4562753761100828,-0.1424694313592978,-0.7357218622315848,0.9833844900131226,0.14198796451091766,-0.11311305314302444,1.3565442562103271,0.386971116065979,0.1731383502483368,0.004637479782104492,-0.07729066908359528,0.29441797733306885
27,1.5299192321512767,-0.14810705012118922,-0.7318448273268368,0.9882259964942932,0.14756616950035095,-0.04041832312941551,-1.041391372680664,0.7319123148918152,-0.037835102528333664,0.06955903768539429,-0.0017226636409759521,-0.01735144853591919
28,1.589580609603936,-0.13164393822379536,-0.6602920252598811,0.9911726117134094,0.13126403093338013,0.018620656803250313,0.13469204306602478,0.21498508751392365,0.17701533436775208,0.08969902992248535,0.06749695539474487,-0.17293286323547363
29,1.6291968150676757,-0.10933132750999185,-0.7275339010773938,0.9923346638679504,0.1091136485338211,0.05801880359649658,0.9158957004547119,0.5671880841255188,0.25873953104019165,0.04234856367111206,-0.024869859218597412,0.009882807731628418
30,1.702796282919137,-0.07593353384738984,-0.7989208516704666,0.9884440898895264,0.07586058229207993,0.1312377005815506,0.8041785359382629,1.0518375635147095,0.3808884024620056,0.0011035799980163574,0.12882080674171448,-0.02329707145690918
31,1.7397291766129697,-0.05768062164011103,-0.8883687791031427,0.9841252565383911,0.05764864385128021,0.16785086691379547,0.8714694380760193,0.2755095660686493,0.3948138356208801,-0.09379029273986816,0.1302022933959961,-0.002125158905982971
32,1.7683843455629888,-0.037063320953154,-0.9714987947628982,0.9798694849014282,0.03705483675003052,0.19617003202438354,0.6408200263977051,0.22918769717216492,0.20212970674037933,-0.134563148021698,0.17696496844291687,-0.04515375196933746
33,1.780017653324849,-0.043712955047749226,-1.0298833678749328,0.9772585034370422,0.04369903355836868,0.20749986171722412,0.5565878748893738,0.12516306340694427,0.02681465819478035,-0.018609821796417236,0.14200043678283691,0.008183106780052185
34,1.771844175736364,-0.03645351389964626,-1.0395794351750782,0.9792068600654602,0.03644544258713722,0.19956350326538086,-0.06446751207113266,-0.10214212536811829,0.01899285800755024,-0.061695873737335205,0.10660570859909058,0.06757211685180664
35,1.7527966407364421,-0.04036288724402928,-0.96185497914819,0.9826827049255371,0.040351927280426025,0.1808498203754425,0.0886625349521637,-0.23867565393447876,0.2253376990556717,-0.02296578884124756,-0.04161840304732323,0.07027937471866608
36,1.7241964209172678,-0.043898043621147624,-0.8909135814677752,0.9873052835464478,0.04388394579291344,0.15265198051929474,-0.2726115882396698,-0.24729092419147491,-0.354240357875824,-0.020264148712158203,-0.015365269035100937,0.050534024834632874
37,1.693759037265057,-0.06063776013143767,-0.8440201457063067,0.9906256198883057,0.060600608587265015,0.12242766469717026,0.18897363543510437,-0.26529428362846375,-0.04435934126377106,-0.053156137466430664,-0.023704856634140015,0.06684231758117676
38,1.6775229736455322,-0.0801198361348445,-0.8048048939875146,0.9911205172538757,0.08003414422273636,0.10618244111537933,-0.07963290810585022,-0.07970073819160461,-0.20403960347175598,0.05491530895233154,0.020353443920612335,0.059146538376808167
39,1.6712551199976717,-0.09070421736276076,-0.7485026339394495,0.9908682703971863,0.09057989716529846,0.09987764805555344,-0.13353224098682404,-0.25288209319114685,0.002034256234765053,0.12610572576522827,0.014858342707157135,0.015722885727882385
40,1.6486917514005102,-0.06511934774108298,-0.7060179840516414,0.9948545098304749,0.06507333368062973,0.0776517316699028,-0.07404845207929611,-0.03765926882624626,0.17443284392356873,-0.1113097071647644,0.14911428093910217,0.0036013051867485046
41,1.6644558016967708,-0.0623173258144956,-0.6692064742451769,0.9936845302581787,0.06227700039744377,0.09334105998277664,0.08043602108955383,0.16456015408039093,0.1197737455368042,-0.042146503925323486,0.12650474905967712,-0.10365606099367142
42,1.642531876065084,-0.06574013644423692,-0.6612464180108863,0.9952734708786011,0.06569279730319977,0.07151921093463898,0.2552753984928131,-0.2596133053302765,-0.038558054715394974,0.02613455057144165,0.12041863054037094,-0.09474314004182816
43,1.60019880848652,-0.09091058318928075,-0.628915805674525,0.9954399466514587,0.09078540652990341,0.02927684225142002,-0.20134888589382172,-0.7778379321098328,-0.17537817358970642,0.07363647222518921,-0.0192369744181633,-0.10930919647216797
44,1.5444413712150609,-0.08131823314305615,-0.5915748095307908,0.9963494539260864,0.08122864365577698,-0.026264827698469162,-0.13800965249538422,-0.39022907614707947,0.20440301299095154,-0.010005950927734375,0.01537475734949112,-0.024531666189432144
45,1.47861117496584,-0.08952802281741412,-0.5336445485158242,0.9917659759521484,0.08940847218036652,-0.09168596565723419,-0.605282187461853,-0.9811534881591797,-0.4150315523147583,0.04554170370101929,0.05234568566083908,-0.14145302772521973
46,1.3731569660926402,-0.14495230335799256,-0.459261260926971,0.9702497124671936,0.1444452404975891,-0.1942959576845169,-0.44454437494277954,-0.8994073867797852,-0.04889313131570816,0.012233138084411621,0.0037786364555358887,-0.021417483687400818
47,1.3637803686008163,-0.13114940348250806,-0.4603697180782571,0.9702442288398743,0.13077376782894135,-0.20377536118030548,0.48786258697509766,0.23243679106235504,-0.17676223814487457,0.03532522916793823,0.07857683300971985,-0.0003109574317932129
48,1.3754852099143668,-0.13076772551801522,-0.4473980613088862,0.9726117849349976,0.13039535284042358,-0.192414790391922,0.069463349878788,0.3091570734977722,-0.03865828737616539,0.03056204319000244,0.02429826557636261,0.08758687973022461
49,1.4293295386771288,-0.10766865630174874,-0.4479479226518116,0.9842773675918579,0.10746075212955475,-0.14017893373966217,-0.07426201552152634,0.6757552027702332,0.897737443447113,0.07094413042068481,-0.025093823671340942,-0.017123863101005554
50,1.4302279359280645,-0.04070401579211942,-0.35545369787807474,0.9893163442611694,0.0406927764415741,-0.13998986780643463,-1.1846556663513184,-1.2808806896209717,-1.4284864664077759,-0.3229650855064392,0.1959863007068634,-0.21418190002441406
51,1.3958216573877809,-0.17502632551696065,-0.2805514374463925,0.9696861505508423,0.1741340607404709,-0.17142353951931,0.045442674309015274,0.4492344558238983,-0.0970277413725853,-0.06973809003829956,-0.06329423189163208,-0.038934096693992615
52,1.4151192112821298,-0.17866667859102217,-0.25589150659442395,0.9721807837486267,0.1777176409959793,-0.15258091688156128,-0.411979615688324,-0.8133108615875244,-0.024654757231473923,0.18260431289672852,-0.08662267029285431,-0.17183618247509003
53,1.392962950603321,-0.16195070646780457,-0.20735297270888453,0.9713501930236816,0.16124369204044342,-0.17458274960517883,-0.2844221889972687,0.35372212529182434,0.510662317276001,0.034799039363861084,-0.09907940030097961,0.18100674450397491
54,1.4357617385737245,-0.11210192966554035,-0.18430202588446384,0.9846769571304321,0.11186728626489639,-0.13377955555915833,0.14019861817359924,0.7193677425384521,0.6014367938041687,0.004718124866485596,-0.03615318238735199,-0.029199525713920593
55,1.4716044473110057,-0.09239990542986737,-0.18175786032902927,0.9908397197723389,0.09226848185062408,-0.09860686212778091,0.10816846042871475,0.19608816504478455,-0.17065225541591644,-0.025782346725463867,-0.08117534220218658,-0.1007034182548523
56,1.5077196029899387,-0.07363403471675128,-0.21691393182683757,0.9953069090843201,0.07356750965118408,-0.06286409497261047,0.46171343326568604,0.6367266774177551,0.45632898807525635,0.06899356842041016,-0.13046754896640778,-0.05978601425886154
57,1.5364112792026148,-0.019576277799674822,-0.19637402107376253,0.9992173314094543,0.019575027748942375,-0.03437168151140213,-0.16654489934444427,-0.12436647713184357,0.28742069005966187,0.03636610507965088,0.026216594502329826,-0.004141505807638168
58,1.5639984090176369,0.012126258201986791,-0.22576489282069948,0.9999034404754639,-0.012125961482524872,-0.006797366309911013,0.6727704405784607,0.318347692489624,0.3679143488407135,-0.018732786178588867,0.07282542437314987,0.03417164087295532
59,1.6008671992169683,0.04119110834559889,-0.27746291783570826,0.9987000823020935,-0.041179459542036057,0.030040837824344635,0.47519057989120483,0.46863308548927307,0.21107302606105804,-0.035305917263031006,0.18603114783763885,0.035404086112976074
60,1.6468856025760337,0.07737591676651957,-0.3127876817882918,0.9941232800483704,-0.07729873061180115,0.07578843832015991,0.030714882537722588,0.5511181950569153,0.5948754549026489,-0.03143101930618286,0.23913344740867615,0.08389472961425781
61,1.6835198029858967,0.13517470639916368,-0.2712658737222692,0.984589159488678,-0.1347634196281433,0.11145880073308945,-0.8605204820632935,0.21469374001026154,0.42321059107780457,-0.04658561944961548,0.3296181559562683,0.11321163177490234
62,1.6995304033788392,0.12473179663404332,-0.18794985947024143,0.984020471572876,-0.12440861761569977,0.12738141417503357,-0.7544643878936768,0.280594140291214,-0.6513912081718445,0.015231728553771973,0.17856207489967346,0.007201060652732849
63,1.7147981335977593,0.08288288773267886,-0.09987182241531799,0.9862521886825562,-0.08278802782297134,0.14301198720932007,-0.9231078028678894,0.18211542069911957,-0.43214720487594604,0.08740180730819702,0.07633356004953384,-0.05963791906833649
64,1.712527172365569,0.06132797718867388,-0.01218034900389113,0.988111674785614,-0.06128954142332077,0.1409912258386612,-0.8153471946716309,0.19599202275276184,-0.20017045736312866,-0.00283658504486084,0.028361085802316666,-0.0012971460819244385
65,1.7177898381324017,0.06591705395773372,0.10901667918787651,0.987067461013794,-0.06586933135986328,0.14614664018154144,-1.4945363998413086,0.1143740639090538,-0.32528865337371826,-0.025702834129333496,0.10772418975830078,-0.05677594244480133
66,1.6970554066305794,0.05728800620802004,0.25131852157375406,0.9904123544692993,-0.05725667625665665,0.12571729719638824,-1.2448971271514893,-0.20380185544490814,-0.23762714862823486,-0.026743650436401367,0.008947357535362244,0.017791613936424255
67,1.6735969182046293,0.050273933851145425,0.39383625727774374,0.9934638738632202,-0.0502527579665184,0.10248997062444687,-1.4526044130325317,-0.12817639112472534,-0.1561460793018341,0.019521355628967285,-0.017007991671562195,0.05038774013519287
68,1.657218741048523,0.057125102237039094,0.4882854863260387,0.9946426749229431,-0.057094037532806396,0.08617407083511353,-1.002059817314148,-0.05149879679083824,-0.0961342379450798,-0.023817598819732666,7.196515798568726e-05,0.04943083971738815
69,1.6541316746868493,0.059124866532579326,0.5677375149302221,0.994788408279419,-0.059090424329042435,0.08309348672628403,-0.8103869557380676,0.028844578191637993,0.04853343591094017,0.00626450777053833,-0.0011970624327659607,0.029943592846393585
70,1.6521433262417897,0.07328524515680328,0.6382334571672191,0.9940178394317627,-0.0732196643948555,0.081039197742939,-0.8340955376625061,0.04647138714790344,-0.04533142223954201,-0.01371699571609497,0.10892526060342789,0.003936998546123505
71,1.6665161979348757,0.05523116963285217,0.7113540775460393,0.9939046502113342,-0.05520309507846832,0.09542804956436157,-0.6365046501159668,0.27424895763397217,-0.30634886026382446,-0.025917470455169678,0.027142159640789032,-0.000548824667930603
72,1.6880202488747034,0.02452389065411294,0.7922783107850128,0.9928385615348816,-0.02452143281698227,0.11692047864198685,-0.9937459230422974,0.3082740902900696,-0.35862934589385986,0.030919373035430908,0.07424980401992798,-0.06702423095703125
73,1.7098616508784303,-0.00015045333622427942,0.898297120315653,0.9903459548950195,0.00015045332838781178,0.13861751556396484,-1.095216989517212,0.2085607647895813,-0.24199216067790985,0.008952081203460693,0.016634225845336914,-0.10986997187137604
74,1.7181705465132924,-0.009096313109517173,1.0177436083374012,0.9891192317008972,0.00909618753939867,0.14683526754379272,-1.1287431716918945,0.08221139758825302,-0.4800042510032654,-0.004133820533752441,0.04842942953109741,-0.1205291748046875
75,1.707922071334626,-0.04026272923627337,1.1295308646610682,0.989810049533844,0.040251851081848145,0.13658560812473297,-1.0481350421905518,-0.3396667242050171,-0.3705397844314575,0.034649670124053955,-0.06095803156495094,-0.13992728292942047
76,1.531376336012392,-0.05034810082377002,1.256473114524882,0.9979569315910339,0.05032683163881302,-0.039359841495752335,-1.610337257385254,-3.7252421379089355,0.010508096776902676,0.09863120317459106,-0.1804232895374298,-0.13686394691467285
77,1.3908654563462441,-0.11785689316845623,1.453684245876094,0.9770309329032898,0.1175842359662056,-0.1777200847864151,-1.4997940063476562,-0.030129991471767426,-0.10241448134183884,-0.00672459602355957,-0.07434086501598358,0.0685434490442276
78,1.3992837633517166,-0.12309893092721814,1.562671596796394,0.9778716564178467,0.12278827279806137,-0.16938140988349915,-1.0850759744644165,0.054618533700704575,0.21297213435173035,0.10931700468063354,-0.012345142662525177,0.04140593111515045
79,1.403091607101876,-0.10926290789140361,1.6759466998527284,0.9800909161567688,0.10904563218355179,-0.1659243255853653,-1.170320987701416,0.21490833163261414,0.1546909660100937,-0.0844915509223938,0.008431792259216309,0.1940615177154541
80,1.4602972934449436,-0.12181768703890967,1.7730361240766643,0.9865357875823975,0.1215166226029396,-0.1094571053981781,-0.733549952507019,0.3256789743900299,0.11081144213676453,0.043325603008270264,-0.04821342974901199,-0.05573456734418869
81,1.4997133875430553,-0.11967060420385817,1.8485126846588442,0.9903406500816345,0.11938517540693283,-0.07051513344049454,-0.595817506313324,0.3388186991214752,-0.14751200377941132,-0.028701364994049072,-0.054092809557914734,-0.14899778366088867
82,1.503321766600022,-0.12288810677259594,1.8827695597204146,0.9902003407478333,0.12257903814315796,-0.06691491603851318,-0.22985534369945526,0.07501840591430664,0.03464316576719284,-0.07239949703216553,-0.04721589386463165,-0.03759252279996872
83,1.5272673883770496,-0.12657469192592238,1.8855852177144163,0.9910605549812317,0.12623699009418488,-0.043167080730199814,0.06260726600885391,0.13511697947978973,0.13609281182289124,0.054059743881225586,-0.11203104257583618,-0.0644683837890625
84,1.5370546755817038,-0.08596236223142913,1.8235504345893856,0.9957404732704163,0.08585653454065323,-0.03361068293452263,0.46636927127838135,0.3667672872543335,0.4428867697715759,0.029207706451416016,-0.03266435116529465,0.19538438320159912
85,1.57567645506797,-0.045289552660009516,1.7858331265464324,0.9989627003669739,0.045274071395397186,0.004875104874372482,-0.17602799832820892,0.26850053668022156,0.05362585186958313,0.013366401195526123,0.1325823962688446,0.15560150146484375
86,1.5686680496484688,-0.05614330531867341,1.7592387641215763,0.9984222054481506,0.05611381679773331,-0.002124922350049019,0.17669613659381866,0.016859255731105804,-0.1252753585577011,-0.07335811853408813,0.0487293004989624,0.12727749347686768
87,1.5869543507632247,-0.0690794771625709,1.7290722147531392,0.9974847435951233,0.06902454793453217,0.016118785366415977,-0.20619596540927887,0.20508967339992523,-0.1437753289937973,0.005048215389251709,-0.002709902822971344,0.017832038924098015
88,1.6005435938701023,-0.06496938225765493,1.7554551089497583,0.9974486231803894,0.06492368876934052,0.029680125415325165,-0.49730315804481506,-0.033476874232292175,0.19986075162887573,-0.03956305980682373,0.07147462666034698,0.07903873175382614
89,1.626610721514974,-0.07279063252984966,1.7738201753932317,0.9957987070083618,0.07272636890411377,0.05563769116997719,-0.4208279550075531,0.3161298930644989,-0.2944799065589905,-0.03905749320983887,0.019513003528118134,0.10001718252897263
90,1.6419591221647296,-0.10170489773213598,1.8207059735499325,0.9923146963119507,0.10152965039014816,0.07073532789945602,-0.5597708821296692,-0.0818786695599556,-0.38437095284461975,-0.030186951160430908,-0.01519542932510376,-0.02952134609222412
91,1.6370618233668146,-0.1262503076924377,1.8438275196995635,0.9898637533187866,0.12591518461704254,0.06568999588489532,-0.2827203571796417,-0.210758775472641,-0.26416128873825073,-0.04369676113128662,-0.08769190311431885,-0.027009010314941406
92,1.609502417321114,-0.14735277512619857,1.851061662950948,0.9884224534034729,0.14682011306285858,0.03827708587050438,-0.1341192126274109,-0.3583068251609802,0.026751773431897163,0.024471282958984375,-0.19621281325817108,0.0824047327041626
93,1.5749928378617453,-0.13639508230651365,1.8817514211094803,0.990703821182251,0.13597257435321808,0.004157524090260267,-0.5975224375724792,-0.25962233543395996,0.05245941877365112,0.04063767194747925,-0.10359345376491547,0.17348527908325195
94,1.565694705733787,-0.12211297776709779,1.9007598942142883,0.9925406575202942,0.12180972099304199,-0.005063610151410103,-0.19027377665042877,-0.14332354068756104,0.2831715941429138,0.011487722396850586,-0.019743680953979492,0.07529979944229126
95,1.5717991454514704,-0.0999223639425097,1.9162414871615683,0.995011568069458,0.0997561663389206,0.0009978165617212653,-0.18789461255073547,0.34483107924461365,0.1759619414806366,0.022322535514831543,0.0811825543642044,0.01979994773864746
96,1.593386765667918,-0.08380138749888116,1.9219056897889346,0.9962366223335266,0.08370333909988403,0.022509252652525902,-0.08418350666761398,-0.17942942678928375,0.2286061942577362,-0.011693596839904785,0.052725546061992645,-0.06947576254606247
97,1.5864430454979148,-0.06702316248711081,1.953076679078901,0.9976326823234558,0.0669729933142662,0.0156109519302845,-0.544734537601471,0.1554427444934845,0.037222761660814285,-0.040738821029663086,0.0816781222820282,0.03906130790710449
98,1.6034946398729184,-0.06299830552865075,2.0128194640501023,0.9974828958511353,0.06295664608478546,0.032627638429403305,-0.46443113684654236,0.13698722422122955,-0.0086718974635005,0.031005382537841797,0.10083121806383133,-0.06532716751098633
99,1.6128256380564878,-0.061521561467017725,2.0597366074196164,0.9972267150878906,0.061482761055231094,0.0419374480843544,-0.6575366258621216,-0.10162182152271271,0.025330588221549988,0.002895355224609375,0.061060577630996704,-0.10133993625640869
100,1.5962734094300193,-0.06868570412686378,2.146368862506443,0.9973182082176208,0.06863170862197876,0.025414256379008293,-0.9219198226928711,-0.13214920461177826,-0.22111468017101288,-0.0295754075050354,0.03599780052900314,-0.04998088255524635
101,1.599565668865758,-0.09331327269956603,2.2472670809034403,0.9952375292778015,0.0931779146194458,0.028640231117606163,-1.0289260149002075,-0.017968805506825447,-0.33747589588165283,0.04052913188934326,-0.006202816963195801,-0.1105341911315918
102,1.5803273220377971,-0.12638090193935453,2.3271805247724187,0.9919793605804443,0.12604473531246185,0.009454837068915367,-0.3846583068370819,-0.4059596657752991,-0.2733345329761505,0.03754621744155884,-0.08396100997924805,-0.06481373310089111
103,1.5714407160697428,-0.14258892091572517,2.3461176427498875,0.9898510575294495,0.14210623502731323,0.000637849501799792,-0.36904293298721313,0.08946792036294937,0.00017814477905631065,0.06241011619567871,-0.13545341789722443,0.06846916675567627
104,1.579185129752448,-0.1434567999455015,2.404593487793741,0.9896929264068604,0.14296525716781616,0.008302533999085426,-0.5204408168792725,-0.04398808628320694,-0.05938909202814102,-0.0005877017974853516,-0.07990068197250366,0.02560257911682129
105,1.5997317149980885,-0.15181809618188055,2.448053210537378,0.9880840182304382,0.15123556554317474,0.02859857678413391,-0.42332661151885986,0.26163262128829956,-0.020513687282800674,0.03137099742889404,-0.14012715220451355,0.033840421587228775
106,1.625292273280298,-0.14916837277091452,2.503869331696769,0.9874269366264343,0.1486157923936844,0.05386409908533096,-0.750895082950592,0.24541506171226501,-0.08521229773759842,0.0464322566986084,-0.04044623672962189,0.015044566243886948
107,1.6538250022775856,-0.15722496755315787,2.5661721165376075,0.9842631816864014,0.15657800436019897,0.0819103792309761,-0.3429735004901886,0.20068791508674622,-0.2864653468132019,0.07841992378234863,-0.04891200363636017,-0.04736447334289551
108,1.6604349914553196,-0.1777609816615545,2.558244427360827,0.9802904725074768,0.17682628333568573,0.08810804039239883,0.49257948994636536,0.19740130007266998,-0.009488243609666824,-0.05537903308868408,-0.19490794837474823,0.03632735460996628
109,1.6896747876459608,-0.17409548235634842,2.5184695153398375,0.9779326915740967,0.17321737110614777,0.11680588871240616,-0.030828921124339104,0.20449472963809967,0.13439983129501343,0.12509477138519287,-0.14889484643936157,-0.06986986100673676
110,1.6464992939954382,-0.07867657229064479,2.5759729874952906,0.9940512776374817,0.07859542965888977,0.07539671659469604,-1.1085424423217773,-0.8645200133323669,1.2465236186981201,0.005109429359436035,-0.007794655859470367,-0.0045958831906318665
111,1.6463631999790425,0.008062656622635824,2.608929020596316,0.9971138834953308,-0.008062569424510002,0.07549253106117249,0.15544375777244568,0.06317450851202011,0.763961672782898,-0.01072460412979126,0.27239057421684265,-0.0936199352145195
112,1.667218949324869,0.044265093602802445,2.5866894614380302,0.9943800568580627,-0.04425064101815224,0.09617898613214493,0.15020599961280823,0.20282308757305145,0.0762023851275444,0.024220526218414307,0.35093703866004944,0.005215659737586975
113,1.6618083145863833,0.022797790827175507,2.5542482427076725,0.9956024885177612,-0.022795816883444786,0.09086278080940247,0.6442986130714417,0.1276957243680954,0.12398774921894073,-0.007031381130218506,0.02046123333275318,0.2693972587585449
114,1.6583704483313266,0.01258235692651376,2.5475232881446694,0.9960890412330627,-0.012582024559378624,0.08745530992746353,-0.4259852468967438,-0.0543474480509758,-0.44184041023254395,-0.10225969552993774,-0.01917150616645813,0.07051897048950195
115,1.6700571419657784,-0.02963225789284039,2.560610857101814,0.9946408867835999,0.02962792105972767,0.09905440360307693,0.09898298233747482,0.16978414356708527,-0.45136022567749023,-0.0046964287757873535,-0.01409447193145752,-0.08352100849151611
116,1.6878989536787081,-0.04072225122393551,2.5891918785270933,0.9923279881477356,0.040710996836423874,0.11673831194639206,-0.5086643099784851,0.012676570564508438,0.07869456708431244,0.049603164196014404,0.040007974952459335,-0.14896488189697266
117,1.6657279637474753,-0.028257658708825323,2.642624611354369,0.9950999021530151,0.02825389802455902,0.0947512686252594,-0.44972676038742065,-0.10732473433017731,-0.12005318701267242,-0.06065171957015991,0.13612903654575348,0.04508029669523239
118,1.6750472031364407,-0.05199847022237649,2.68444464784119,0.9932267069816589,0.05197504162788391,0.10392151027917862,-0.44922593235969543,0.24788165092468262,-0.38863426446914673,0.017164647579193115,0.07705328613519669,0.12193907797336578
119,1.6954300694985083,-0.07975038399655202,2.758528559402313,0.9890896677970886,0.07966587692499161,0.12391623109579086,-0.8013597130775452,0.12156403809785843,-0.3482457399368286,-0.011855721473693848,0.059219613671302795,-0.0008845329284667969
120,1.7158645254685345,-0.10856978906345027,2.8229872328044956,0.9836700558662415,0.10835662484169006,0.14370876550674438,-0.9609071612358093,0.12199422717094421,-0.39810582995414734,0.014468371868133545,0.051051944494247437,-0.06520223617553711
121,1.7226036011168466,-0.12610267602683728,2.911132551813449,0.9806503057479858,0.1257687360048294,0.15002407133579254,-0.8628684878349304,-0.1263231337070465,-0.19583681225776672,-0.00330960750579834,0.008829057216644287,-0.08778345584869385
122,1.7130348958344213,-0.12751290476354585,2.9861034569338307,0.9818644523620605,0.12716764211654663,0.1406085342168808,-0.6871729493141174,-0.13087275624275208,-0.003529784269630909,-9.85860824584961e-05,-0.05035488307476044,0.0169689804315567
123,1.699451715215298,-0.10256709476019765,3.069364641657883,0.9865235090255737,0.10238735377788544,0.12762650847434998,-1.0660382509231567,-0.22866784036159515,0.12763386964797974,-0.03672480583190918,0.019728749990463257,0.04368402063846588
124,1.6951771032078398,-0.0793952006263735,-3.1177210216876103,0.9891489148139954,0.07931181788444519,0.12366951256990433,-0.825361430644989,-0.03390634432435036,0.027946963906288147,-0.06132298707962036,0.09459260106086731,0.0018187761306762695
125,1.717411427817519,-0.08037483804217298,-3.0356793907006216,0.9860775470733643,0.08028832823038101,0.1456187665462494,-1.025787353515625,0.28841450810432434,-0.13433311879634857,0.0007236003875732422,0.019336313009262085,-0.04503273963928223
126,1.7282030542444284,-0.0868667839914616,-2.904668206316758,0.9839133024215698,0.08675757795572281,0.15616647899150848,-1.41619873046875,-0.017558269202709198,-0.41508719325065613,-0.022182226181030273,0.06705102324485779,-0.06101261079311371
127,1.7441385522882713,-0.11461942942531665,-2.7754632177915366,0.9785504937171936,0.11436862498521805,0.17134371399879456,-1.154237151145935,0.028809862211346626,-0.5220406651496887,0.008601546287536621,-0.007251925766468048,-0.11593915522098541
128,1.7670591230352943,-0.15349168181987552,-2.639107005629566,0.9692713022232056,0.152889683842659,0.19271264970302582,-1.1516029834747314,0.022157272323966026,-0.7230343818664551,0.09261846542358398,-0.0360683798789978,-0.15839561820030212
129,1.7789844221268336,-0.20085060806011526,-2.5628243219853872,0.9587382674217224,0.19950291514396667,0.20253245532512665,-0.3215901255607605,0.16673971712589264,-0.35762718319892883,0.09182929992675781,-0.18691444396972656,-0.044207364320755005
130,1.793840213636156,-0.20089540862981214,-2.5015888789322784,0.9556152820587158,0.19954681396484375,0.21675047278404236,-0.9933807849884033,-0.3294530510902405,-0.02472746931016445,0.04311835765838623,-0.15235136449337006,-0.13967832922935486
131,1.7912159612371787,-0.17285862643624125,-2.4137493895949125,0.9612633585929871,0.17199906706809998,0.2153807431459427,-0.6251966953277588,-0.12117493897676468,0.21485401690006256,0.08317011594772339,-0.05191241204738617,-0.14398494362831116
132,1.7533382079453768,-0.1344935669336728,-2.3651259147304007,0.9745049476623535,0.13408847153186798,0.1798904985189438,-0.5058032274246216,-0.853848397731781,0.4807858169078827,0.045072197914123535,-0.05584140121936798,-0.07512365281581879
133,1.6477363898905326,-0.08337030762684576,-2.295124961448566,0.9935786128044128,0.0832737609744072,0.07659720629453659,-0.8017317056655884,-0.7456114292144775,0.03275925666093826,0.05238085985183716,0.04836380481719971,0.05305671691894531
134,1.606325376338781,-0.07651372115885342,-2.289378014025399,0.9964450001716614,0.07643909007310867,0.035417649894952774,0.5681828260421753,-0.19889432191848755,0.2613659203052521,-0.07505828142166138,-0.016105830669403076,0.06728923320770264
135,1.61943874742892,-0.05946155095111746,-2.316196197242289,0.9970518946647644,0.05942651629447937,0.04853730648756027,-0.2328743040561676,0.3489764332771301,-0.005947839003056288,-0.02964472770690918,0.05290868505835533,-0.03205776587128639
136,1.65893025969165,-0.07506547849437203,-2.3084284122906644,0.9933136701583862,0.0749950036406517,0.08777201175689697,0.3873171806335449,0.05628246068954468,-0.10867808014154434,0.04240727424621582,0.0332661047577858,-0.18667948246002197
137,1.6655897973618512,-0.09343924054273138,-2.350548888891327,0.9911677241325378,0.09330333024263382,0.09423866868019104,0.47922831773757935,0.19535012543201447,-0.15049143135547638,0.008145570755004883,-0.04252207279205322,-0.03265416622161865
138,1.6825951767404408,-0.0983905377622794,-2.393591931127247,0.9889506101608276,0.09823186695575714,0.11102649569511414,0.1610288769006729,0.023953918367624283,0.24066272377967834,-0.018980085849761963,0.0006145685911178589,-0.034290097653865814
139,1.6646915742765862,-0.061809459800258794,-2.384818651863115,0.9936939477920532,0.061770111322402954,0.09357830882072449,-0.3282381296157837,-0.32599523663520813,0.49328604340553284,0.006718039512634277,0.033124297857284546,-0.010402679443359375
140,1.6476771047276788,-0.005320128314472552,-2.3482941160212705,0.9970319867134094,0.005320103373378515,0.07680397480726242,-0.5828691720962524,0.2771346867084503,0.2679506540298462,-0.0002974271774291992,0.05652377009391785,0.13405728340148926
141,1.6616830554775253,-0.002803489326369999,-2.2883497862831703,0.9958685636520386,0.002803485607728362,0.09076128154993057,-0.0951089933514595,0.2301909327507019,-0.16166073083877563,0.0335044264793396,0.010044395923614502,-0.005220547318458557
142,1.6779193715498109,0.004583838382456992,-2.3024120872671014,0.9942574501037598,-0.004583822097629309,0.10691716521978378,0.19877657294273376,0.2568441331386566,0.07108746469020844,-0.08732080459594727,0.006369113922119141,0.024613618850708008
143,1.7015831580960288,0.0028346283763287174,-2.2974090458353817,0.9914556741714478,-0.0028346246108412743,0.13041378557682037,-0.205351784825325,0.044694703072309494,0.0055769095197319984,0.0008692145347595215,-0.009662330150604248,-0.054318174719810486
144,1.698179272843933,0.0055132021408582366,-2.278692652103064,0.9918828010559082,-0.005513173993676901,0.12703680992126465,-0.19362987577915192,-0.025295386090874672,-0.026332497596740723,0.012664437294006348,-0.044154196977615356,0.056953683495521545
145,1.7050417842743153,0.010035248666216539,-2.2684886981058496,0.990952730178833,-0.010035079903900623,0.13383585214614868,0.10819443315267563,0.04829387739300728,0.086530402302742,0.04208254814147949,-0.04491180181503296,-0.00015366077423095703
146,1.7090112534459703,0.015300872385753044,-2.312507652657655,0.990347683429718,-0.015300275757908821,0.13775916397571564,0.535011351108551,-0.06856077909469604,0.05033738911151886,-0.04434841871261597,0.010432718321681023,-0.006762489676475525
147,1.7078478765265284,0.007208062252162623,-2.3582790111829595,0.9905973076820374,-0.007207999937236309,0.13661934435367584,0.4108908772468567,0.10069327801465988,-0.16861389577388763,-0.034176528453826904,0.08601966500282288,0.022453531622886658
148,1.7255982013145577,-0.020085274978742313,-2.4111265441488103,0.987842857837677,0.020083924755454063,0.1541532576084137,0.5761374831199646,0.14359000325202942,-0.08004896342754364,0.0853840708732605,0.04391145706176758,-0.01201772689819336
149,1.709740744483446,-0.017887880932880674,-2.4293087530501754,0.9902044534683228,0.017886927351355553,0.13847564160823822,-0.22419768571853638,-0.1681206077337265,0.014100691303610802,-0.1434941291809082,0.0618554949760437,0.03513886034488678
150,1.713699995941128,-0.025162215163544093,-2.401364435486995,0.9894932508468628,0.0251595601439476,0.14237268269062042,-0.26813629269599915,0.10024619102478027,-0.21913935244083405,0.0013056397438049316,0.0345175564289093,-0.0745932012796402
151,1.714063122661335,-0.04031108567647236,-2.3883905685424396,0.988950788974762,0.040300168097019196,0.1426611989736557,0.05299855396151543,0.04949576407670975,-0.08526638895273209,-0.04107481241226196,-0.051317039877176285,-0.03613962233066559
152,1.7234575029606758,-0.035626797014484186,-2.37837320268366,0.98774254322052,0.03561926260590553,0.15197236835956573,-0.4444531798362732,0.12295946478843689,-0.11709826439619064,0.12924641370773315,0.04784630984067917,-0.060557037591934204
153,1.7101828687865055,-0.030622856923313464,-2.3516390339818143,0.9898372888565063,0.03061807155609131,0.13887052237987518,0.04129549860954285,-0.35910564661026,0.21191102266311646,-0.014220714569091797,-0.01636635884642601,-0.025131449103355408
154,1.6982661008981166,-0.024524757921532095,-2.3528515375238643,0.9915884137153625,0.02452229894697666,0.12708662450313568,-0.2557153105735779,0.08606147766113281,-0.0947214812040329,-0.056911349296569824,-0.008897306397557259,0.04500196874141693
155,1.7009364535449938,-0.029365898588659615,-2.311691870403584,0.9911162853240967,0.029361678287386894,0.1297171413898468,-0.14619866013526917,-0.16530071198940277,-0.1089337021112442,0.03830265998840332,0.02845388650894165,-0.07914948463439941
156,1.6979154043630822,-0.039399299998088694,-2.3302788799262193,0.9911615252494812,0.03938910737633705,0.12667861580848694,0.1999703049659729,0.0451212003827095,-0.03793540596961975,0.015201389789581299,-0.05261850357055664,0.02877795696258545
157,1.701984407412143,-0.037957120961575906,-2.3334112766622623,0.9906930923461914,0.03794800862669945,0.13071788847446442,0.07929939031600952,-0.006045345216989517,-0.01458265632390976,0.013838768005371094,0.01669374108314514,-0.04323923587799072
158,1.7019660433881432,-0.03735020727702847,-2.356072908398675,0.9907181262969971,0.03734152391552925,0.1307026743888855,0.21612977981567383,-0.0002759047783911228,0.05466567724943161,0.01283717155456543,0.023083269596099854,-0.03307700157165527
159,1.696707862510056,-0.03762290060417923,-2.3730183514145504,0.9913815259933472,0.03761402517557144,0.1254902333021164,0.12472722679376602,0.03623228147625923,-0.028943011537194252,-0.017077386379241943,0.05456432327628136,0.0024394840002059937
160,1.696032858369757,-0.04443960792236439,-2.3862874733405786,0.9911885857582092,0.044424980878829956,0.12478609383106232,0.13350819051265717,-0.017098404467105865,0.09654830396175385,0.02291053533554077,-0.005011528730392456,-0.0017392635345458984
161,1.6942237092575456,-0.03972954456720573,-2.399447606163164,0.9916092753410339,0.03971909359097481,0.12301706522703171,0.08509214967489243,0.06063688546419144,-0.019979387521743774,-0.027131855487823486,0.025725867599248886,0.0286400243639946
162,1.703576732905451,-0.03880434054340494,-2.403342773612286,0.990451455116272,0.03879460319876671,0.13229091465473175,0.011997535824775696,-0.012900752015411854,0.052708160132169724,0.023693442344665527,0.04914179444313049,-0.06286346912384033
163,1.7010506116428468,-0.042238259299287866,-2.415450664506186,0.9906444549560547,0.04222569987177849,0.1297704130411148,0.08233309537172318,0.09036228805780411,0.02460557408630848,-0.02923405170440674,-0.02121433988213539,0.0008295625448226929
164,1.7038427050943497,-0.04269711185501646,-2.4195289908888458,0.9902592301368713,0.04268414154648781,0.13253332674503326,0.17243002355098724,0.1025722473859787,-0.03371163085103035,0.012289106845855713,0.012659493833780289,-0.022853121161460876
165,1.696361711624914,-0.036806638883869154,-2.4242589575421705,0.9914551377296448,0.036798328161239624,0.1251508742570877,-0.227511465549469,-0.25274717807769775,0.040372759103775024,-0.02642822265625,0.022909313440322876,-0.06413102149963379
166,1.6842852260868066,-0.04279499527883496,-2.4170857922811213,0.992657482624054,0.04278193414211273,0.11314176768064499,0.16282708942890167,-0.0950774997472763,0.043949466198682785,0.010211288928985596,-0.04298027977347374,-0.03777860105037689
167,1.6771837871122912,-0.03947372504899075,-2.4225846933926865,0.9935717582702637,0.03946347534656525,0.10610418021678925,0.08637194335460663,-0.017795294523239136,-0.040008775889873505,-0.020427167415618896,-0.00954100489616394,0.033696889877319336
168,1.6831673730609522,-0.04164543342356001,-2.4262433983379648,0.9928315281867981,0.041633397340774536,0.11203748732805252,-0.1268770694732666,-0.1781015694141388,0.003586430801078677,0.049832165241241455,-0.06655099987983704,0.018150463700294495
169,1.6883810389617506,-0.0407336567703524,-2.41740302963116,0.9922711849212646,0.04072239249944687,0.11721663922071457,0.191579207777977,0.10114613175392151,-0.07676447927951813,0.04863762855529785,-0.03265047073364258,-0.02863931655883789
170,1.6950321044017755,-0.02934002988193569,-2.457751367408823,0.9918656349182129,0.02933582104742527,0.1238631084561348,0.2721703350543976,0.06488466262817383,0.2974250912666321,-0.05068826675415039,-0.029030650854110718,0.0165024995803833
171,1.7014575668752066,-0.02552693595696288,-2.474217220017111,0.9911530017852783,0.025524163618683815,0.1302473396062851,0.33364781737327576,0.13200688362121582,0.007044730708003044,0.01505732536315918,0.05060192942619324,-0.05204606056213379
172,1.7058546347933952,-0.02877069263912952,-2.514452299449474,0.9904833436012268,0.028766723349690437,0.13459235429763794,0.1657363921403885,-0.04970230907201767,-0.13731281459331512,0.06023681163787842,0.07131567597389221,-0.001215234398841858
173,1.6978704469286583,-0.04058456905331348,-2.537676526617506,0.9911201596260071,0.04057342931628227,0.12662804126739502,0.41493576765060425,-0.0017432859167456627,-0.05095512419939041,-0.03775101900100708,0.030364662408828735,0.01953577995300293
174,1.6993623704178378,-0.052012419324750106,-2.56353689116752,0.9904054999351501,0.05198897048830986,0.12803876399993896,0.05936264246702194,0.0830066129565239,-0.06584467738866806,-0.030490458011627197,0.024152379482984543,0.01670609414577484
175,1.702166839847714,-0.05589909939717109,-2.566791315789013,0.9898347854614258,0.055869992822408676,0.13078835606575012,0.001124158501625061,0.02870260737836361,0.07267895340919495,-0.04716211557388306,0.02288062497973442,-0.030080333352088928
176,1.6959268390735998,-0.061720990816976705,-2.5668609343299997,0.9902920722961426,0.06168181076645851,0.12456657737493515,0.081960029900074,-0.00434370432049036,-0.13846351206302643,-0.03200972080230713,0.04889862984418869,-0.010339275002479553
177,1.6913282004873684,-0.08534283604021291,-2.5808148821649604,0.9891316890716553,0.08523927628993988,0.11980261653661728,0.215885728597641,-0.02908460795879364,-0.0702919140458107,0.03969210386276245,-0.05350100249052048,0.04497705399990082
178,1.6973800028901678,-0.07986875132872905,-2.576050794543038,0.9888365268707275,0.0797838643193245,0.12584343552589417,-0.25271686911582947,0.06482686847448349,0.017603568732738495,0.01014101505279541,-0.0027574971318244934,0.03132198750972748
179,1.7125904968114607,-0.07251691772401674,-2.571684181514024,0.9873623847961426,0.07245337963104248,0.1409481167793274,0.18421034514904022,0.06577932089567184,0.05025128275156021,-0.018215537071228027,0.014689557254314423,-0.04129289090633392
180,1.7206223683646507,-0.0712499407323418,-2.580635957190104,0.9862881302833557,0.07118967175483704,0.14888738095760345,-0.10844879597425461,0.09647096693515778,-0.03789662569761276,-0.011343240737915039,0.04334277659654617,-0.030448690056800842
181,1.7229850319649411,-0.07945467759329031,-2.574127338766419,0.9853231310844421,0.07937110215425491,0.15112359821796417,0.11983028799295425,-0.0012813801877200603,0.004029927775263786,0.0059487223625183105,0.00017296522855758667,-0.0402531772851944
182,1.7187383850173674,-0.0861774039623445,-2.5848671597861532,0.9854059815406799,0.08607077598571777,0.14685595035552979,0.10084126144647598,0.04571530222892761,-0.07028549909591675,-0.012429416179656982,-0.023647084832191467,0.009607642889022827
183,1.7200876190685277,-0.09268159249697215,-2.589447651994902,0.9846326112747192,0.09254895895719528,0.14809899032115936,0.04044972360134125,-0.003427447285503149,-0.09454345703125,-0.0030194520950317383,-0.03870071470737457,0.01733684539794922
184,1.7234374319345516,-0.09396375844451589,-2.601293786987639,0.9840128421783447,0.09382554888725281,0.1513783037662506,0.15209028124809265,0.05962739884853363,0.013160476461052895,-0.020328819751739502,-0.05221483111381531,0.011753305792808533
185,1.730553385804787,-0.08060240290339903,-2.6121019209922904,0.9840605854988098,0.08051515370607376,0.15856188535690308,-0.00045601651072502136,0.09296340495347977,0.03308134153485298,-0.03838205337524414,0.02248167246580124,-0.011543408036231995
186,1.731473916248117,-0.07574057340278857,-2.625273110696588,0.9842891097068787,0.07566817849874496,0.1595284342765808,0.23310168087482452,0.04832133278250694,0.1104683056473732,0.03269392251968384,0.04020707309246063,0.012697458267211914
187,1.7205916727712103,-0.07811368589305431,-2.6431880476085667,0.9857865571975708,0.07803427428007126,0.1487807184457779,0.22670282423496246,-0.07109344005584717,0.06850244849920273,0.0228193998336792,-0.020661234855651855,0.0636674165725708
188,1.7255648292100638,-0.0717862834070851,-2.664014170404352,0.9855024814605713,0.07172464579343796,0.1537543386220932,0.07958599925041199,0.09428045153617859,0.048967208713293076,-0.016538918018341064,0.024359963834285736,0.03910146653652191
189,1.736309758699711,-0.06676569090534486,-2.6677418557336985,0.9841363430023193,0.06671609729528427,0.1643916815519333,-0.032966602593660355,0.03753913193941116,0.06400306522846222,-0.029836416244506836,0.05420979857444763,-0.009377717971801758
190,1.7404029316321783,-0.06864538528535671,-2.6601016386111733,0.9833298921585083,0.06859148293733597,0.16839708387851715,-0.06953846663236618,0.031002666801214218,0.031541261821985245,0.0160444974899292,0.038845643401145935,-0.04193222522735596
191,1.735105667016154,-0.0722117256894621,-2.649534380818246,0.9839605689048767,0.07214898616075516,0.16314473748207092,-0.17930911481380463,-0.005526775494217873,-0.051399119198322296,-0.03060668706893921,0.010660454630851746,0.003633856773376465
192,1.7411371890442373,-0.07946259132332135,-2.6351508581840895,0.9824172258377075,0.07937899231910706,0.1689833700656891,-0.10508064180612564,0.03438122197985649,0.00692721176892519,0.01202857494354248,-0.02875034511089325,-0.0423048734664917
193,1.738202030081939,-0.07880883591362092,-2.610526150351484,0.9829599261283875,0.07872728258371353,0.16610771417617798,-0.34974417090415955,-0.09852500259876251,-0.15034204721450806,0.02662259340286255,0.008095234632492065,-0.023224353790283203
194,1.7274953578567853,-0.07763889631517172,-2.5798612703870223,0.9847723245620728,0.0775609239935875,0.15558843314647675,-0.2139316350221634,-0.09739861637353897,-0.011137735098600388,-0.030899643898010254,0.02937266230583191,0.019826650619506836
195,1.7178390795100458,-0.08561589501362826,-2.5550079723548884,0.9855854511260986,0.08551134169101715,0.14597679674625397,-0.22412873804569244,-0.02995019219815731,-0.12553782761096954,0.031031429767608643,-0.01588546484708786,0.05107523500919342
196,1.7039572319502072,-0.09940619362760551,-2.5631708918846736,0.9862541556358337,0.09924256056547165,0.1321122795343399,0.4707442820072174,-0.092657670378685,0.007119290065020323,0.01447826623916626,-0.07243287563323975,0.08830094337463379
197,1.7053826923257047,-0.09164711742167926,-2.605788695489224,0.9867981672286987,0.09151887893676758,0.1336173117160797,0.17773789167404175,0.0949016809463501,0.05219288170337677,-0.025586068630218506,0.009845264256000519,0.07234583795070648
198,1.7157090792821652,-0.0908217255055452,-2.604905455277609,0.985440194606781,0.09069691598415375,0.1438109278678894,-0.10648845136165619,0.20234867930412292,0.006447203457355499,0.04704570770263672,0.02136360853910446,-0.0020263344049453735
199,1.7170032288764272,-0.0862363310537513,-2.6172506772707083,0.9856544137001038,0.08612948656082153,0.14514519274234772,0.21894806623458862,-0.17041942477226257,0.1589670479297638,-0.00524669885635376,-0.006966888904571533,-0.021167516708374023
200,1.7070027366656015,-0.0754522384642946,-2.628763230593778,0.9879194498062134,0.07538066804409027,0.13539931178092957,-0.026324741542339325,0.009792933240532875,0.010471160523593426,-0.08974134922027588,0.05517353117465973,-0.017937064170837402
201,1.7060508346853984,-0.09022539257143544,-2.6211470425223093,0.9868364930152893,0.09010303020477295,0.13429400324821472,-0.04259101673960686,0.01823532022535801,-0.09462705254554749,0.07511401176452637,0.00723276287317276,-0.005616694688796997
202,1.6918147497196732,-0.09497929782539281,-2.6164635506779605,0.9882120490074158,0.09483656287193298,0.12017913162708282,-0.05926961451768875,-0.19739308953285217,-0.02068938873708248,0.02869468927383423,0.010769516229629517,0.024168968200683594
203,1.6823560602608423,-0.09879429614997527,-2.6182987973162644,0.9889377355575562,0.09863366186618805,0.11078561097383499,-0.0064545366913080215,0.053114112466573715,-0.07831335812807083,-0.07514995336532593,-0.028153322637081146,0.05396353453397751
204,1.6925033672506047,-0.1083660745860233,-2.6194420962111136,0.9867804050445557,0.10815410315990448,0.12069464474916458,0.1622474044561386,0.06943272799253464,-0.07077907770872116,0.030141592025756836,-0.053726017475128174,-0.008130550384521484
205,1.6918552198396022,-0.10264256668421742,-2.63774399967949,0.987456738948822,0.10246243327856064,0.120127834379673,0.10046723484992981,-0.024971244856715202,0.0985807403922081,-0.006804823875427246,-0.029006600379943848,0.024494901299476624
206,1.6936416154383995,-0.09820838083781563,-2.6414916835755466,0.9876818060874939,0.09805058687925339,0.12194610387086868,0.1368744671344757,0.07043039798736572,-0.03942730277776718,-0.022853314876556396,-0.0043463557958602905,0.009508371353149414
207,1.7052592847075552,-0.09766657698303315,-2.6530033346584285,0.9862509369850159,0.09751138091087341,0.13341927528381348,0.0356462188065052,0.01144559495151043,0.038888752460479736,0.0722970962524414,0.0030440539121627808,-0.025585412979125977
208,1.7048644944072247,-0.09576451357072772,-2.6562132132264393,0.986485481262207,0.09561821073293686,0.1330544501543045,0.0850236639380455,0.06329600512981415,-0.01830219104886055,-0.05794245004653931,-0.006415344774723053,-0.000333443284034729
209,1.7155637560208805,-0.10045072338369258,-2.658808401249356,0.984551191329956,0.10028187930583954,0.1435350626707077,-0.03297215700149536,0.15679140388965607,0.0046811942011117935,0.0036841630935668945,-0.03234976530075073,-0.030803218483924866
210,1.7271247018950904,-0.09754531075147715,-2.6515614694769956,0.9831096529960632,0.09739068895578384,0.154952272772789,-0.04982890188694,0.12205474078655243,-0.03644147515296936,0.04778927564620972,0.007040463387966156,-0.09872366487979889
211,1.7131755838132388,-0.09765010054298076,-2.6543645335635984,0.9851654171943665,0.09749498218297958,0.14122268557548523,-0.0543329119682312,-0.1387271136045456,0.06030852720141411,-0.017086803913116455,-0.014197245240211487,-0.030215024948120117
212,1.6977048324405974,-0.10154289720525363,-2.651539514924923,0.9868484139442444,0.1013684868812561,0.12591618299484253,0.17446506023406982,-0.08780843764543533,-0.07483302056789398,-0.01391744613647461,-0.035938799381256104,0.00443972647190094
213,1.6981079778180066,-0.0970939381164845,-2.658511707140212,0.9872350096702576,0.09694145619869232,0.12636999785900116,-0.11362332850694656,0.0769568607211113,0.03975149616599083,0.0038996338844299316,0.007520206272602081,0.03428982198238373
214,1.709007810290088,-0.09251095789630935,-2.6567364678913314,0.986228883266449,0.09237905591726303,0.13718277215957642,0.0316285565495491,0.014835650101304054,0.06891375780105591,0.05655699968338013,-0.0036339089274406433,-0.018377751111984253
215,1.7063023114717333,-0.08209577407961154,-2.670387926580928,0.9874961376190186,0.08200358599424362,0.13463671505451202,0.037002310156822205,0.08284243196249008,0.18636150658130646,-0.044167160987854004,-0.040560729801654816,0.05637289583683014
216,1.7181592512204584,-0.06321635172602598,-2.6677737253699694,0.9871859550476074,0.06317425519227982,0.14653687179088593,-0.016942331567406654,0.15402820706367493,0.2791387736797333,-0.005099773406982422,-0.06431865692138672,0.06514835357666016
217,1.7363171753658706,-0.0361077844953248,-2.657618804701329,0.9856897592544556,0.03609994053840637,0.16465869545936584,-0.07119901478290558,0.1598604917526245,0.2419167011976242,-0.002199828624725342,-0.03150704503059387,0.04849135875701904
218,1.7526247373537938,-0.0014246330301902906,-2.6672967799286744,0.9835136532783508,0.0014246325008571148,0.18082794547080994,0.001665645744651556,0.1267077624797821,0.2779167592525482,-0.0728234052658081,0.0679265707731247,0.015873059630393982
219,1.770638858889329,0.017475589439062595,-2.6863787883253463,0.9799482226371765,-0.017474699765443802,0.19848468899726868,0.3219599723815918,0.08909712731838226,0.2695939242839813,0.0030229687690734863,0.1197696179151535,-0.07133316993713379
220,1.777699581097718,0.019417837911959612,-2.721014263143129,0.9784874320030212,-0.01941661722958088,0.20539149641990662,0.21755516529083252,0.23617331683635712,-0.1373189240694046,0.09145897626876831,0.13324718177318573,0.027534037828445435
221,1.7685690162100796,0.01291105404790454,-2.730200020463204,0.9804250001907349,-0.012910695746541023,0.19646956026554108,-0.0805605798959732,-0.001401979010552168,-0.21648402512073517,-0.014955520629882812,0.058748096227645874,0.134417325258255
222,1.7930067424529532,0.0039148833685766025,-2.718662211926257,0.9754050970077515,-0.003914873581379652,0.22038450837135315,-0.13351108133792877,0.3058932423591614,0.022366201505064964,0.015408992767333984,-0.020483925938606262,-0.04956236481666565
223,1.802040731832343,0.012418387150240044,-2.7080115822764603,0.9733068346977234,-0.012418068014085293,0.2291712909936905,-0.010458705015480518,-0.0955178514122963,-0.04169284552335739,-0.003153085708618164,0.07682541012763977,-0.14756740629673004
224,1.7695559323197076,0.001618227407905591,-2.7071028796424863,0.9803110361099243,-0.001618226757273078,0.19745326042175293,0.1116904765367508,-0.12987388670444489,0.10373726487159729,-0.10032141208648682,-0.07757487893104553,0.03924107551574707
225,1.7700104940499573,0.03134723810062777,-2.6587787276049037,0.9797407388687134,-0.03134210407733917,0.1978018581867218,-1.4144097566604614,0.018804946914315224,0.19209110736846924,-0.18468165397644043,-0.04980413243174553,0.0371529757976532
226,1.814648696919422,0.09927188751643803,-2.4836674424540464,0.9656374454498291,-0.09910891205072403,0.24025411903858185,-1.9490337371826172,0.9131698608398438,0.4656394124031067,-0.24345409870147705,0.09105224907398224,-0.028538435697555542
227,1.8037524724476581,0.1601503556026878,-2.281704824163545,0.9605372548103333,-0.15946663916110992,0.2279006540775299,-1.976309895515442,-0.327267587184906,-0.47439634799957275,-0.19730788469314575,0.08463755249977112,-0.08698570728302002
228,1.7807293032880236,0.12336112654971398,-2.115414646886132,0.9706124067306519,-0.12304847687482834,0.20681069791316986,-0.9548037052154541,0.8801702857017517,-0.6208825707435608,0.6988364458084106,0.22702184319496155,0.030768632888793945
229,1.8173535534287824,0.05441047166793586,-2.0219265382900535,0.9683232307434082,-0.05438362807035446,0.24370554089546204,0.16576723754405975,0.20374715328216553,-1.2620584964752197,0.570647656917572,0.021943453699350357,-0.08432747423648834
230,1.7799109989189583,-0.02740814403272473,-2.013490863584511,0.977847695350647,0.02740471251308918,0.20751596987247467,-0.6622858047485352,-0.41281941533088684,-0.8626884818077087,-0.16632425785064697,-0.4103850722312927,0.06097769737243652
231,1.7697509907901838,-0.04950135162291659,-1.9952552588648294,0.9790729284286499,0.049481138586997986,0.19740261137485504,0.9221380352973938,0.5353238582611084,1.1468150615692139,-0.09725230932235718,-0.3086058795452118,0.10479770600795746
232,1.7890940858817017,0.012351321373838764,-2.005281599693173,0.9761930108070374,-0.01235100720077753,0.21655157208442688,-0.6151256561279297,-0.016100052744150162,0.32018619775772095,0.02133500576019287,0.07491204142570496,-0.026808515191078186
233,1.7755875329164703,0.043387413275176846,-1.995852929319196,0.9781820774078369,-0.043373800814151764,0.20317135751247406,0.48548075556755066,-0.24337776005268097,0.19182045757770538,-0.08326935768127441,0.08429786562919617,-0.03376831114292145
234,1.7680585845450623,0.05145228101184763,-1.9864579168858814,0.9793090224266052,-0.05142958089709282,0.19572603702545166,-0.3292198181152344,0.08623389154672623,-0.20907065272331238,-0.0670318603515625,0.06966385245323181,0.029905661940574646
235,1.7852000910675707,0.07060274361571019,-1.9674026242892415,0.9746690392494202,-0.07054410129785538,0.21223479509353638,0.17851446568965912,0.10572309792041779,0.09308330714702606,-0.024473845958709717,0.039858706295490265,-0.05656459927558899
236,1.7856200386603602,0.04513612627973537,-1.9710813905401137,0.9760189056396484,-0.04512080177664757,0.21295806765556335,0.16698767244815826,0.0763431116938591,-0.12943577766418457,0.05298799276351929,-0.053695108741521835,0.007241472601890564
237,1.7426756039002724,0.0025115267274186475,-1.9670608061167922,0.9852619767189026,-0.0025115241296589375,0.17103369534015656,0.02479996159672737,-0.40279385447502136,-0.7406818270683289,-0.04883015155792236,0.030358821153640747,0.027361035346984863
238,1.7149429244174386,-0.03247875309576308,-1.936740573065137,0.9891069531440735,0.032473042607307434,0.14357216656208038,-0.28060099482536316,-0.11496702581644058,-0.04599301517009735,0.0007306933403015137,-0.06115958094596863,0.09480071067810059
239,1.6830728638731856,-0.05414634299666201,-1.8903408019869188,0.9922472834587097,0.054119888693094254,0.11187659204006195,0.06852749735116959,-0.4785313606262207,-0.3473972976207733,0.015641510486602783,0.017016585916280746,0.010590426623821259
240,1.659618297766928,-0.02119089963025757,-1.9549346961882061,0.9958343505859375,0.021189313381910324,0.08868531137704849,0.6547165513038635,0.057462528347969055,0.520891547203064,-0.044433534145355225,0.05562344193458557,0.08396792411804199
241,1.6685378150150536,-0.036960321682483366,-1.949889955454803,0.9945473670959473,0.036951906979084015,0.09751928597688675,-0.11189308762550354,-0.3969730734825134,-0.11593500524759293,0.06305450201034546,-0.07888305187225342,-0.04774511605501175
242,1.6451374400774144,-0.06306449617729168,-1.9566451956704525,0.9952555298805237,0.06302270293235779,0.0741250067949295,0.15627939999103546,-0.04261713847517967,-0.23449482023715973,-0.009247899055480957,-0.05937585234642029,0.054582834243774414
243,1.6530314455243635,-0.07753727842153237,-1.9521960549169273,0.9936264157295227,0.07745961099863052,0.08189567923545837,0.007590365596115589,0.00040454091504216194,-0.07045239955186844,0.06733256578445435,-0.07094409316778183,-0.051286570727825165
244,1.6386107248809019,-0.08053656013585712,-1.979075187823053,0.994467556476593,0.08044952899217606,0.06754279136657715,0.741208553314209,0.030166003853082657,0.04612911865115166,-0.027457118034362793,-0.031682468950748444,-0.008704908192157745
245,1.6498449290030077,-0.0539073255987995,-2.0245253881276017,0.9954291582107544,0.053881220519542694,0.07885158807039261,0.2762845754623413,-0.23893213272094727,0.34539246559143066,0.0011376142501831055,0.04791015386581421,-0.03580653667449951
246,1.6586075816488572,-0.029653704191668455,-2.0275279336111525,0.9957090020179749,0.029649358242750168,0.08765988796949387,0.2549956738948822,0.2413349449634552,-0.0038552256301045418,0.022006332874298096,0.10264432430267334,0.012010566890239716
247,1.6902500313073454,-0.048605906215759075,-2.0428032389839887,0.9917011260986328,0.04858677089214325,0.11902906745672226,0.21460013091564178,0.34122800827026367,0.03399762138724327,0.02551060914993286,0.03742703050374985,0.01562974601984024
248,1.693136624196462,-0.03767333843321125,-2.0517990989831887,0.9918214082717896,0.03766442835330963,0.1219487413764,0.03264607861638069,0.15509118139743805,0.11866577714681625,-0.0390169620513916,0.018518414348363876,0.0405421108007431
249,1.7197617502406297,-0.027468206226518445,-2.05606257793755,0.9885521531105042,0.02746475301682949,0.14835911989212036,0.12185430526733398,0.2932560443878174,0.3066841959953308,0.02145761251449585,-0.04830825328826904,0.04455779492855072
250,1.732083749616504,-0.010441089793126416,-2.0600326191441116,0.9869675040245056,0.01044089999049902,0.16058029234409332,-0.058599673211574554,-0.10262542963027954,-0.24035994708538055,-0.03016519546508789,0.0378989577293396,-0.04845871031284332
251,1.721375025957084,-0.024504535713294164,-2.048650150224068,0.9883877038955688,0.024502083659172058,0.1499652862548828,0.09832356870174408,-0.17093990743160248,0.015463382937014103,0.013031423091888428,-0.016582783311605453,-0.0037555545568466187
252,1.7076308182881315,-0.026223581078833984,-2.036761716177773,0.9903121590614319,0.026220574975013733,0.1363609880208969,-0.2615392208099365,0.06021813303232193,-0.07669401913881302,-0.058137476444244385,0.014413563534617424,0.0828925222158432
253,1.7317777227862243,-0.030775070408382555,-1.9927479015886231,0.9866031408309937,0.030770212411880493,0.16021110117435455,-0.5778002738952637,0.023429332301020622,-0.22515015304088593,0.010421395301818848,0.05693730711936951,-0.02843618392944336
254,1.6970059454898767,-0.06238173635217288,-1.9034729970266906,0.9901164770126343,0.06234128400683403,0.1256299763917923,-0.86590576171875,-0.3483879268169403,-0.4567166864871979,-0.07654225826263428,-0.025216668844223022,0.03426694869995117
255,1.7009064795477884,-0.06664484824979065,-1.8329323766961723,0.9893463850021362,0.06659552454948425,0.1294553428888321,-0.5100921392440796,0.08300122618675232,-0.2250155657529831,-0.023648202419281006,0.06072381138801575,-0.013412237167358398
256,1.6813372919898715,-0.1074607407887453,-1.7608594167297908,0.9881634712219238,0.1072540357708931,0.10967964679002762,-0.5691475868225098,-0.039806075394153595,-0.4099597930908203,0.026622295379638672,-0.0991058349609375,0.1230473518371582
257,1.6920042682027165,-0.12765354161133904,-1.708100333217654,0.984586238861084,0.12730713188648224,0.1199275478720665,-0.5566071271896362,0.1328093409538269,-0.20366643369197845,-0.005628228187561035,-0.07646484673023224,0.044271960854530334
258,1.7052695097474149,-0.1365913142840981,-1.6744957450082398,0.9817419648170471,0.13616697490215302,0.1328195333480835,-0.04358244687318802,0.08958633989095688,-0.04370148479938507,-0.019202351570129395,-0.015820860862731934,-0.02864810824394226
259,1.708507849252385,-0.1443746902805463,-1.6734646659873333,0.9802272915840149,0.1438736468553543,0.13584844768047333,-0.3641335070133209,0.09116721153259277,-0.13929790258407593,0.03994476795196533,-0.03018040955066681,0.03599606454372406
260,1.7175661428012128,-0.14195234859637423,-1.6417607099459848,0.9792985916137695,0.1414760947227478,0.1447724997997284,-0.023508358746767044,0.06408688426017761,0.03572066128253937,0.08899986743927002,-0.01592673361301422,0.03354169428348541
261,1.7142370686426167,-0.14119113056537477,-1.6420867132651908,0.9798814058303833,0.14072249829769135,0.14152689278125763,-0.2198655754327774,-0.0638570487499237,0.18903319537639618,0.06822967529296875,-0.027639582753181458,0.07935930788516998
262,1.7324654240786723,-0.12986539637085784,-1.6288917831326695,0.9786491394042969,0.12950067222118378,0.159610316157341,0.19957400858402252,0.2615973651409149,0.09811095893383026,0.003742218017578125,0.022415831685066223,-0.041217342019081116
263,1.746039276538183,-0.10661129588162135,-1.6306950889934997,0.979093611240387,0.106409452855587,0.1733575016260147,-0.4439084529876709,0.05043769255280495,0.0895446315407753,0.031160354614257812,0.05244980752468109,0.0021948963403701782
264,1.737631931623974,-0.11248026486234353,-1.5881488971568143,0.9798838496208191,0.11224323511123657,0.1650133728981018,0.07207389920949936,-0.5829662084579468,-0.3122396171092987,0.06541961431503296,0.03350876271724701,-0.10385607182979584
265,1.7045708385796399,-0.12377748700336681,-1.6503014759142671,0.9834831357002258,0.12346166372299194,0.1323554515838623,0.9588482975959778,0.10771416127681732,0.32731372117996216,0.007559835910797119,-0.04748813807964325,0.044722780585289
266,1.7086227961104032,-0.09472663209833282,-1.7076478568842395,0.9860761165618896,0.09458503127098083,0.13677455484867096,-0.23566263914108276,-0.1305381804704666,0.37142413854599,0.019233763217926025,0.02685965597629547,0.019658535718917847
267,1.668307247182294,-0.09244638028509418,-1.6468136924558545,0.9909997582435608,0.09231475740671158,0.09694074094295502,-0.05201932042837143,-0.3826161026954651,-0.18917854130268097,-0.07882934808731079,0.10517971962690353,-0.026658780872821808
268,1.651072584949856,-0.09986138114058801,-1.7058851745576031,0.991813600063324,0.09969548881053925,0.07979055494070053,0.40030160546302795,-0.38527509570121765,-0.21184155344963074,0.00896453857421875,0.011037521064281464,0.0023779794573783875
269,1.6253595371662368,-0.1465937075781662,-1.7196564834780843,0.9878020286560059,0.1460692286491394,0.0539512000977993,0.6325111389160156,-0.1574539691209793,-0.43684980273246765,0.03835141658782959,-0.1385161131620407,-0.03409958630800247
270,1.509296111549987,-0.11441640085903824,-1.77117743669271,0.9915834069252014,0.11416692286729813,-0.06105959042906761,-0.4596709907054901,-2.321931838989258,0.595946192741394,0.22818893194198608,-0.26113957166671753,-0.1492370367050171
271,1.2260608344013508,-0.012042551430835961,-1.675186767344791,0.9410966038703918,0.012042260728776455,-0.33792322874069214,-0.2872295677661896,-2.741807460784912,1.789816975593567,0.2752729654312134,-0.024295061826705933,0.009279459714889526
272,1.029839759251875,0.1457375246733351,-1.6472307958659596,0.8481292128562927,-0.14522217214107513,-0.5094972252845764,0.6599032282829285,-0.9624181389808655,1.1169312000274658,-0.05993640422821045,0.33211177587509155,0.06416940689086914
273,0.9551494530843363,0.21562086197377994,-1.6791980288930342,0.7974953055381775,-0.21395395696163177,-0.5641143321990967,0.7464432716369629,-0.601312518119812,-0.3120687007904053,-0.1905617117881775,0.33098888397216797,0.14526063203811646
274,0.9165225699409684,0.19053042498929684,-1.7503865952997828,0.7791310548782349,-0.1893797516822815,-0.5975701808929443,-0.2479211390018463,-0.5500859618186951,-0.6721978783607483,-0.06631672382354736,0.0968809723854065,0.15419554710388184
275,0.884705906653556,0.13043627772494407,-1.7286549054629412,0.7671561241149902,-0.13006672263145447,-0.6281355023384094,-0.6334934234619141,0.14182208478450775,-0.2877625524997711,-0.018895626068115234,0.08100971579551697,0.0241316556930542
276,0.893855685447301,0.09608386114467383,-1.717523649489211,0.7758973836898804,-0.09593608975410461,-0.6235219240188599,-0.18493691086769104,0.5414043068885803,-0.17350147664546967,-0.012790083885192871,0.06308391690254211,0.09636127948760986
277,0.9200390620555837,0.07045075368842366,-1.7437505876675814,0.7936517000198364,-0.07039248943328857,-0.6042863726615906,-0.512668251991272,-0.07144054770469666,0.18044905364513397,0.06343448162078857,0.011112093925476074,0.10303515195846558
278,0.9698372734652166,0.05792181518260016,-1.7341474262675243,0.8234105110168457,-0.0578894317150116,-0.5644855499267578,-0.2868267595767975,0.13605427742004395,-0.11442213505506516,0.0785517692565918,0.0964331328868866,-0.03553581237792969
279,1.0064964539838703,0.03737329696310306,-1.7416553844466065,0.8443731665611267,-0.037364598363637924,-0.5344508290290833,-0.3777253329753876,0.2279960960149765,-0.038047101348638535,0.10087817907333374,-0.009998675435781479,0.04426229000091553
280,1.0471313884733042,0.04642507376734285,-1.7299554631009777,0.8650592565536499,-0.04640839993953705,-0.4995185136795044,-0.28430309891700745,0.5882577896118164,0.40260612964630127,0.0388408899307251,-0.032586365938186646,0.0628730058670044
281,1.0881513163729108,0.05272277797754677,-1.68326885218324,0.8845396637916565,-0.05269835516810417,-0.46347877383232117,-0.2985841929912567,0.7076166868209839,0.38615882396698,-0.07745647430419922,0.04781555384397507,0.06868809461593628
282,1.1615568747059735,0.07420332186795973,-1.6564706312672777,0.9148991107940674,-0.07413524389266968,-0.3968167006969452,-0.9246086478233337,-0.04499661177396774,0.050516147166490555,-0.06185656785964966,0.09011120349168777,-0.010074108839035034
283,1.273956223193676,0.027949252997802227,-1.6088076384234913,0.955892026424408,-0.027945613488554955,-0.2923857271671295,-0.1237262561917305,2.876485824584961,-0.38665708899497986,-0.13129186630249023,0.071631520986557,0.18294966220855713
284,1.4368774544432206,-0.07411878333746681,-1.6238057631276603,0.9883254170417786,0.07405094057321548,-0.13315238058567047,-0.4507921040058136,0.6606961488723755,-1.8165971040725708,-0.02079606056213379,0.06198114901781082,-0.029658928513526917
285,1.5282309814986126,-0.20944252013936474,-1.667939267159404,0.9772610664367676,0.20791463553905487,-0.041622593998909,0.8944454193115234,0.8123356699943542,-0.9574332237243652,0.2908205986022949,-0.023420602083206177,-0.06470060348510742
286,1.4911457325083735,-0.27104884277643815,-1.741297678795812,0.9604361057281494,0.2677421271800995,-0.07666148990392685,0.03618494048714638,-0.603893518447876,-0.025162454694509506,0.09519755840301514,-0.2863120436668396,0.13531631231307983
287,1.4674112372811507,-0.23192250959280783,-1.6728022827183355,0.968029797077179,0.2298489809036255,-0.1004379466176033,-0.7137205004692078,-0.4351191818714142,0.20860464870929718,-0.045880138874053955,-0.01347939670085907,-0.016749612987041473
288,1.4782195630907304,-0.24685934928756728,-1.6015389647073774,0.9655323028564453,0.24435973167419434,-0.08964209258556366,-0.32285812497138977,0.15879188477993011,-0.11775591224431992,0.009428024291992188,-0.020940512418746948,-0.13249534368515015
289,1.4919925783833394,-0.25279710866461325,-1.5805406840247969,0.9652118682861328,0.2501131296157837,-0.07622015476226807,0.10662239789962769,-0.13089653849601746,0.015667624771595,0.03520011901855469,-0.010397553443908691,-0.15670526027679443
290,1.4747903409906449,-0.25840047302174535,-1.5987250056240683,0.9623478651046753,0.25553447008132935,-0.0926760658621788,0.47276580333709717,0.03355874866247177,-0.223436176776886,0.018807530403137207,0.015705764293670654,-0.07404142618179321
291,1.4639809943409754,-0.27221776424427924,-1.6569748641300255,0.9576875567436218,0.26886820793151855,-0.10268654674291611,0.6222423911094666,0.09521997720003128,-0.07167541235685349,0.043609440326690674,-0.05376502871513367,-0.059514403343200684
292,1.4590578371173917,-0.2817898998853011,-1.7202351932028301,0.9545688629150391,0.2780753970146179,-0.1071082204580307,0.8116608262062073,0.6605808138847351,0.0093575119972229,0.0016840696334838867,-0.05435112118721008,-0.0028465762734413147
293,1.4938039988652798,-0.2543405647186476,-1.7966373806119946,0.9649622440338135,0.2516072392463684,-0.07444184273481369,0.8362129926681519,0.3427906632423401,0.16755592823028564,0.030887305736541748,0.019404053688049316,-0.09911160916090012
294,1.4820503583198015,-0.24615371204358527,-1.8561852584255096,0.9660401344299316,0.24367542564868927,-0.08595795184373856,0.7767446637153625,0.0592101588845253,-0.003538281423971057,-0.04140329360961914,0.034415990114212036,-0.01581817865371704
295,1.4969854782314398,-0.23780876630176612,-1.9440807852181765,0.9692103266716003,0.2355736345052719,-0.07166843116283417,0.7008103728294373,0.3415387272834778,-0.11691513657569885,0.014935791492462158,0.0331336110830307,-0.029604189097881317
296,1.5134976268004874,-0.2490232407355546,-1.994472973073601,0.967563271522522,0.24645744264125824,-0.05550086870789528,0.5813413858413696,0.4279823303222656,-0.09469961374998093,0.002621173858642578,0.005541473627090454,-0.041255123913288116
297,1.5418288553877053,-0.2551827822064696,-2.0535211583624426,0.9672113060951233,0.2524222731590271,-0.02802550420165062,0.4998438358306885,0.31261497735977173,-0.08130577951669693,0.02428954839706421,-0.013057678937911987,-0.10271179676055908
298,1.5606437052915494,-0.24326873111760108,-2.1023304294229073,0.9705057740211487,0.24087639153003693,-0.009853516705334187,0.35810017585754395,0.241018146276474,0.30086466670036316,0.03185933828353882,-0.02790948748588562,-0.055377840995788574
299,1.5587352861262955,-0.22688583598198012,-2.1307872589429713,0.9743006825447083,0.22494426369667053,-0.011751649901270866,0.3878333568572998,-0.14211158454418182,0.07972967624664307,-0.04980123043060303,-0.05186384916305542,-0.018140316009521484
300,1.5665776926801702,-0.19011703013081166,-2.173440346056515,0.9819732308387756,0.1889738142490387,-0.004142610356211662,0.3313344717025757,0.1937256157398224,0.6247256398200989,0.04494309425354004,0.024771273136138916,0.07901746034622192
301,1.5777809888379999,-0.1525609077071643,-2.2499962954859,0.9883610010147095,0.1519697904586792,0.006903479807078838,1.51156747341156,0.28392675518989563,0.3805348575115204,0.03129231929779053,0.0542069673538208,0.08780777454376221
302,1.5896439019505324,-0.11842127405707242,-2.365969484553686,0.9928200840950012,0.1181446835398674,0.01871446706354618,0.4840768575668335,0.22712911665439606,0.30374470353126526,-0.06604695320129395,0.066273033618927,0.08709001541137695
303,1.611381658481319,-0.10431863724954635,-2.4235144236488284,0.9937447309494019,0.10412953794002533,0.04035361856222153,0.9085476994514465,0.29564037919044495,0.03428357467055321,-0.03263944387435913,0.13377025723457336,-0.03261733427643776
304,1.6252800586171305,-0.10316624224025826,-2.5259457111680486,0.9932070970535278,0.10298333317041397,0.054167237132787704,0.9173807501792908,0.07775815576314926,0.005195092409849167,-0.006634831428527832,0.09254278242588043,0.0034346580505371094
305,1.6033648331431618,-0.09997912420065153,-2.6088382565020125,0.994478702545166,0.09981264173984528,0.03240014240145683,0.8894987106323242,0.022479038685560226,0.33592870831489563,-0.05919116735458374,0.03338134288787842,0.12711524963378906
306,1.5979180496121155,-0.08686406370284983,-2.685608109193101,0.9958633780479431,0.08675486594438553,0.027016153559088707,0.364117294549942,-0.08587399125099182,-0.19708196818828583,-0.06594699621200562,0.06400196254253387,0.09377241134643555
307,1.5997507883703805,-0.11319681182199201,-2.7220567379077445,0.9931836128234863,0.11295522749423981,0.028765136376023293,0.7167571187019348,0.08931559324264526,-0.17510183155536652,0.10657835006713867,0.0546015202999115,0.009946346282958984
308,1.5869074473865632,-0.12424912073863997,-2.803579578037373,0.99216228723526,0.12392967939376831,0.015986230224370956,0.5637940168380737,0.03906474635004997,-0.034979306161403656,-0.05129009485244751,-0.0011879727244377136,0.09174084663391113
309,1.5976034820911018,-0.12614958143146315,-2.859576328114911,0.991697371006012,0.1258152574300766,0.026590954512357712,0.5392031073570251,0.1133667528629303,-0.010934678837656975,-0.020795762538909912,0.0199366956949234,-0.028742428869009018
310,1.5989655570556414,-0.134105876009871,-2.9068476067751545,0.9906280040740967,0.133704274892807,0.02791261114180088,0.5046992897987366,0.09129884839057922,-0.10027048736810684,0.00874626636505127,0.0335930734872818,-0.05017519369721413
311,1.5813521599081115,-0.14501289300104622,-2.9548725350270386,0.9894490242004395,0.14450518786907196,0.01044484693557024,0.4458705484867096,-0.03772639483213425,-0.17310090363025665,-0.022758841514587402,0.023326247930526733,-0.01575493812561035
312,1.5754380743822214,-0.14652835753082055,-3.013300593901285,0.9892733097076416,0.1460045725107193,0.0045919897966086864,0.5573943853378296,-0.01024379301816225,0.03799588233232498,-0.0208284854888916,-0.005593195557594299,0.0020456314086914062
313,1.578714224016481,-0.1499044169901639,-3.063578091193113,0.988754391670227,0.14934362471103668,0.007829018868505955,0.6654101610183716,0.16983871161937714,-0.09098845720291138,0.03005969524383545,0.06263148784637451,-0.05502450466156006
314,1.584861437776368,-0.14448098287281194,-3.1318422180419616,0.9894829988479614,0.14397883415222168,0.013918105512857437,0.49233588576316833,0.16554754972457886,0.19505953788757324,-0.024929046630859375,0.046130433678627014,-0.021227000281214714
315,1.5766660924957918,-0.13586183117150427,3.1231687966197397,0.9907678961753845,0.1354442536830902,0.005815641954541206,0.11106463521718979,-0.17795464396476746,-0.06306347995996475,-0.0334773063659668,0.1051410585641861,-0.007631540764123201
316,1.5640349394549604,-0.1528364757338877,3.116637900169329,0.9883205890655518,0.15224215388298035,-0.006682520266622305,0.021386537700891495,-0.08756197988986969,-0.20343950390815735,-0.004281342029571533,0.03621913492679596,0.014708638191223145
317,1.5527102235168775,-0.17577385097440862,3.114353702399191,0.9844305515289307,0.17487011849880219,-0.01780645363032818,0.03604885935783386,-0.08469904214143753,-0.17069654166698456,-0.011087656021118164,-0.008381471037864685,0.0061487555503845215
318,1.5443737200639658,-0.1876585751683493,3.11432219383527,0.9821009039878845,0.18655909597873688,-0.02595570683479309,-0.02542169950902462,-0.12617526948451996,-0.18182173371315002,0.0042882561683654785,0.009867310523986816,-0.03047126531600952
319,1.5439618656541874,-0.1931236948343941,3.109709266588972,0.9810560941696167,0.19192545115947723,-0.0263324324041605,0.037484727799892426,0.01565362699329853,0.09271566569805145,0.07491302490234375,-0.04489177465438843,-0.04216426610946655
320,1.526314440994274,-0.16930234350436865,3.128149615547751,0.9847275614738464,0.16849470138549805,-0.04383145272731781,-0.28436315059661865,-0.2229440063238144,0.34700480103492737,-0.012666404247283936,0.005501270294189453,0.0008168816566467285
321,1.5143307679560705,-0.1481169382606037,-3.1302360287728925,0.9874745011329651,0.14757594466209412,-0.055817633867263794,-0.2104572057723999,-0.11402413994073868,0.015154091641306877,-0.03488349914550781,0.08481542766094208,0.00865267962217331
322,1.5072676754596914,-0.15699879338851805,-3.1064288768589776,0.985708475112915,0.156354621052742,-0.06270510703325272,-0.19802534580230713,-0.05388294905424118,-0.18957430124282837,-0.016531288623809814,0.0493796169757843,0.02376473695039749
323,1.5153987601017307,-0.18129516657612701,-3.101733534040516,0.98210209608078,0.1803036630153656,-0.05446178838610649,0.054812684655189514,0.17334061861038208,-0.3513026535511017,0.01602107286453247,-0.007375806570053101,0.033877670764923096
324,1.5381017151661422,-0.20601481636844818,-3.1143805737355748,0.9783308506011963,0.20456062257289886,-0.031997550278902054,0.0949816033244133,0.12694796919822693,-0.19335663318634033,0.06624013185501099,-0.03334172070026398,-0.03034985437989235
325,1.551512982435054,-0.22529848870706615,-3.129738407786153,0.9745461940765381,0.22339731454849243,-0.018794838339090347,0.22253064811229706,0.14265817403793335,-0.07092303782701492,0.03727930784225464,-0.08203990757465363,-0.037616848945617676
326,1.5642234244803161,-0.22961537902838086,3.1165209752831506,0.973733127117157,0.227603018283844,-0.006400344893336296,0.5072411894798279,0.33760273456573486,0.00355989090166986,0.004233300685882568,-0.0653410255908966,0.019843339920043945
327,1.5940196773571922,-0.22644469627763641,3.079762612530041,0.9742079377174377,0.2245144098997116,0.02262844145298004,0.16980715095996857,0.26337724924087524,0.026613306254148483,0.02167212963104248,-0.010906621813774109,-0.06642115116119385
328,1.6117320935328743,-0.2243715461887468,3.0522792969934365,0.9741173982620239,0.2224937081336975,0.03989852964878082,0.3926806151866913,0.28960204124450684,0.03472309559583664,-0.026943325996398926,-0.009038522839546204,-0.04754317179322243
329,1.6327856810048287,-0.22578448682670482,3.0311525658068077,0.972746729850769,0.22387100756168365,0.060377296060323715,-0.08754776418209076,0.2709680497646332,-0.07090505212545395,0.011261940002441406,0.02348920702934265,-0.041166432201862335
330,1.6502387474919205,-0.24244008237821213,3.040144504936017,0.967693567276001,0.24007205665111542,0.07703804969787598,0.14398127794265747,0.0799703374505043,-0.1802494078874588,0.037631869316101074,-0.03520752489566803,-0.08347725123167038
331,1.6470857639356735,-0.24931265277446038,3.0218325892246285,0.9662635922431946,0.24673792719841003,0.07385905086994171,0.09616229683160782,0.08153844624757767,0.015623018145561218,0.03564375638961792,-0.12355372309684753,0.04825699329376221
332,1.6578937777537466,-0.2153996560317463,3.034224619207625,0.973188042640686,0.2137378603219986,0.0849771797657013,-0.297762930393219,0.03566557168960571,0.5452531576156616,0.060747504234313965,-0.11647835373878479,-0.004624493420124054
333,1.6603163297713277,-0.13672961587694066,3.0775724473337376,0.9867002964019775,0.13630399107933044,0.0885661244392395,-0.4659445881843567,-0.051488809287548065,0.8794812560081482,0.05121791362762451,0.06910984218120575,0.01061607152223587
334,1.706767563459241,-0.038257077683427794,3.060025047318527,0.9900453686714172,0.03824774548411369,0.1354534924030304,0.6662217378616333,0.9720412492752075,1.1299529075622559,-0.014993369579315186,0.2389892041683197,0.11247135698795319
335,1.7971179034749678,0.06525230259041573,2.9736343050319842,0.9724246263504028,-0.06520600616931915,0.2239169031381607,0.030651070177555084,0.2891356647014618,0.6025694012641907,-0.11965662240982056,0.519429624080658,0.03432285785675049
336,1.783262353395596,0.07500812581720845,2.975671217844689,0.9747654795646667,-0.07493781298398972,0.2102782279253006,-0.3563539385795593,-0.4071643650531769,-0.38498398661613464,-0.1611514687538147,0.3246936500072479,0.17521992325782776
337,1.7304485695481515,0.001893065440290117,3.0541311309522117,0.9872807264328003,-0.0018930643564090133,0.1589745730161667,-0.6261534094810486,-0.37716779112815857,-1.0933583974838257,0.031579017639160156,0.0610361322760582,0.10971735417842865
338,1.7024909656738465,-0.049279077866544764,3.0990349371570343,0.9901372790336609,0.04925913363695145,0.1311548799276352,-0.5518978238105774,-0.7473178505897522,-0.10807431489229202,0.09593749046325684,-0.06810374557971954,-0.06400097906589508
339,1.6176563111159703,-0.07590112468083386,3.137881790960049,0.996026337146759,0.07582826912403107,0.04670797288417816,0.3881322741508484,-0.41659265756607056,-0.3713967800140381,-0.05610018968582153,0.04677610099315643,0.0872032642364502
340,1.5918810476112266,-0.09571798384788475,3.108330722774364,0.9952014088630676,0.09557189047336578,0.020986653864383698,-0.2695688307285309,-0.3044448494911194,-0.2996889054775238,0.035331547260284424,0.05764162540435791,0.02768886275589466
341,1.5963677813073913,-0.09522008419363612,3.134061936410861,0.9951444268226624,0.09507625550031662,0.025452839210629463,-0.5298720598220825,0.1498531699180603,0.3234659731388092,0.019015610218048096,0.01783876121044159,0.046446558088064194
342,1.5884520751565483,-0.07693031022548016,-3.079142922664881,0.9968870282173157,0.07685445249080658,0.01760261505842209,-0.5238001942634583,-0.148158460855484,-0.020184341818094254,-0.10160797834396362,0.08089091628789902,0.006948830559849739
343,1.593275133672531,-0.09710561419838719,-3.0254321055632247,0.9950374960899353,0.09695307910442352,0.022371023893356323,-0.43315789103507996,-0.14932602643966675,-0.1761682778596878,0.015948772430419922,-0.0001971125602722168,-0.09329390525817871
344,1.5837083009800708,-0.10048027054355049,-2.989397966016951,0.9948732256889343,0.100311279296875,0.012846491299569607,-0.5268202424049377,-0.0033897999674081802,0.021954016759991646,0.061050236225128174,0.0457763746380806,0.01254415512084961
345,1.5752167563762274,-0.0903196221821546,-2.9399888961109415,0.9959143400192261,0.0901968702673912,0.00440239766612649,-0.5829547643661499,0.016010843217372894,0.07896704226732254,-0.04698538780212402,0.055646635591983795,0.05486273765563965
346,1.572090801317076,-0.09260837767046386,-2.8579999995846057,0.9957141876220703,0.09247606247663498,0.0012889273930341005,-0.9186394810676575,-0.14738686382770538,0.045759256929159164,-0.03408992290496826,-0.018898166716098785,-0.009788036346435547
347,1.5734556278000495,-0.09507787890411494,-2.780895769176399,0.9954800009727478,0.09493469446897507,0.0026472872123122215,-0.6916259527206421,-0.041638534516096115,-0.0034667528234422207,0.0341983437538147,-0.012659311294555664,-0.0422133207321167
348,1.5744932143962007,-0.0799397858604441,-2.703097057254705,0.9967995882034302,0.07985467463731766,0.003685072995722294,-0.8282439708709717,-0.4299289584159851,0.04100487381219864,-0.008075952529907227,-0.020940475165843964,-0.1180649995803833
349,1.5408271388129104,-0.0720365443364378,-2.5960545667047916,0.9969587326049805,0.0719742551445961,-0.029886990785598755,-0.9693950414657593,-0.36168166995048523,0.09849829971790314,-0.03463256359100342,0.026856936514377594,-0.08026617765426636
350,1.531301208809833,-0.08297134445164611,-2.5134385253794194,0.9957827925682068,0.08287617564201355,-0.0393490195274353,-0.8792757391929626,0.0812373235821724,-0.28906044363975525,0.03079807758331299,0.04419901967048645,-0.024173319339752197
351,1.5441373797195814,-0.09647152505776672,-2.4507363077492177,0.9949966073036194,0.0963219553232193,-0.026531847193837166,-0.6690605282783508,0.10950061678886414,0.08854100853204727,0.014967381954193115,-0.040306925773620605,0.007992446422576904
352,1.5690144202171437,-0.10674723000889987,-2.3761065137611768,0.9943063855171204,0.1065446138381958,-0.0017717629671096802,-0.7179731726646423,0.2869441509246826,-0.18843455612659454,-0.0007150173187255859,-0.0150376558303833,0.02083003520965576
353,1.6065818889773718,-0.11507106368419869,-2.316732279880429,0.9927505254745483,0.11481728404760361,0.03554131090641022,-0.4906677305698395,0.3242935836315155,-0.08329377323389053,-0.01307535171508789,-0.026667281985282898,-0.021564248949289322
354,1.6580168628343732,-0.12875172527519377,-2.2638319147132764,0.9879530668258667,0.12839630246162415,0.0863889753818512,-0.46487513184547424,0.5239079594612122,-0.44946223497390747,0.022071897983551025,0.006552413105964661,-0.0786527469754219
355,1.681929202045576,-0.144917021006238,-2.233085861116215,0.9834136366844177,0.14441032707691193,0.10974174737930298,-0.26279202103614807,-0.11728192865848541,0.09228643774986267,0.0272216796875,-0.12815970182418823,-0.0974278450012207
356,1.686591775792958,-0.13440635348601523,-2.199203720830384,0.9843447208404541,0.13400204479694366,0.11449483036994934,-0.2257637232542038,-0.08220227062702179,0.0035968541633337736,0.009979069232940674,-0.03094416856765747,-0.16391801834106445
357,1.6634308977513377,-0.11095991258987055,-2.2205699962424146,0.9895890951156616,0.11073236167430878,0.09193327277898788,0.1838030070066452,-0.17918436229228973,0.35250452160835266,0.0672498345375061,-0.04667595773935318,0.1260690689086914
358,1.6523253629703807,-0.08926226416972592,-2.2254470678187266,0.992710530757904,0.0891437754034996,0.08111453801393509,0.2979394197463989,-0.03135015442967415,0.2529136538505554,0.027522742748260498,-0.026536963880062103,0.0914928987622261
359,1.6502827230683228,-0.04266404611330462,-2.26101823997143,0.9959355592727661,0.04265110567212105,0.07933047413825989,-0.12348387390375137,-0.05730533227324486,0.5026556253433228,-0.04262745380401611,0.05836206674575806,0.128204345703125
360,1.6732743788540587,0.001036755522206912,-2.251343378933233,0.9947532415390015,-0.0010367553913965821,0.10229872912168503,-0.1367180049419403,0.5342375040054321,0.23494991660118103,-0.033922553062438965,0.25468358397483826,0.08549118041992188
361,1.7128532742159892,0.028706514733925312,-2.255496427748607,0.9895190596580505,-0.028702571988105774,0.14152131974697113,-0.2765255868434906,0.3235311508178711,0.20783138275146484,-0.08590877056121826,0.2582862973213196,0.12538540363311768
362,1.7109305256343714,0.00991904648039359,-2.1692148331056114,0.9901484251022339,-0.009918883442878723,0.13966910541057587,-1.417746901512146,-0.22902145981788635,-0.6012381315231323,-0.04225730895996094,0.18202275037765503,0.15397094190120697
363,1.7070727834417523,-0.041900222636285366,-2.033714498572531,0.9898592233657837,0.04188796505331993,0.13573580980300903,-0.8942096829414368,0.26586511731147766,-0.702915608882904,-0.014547944068908691,0.05111435055732727,0.10690951347351074
364,1.7425141346487558,-0.09123591325546679,-1.939791291410026,0.9811948537826538,0.09110939502716064,0.17016446590423584,-0.957078754901886,0.11552724987268448,-0.6194627285003662,0.06751132011413574,-0.03925999253988266,-0.007398948073387146
365,1.744490488183088,-0.10656220394626734,-1.82635820286823,0.9793660640716553,0.10636064410209656,0.1718417853116989,-0.9311514496803284,-0.2665235996246338,-0.1455366015434265,-0.020229101181030273,-0.017737627029418945,-0.03480255603790283
366,1.725642665214347,-0.10424533841270493,-1.7331514578635294,0.9826714992523193,0.10405663400888443,0.1533910185098648,-0.7766859531402588,-0.21468867361545563,-0.10595174878835678,0.004068553447723389,-0.00119713693857193,0.04744516313076019
367,1.7026116846649817,-0.0938140413684701,-1.6610978951284192,0.9869657158851624,0.09367649257183075,0.1308560073375702,-0.7007402181625366,-0.3342968225479126,0.09441254287958145,-0.02184736728668213,-0.016177095472812653,0.11696194112300873
368,1.6756093658818851,-0.08188484429813024,-1.5801187301405857,0.9911797642707825,0.08179336786270142,0.10427067428827286,-0.7712917327880859,-0.2815667390823364,-0.12815867364406586,-0.04510444402694702,0.09171434491872787,0.12491630017757416
369,1.6597850753860945,-0.11558889803444683,-1.500974763387247,0.9893964529037476,0.11533167958259583,0.08827830106019974,-0.5273970365524292,-0.15954285860061646,-0.2609216272830963,0.01775979995727539,-0.02481655776500702,0.08625172823667526
370,1.6567678968372535,-0.1120978980612047,-1.4202644188972442,0.990053653717041,0.11186327785253525,0.08532679080963135,-1.1138118505477905,-0.21559277176856995,0.027105508372187614,0.051206231117248535,0.03927506506443024,-0.05213891714811325
371,1.620400460514405,-0.11867064115698762,-1.2649955903506702,0.9917453527450562,0.11839230358600616,0.04923505708575249,-1.2350279092788696,-0.6951240301132202,-0.12919378280639648,-0.06247001886367798,-0.02050720900297165,-0.14770007133483887
372,1.6035128781700028,-0.10722081401612962,-1.1556288160108081,0.9937253594398499,0.10701549053192139,0.03252287209033966,-0.8558545708656311,-0.1891489028930664,0.059760089963674545,-0.010616779327392578,0.06093801558017731,-0.16988253593444824
373,1.582865592526384,-0.1028083526361343,-1.0332641326779295,0.9946473240852356,0.10262734442949295,0.012005245313048363,-1.0823310613632202,-0.3388902544975281,0.14954021573066711,-0.020953595638275146,0.03914205729961395,-0.10927999019622803
374,1.571547279001584,-0.0955175711143441,-0.9296787676019566,0.9954414367675781,0.09537239372730255,0.0007475290913134813,-0.8042234182357788,-0.19214177131652832,0.03886789083480835,0.06869125366210938,0.020655423402786255,-0.04785144329071045
375,1.5377765264959127,-0.09263569834632714,-0.8187787534979359,0.9951695799827576,0.09250326454639435,-0.03287224844098091,-1.1410828828811646,-0.38568544387817383,-0.10838328301906586,-0.09421443939208984,0.009059213101863861,0.06337451934814453
376,1.5334543040974524,-0.11707827593243433,-0.6929464140492215,0.9924616813659668,0.11681098490953445,-0.03707776218652725,-1.0484951734542847,0.014395011588931084,-0.14791597425937653,0.05444371700286865,-0.07092781364917755,-0.0018321238458156586
377,1.532676855050733,-0.130788754163294,-0.5858977299979662,0.9907390475273132,0.13041619956493378,-0.03778475150465965,-0.8691316246986389,-0.1413489580154419,-0.054306402802467346,0.03690981864929199,-0.08273248374462128,0.0038186945021152496
378,1.5366625058947216,-0.1345784334969747,-0.4919008040800165,0.9903807044029236,0.13417257368564606,-0.03381861373782158,-0.8224655985832214,-0.033357854932546616,0.016376789659261703,-0.004815578460693359,-0.06419578194618225,0.014058474451303482
379,1.5504948911936687,-0.14211759434124907,-0.3960395353031203,0.9897142648696899,0.14163967967033386,-0.020095381885766983,-0.8127741813659668,-0.0021249125711619854,-0.17409518361091614,0.015000641345977783,-0.03438565135002136,-0.0469365119934082
380,1.5614091959217662,-0.15413540525232658,-0.3233615896378367,0.9881011843681335,0.15352581441402435,-0.0092757074162364,-0.6394237279891968,0.02304372936487198,-0.09417453408241272,0.02174079418182373,-0.07146403193473816,0.013029396533966064
381,1.5802082702154687,-0.1694007869181537,-0.24493777034836686,0.9856423139572144,0.16859173774719238,0.009277083911001682,-0.6369644403457642,0.031232202425599098,-0.21473301947116852,0.045500874519348145,-0.05337262153625488,-0.0944364070892334
382,1.5927195430305536,-0.19397772988621953,-0.21275388385621277,0.9810094237327576,0.1927635371685028,0.021510327234864235,-0.052368734031915665,0.24853459000587463,-0.2152342051267624,0.01874643564224243,-0.1815178096294403,0.01704859733581543
383,1.6192764499047267,-0.2038450832291465,-0.18307436661131204,0.9781448245048523,0.20243628323078156,0.04745776951313019,-0.4690763056278229,0.1708669513463974,-0.1719796359539032,0.030903637409210205,-0.12519629299640656,-0.07480156421661377
384,1.6368635498340398,-0.21784255098226032,-0.1769403436490914,0.9742360711097717,0.21612367033958435,0.06445888429880142,0.4179700016975403,0.17064976692199707,-0.020423807203769684,0.05666309595108032,-0.15206724405288696,-0.09943198412656784
385,1.6470522832457606,-0.20951543033119058,-0.23513334347145315,0.9752892255783081,0.20798595249652863,0.07451610267162323,0.56924968957901,0.19249694049358368,0.2769199311733246,0.07149416208267212,-0.11234387755393982,-0.043708689510822296
386,1.657048660738199,-0.1729327243769516,-0.29479233946039246,0.9814224243164062,0.17207206785678864,0.08486051857471466,0.40586182475090027,0.26048028469085693,0.4838533103466034,0.054389894008636475,-0.02535879611968994,0.01856362819671631
387,1.6689516041975923,-0.12544235293491168,-0.32411233314466925,0.9873668551445007,0.1251136213541031,0.09722771495580673,0.10135431587696075,0.11632857471704483,0.5358900427818298,0.008421719074249268,0.0749443769454956,-0.005049347877502441
388,1.676363813897513,-0.0672599578553633,-0.3485114461140553,0.9921842813491821,0.06720925867557526,0.10513324290513992,0.045734114944934845,0.14998017251491547,0.6465572118759155,-0.04536128044128418,0.13004109263420105,0.025756582617759705
389,1.6836136352315805,-0.007550751210735422,-0.34593191861996364,0.9936144948005676,0.007550679612904787,0.11257492750883102,-0.14048142731189728,-0.003121846355497837,0.4357368052005768,-0.0688861608505249,0.2422204315662384,0.03130017966032028
390,1.6758871388920071,0.02707976913166475,-0.335495555228872,0.994118332862854,-0.027076460421085358,0.10485901683568954,-0.4462590217590332,-0.34581446647644043,0.30018264055252075,0.013221025466918945,0.08495305478572845,0.05233704298734665
391,1.640047686964023,0.05437465532905046,-0.29006695463379956,0.9961286783218384,-0.05434786528348923,0.0690937489271164,-0.2816390097141266,0.2326589971780777,-0.23330841958522797,-0.06807392835617065,0.12298189848661423,0.12080191820859909
392,1.6662461715678416,0.03821099847270322,-0.2797862424597901,0.9947214126586914,-0.038201700896024704,0.09523539990186691,-0.11078962683677673,0.20491454005241394,-0.15461468696594238,0.001829981803894043,0.0939115434885025,0.03109203279018402
393,1.6848053109440568,0.023760140316657706,-0.24566807802730234,0.993227481842041,-0.023757904767990112,0.1137300357222557,-0.5005088448524475,0.18586383759975433,-0.22125162184238434,-0.011324524879455566,0.12498471140861511,0.0046782344579696655
394,1.695353442992853,0.0023474580200383774,-0.20336210124932583,0.9922501444816589,-0.0023474558256566525,0.12423495948314667,-0.3098894953727722,0.07635655254125595,-0.20967869460582733,-0.044130027294158936,0.10256718844175339,0.033266305923461914
395,1.707134999450686,-0.02925938354324979,-0.15885120877393077,0.9902963042259216,0.029255209490656853,0.13585852086544037,-0.4068866968154907,0.2268664687871933,-0.37358173727989197,0.00222700834274292,0.026988696306943893,0.0032253414392471313
396,1.7235466446048253,-0.04622385685646487,-0.10790891498152383,0.9873006939888,0.04620739817619324,0.1519944816827774,-0.7213699817657471,-0.12600445747375488,-0.19823718070983887,0.06953829526901245,0.06298449635505676,-0.05580306053161621
397,1.6918746324436003,-0.0759996038697078,-0.011046445277460454,0.9898135662078857,0.07592646032571793,0.12043404579162598,-1.1404905319213867,-0.4074302315711975,-0.8542234301567078,-0.09659457206726074,0.03770573437213898,-0.06690621376037598
398,1.6625302410825682,-0.15423046748356117,0.04366550326354651,0.9839754700660706,0.15361975133419037,0.09051796793937683,0.22831229865550995,-0.22169481217861176,-0.17468059062957764,0.115420401096344,-0.19202609360218048,0.010846145451068878
399,1.6345100818410419,-0.1456567233512122,0.0139221525180005,0.987403154373169,0.14514222741127014,0.06299643218517303,-0.11153875291347504,-0.3632359504699707,0.05011139437556267,0.010323166847229004,-0.024017974734306335,0.07550763338804245
400,1.6065101353413513,-0.1722070460264416,0.05937166866393448,0.9845808148384094,0.1713571697473526,0.035178087651729584,-0.47291722893714905,0.02396830916404724,-0.05825255438685417,-0.01653265953063965,-0.07170198857784271,-0.0055149756371974945
401,1.617565389718193,-0.1520573813580353,0.08699855009670596,0.9873806238174438,0.1514720916748047,0.046212565153837204,-0.24169962108135223,0.16508673131465912,-0.010700013488531113,0.013397514820098877,7.818639278411865e-05,-0.12329995632171631
402,1.6401806045456468,-0.12252872882181455,0.06370931145787309,0.9901146292686462,0.12222236394882202,0.06880883872509003,0.586060643196106,0.28882667422294617,0.8787319660186768,0.09028387069702148,-0.09590096026659012,-0.17978596687316895
403,1.6879468063619252,-0.02648051451645814,-0.0060549808226809075,0.9927974343299866,0.026477420702576637,0.11684170365333557,0.613714337348938,0.6232984662055969,1.0185705423355103,0.17530852556228638,0.23896446824073792,-0.03449012339115143
404,1.6555133799085557,0.030010925119493322,-0.14879921926087386,0.9959650039672852,-0.030006419867277145,0.08457765728235245,1.1739692687988281,-1.5095261335372925,0.6395948529243469,0.054831504821777344,0.07045747339725494,0.11689937114715576
405,1.5816620012559577,0.06818706346639063,-0.1786216100234557,0.9976173043251038,-0.06813423335552216,0.010840211063623428,-0.10096921771764755,-0.17304883897304535,-0.1619279980659485,-0.24052196741104126,0.034183427691459656,0.13506436347961426
406,1.6141767524803636,0.010996678643161836,-0.20632950010170606,0.9989988803863525,-0.010996457189321518,0.04336420074105263,0.41000422835350037,0.9769763350486755,-0.6032839417457581,-0.09645676612854004,-0.02736414223909378,0.14846932888031006
407,1.678406116187259,-0.028867597975786773,-0.22465803073143245,0.9938014149665833,0.028863588348031044,0.10735747218132019,-0.08886684477329254,0.26480743288993835,-0.7876220345497131,-0.13306838274002075,-0.0003143996000289917,-0.05222749710083008
408,1.6887032879356223,-0.12012617957580389,-0.18552067139466594,0.9859005212783813,0.11983747780323029,0.11678622663021088,-1.2871699333190918,-0.051692113280296326,-0.8118504285812378,-0.04940766096115112,-0.3980052173137665,0.030659429728984833
409,1.7409400011905984,-0.14625912191073343,0.10535820083484537,0.9750377535820007,0.14573822915554047,0.16751611232757568,-3.3842780590057373,0.7625805139541626,-0.21755945682525635,0.03675723075866699,-0.047547921538352966,-0.09621179103851318
410,1.8426230258519192,-0.03871059772579874,0.4741719627482344,0.96256023645401,0.038700930774211884,0.26829034090042114,-4.681643009185791,-0.21909625828266144,-0.4715490937232971,0.20476746559143066,0.24726402759552002,-0.47757989168167114
411,1.6458234068491622,-0.07270791991167543,0.5626336464148685,0.9945521950721741,0.07264387607574463,0.07475867122411728,3.8208162784576416,-1.7861416339874268,0.2558210790157318,0.06864970922470093,-0.21221601963043213,0.5682772397994995
412,1.6030566442941103,-0.06365764020475409,0.41687437640934455,0.9974552989006042,0.06361465901136398,0.03218939155340195,-0.8479130268096924,0.5267389416694641,-0.7250939011573792,-0.07834213972091675,0.00585860013961792,0.23880672454833984
413,1.6655700514627774,-0.06887882525779504,0.4114602014887351,0.9931517839431763,0.06882437318563461,0.09440752118825912,0.4620746970176697,-0.1082911416888237,0.48361480236053467,0.04411017894744873,0.08611337840557098,-0.1440291404724121
414,1.6765393294096314,-0.0707997798271691,0.3893128265015406,0.9919230937957764,0.07074064761400223,0.10528162866830826,0.26258376240730286,0.5063022375106812,-0.16317327320575714,-0.05158501863479614,0.05531221628189087,-0.052638888359069824
415,1.6970961985951754,-0.10127596744671402,0.3673221936142594,0.9869515299797058,0.10110292583703995,0.12531891465187073,0.1040712371468544,0.017782999202609062,-0.3155575394630432,0.021272897720336914,-0.014448277652263641,-0.11092986166477203
416,1.698743055328016,-0.13270151410771774,0.35046368506695547,0.9831060171127319,0.13231238722801208,0.12647610902786255,0.3133997917175293,-0.039458442479372025,-0.12044855952262878,0.04118609428405762,-0.06962926685810089,-0.08820711076259613
417,1.6909784665381478,-0.13550783519969214,0.3242577185482675,0.9836856722831726,0.13509351015090942,0.11879394203424454,0.08164344727993011,-0.09287048876285553,0.12236420810222626,0.08308666944503784,-0.03507216274738312,0.007365688681602478
418,1.6679891328526637,-0.1120251645647697,0.3253907521734219,0.989041805267334,0.11179099977016449,0.09643158316612244,-0.23375235497951508,-0.19298353791236877,0.2361784279346466,-0.048200130462646484,0.05803932994604111,0.11685574054718018
419,1.6717516739130265,-0.1254365515673435,0.37376078551886716,0.9870916604995728,0.12510786950588226,0.09999211877584457,-0.4147985875606537,0.10666558891534805,-0.24957333505153656,0.016158640384674072,-0.08769327402114868,-0.018021799623966217
420,1.6859557068797577,-0.12286848371053974,0.36694659095940874,0.9858874082565308,0.1225595697760582,0.11403874307870865,0.18537645041942596,0.07163955271244049,0.232956200838089,0.03669542074203491,-0.06768897920846939,-0.046488188207149506
421,1.6783691624669006,-0.11498967928025375,0.3540350706978315,0.9876537322998047,0.11473643779754639,0.10665643215179443,0.17722609639167786,-0.0035051461309194565,0.09561288356781006,0.021348893642425537,-0.011281855404376984,0.02861272543668747
422,1.6777564290500622,-0.10715506801791191,0.3422353478713729,0.9885823726654053,0.10695012658834457,0.10614395886659622,-0.04546082764863968,-0.020333116874098778,-0.10293909907341003,-0.03924161195755005,0.01850762963294983,0.03055952489376068
423,1.6858792502455624,-0.11527529161056858,0.3450866956561824,0.9867923855781555,0.11502015590667725,0.1140669658780098,-0.032322656363248825,-0.03551420196890831,0.08586730062961578,0.04673129320144653,-0.02217041701078415,-0.040672287344932556
424,1.680069696507342,-0.10958144050611521,0.34467792690408194,0.9880733489990234,0.10936225950717926,0.10840190947055817,-0.08884721249341965,0.04117514193058014,-0.07044851034879684,0.018167495727539062,0.0010198131203651428,0.015529990196228027
425,1.679286014435657,-0.10452963423517322,0.34838317201447666,0.9886948466300964,0.10433938354253769,0.10768601298332214,-0.04062913358211517,-0.003734532743692398,0.09136195480823517,-0.004823148250579834,-0.0190885066986084,-0.02304539829492569
426,1.6777376348941282,-0.0935136250054579,0.3559248712558285,0.9899429678916931,0.09337738901376724,0.10627122968435287,-0.1818179041147232,-0.047216687351465225,0.012803797610104084,0.006181240081787109,0.03395719826221466,-0.05637502670288086
427,1.6630437241203802,-0.0953371346474789,0.35671127105807066,0.9912263751029968,0.09519277513027191,0.0916983038187027,0.0492280088365078,-0.09771865606307983,-0.05606335401535034,0.005859196186065674,-0.0018089935183525085,0.035300612449645996
428,1.6601765121423986,-0.09967544617985453,0.3600910979702604,0.9910645484924316,0.09951047599315643,0.08881817758083344,-0.032601386308670044,-0.06549298018217087,0.024918796494603157,0.004052579402923584,-0.03874997794628143,-0.02247297763824463
429,1.6596105128432757,-0.09244089222808068,0.3420221550983892,0.9918058514595032,0.09230928868055344,0.08831877261400223,0.11004306375980377,0.010872993618249893,0.04024549573659897,-0.004745304584503174,0.005606353282928467,0.0005941390991210938
430,1.6543946211709433,-0.09555074091714415,0.3327173048085482,0.9919620752334595,0.09540541470050812,0.08312006294727325,0.2556746006011963,-0.04366337135434151,0.02177298627793789,0.016521751880645752,0.044243015348911285,-0.0011499002575874329
431,1.6535695996311344,-0.10718242685970768,0.31372511524089564,0.9908573031425476,0.10697732120752335,0.08220432698726654,0.13266238570213318,0.008789803832769394,-0.12751881778240204,-0.0011417865753173828,0.006548061966896057,0.005686275660991669
432,1.6524808970776994,-0.12562451922605275,0.30133194462224633,0.9888115525245667,0.12529435753822327,0.0809507668018341,0.1553666591644287,0.0040250192396342754,-0.16901369392871857,0.02168649435043335,-0.03497758507728577,0.01084601879119873
433,1.663391112640372,-0.13193881260100848,0.2848914050113671,0.9870622158050537,0.13155634701251984,0.09165892004966736,0.10575608909130096,0.12179843336343765,-0.039155539125204086,0.05326688289642334,0.0013324469327926636,-0.0221855565905571
434,1.6672923556501598,-0.13442959263298712,0.2589103829274727,0.9863678216934204,0.13402506709098816,0.09547711163759232,0.2708093822002411,0.25429192185401917,0.03076954558491707,-0.05985414981842041,-0.05445048213005066,0.04172992706298828
435,1.6846265548291268,-0.13665726757666127,0.25002572205974777,0.9842655062675476,0.13623231649398804,0.11252559721469879,0.07620855420827866,0.09818921983242035,-0.016750849783420563,0.03593701124191284,-0.01690860092639923,-0.05660213530063629
436,1.6787141821522389,-0.12793525394260474,0.2310387980982175,0.9860575199127197,0.12758654356002808,0.10682825744152069,0.07562974840402603,-0.05489395558834076,0.12679879367351532,-0.015568077564239502,0.012382328510284424,0.02325296401977539
437,1.6759982324741471,-0.12473791450278107,0.22138210191398264,0.98674476146698,0.12441468983888626,0.1041920930147171,0.16872353851795197,0.09793736040592194,-0.12768661975860596,-0.0955856442451477,0.025014638900756836,0.028650879859924316
438,1.690948081905079,-0.1422044288478139,0.22074948796750238,0.9827691912651062,0.14172562956809998,0.11865296959877014,-0.03351655974984169,-0.0005165021866559982,0.052036236971616745,0.08343863487243652,-0.058153241872787476,-0.047898054122924805
439,1.6812487865827375,-0.13312505408044992,0.21514862216138134,0.9851120710372925,0.13273218274116516,0.1092526987195015,0.1043742448091507,0.010150866582989693,0.02186638116836548,-0.03911304473876953,0.014728724956512451,0.018112286925315857
440,1.6799992291364503,-0.14359737291817606,0.2133804822022659,0.9838120341300964,0.14310437440872192,0.10786423832178116,0.0423283725976944,0.01150977797806263,-0.13726601004600525,0.013456463813781738,-0.02289566397666931,0.00982675701379776
441,1.675068611530372,-0.1444568249548055,0.21588498527846556,0.984209418296814,0.14395493268966675,0.10299932956695557,-0.05584607273340225,-0.13457298278808594,0.01866227388381958,-0.014208197593688965,-0.03468674421310425,-0.009234070777893066
442,1.672257571069257,-0.14037245545878468,0.20958283953947213,0.98507159948349,0.13991191983222961,0.10029096901416779,0.019110381603240967,-0.02415994554758072,0.062155913561582565,0.050710082054138184,-0.03892926871776581,-0.009501233696937561
443,1.664201192311242,-0.13024344289210527,0.19627017191436374,0.9872081279754639,0.1298755258321762,0.09247913956642151,0.2741886079311371,0.06512416154146194,0.08374660462141037,-0.03486138582229614,-0.0065234750509262085,0.03780043125152588
444,1.6638625300988643,-0.1316422667304722,0.18170384429215902,0.9870575666427612,0.1312623769044876,0.09212783724069595,0.22289733588695526,-0.08251365274190903,-0.12492597848176956,0.003344595432281494,0.036965757608413696,-0.031092651188373566
445,1.6604705981141432,-0.1392026341845723,0.15184314205100008,0.9863479137420654,0.1387535035610199,0.08868788182735443,0.1972871720790863,0.01178038865327835,-0.002601756015792489,0.004405379295349121,0.011743947863578796,0.003292091190814972
446,1.656578680234676,-0.153557675277027,0.12385728121991983,0.9845992922782898,0.15295490622520447,0.08466902375221252,0.38327255845069885,0.05177280679345131,-0.13755957782268524,0.006825149059295654,-0.008622050285339355,0.01626788079738617
447,1.6589167983107798,-0.16737966864968593,0.09484432288937707,0.9821987152099609,0.16659921407699585,0.08677654713392258,0.21804681420326233,0.11577143520116806,-0.13278700411319733,-0.01659214496612549,0.0024681538343429565,0.005935899913311005
448,1.6658624086731022,-0.1807725988627708,0.07054911078727215,0.9792633056640625,0.17978963255882263,0.09337619692087173,0.23300789296627045,-0.03378496319055557,-0.08187207579612732,0.02911376953125,-0.03139790892601013,-0.0606766939163208
449,1.66862657860093,-0.18094564297545687,0.05033914042395583,0.978970468044281,0.17995986342430115,0.09607964009046555,0.0867205485701561,0.08877085149288177,0.11555314064025879,0.043582022190093994,-0.028379052877426147,-0.03847765922546387
450,1.6665413335532715,-0.16808976166159664,0.059012190512313545,0.981390655040741,0.16729934513568878,0.09425143897533417,-0.06218290701508522,0.055966828018426895,0.0830756276845932,-0.017767608165740967,0.030942857265472412,-0.027570486068725586
451,1.6642519982754453,-0.17205364998877593,0.0609938073362289,0.9809359908103943,0.1712060421705246,0.09194185584783554,0.040024954825639725,0.007140964735299349,-0.1419295221567154,-0.014306962490081787,0.009366482496261597,0.00620269775390625
452,1.6644767112185825,-0.1848581275905889,0.06957199030040105,0.9786521792411804,0.18380707502365112,0.09194964915513992,-0.25870251655578613,-0.00034464988857507706,-0.114251509308815,-0.033065080642700195,-0.08886690437793732,0.030258052051067352
453,1.6786644606449654,-0.19047412222055313,0.11206891068779837,0.9762076139450073,0.18932446837425232,0.10571201890707016,-0.32954204082489014,0.12096571177244186,-0.14725476503372192,0.0028573274612426758,-0.07990369200706482,-0.048750877380371094
454,1.6856460611481034,-0.1992712260946049,0.13282388642800594,0.9737533926963806,0.19795502722263336,0.1123296469449997,0.00040432438254356384,-0.10917777568101883,-0.07300867140293121,0.041856229305267334,-0.08581821620464325,-0.09166933596134186
455,1.6835796238979064,-0.21273635215343778,0.09135324006260596,0.9712466597557068,0.2111353576183319,0.11000722646713257,0.8332952857017517,0.30559322237968445,-0.16034595668315887,0.13696855306625366,-0.0886988639831543,0.03348635137081146
456,1.6760217656141063,-0.2001629670036375,0.018886241037993072,0.9746134877204895,0.1988290399312973,0.1029343232512474,0.1482405811548233,-0.14097312092781067,0.3017949163913727,0.010081946849822998,-0.05605258047580719,0.11650227755308151
457,1.6866099461134947,-0.17410900769054438,0.013208851861384423,0.9782836437225342,0.17323067784309387,0.11380784958600998,0.18214595317840576,0.2928216755390167,0.25440463423728943,-0.033657848834991455,0.058824971318244934,-0.004249699413776398
458,1.7151101144296768,-0.16052091326138473,-0.01794581351627048,0.9768825173377991,0.1598324477672577,0.14196452498435974,0.243052139878273,0.3085060715675354,0.07678862661123276,-0.006347358226776123,0.058413997292518616,-0.06557907164096832
459,1.7345398007053228,-0.1514288403595154,-0.05884834884453668,0.9753336906433105,0.15085077285766602,0.1611473262310028,0.42296773195266724,0.2174130231142044,0.289888858795166,0.007591843605041504,0.03265143930912018,-0.04780493676662445
460,1.7385699951681919,-0.1227366250785633,-0.08294785227681589,0.9785419702529907,0.12242870032787323,0.1657315045595169,-0.05226945877075195,0.024269772693514824,0.2912302315235138,-0.05875742435455322,0.07640857994556427,-0.009908676147460938
461,1.7344094264921175,-0.11168830562627645,-0.11269733341063937,0.9804978966712952,0.1114562451839447,0.16186925768852234,0.6007997989654541,-0.06262943893671036,0.07359035313129425,0.02632284164428711,0.0555817186832428,0.022518038749694824
462,1.7220928815183894,-0.10605889300203597,-0.15835994713369286,0.9830217957496643,0.10586017370223999,0.14987312257289886,0.25132569670677185,0.05434222146868706,0.1893647462129593,-0.013630807399749756,-0.0001777857542037964,0.12991203367710114
463,1.7307559886136812,-0.09250481636855473,-0.19286554780092002,0.9830129146575928,0.09237294644117355,0.1585974097251892,0.2912577688694,0.12067491561174393,0.11260893940925598,-0.04954111576080322,0.10913463681936264,0.05945064127445221
464,1.7494157813000055,-0.09552334592477457,-0.22017369014803648,0.97960364818573,0.09537813812494278,0.17686119675636292,0.33386075496673584,0.3160459101200104,-0.1618790179491043,-0.06578516960144043,0.08681181073188782,0.013034477829933167
465,1.7726411636019386,-0.1170637901961338,-0.23455240391050647,0.9729931354522705,0.1167965978384018,0.19910494983196259,0.1540541797876358,0.14737631380558014,-0.10387708246707916,0.06165945529937744,-0.0020657777786254883,-0.04183259606361389
466,1.7710700347302244,-0.10258844908245544,-0.23438219841772714,0.9748597741127014,0.10240859538316727,0.19789166748523712,-0.3676583170890808,-0.038775380700826645,0.22092372179031372,-0.04817819595336914,0.029778309166431427,0.06408658623695374
467,1.7702603818575602,-0.09478946014430373,-0.18998601642282634,0.9757727384567261,0.09464757889509201,0.19725453853607178,-0.1807934045791626,-0.08914436399936676,-0.041659995913505554,0.042247891426086426,-0.023816272616386414,0.004146218299865723
468,1.7671303452371319,-0.08370759817053612,-0.19996779505257356,0.9773540496826172,0.08360987901687622,0.19439204037189484,-0.011728287674486637,-0.1930973380804062,0.15113967657089233,-0.02628910541534424,0.04117649793624878,0.043690770864486694
469,1.7731168338886918,-0.07897731855670106,-0.18642611473752999,0.9765494465827942,0.07889524102210999,0.20031669735908508,-0.11564762890338898,0.21763993799686432,0.05479447916150093,-0.008333563804626465,0.046394675970077515,0.040177106857299805
470,1.7781915159021489,-0.0777810931387525,-0.15422608482942288,0.9756118059158325,0.07770268619060516,0.20528902113437653,-0.414840966463089,-0.1611354500055313,-0.06359916925430298,-0.034358322620391846,0.027628719806671143,0.01948818564414978
471,1.7767655639163706,-0.0820631816071562,-0.13842058830245269,0.9755691289901733,0.08197110891342163,0.20382776856422424,0.05344384163618088,0.04732750356197357,-0.11141499131917953,-0.04008316993713379,0.032286711037158966,0.021422535181045532
472,1.77325628382292,-0.10596825968972964,-0.14796695517339786,0.9740802049636841,0.105770044028759,0.19995173811912537,0.42479777336120605,-0.11957962810993195,-0.0705282911658287,0.04011058807373047,-0.017513200640678406,0.015121012926101685
473,1.7628240025126702,-0.11789834143967654,-0.1875688123838685,0.9748048782348633,0.1176254004240036,0.1895248144865036,0.22422611713409424,-0.1435246765613556,-0.04113030806183815,-0.04095178842544556,-0.001277141273021698,0.039601072669029236
474,1.7509513895786002,-0.1326625659488155,-0.19059430516175904,0.9751711487770081,0.13227377831935883,0.1776076704263687,0.04502315819263458,-0.12030315399169922,-0.31989485025405884,-0.015057802200317383,0.05087745189666748,-0.013774052262306213
475,1.740610546363606,-0.15838549456273696,-0.21290887103511336,0.9732792973518372,0.15772411227226257,0.16688388586044312,0.24235431849956512,-0.1241455227136612,-0.14250315725803375,0.004976749420166016,-0.05513930320739746,-0.0012802183628082275
476,1.7329921380514843,-0.16784766981458055,-0.22851344018244985,0.9730061292648315,0.16706065833568573,0.15921616554260254,0.1903316229581833,0.0799969732761383,-0.04825234040617943,-0.001311182975769043,-0.04543285071849823,-0.01848435401916504
477,1.7304932481551603,-0.1646714576454308,-0.2650600176418532,0.9739198088645935,0.16392824053764343,0.15686781704425812,0.3751400113105774,-0.03495314344763756,0.21412310004234314,0.007754206657409668,-0.03032231330871582,-0.023246556520462036
478,1.7268645512051046,-0.1630565971629932,-0.302555185881899,0.9747428297996521,0.16233500838279724,0.15337365865707397,0.43816685676574707,0.11743824928998947,0.007595274597406387,0.01205819845199585,-0.009045228362083435,-0.006889358162879944
479,1.7352884415629903,-0.15870496054445402,-0.32861415646354936,0.9741040468215942,0.15803956985473633,0.16169342398643494,-0.16977986693382263,-0.057897455990314484,-0.13965995609760284,0.11387807130813599,0.09008359909057617,-0.15607821941375732
480,1.7338271987041851,-0.15293107550911247,-0.38652668395891016,0.9752236008644104,0.15233564376831055,0.16041530668735504,1.6858632564544678,0.9201675057411194,0.3431646525859833,0.02315908670425415,-0.007621273398399353,0.054794684052467346
481,1.674459910098351,-0.12536934615929188,-0.5368878850526654,0.9868252873420715,0.1250411868095398,0.10266586393117905,0.8208935260772705,-1.1553434133529663,-0.23397433757781982,-0.19336837530136108,0.12769010663032532,0.12131784856319427
482,1.6127531777806492,-0.17873636884492872,-0.5124119156111576,0.9832029342651367,0.1777862161397934,0.04127632454037666,-0.42228373885154724,-0.22359520196914673,-0.2013453096151352,-0.08284300565719604,-0.19023741781711578,-0.010911352932453156
483,1.5955199122026351,-0.16598923070138247,-0.441786606746938,0.9859539866447449,0.16522803902626038,0.024381285533308983,-0.9319627285003662,-0.6759083271026611,0.22328859567642212,-0.04264038801193237,0.04737265408039093,-0.16393816471099854
484,1.6317052362134052,-0.14672051750999732,-0.2820099025957749,0.9874213933944702,0.1461946815252304,0.060217246413230896,-2.4605774879455566,0.4000912606716156,0.08351240307092667,0.19000780582427979,-0.04786704480648041,-0.1980193853378296
485,1.5925751292147354,-0.1442692901359512,-0.19098321528628184,0.9893763661384583,0.14376935362815857,0.021550839766860008,1.187261700630188,-0.8708711862564087,0.2885919511318207,0.14021635055541992,0.04543961584568024,0.034311532974243164
486,1.5634587395552129,-0.09437693261650969,-0.35891355279860754,0.9955229759216309,0.09423689544200897,-0.00730486772954464,0.9661655426025391,0.5441021919250488,0.4093257784843445,-0.14576107263565063,0.15257403254508972,0.3125874996185303
487,1.6302614988271191,-0.137749004796983,-0.3555106962329177,0.9887768626213074,0.13731379806995392,0.0588671900331974,-0.26769357919692993,0.5002037286758423,-0.6853371262550354,0.0344928503036499,0.07218940556049347,-0.1123492643237114
488,1.6789682564549215,-0.19680388124793943,-0.3695234453647474,0.9749644994735718,0.19553591310977936,0.10587707906961441,0.601176381111145,0.47775328159332275,-0.34604641795158386,0.11570316553115845,-0.13094547390937805,-0.14506161212921143
