,attitude.roll,attitude.pitch,attitude.yaw,gravity.x,gravity.y,gravity.z,rotationRate.x,rotationRate.y,rotationRate.z,userAcceleration.x,userAcceleration.y,userAcceleration.z
0,0.4000100616370657,0.3663680735443925,-2.4994872530044634,0.3635830581188202,-0.3582268953323364,-0.859930694103241,0.29158729314804077,0.06254149973392487,-0.1325148642063141,0.07716703414916992,0.07902160286903381,-0.003808259963989258
1,0.1826312025500129,-0.11463561649794553,-2.018763043472769,0.18042559921741486,0.11438470333814621,-0.9769148826599121,-0.023113466799259186,0.22972925007343292,-0.03498227149248123,-0.00621601939201355,-0.02658563107252121,0.060121119022369385
2,0.2436746466935361,-0.08518002410979299,-2.0168397155629707,0.24039557576179504,0.08507705479860306,-0.9669394493103027,0.44430238008499146,1.1309767961502075,0.025992833077907562,-0.017403632402420044,0.024313203990459442,-0.015421390533447266
3,0.3300022538370464,-0.08599239572814796,-2.035945200487569,0.32284778356552124,0.08588645607233047,-0.9425458908081055,-0.10157075524330139,-0.087967149913311,-0.13055823743343353,-0.005876988172531128,0.054555438458919525,-0.13187116384506226
4,0.282718374820867,-0.038282078398470025,-2.067578922342678,0.27876272797584534,0.03827272728085518,-0.9595970511436462,0.8555291891098022,-0.18750913441181183,-0.10574344545602798,-0.028961122035980225,0.03741086274385452,-0.09071117639541626
5,0.13586222266707074,-0.07807824879861285,-2.085112686334957,0.13503199815750122,0.07799894362688065,-0.987766444683075,-1.0866694450378418,-1.8464393615722656,-0.5564524531364441,-0.03008204698562622,0.07753388583660126,-0.13415127992630005
6,-0.23443681460763127,-0.12894690735572,-2.2127193091798443,-0.23036669194698334,0.12858986854553223,-0.9645702838897705,0.28796932101249695,-2.7270925045013428,-1.2140811681747437,-0.29644298553466797,-0.19015908241271973,-0.04789614677429199
7,-0.17892875366207966,0.05133925500121234,-2.1280571145140432,-0.17774103581905365,-0.05131670460104942,-0.9827383756637573,2.1115920543670654,-1.254441738128662,1.2271007299423218,0.36737728118896484,0.3555769622325897,-0.6275063753128052
8,-0.36794129478803966,0.01844939395864394,-2.0454556501470282,-0.35963407158851624,-0.018448347225785255,-0.9329110383987427,-0.19765517115592957,2.5896782875061035,0.7970438599586487,0.14353910088539124,-0.0513453483581543,0.6918832063674927
9,-0.34829239478141427,0.01072598657630089,-1.968823008312704,-0.34127360582351685,-0.010725781321525574,-0.9399028420448303,0.02263518050312996,-0.12318789213895798,1.0369499921798706,0.059825241565704346,-0.09297294914722443,0.4943004250526428
10,-0.08553487358517645,0.0659756179793594,-1.9704368006340118,-0.08524475246667862,-0.06592776626348495,-0.99417644739151,0.21888485550880432,4.853147029876709,-0.7350220680236816,0.311593621969223,0.12554386258125305,0.6223198175430298
11,0.5504209512513806,0.10490006842140101,-2.078793246886305,0.5201708674430847,-0.10470778495073318,-0.8476192951202393,1.0578185319900513,6.2775750160217285,-1.0502909421920776,0.09539914131164551,-0.03568831831216812,-0.013540923595428467
12,1.1922817759959345,0.20351469883521353,-2.3225127635193386,0.9100376963615417,-0.20211273431777954,-0.36191409826278687,4.439351558685303,6.250093936920166,-0.26951250433921814,0.24909621477127075,-0.10678620636463165,-0.20557552576065063
13,1.935612107758887,0.22693729694932932,-2.7961954709048475,0.9102370142936707,-0.22499440610408783,0.34762948751449585,6.620944976806641,6.4523820877075195,1.503930687904358,0.2802690267562866,-0.22021126747131348,-0.5014076232910156
14,2.4558475329310827,0.02743772190455357,3.131075784896234,0.6330116391181946,-0.027434280142188072,0.7736562490463257,2.5961661338806152,3.3056719303131104,0.3472863435745239,0.12173402309417725,-0.20318706333637238,-0.05237323045730591
15,2.710750658833388,-0.042848744892456866,2.938558374068347,0.4172526001930237,0.04283563420176506,0.9077802896499634,1.1392436027526855,2.0520384311676025,1.1191225051879883,0.005019038915634155,0.10502202808856964,-0.053379833698272705
16,2.8442128853128956,-0.11038770801567675,2.8128063938314343,0.2912325859069824,0.11016365885734558,0.9502883553504944,0.6244601011276245,1.351983666419983,0.23043352365493774,0.007519274950027466,0.1759386658668518,-0.02743661403656006
17,2.9120141165333164,-0.1296253339247329,2.794917147234826,0.22565792500972748,0.12926262617111206,0.9655928015708923,-0.10451281070709229,-0.009614263661205769,0.09379672259092331,0.000889316201210022,0.13573674857616425,-0.14845424890518188
18,3.118960975639854,-0.07824404526339783,2.786984726884466,0.022560516372323036,0.0781642347574234,0.9966854453086853,-0.8927066326141357,0.33539366722106934,-0.23236803710460663,-0.0034412462264299393,0.00980270653963089,0.262042760848999
19,3.127853678968438,-0.0564193266343772,2.792508976809928,0.013716683723032475,0.056389398872852325,0.9983147382736206,-0.38932254910469055,0.11848237365484238,0.01091785542666912,0.0030374685302376747,-0.015419542789459229,0.007865190505981445
20,-3.115793200435269,-0.0037340047689029053,2.7950668945367645,-0.02579641342163086,0.003733996069058776,0.999660313129425,-0.6159271597862244,0.40530264377593994,-0.20978152751922607,0.007714748382568359,-0.0048631466925144196,0.009784936904907227
21,-3.09736781318149,0.028917941734235918,2.8162045895431524,-0.04419194534420967,-0.028913911432027817,0.9986046552658081,-0.3623109459877014,0.24871431291103363,-0.03870595619082451,-0.027203932404518127,0.007856780663132668,0.006400346755981445
22,-3.091282695892814,0.01528302402229894,2.8215634327343158,-0.050282854586839676,-0.015282428823411465,0.9986178874969482,0.17944970726966858,0.040857888758182526,0.07579739391803741,-0.02193698287010193,-0.05176468938589096,0.023156166076660156
23,-3.074957258698975,-0.01001930327410298,2.8323252461821093,-0.06658276170492172,0.010019135661423206,0.9977307319641113,0.11434245854616165,-0.1161779910326004,-0.038245320320129395,0.019890859723091125,-0.04230673238635063,0.004512429237365723
24,-3.079957035679092,-0.009288721242475829,2.833449120398112,-0.061593931168317795,0.009288587607443333,0.9980579018592834,0.021834339946508408,-0.09644868224859238,-0.10778382420539856,-0.006017748266458511,0.017154891043901443,-0.010463476181030273
25,3.130715422309297,-0.010264724263359587,2.8088691153865257,0.01087644137442112,0.010264543816447258,0.9998879432678223,-0.043878499418497086,-0.08659331500530243,0.1874603033065796,0.05252382531762123,-0.06504359841346741,0.13344311714172363
26,3.1305658968031485,-0.010017089144131965,2.8029627628718816,0.011025981977581978,0.010016921907663345,0.9998891949653625,-0.0013915523886680603,0.008309116587042809,-0.001520887715741992,-0.004617289640009403,-0.006873609498143196,-0.004954934120178223
27,3.131100872808825,-0.009992061187601257,2.8003222981190574,0.010491063818335533,0.009991894476115704,0.9998950362205505,0.0011691367253661156,-0.0029261126182973385,0.0015391691122204065,-0.005959204398095608,0.006014574319124222,0.002958357334136963
28,3.1316079264604095,-0.010185455784958256,2.800032365763718,0.009984045289456844,0.01018527988344431,0.9998984932899475,0.0003619519993662834,-0.0005584890022873878,0.0008684308268129826,-0.0076494477689266205,-0.009407078847289085,0.0035349130630493164
29,3.1321688974264963,-0.010194539234638788,2.8001024991533376,0.009423126466572285,0.010194363072514534,0.9999035596847534,-0.0015536891296505928,0.0027012978680431843,-0.0007070050342008471,-0.0030602123588323593,0.008909640833735466,0.0005083084106445312
30,3.1326551843863566,-0.010663398746494773,2.7992488227896706,0.008936844766139984,0.010663196444511414,0.9999035000801086,-0.0013879025354981422,0.0005248873494565487,0.0014528504107147455,-0.00951667595654726,0.007662612944841385,-0.0008492469787597656
31,3.133104447205982,-0.010652063868620627,2.799210006180178,0.008487621322274208,0.010651862248778343,0.9999070763587952,-0.0008864793926477432,0.0013229618780314922,-0.0019605522975325584,-0.0023230724036693573,-0.010209358297288418,-0.0007770061492919922
32,3.133446213975447,-0.010500733341059392,2.7992196262042603,0.008145900443196297,0.010500540025532246,0.9999116659164429,-6.207916885614395e-05,-0.0014957166276872158,-0.000704617821611464,-0.005353543907403946,0.0019048526883125305,-0.0010561347007751465
33,3.1338398667677803,-0.010844971661379824,2.7992366704828884,0.007752252742648125,0.010844758711755276,0.9999110698699951,0.0016558379866182804,0.0008382052183151245,0.0007568167056888342,-0.004608943127095699,0.00597042590379715,-0.000643610954284668
34,3.1341881039279094,-0.01081088829889814,2.7992270141070383,0.007404049392789602,0.010810677893459797,0.9999141693115234,0.0010319692082703114,0.0011103302240371704,-0.002715139649808407,-0.0008732876740396023,-0.0016096271574497223,0.0007877349853515625
35,3.134446390349287,-0.010831581328753644,2.7992772752540325,0.007145782001316547,0.010831369087100029,0.999915599822998,0.002242179587483406,-0.001623234711587429,0.001433374360203743,-0.005223175510764122,0.004625783301889896,0.0015947818756103516
36,3.134784487268858,-0.010906698111594554,2.7992389506241278,0.0068077086471021175,0.010906482115387917,0.9999173283576965,-0.000913756899535656,-0.0023234188556671143,0.0011745456140488386,0.00010452186688780785,-0.007656360976397991,-5.4717063903808594e-05
37,3.1350346582046758,-0.01086998897311648,2.7988739378306016,0.006557559594511986,0.010869774967432022,0.9999192357063293,0.001348838210105896,-0.00012379977852106094,-0.00043150270357728004,-0.0029717455618083477,0.003107273019850254,-0.0005755424499511719
38,3.135264956882199,-0.011112281534839155,2.7989131850395808,0.006327263079583645,0.011112052947282791,0.9999181628227234,0.001032095868140459,0.001165764406323433,-0.00023379921913146973,-0.004770867060869932,0.007213751785457134,0.0008751749992370605
39,3.1355080428582887,-0.01113437670756616,2.798859639040903,0.006084197200834751,0.011134146712720394,0.9999197125434875,0.0019781943410634995,0.0004370594397187233,-0.0006557103479281068,-0.0004689614288508892,-0.00496959313750267,0.00014150142669677734
40,3.135693678820544,-0.011056646736950384,2.798900045045603,0.005898579489439726,0.01105642132461071,0.9999213814735413,-0.0003972891718149185,0.001335623674094677,0.0008283574134111404,-0.0018702601082623005,0.00043344590812921524,0.0007041096687316895
41,3.135879605677766,-0.011116263507990073,2.798441181471872,0.005712665151804686,0.011116034351289272,0.9999220967292786,0.0007970156148076057,0.00042331404983997345,0.0011314922012388706,-0.0013028737157583237,-0.0023574866354465485,0.0011614561080932617
42,3.136005266999542,-0.011185617399013293,2.7984491767171185,0.005587007384747267,0.01118538435548544,0.9999216794967651,-0.00022248178720474243,0.0023737195879220963,0.0011816525366157293,-0.002123262733221054,0.002837441861629486,0.0002154707908630371
43,3.1361580686447086,-0.011386220228367123,2.7976405173558354,0.00543420622125268,0.01138597447425127,0.9999204277992249,-0.0002457061782479286,-0.0026805330999195576,0.003185587003827095,-0.00293176481500268,0.004513682797551155,-0.0012784600257873535
44,3.136300598773394,-0.011394383877807482,2.79735326518118,0.005291687790304422,0.011394137516617775,0.9999213218688965,0.0008547529578208923,-0.0011791209690272808,0.0010487053077667952,-0.0006224974058568478,-0.0054889824241399765,0.0008265972137451172
45,3.136434726707898,-0.01131928861410203,2.7973394611423203,0.00515757454559207,0.011319046840071678,0.9999228119850159,-0.0022383099421858788,-0.00017123669385910034,-0.0006502425530925393,-0.000396831426769495,0.0013762684538960457,-0.00027358531951904297
46,3.1366056241421276,-0.011375751075349513,2.7973790194202097,0.0049866861663758755,0.011375505477190018,0.9999229311943054,-0.002748788334429264,-0.00031330855563282967,-0.0011564100859686732,-0.0023469161242246628,0.0011061839759349823,0.00045859813690185547
47,3.1367258688238393,-0.011380730995073961,2.7973962214112498,0.004866449628025293,0.011380485258996487,0.9999232292175293,0.0011972542852163315,0.00019212905317544937,-0.002014034427702427,-0.001799433957785368,0.0014063762500882149,0.00019866228103637695
48,3.1368817424285105,-0.011411218438602704,2.7974198566786352,0.004710586741566658,0.01141097117215395,0.9999237656593323,-0.0005649756640195847,0.0006959806196391582,0.0006174943409860134,-0.0012773596681654453,0.0016963277012109756,0.0003203153610229492
49,3.1369101544931746,-0.011351751949403747,2.797009814179559,0.004682179540395737,0.0113515080884099,0.9999244213104248,-0.0035286294296383858,-0.0003165788948535919,5.068304017186165e-05,-0.0002876492217183113,-0.00570575799793005,-1.615285873413086e-05
50,3.1370753171998658,-0.011264504709134707,2.7970681022310693,0.004517034161835909,0.011264266446232796,0.9999263286590576,0.00020246952772140503,0.001215125434100628,-0.0003483877517282963,0.0007777651771903038,0.0019956203177571297,-0.0002620816230773926
51,3.1371844827374686,-0.011366524536560977,2.796724318977548,0.004407871514558792,0.011366279795765877,0.9999256134033203,0.0009738621301949024,9.938282892107964e-05,-0.00019516353495419025,-0.0012187850661575794,0.004014578647911549,-0.0007191896438598633
52,3.1372900409744546,-0.011326764904545598,2.796733223346178,0.00430232472717762,0.011326522566378117,0.9999268651008606,0.0012561967596411705,-0.0009386432357132435,-0.0025436105206608772,0.00016850093379616737,-0.002796858549118042,0.0007294416427612305
53,3.1373807982453124,-0.011247074397871402,2.796763258517361,0.004211575724184513,0.011246837675571442,0.9999277591705322,0.0006641009822487831,-0.00017427513375878334,-0.0016096348408609629,0.0004270956851541996,-1.1110678315162659e-06,0.00013315677642822266
54,3.13746809937399,-0.01128857078815828,2.7968159700461537,0.004124279133975506,0.011288330890238285,0.9999276995658875,0.0014797435142099857,0.00011789519339799881,-0.00030090659856796265,-0.001988049130886793,-0.0002562282606959343,0.00040787458419799805
55,3.137562292839675,-0.011337691565484502,2.79679400321676,0.004030091222375631,0.011337448842823505,0.9999277591705322,0.0032660788856446743,-0.0005101794376969337,-0.001693323953077197,0.00042547518387436867,0.002715897746384144,0.00013339519500732422
56,3.137555014404691,-0.01141815929770843,2.79682933314745,0.004037364386022091,0.011417911387979984,0.9999265074729919,0.0018325727432966232,0.001142779365181923,0.0011831722222268581,-0.0009550899267196655,0.0014299862086772919,0.00010383129119873047
57,3.1376249552514226,-0.011358891746163391,2.7961774371187214,0.003967431839555502,0.011358647607266903,0.9999276399612427,7.189810276031494e-06,0.004106719046831131,0.000588512746617198,0.00036606425419449806,-0.003866582177579403,0.0008200407028198242
58,3.1376624979854184,-0.011296181888812746,2.796145699317059,0.003929894417524338,0.011295941658318043,0.9999284148216248,0.00036937277764081955,-0.0026350575499236584,-0.00038510956801474094,0.0005409303121268749,-0.00027909688651561737,0.0016126632690429688
59,3.137691109910064,-0.011429953409457561,2.7942593143178582,0.0039012781344354153,0.01142970472574234,0.9999268651008606,0.0014131153002381325,-0.0022290172055363655,-0.0030965362675487995,-0.00225332984700799,0.001540263183414936,-0.00029331445693969727
60,3.1377943773823587,-0.011399444101766236,2.7929663627480337,0.0037980207707732916,0.01139919739216566,0.9999279379844666,0.0008788770064711571,0.00016772234812378883,-0.0026448986027389765,0.0007338395807892084,0.0014944793656468391,-0.0006908178329467773
61,3.1378047462804384,-0.011374778938835485,2.791670728105637,0.0037876537535339594,0.011374534107744694,0.9999282360076904,0.0006190408021211624,-0.0006788945756852627,-0.0006805890006944537,-0.002383844694122672,-5.251169204711914e-05,0.0007890462875366211
62,3.1378353746620484,-0.01129257008873073,2.7904392376617007,0.003757031401619315,0.011292329989373684,0.9999294281005859,-0.0031275488436222076,0.0012809662148356438,-0.0009741389658302069,0.002850024960935116,-0.0022438671439886093,0.001734018325805664
63,3.137814593788191,-0.011251866327236747,2.790434692665764,0.0037778124678879976,0.011251629330217838,0.9999297857284546,0.0001975828781723976,9.102234616875648e-05,0.0010884939692914486,0.00798671506345272,0.0038850922137498856,0.0008333921432495117
64,3.137813670232511,-0.011297767315252692,2.7904704295137894,0.003778733778744936,0.011297526769340038,0.9999291896820068,0.0018542376346886158,0.0002379855141043663,5.6328484788537025e-05,-0.0022070780396461487,-0.0002654213458299637,-0.00031054019927978516
65,3.1377247761729676,-0.011300987086751476,2.790468749098851,0.003867620602250099,0.011300746351480484,0.9999285936355591,-0.00020378362387418747,0.0003988891839981079,0.0002656246069818735,-0.003287786850705743,-0.0017182277515530586,0.0004375576972961426
66,3.137858692613491,-0.011284590665488304,2.7904569813786826,0.003733714809641242,0.011284351348876953,0.9999294281005859,0.0007126526907086372,0.000876840204000473,0.0013471662532538176,0.006916920188814402,-0.0007710447534918785,-0.0009365081787109375
67,3.1377374393124797,-0.011289339374602117,2.7902372527343533,0.003854958573356271,0.011289099231362343,0.9999287128448486,-0.001537834294140339,0.00027161138132214546,-0.001397977932356298,-0.006647317670285702,-0.002637367695569992,0.000574648380279541
68,3.137866657206471,-0.011287133528654016,2.7902443142101347,0.0037257515359669924,0.011286893859505653,0.999929666519165,0.0013700621202588081,0.0013025030493736267,0.00031997705809772015,0.0031559632625430822,0.0039108628407120705,0.0004673004150390625
69,3.1379147900018562,-0.011380329955303125,2.790237619429975,0.003677617758512497,0.011380083858966827,0.9999286532402039,0.0011786422692239285,-0.0020817704498767853,0.0003449339419603348,0.0012204544618725777,1.8234364688396454e-05,-0.00043201446533203125
70,3.1378722116323594,-0.011309656547887842,2.7902823380041917,0.0037201957311481237,0.011309415102005005,0.9999291896820068,-0.00010162778198719025,-0.0005745221860706806,0.0016894389409571886,0.0011015820782631636,-0.0023982813581824303,7.081031799316406e-05
71,3.1378860630065484,-0.0112680726469509,2.790283689536518,0.0037063462659716606,0.011267834343016148,0.9999294877052307,-0.002352396957576275,-0.0017993771471083164,-0.0006816522218286991,0.002839673776179552,0.0013664430007338524,-0.00043320655822753906
72,3.137823382601089,-0.0113623198573987,2.790280970244836,0.0037690196186304092,0.011362075805664062,0.9999285936355591,0.0013542333617806435,0.003756965510547161,0.001401145476847887,-0.005798437632620335,0.00021934881806373596,0.0007735490798950195
73,3.137967287829737,-0.011368287135432309,2.7902994957441742,0.003625123528763652,0.01136804185807705,0.9999288320541382,-0.0011400533840060234,-0.0005669207312166691,-0.0009661060757935047,0.003287107916548848,0.0010526115074753761,0.0008951425552368164
74,3.1380431483467053,-0.011341443113718236,2.7902996457069147,0.0035492705646902323,0.011341200210154057,0.999929666519165,0.00040694233030080795,0.0011206106282770634,0.0008419300429522991,0.0017150125931948423,-0.0005990089848637581,-0.0006313323974609375
75,3.13797796237615,-0.01134074545269174,2.7902453418104725,0.0036144510377198458,0.01134050264954567,0.9999291896820068,0.00012708920985460281,0.0011311876587569714,-0.0002388092689216137,-0.0028362527955323458,-0.002795579843223095,0.001260995864868164
76,3.1380148476387135,-0.011350595225214463,2.790258953638504,0.0035775674041360617,0.011350351385772228,0.9999290108680725,0.002313682809472084,0.0024818475358188152,0.0013670844491571188,0.002541206544265151,0.0019247941672801971,-0.0005395412445068359
77,3.1380057385713886,-0.011421670057733934,2.7902057994672034,0.003586672944948077,0.01142142154276371,0.9999282360076904,-0.00017339549958705902,0.0002674148418009281,0.0017520654946565628,-0.0015572546981275082,0.00028206873685121536,0.0007582902908325195
78,3.138008961691517,-0.011365393667494192,2.78990754889913,0.003583452431485057,0.011365149170160294,0.999928891658783,0.0035460381768643856,0.0012838277034461498,-0.000388628919608891,1.7621787264943123e-05,9.420141577720642e-05,-0.0007529854774475098
79,3.1380723321395982,-0.011350842193628391,2.7876743228425633,0.003520087106153369,0.011350598186254501,0.9999293088912964,-0.0025378279387950897,-0.00017916131764650345,-1.976010389626026e-05,0.0024308399297297,-0.000638929195702076,-0.0003871917724609375
80,3.1380135678608787,-0.011320318329846068,2.787122209841709,0.00357884936966002,0.011320076882839203,0.999929666519165,-0.001833050511777401,5.367211997509003e-05,-0.0023636496625840664,-0.0021902990993112326,-0.00044055841863155365,0.0002535581588745117
81,3.1381079100717786,-0.011417936091671077,2.786477022017399,0.003484509652480483,0.011417687870562077,0.9999288320541382,0.0016065281815826893,0.0011692461557686329,0.001293065259233117,0.00040648155845701694,0.0012623658403754234,-0.0003103017807006836
82,3.1381214131401185,-0.011441330642985983,2.785075129514862,0.003471006639301777,0.011441080830991268,0.9999285936355591,0.001085235271602869,0.00022883014753460884,-0.0006325165741145611,0.0003742082044482231,0.0004912912845611572,0.001185297966003418
83,3.138097031802731,-0.011349530993556914,2.783041051523268,0.0034953898284584284,0.011349286884069443,0.9999295473098755,2.3196451365947723e-05,-0.0016132271848618984,0.0009553756099194288,-0.000535184983164072,-0.0018430622294545174,0.0011233091354370117
84,3.1381378630961043,-0.011317491734696167,2.782385068850136,0.0034545620437711477,0.011317250318825245,0.9999299049377441,0.0016386755742132664,0.0007237228564918041,0.0007070694118738174,0.0015655788592994213,8.10651108622551e-05,-0.0011202096939086914
85,3.1380260717419968,-0.011350546130795572,2.7821445794281403,0.003566345665603876,0.011350302025675774,0.9999295473098755,-8.34362581372261e-05,0.0011897673830389977,-0.001726505346596241,-0.0005298457108438015,0.0003837095573544502,0.0010777711868286133
86,3.138035265482166,-0.011384437653643237,2.7821523057173305,0.00355715025216341,0.011384191922843456,0.999928891658783,-0.0008238824084401131,-0.000647200271487236,0.00015905103646218777,-0.0004596160724759102,0.0005024047568440437,0.00014734268188476562
87,3.138086585894936,-0.011375150186829134,2.7820821832524776,0.0035058341454714537,0.01137490477412939,0.9999293088912964,0.00022668298333883286,0.0033330265432596207,-7.927371188998222e-05,0.0022162122186273336,-9.86587256193161e-05,0.0004980564117431641
88,3.137993279554376,-0.011355726081692481,2.7820423324354833,0.0035991352051496506,0.011355482041835785,0.9999293088912964,0.0011857878416776657,-0.0014884662814438343,0.0018681904766708612,-0.001813855953514576,-0.002169688232243061,0.0008643865585327148
89,3.1380280846462374,-0.01133033936178742,2.781599095227292,0.0035643326118588448,0.01133009698241949,0.9999294281005859,0.000837396364659071,-0.00102891493588686,-0.0005262634949758649,0.0023103009443730116,0.0011668503284454346,5.525350570678711e-05
90,3.1379955666910733,-0.0113949506538931,2.7810546515792267,0.0035968467127531767,0.011394703760743141,0.999928891658783,-0.0014006802812218666,0.0021902089938521385,0.0003510455135256052,-0.002788129262626171,0.0007665539160370827,0.000971674919128418
91,3.1380028757583096,-0.011374904453488764,2.780407512093255,0.0035895381588488817,0.011374658904969692,0.9999289512634277,0.0009209061972796917,9.955838322639465e-06,0.0021045689936727285,0.0017052616458386183,-6.789620965719223e-05,0.0006051063537597656
92,3.1379689138960596,-0.01136767921578205,2.7795656923215977,0.003623497672379017,0.0113674346357584,0.9999288320541382,0.00013375654816627502,0.0015587741509079933,-0.0012568042147904634,3.8611702620983124e-05,0.00012243445962667465,0.0004221200942993164
93,3.1379804208920206,-0.011424278169211927,2.779209265520119,0.0036119900178164244,0.011424029245972633,0.9999284744262695,-0.0008327458053827286,0.0011335713788866997,-6.2502920627594e-05,-0.00045341975055634975,0.00014213472604751587,-4.5299530029296875e-06
94,3.1380189968865855,-0.011440828240818882,2.779229640121229,0.0035734158009290695,0.01144057884812355,0.99992835521698,-0.0013164244592189789,-0.0007182518020272255,0.0005995123647153378,0.0010957741178572178,0.0011174054816365242,0.0007278919219970703
95,3.1379414607148446,-0.011445891965006904,2.7792255439474505,0.0036509460769593716,0.011445642448961735,0.9999279379844666,0.0006781294941902161,0.0010482408106327057,0.00014290702529251575,-6.513018161058426e-05,0.0005325078964233398,0.0008045434951782227
96,3.1378912325742467,-0.011490372310794441,2.779209944129863,0.0037011676467955112,0.011490119621157646,0.9999269843101501,-0.001175672747194767,-0.0001436229795217514,-0.00024557369761168957,0.00020508188754320145,-0.0014193197712302208,0.0005916357040405273
97,3.137917754771662,-0.011479828873158635,2.7791890251355467,0.003674648702144623,0.011479577049612999,0.9999274611473083,0.001114126294851303,-0.00048030680045485497,-0.0005885633872821927,0.0017879982478916645,7.132813334465027e-05,-1.895427703857422e-05
98,3.1379358258312684,-0.01149512537715829,2.7791977713189233,0.0036565777845680714,0.011494872160255909,0.9999271631240845,-0.0013300050050020218,0.002209771890193224,0.0003853505477309227,-0.0007421495392918587,-0.00023388676345348358,0.0010492801666259766
99,3.1379626740544015,-0.011489888370091505,2.779002461878606,0.003629732644185424,0.011489635333418846,0.9999275803565979,-0.0020958781242370605,-0.00010837102308869362,0.00027092592790722847,0.0004748823121190071,0.0005953265354037285,0.0008965730667114258
100,3.137973657320013,-0.0114056657833611,2.778958070133244,0.003618753980845213,0.011405418626964092,0.9999286532402039,-0.0009161513298749924,-0.001236251089721918,-0.0001794719137251377,-0.00013974960893392563,6.919167935848236e-05,0.0005140304565429688
101,3.137958835441466,-0.01138159131179425,2.778894988228563,0.0036335752811282873,0.011381345801055431,0.9999287128448486,0.00015552714467048645,-0.0006955275312066078,0.0020392490550875664,-0.0002461241092532873,-0.0010969210416078568,0.0006053447723388672
102,3.1379121234980114,-0.011321442617709013,2.778826064564471,0.003680286230519414,0.011321200989186764,0.9999292492866516,-0.002120375633239746,-0.0004323739558458328,-0.002735974034294486,0.0023164181038737297,0.0007179854437708855,0.00023865699768066406
103,3.137859479119135,-0.011347419805444275,2.7786526008812307,0.003732925746589899,0.011347176507115364,0.9999287724494934,-0.0033667301759123802,0.0008739233016967773,3.647059202194214e-05,-0.0007879794575273991,0.0007988195866346359,0.0017802715301513672
104,3.1379418268866237,-0.011337358820978931,2.778655328452731,0.0036505842581391335,0.011337116360664368,0.9999291300773621,-0.0006254799664020538,-0.0005909819155931473,0.00019220728427171707,0.0012322282418608665,-7.613003253936768e-05,0.00022351741790771484
105,3.1379527310856563,-0.011229214803683158,2.7786585076867736,0.003639684524387121,0.011228978633880615,0.9999302625656128,-0.00015388242900371552,0.0019926284439861774,0.00010160799138247967,0.0008463992271572351,-9.006448090076447e-05,0.0005579590797424316
106,3.137990071031743,-0.011198651107883312,2.7781577660417764,0.0036023494321852922,0.011198417283594608,0.9999309778213501,-0.0009811539202928543,0.001469994429498911,-0.0007034031441435218,0.0002581244334578514,-0.0001815706491470337,0.00011491775512695312
107,3.1380246143574406,-0.011234929759312198,2.777688296752296,0.0035678064450621605,0.011234693229198456,0.9999305605888367,-0.0012543350458145142,-0.0014036321081221104,-0.0002500645350664854,0.0006741366814821959,0.0013995831832289696,-0.0005256533622741699
108,3.138001938931772,-0.011257896232836424,2.7776956968415667,0.0035904794931411743,0.011257658712565899,0.999930202960968,0.004936625249683857,-0.001817110925912857,0.00040661334060132504,-0.001286402577534318,0.0001101391389966011,-0.00015908479690551758
109,3.1380300033625574,-0.011276859138247013,2.7776258571757237,0.0035624168813228607,0.01127662044018507,0.9999302625656128,0.0012857555411756039,0.0006630541756749153,-0.0004062869120389223,0.0016103126108646393,-0.00102271419018507,-0.0004794597625732422
110,3.1380543240056435,-0.011253597703231756,2.7774628936222516,0.0035380981862545013,0.011253359727561474,0.9999303817749023,-3.761798143386841e-05,-0.00035509560257196426,-0.0025588676799088717,3.2458221539855e-05,-0.00026703253388404846,0.00043576955795288086
111,3.138051825389781,-0.011271962662103289,2.777448583434204,0.003540595294907689,0.011271723546087742,0.9999300837516785,0.0019349828362464905,0.0009351940825581551,0.0023704655468463898,1.470162533223629e-05,0.0009810812771320343,0.0002834200859069824
112,3.1380686541502176,-0.011341711964940895,2.776995459360154,0.003523766528815031,0.011341468431055546,0.9999297261238098,3.2182782888412476e-05,-0.0006035487167537212,0.0009744500275701284,0.0011454233899712563,0.0004840930923819542,0.0010927915573120117
113,3.1380188709186925,-0.011332974251731303,2.7767285098508374,0.0035735447891056538,0.011332731693983078,0.9999291300773621,1.141335815191269e-05,-0.0004182159900665283,0.002224729862064123,-0.0009642927907407284,-0.0010940870270133018,-2.09808349609375e-05
114,3.1380502613952905,-0.011264498097468632,2.7763210712883617,0.003542159451171756,0.011264259926974773,0.9999300837516785,-0.0011608554050326347,0.0004461160860955715,-0.0027503021992743015,0.0007455593440681696,-4.905369132757187e-05,0.0005732178688049316
115,3.1381106099623346,-0.011273153926098447,2.7753615731866015,0.003481816267594695,0.011272914707660675,0.9999306201934814,0.002321124542504549,-0.00035799620673060417,-0.0007012250134721398,0.00013451790437102318,0.0003542844206094742,0.0010461807250976562
116,3.1381194594121173,-0.011299685827687096,2.775178881178593,0.0034729656763374805,0.011299445293843746,0.9999301433563232,0.00017890706658363342,-0.0009335535578429699,-0.0013572131283581257,-0.0005585364997386932,-0.00011475291103124619,0.0004818439483642578
117,3.1380580064169807,-0.011323313139436589,2.7743630958655445,0.0035344127099961042,0.011323071084916592,0.9999295473098755,1.9390136003494263e-05,-0.0012036203406751156,-0.0018267622217535973,0.0007380477618426085,-0.0005198493599891663,-0.00026535987854003906
118,3.138010258966763,-0.011257488359243678,2.7733059191734437,0.003582160221412778,0.011257250793278217,0.9999303221702576,-0.00017695967108011246,0.0005905241705477238,0.0016600496601313353,-0.0004693672526627779,-0.0009270505979657173,0.000664830207824707
119,3.1379879568888804,-0.011314926699803694,2.7728615075992917,0.00360445911064744,0.011314685456454754,0.9999297261238098,8.831825107336044e-05,0.0008027129806578159,0.00046089966781437397,-0.0010104645043611526,-0.00019102729856967926,0.0017489194869995117
120,3.1380935393136067,-0.011295176613524117,2.7724015325708344,0.0034988841507583857,0.011294936761260033,0.9999301433563232,0.0030103959143161774,0.0025871889665722847,-0.0026585410814732313,0.0006209888961166143,-0.00017127953469753265,0.0008022785186767578
121,3.1381160099611125,-0.011327072374091928,2.7718527644751787,0.0034764136653393507,0.01132682990282774,0.9999297857284546,-0.0014898786321282387,0.0005758730694651604,-0.002118205651640892,-0.0015995828434824944,0.00010200124233961105,0.00048214197158813477
122,3.138137925132586,-0.011367501398918265,2.771382748204963,0.0034544982481747866,0.011367256753146648,0.9999293684959412,0.0005885455757379532,0.0010837125591933727,-0.0015931122470647097,0.0015046081971377134,-0.0001520467922091484,-0.0012722015380859375
123,3.138120295708308,-0.011371032883635524,2.7704344282266438,0.0034721253905445337,0.011370787397027016,0.9999290704727173,-6.261840462684631e-05,0.000901258084923029,0.0008687039371579885,0.000632487703114748,0.00016485340893268585,5.537271499633789e-05
124,3.1381065557328793,-0.011347398514686512,2.7703951797703845,0.003485867055132985,0.011347155086696148,0.9999297261238098,0.00013783201575279236,-0.0006099371239542961,0.0019708764739334583,0.00032883044332265854,0.0002495255321264267,-0.00023472309112548828
125,3.1380806391065352,-0.011374321220840422,2.7702312753242757,0.003511779010295868,0.011374075897037983,0.9999288320541382,-0.0015813019126653671,-0.00013460591435432434,-0.0021475094836205244,0.0004555049818009138,-0.0007234448567032814,0.000986337661743164
126,3.1381103774979553,-0.011365609238771526,2.7700262560467577,0.0034820439759641886,0.01136536430567503,0.9999293088912964,0.0006505101919174194,0.0011607990600168705,0.0007721723522990942,-7.933448068797588e-05,-7.386133074760437e-05,0.0008183121681213379
127,3.1381036151594106,-0.011373123346417052,2.769407375852201,0.0034888056106865406,0.011372878216207027,0.9999292492866516,-0.0015536285936832428,-0.0007473165169358253,0.000129450811073184,0.00046322052367031574,0.00043742358684539795,0.0006200671195983887
128,3.138035000323418,-0.01139406267535028,2.7690587802319007,0.0035574142821133137,0.011393816210329533,0.9999286532402039,0.000558534637093544,-0.0018605543300509453,-0.0002964918967336416,0.00044038775376975536,0.0007369192317128181,0.0003306269645690918
129,3.137985826262909,-0.011414438353469707,2.7688250225999345,0.0036065843887627125,0.011414190754294395,0.99992835521698,0.00249331071972847,-0.002337610349059105,-0.002269735559821129,0.00020811287686228752,0.00039611198008060455,0.00045311450958251953
130,3.137996897791853,-0.011422192074975291,2.7687517470265495,0.0035955135244876146,0.01142194401472807,0.99992835521698,9.289849549531937e-05,-0.0013741282746195793,-0.0012502782046794891,-0.0002690977416932583,-0.0008018268272280693,-1.990795135498047e-05
131,3.138059812516821,-0.011366496497453504,2.7687129816971487,0.00353260594420135,0.011366251856088638,0.9999293088912964,-0.0011686310172080994,0.0013331715017557144,-0.0004894991870969534,0.0002210561651736498,-1.3712793588638306e-05,0.0009253025054931641
132,3.138018842054102,-0.011336540937178228,2.768622450240561,0.0035735745914280415,0.01133629772812128,0.9999294281005859,0.002121325582265854,-0.0015669520944356918,-0.0005974171217530966,-0.0005675931461155415,0.00018408801406621933,-0.0003566741943359375
133,3.1380123261334028,-0.01133119780671101,2.7687047824693405,0.0035800898913294077,0.011330955661833286,0.9999293684959412,-0.000994918867945671,-0.0014894059859216213,0.0006296415813267231,0.0006618532352149487,0.0008608177304267883,0.0010166168212890625
134,3.1379694765693658,-0.011291703614441921,2.7687337308358364,0.003622938646003604,0.011291463859379292,0.9999298453330994,0.0010927398689091206,0.00017722975462675095,0.00033911876380443573,-0.0005101452115923166,0.0003662519156932831,0.001153707504272461
135,3.1379665986550713,-0.0112967847954975,2.7687586632466465,0.0036258166655898094,0.011296544224023819,0.9999299049377441,-0.0005621882155537605,-0.0004112967289984226,0.002209288999438286,0.0005245748907327652,-0.0007832366973161697,0.00028395652770996094
136,3.1379185519140482,-0.011290249873486381,2.7686622376598473,0.0036738591734319925,0.011290010064840317,0.9999294877052307,-0.001597454771399498,-0.001226076390594244,-0.0007144352421164513,0.00014083762653172016,0.0003066686913371086,0.0003298521041870117
137,3.1379290933277626,-0.01134572037863927,2.768523717065054,0.0036633170675486326,0.01134547684341669,0.9999291300773621,0.0013872049748897552,-0.0004949523136019707,-0.0014522908022627234,2.9310816898941994e-05,0.000602157786488533,-8.153915405273438e-05
138,3.1379212965900516,-0.01134673883795426,2.7685398068400393,0.003671113168820739,0.01134649571031332,0.9999291300773621,0.0004479503259062767,-0.00043766433373093605,0.002942404942587018,3.677280619740486e-05,-0.00010076723992824554,0.0004982948303222656
139,3.1379105707171053,-0.011408313444054416,2.7682865465374835,0.0036818357184529305,0.011408066377043724,0.99992835521698,-0.0014217207208275795,-0.0015735398046672344,0.0019337350968271494,-0.00017231376841664314,-0.0006353603675961494,0.0005447864532470703
140,3.137912368441,-0.011414464821348985,2.7682818935349705,0.003680037334561348,0.011414216831326485,0.9999281167984009,0.001891843043267727,0.002333385404199362,-0.0025494506116956472,0.000592423602938652,-0.0007025469094514847,0.002620100975036621
141,3.1379010054225267,-0.011416169953079825,2.768217789356017,0.003691399237141013,0.011415922082960606,0.9999280571937561,-9.425822645425797e-05,0.00018731411546468735,-0.0009875805117189884,1.2272503226995468e-06,-0.0004143351688981056,-1.9609928131103516e-05
142,3.1379283176490533,-0.011450744984895997,2.768213936941907,0.0036640879698097706,0.011450494639575481,0.9999278783798218,-0.0008670343086123466,0.0034805359318852425,-0.0016715498641133308,0.0014170892536640167,0.0017331000417470932,0.0005300045013427734
143,3.1378680365197615,-0.011434660293599965,2.768142314413966,0.0037243645638227463,0.011434410698711872,0.9999275803565979,-0.0005036825314164162,0.0003582150675356388,0.0021384076680988073,-0.00204589799977839,-0.0007074838504195213,-3.451108932495117e-05
144,3.1379056021366347,-0.01133122448844398,2.7681524477766244,0.0036868054885417223,0.011330981738865376,0.9999287724494934,0.0017573405057191849,0.00091510359197855,-8.009071461856365e-05,0.0017453229520469904,-0.0008634543046355247,-0.0005851387977600098
145,3.1378851419376455,-0.01128738572461633,2.7680829117340875,0.0037072666455060244,0.011287146247923374,0.9999293088912964,0.00015314016491174698,-0.002363938372582197,0.0006334742065519094,-0.0005334382876753807,-0.0003465944901108742,-0.0002651214599609375
146,3.137908972722803,-0.011252168334781466,2.7681197873382737,0.0036834387574344873,0.011251931078732014,0.9999297857284546,-0.0019268831238150597,-0.00072526466101408,0.001998497173190117,0.0007568676955997944,0.0014128610491752625,0.00016164779663085938
147,3.137892940476998,-0.011288224994884069,2.7681305691084797,0.0036994693800807,0.011287985369563103,0.9999295473098755,0.000775790773332119,5.448656156659126e-05,-0.0010718965204432607,0.0005577332340180874,0.0005680946633219719,0.0004673004150390625
148,3.1378654739111482,-0.011291231991956089,2.7681810824691935,0.0037269333843141794,0.011290991678833961,0.9999293088912964,0.0001279367133975029,0.0002151927910745144,-0.0020202898886054754,-0.0004310351796448231,-0.0014032963663339615,0.0006352663040161133
149,3.1378976952998223,-0.011245486833264007,2.7681905261008595,0.0036947173066437244,0.011245249770581722,0.9999302625656128,-0.0034902654588222504,-0.00046389689669013023,0.0007052202709019184,0.0016458597965538502,-0.0005946122109889984,0.0007108449935913086
150,3.137951490460692,-0.011244612781630407,2.7682241485953147,0.003640924347564578,0.011244376190006733,0.9999299645423889,-1.2254342436790466e-05,-0.0011080903932452202,-0.001666602911427617,-0.00045183789916336536,0.001069466583430767,0.0009243488311767578
151,3.1379869040197006,-0.011208392374193268,2.7681397373583656,0.003605515230447054,0.011208157986402512,0.9999306797981262,0.0010273465886712074,-0.0011298488825559616,0.0005336643662303686,0.0007279806304723024,0.0003580031916499138,0.0004202723503112793
152,3.1380091399049777,-0.01117340916166686,2.7681379742122365,0.0035832824651151896,0.01117317657917738,0.9999312162399292,0.0036130761727690697,-0.0005084541626274586,0.0007771686650812626,-0.00016531371511518955,-4.9520283937454224e-05,0.0014573931694030762
153,3.138026300126662,-0.011229472362769458,2.7681874205008254,0.003566122381016612,0.011229236610233784,0.9999309778213501,0.0024110525846481323,0.0019762511365115643,0.0010308199562132359,-0.0004075518809258938,-0.00039549171924591064,-0.0004799365997314453
154,3.138067214460442,-0.011242994249690365,2.7681287629144533,0.003525210078805685,0.011242757551372051,0.9999308586120605,0.0017481627874076366,0.0007740668952465057,-0.0017739195609465241,0.0014338972978293896,0.0006133243441581726,0.0005729198455810547
155,3.1380292491002555,-0.011287774153698872,2.7681219625452695,0.003563170786947012,0.011287534609436989,0.999930202960968,-0.00047768931835889816,-0.0013230643235147,0.0011086594313383102,-0.0013048695400357246,0.0008737212046980858,0.0010312795639038086
156,3.137996444307752,-0.011259593985482886,2.76813755410252,0.0035959731321781874,0.011259356513619423,0.9999300241470337,0.0017770403064787388,0.0003940090537071228,0.001970623154193163,0.0022176248021423817,0.0002762880176305771,0.0011990070343017578
157,3.1380223520082624,-0.011260922068299992,2.768180649158438,0.0035700679291039705,0.01126068364828825,0.9999303221702576,0.0007153917104005814,0.000928773544728756,-0.0009425099706277251,-0.0012812498025596142,-0.0011288486421108246,0.000527501106262207
158,3.1379963143730483,-0.011260621642369555,2.768139367369958,0.0035961042158305645,0.011260383762419224,0.9999303221702576,0.0006431601941585541,-5.016196519136429e-05,-0.00020665675401687622,-0.0001781350001692772,0.0006109550595283508,-0.0002658367156982422
159,3.137961888315893,-0.011324271074310856,2.768203690750621,0.0036305251996964216,0.011324029415845871,0.9999294877052307,0.0016647507436573505,0.001004454679787159,0.0012338906526565552,0.0006724537815898657,0.0015543894842267036,0.0010625123977661133
160,3.137936190263433,-0.011384611972583536,2.768186699164341,0.0036562189925462008,0.01138436608016491,0.9999287724494934,-0.0016135964542627335,0.003494858741760254,0.0004511256702244282,-0.001596282236278057,0.0011583594605326653,0.001353144645690918
161,3.1380193265592182,-0.011392467760824728,2.768054249123132,0.003573088441044092,0.011392221786081791,0.9999290108680725,-0.0014950968325138092,-0.00030352966859936714,-0.0015016107354313135,0.0010198079980909824,-0.0004974426701664925,0.0009105205535888672
162,3.1380420370456337,-0.011351984869317535,2.7680525859233365,0.003550380002707243,0.011351740919053555,0.9999291896820068,-0.0014055119827389717,0.0008542593568563461,-0.0023556470405310392,-0.0002849996089935303,3.131479024887085e-05,0.0005131959915161133
163,3.138024869811874,-0.011308374381751645,2.7679987987395176,0.003567547770217061,0.011308133602142334,0.9999296069145203,-0.0003150841221213341,0.0010995874181389809,-0.000462585361674428,0.000125078484416008,-0.0002760309725999832,0.0010468363761901855
164,3.137980363851941,-0.01127998885020979,2.7678210284516287,0.0036120517179369926,0.011279749684035778,0.9999297857284546,-0.0008514076471328735,-0.0009214510209858418,0.00042447447776794434,-0.0010943517554551363,-0.00024764612317085266,0.00017696619033813477
165,3.1379910132032416,-0.01119249186660731,2.7678328746980316,0.003601406468078494,0.011192258447408676,0.9999306797981262,0.0014523761346936226,-0.0009354287758469582,-0.000540916109457612,0.0004116545896977186,-0.0003280024975538254,0.0008320212364196777
166,3.1380108672300047,-0.011156151988133824,2.7679315851626405,0.003581555560231209,0.011155921034514904,0.9999313354492188,-0.0011890782043337822,0.0038434676826000214,-0.0013913767179474235,0.0006298695225268602,-0.00012381747364997864,-0.0002518296241760254
167,3.138013964423457,-0.01115660374506337,2.767966969944609,0.0035784593783318996,0.011156372725963593,0.9999315738677979,0.0002470584586262703,0.00046738889068365097,-0.0029640421271324158,0.0002820149529725313,-7.848907262086868e-05,0.00101470947265625
168,3.1379941716673376,-0.011158128543688469,2.76789672752621,0.003598250448703766,0.011157897301018238,0.9999313354492188,-0.00238037109375,0.0002505229786038399,-0.0008657812140882015,-7.347017526626587e-05,0.0014000870287418365,0.00067901611328125
169,3.137940435360152,-0.011219084359841628,2.7678266007390078,0.0036519798450171947,0.011218848638236523,0.9999302625656128,-0.004144106991589069,-0.002822156995534897,-0.0010592779144644737,0.0003763397689908743,-7.993541657924652e-05,0.0006646513938903809
170,3.137890232732846,-0.011203861377471494,2.7677666879572156,0.0037021797616034746,0.011203627102077007,0.9999302625656128,-0.0005985181778669357,-0.0010639699175953865,-0.0011755896266549826,-0.000864044763147831,-4.9452297389507294e-05,0.0016870498657226562
171,3.1379146384765817,-0.011226952325356815,2.7677703545473697,0.0036777746863663197,0.011226716451346874,0.9999301433563232,-0.00017532892525196075,-0.0028615458868443966,0.00019375095143914223,0.001540730707347393,0.0005225501954555511,0.0004054903984069824
172,3.1378992906288206,-0.01128039740451567,2.767794780481365,0.003693118691444397,0.011280158534646034,0.9999293088912964,-0.001539299264550209,-0.00010299868881702423,0.0021171087864786386,0.0002131303772330284,0.0001334128901362419,0.0004366636276245117
173,3.1379005970502503,-0.011322223729211859,2.7678103564225682,0.003691811114549637,0.011321981437504292,0.9999290108680725,0.00019331369549036026,-4.759058356285095e-06,0.0022196213249117136,-0.0004264309536665678,-0.00028987880796194077,-0.0014397501945495605
174,3.1378930096425193,-0.011329135835545302,2.767794030124278,0.003699398599565029,0.011328893713653088,0.9999291300773621,0.001853195484727621,0.00013954564929008484,-0.0025490561965852976,-6.780680269002914e-05,-0.000708775594830513,-0.0011497735977172852
175,3.137867605423296,-0.011340051979328048,2.7679511018114655,0.0037248004227876663,0.011339808814227581,0.9999288320541382,-0.001220296137034893,-0.00031997309997677803,0.001082774717360735,4.412047564983368e-05,7.376540452241898e-05,0.0015207529067993164
176,3.1378679540880676,-0.011304245641768872,2.7680483527446618,0.0037244532722979784,0.011304005049169064,0.9999292492866516,-0.0016469713300466537,0.0004857955500483513,0.0012785077560693026,0.0008531834464520216,0.000536816194653511,0.001566171646118164
177,3.1377890427101494,-0.011309981548205682,2.7679183699843573,0.003803358878940344,0.011309740133583546,0.9999289512634277,0.00043647363781929016,0.001298363320529461,-0.0010931380093097687,-0.00037013087421655655,0.0003937510773539543,0.0003000497817993164
178,3.1377658550114953,-0.011363555311625534,2.7681175962801183,0.003826542990282178,0.011363310739398003,0.9999282956123352,-0.00040842220187187195,-0.0009605078957974911,0.0016382974572479725,0.00021703727543354034,-0.0006363792344927788,-0.0001569986343383789
179,3.1377358288578607,-0.011276331228813524,2.7679876814446605,0.003856569528579712,0.011276092380285263,0.9999288320541382,-0.0017709797248244286,-0.0019946335814893246,-0.0013067256659269333,-0.00013342569582164288,-0.0005796831101179123,0.0005592703819274902
180,3.1377544372226787,-0.011275060608321964,2.7678515019515944,0.0038379633333534002,0.011274822056293488,0.9999291896820068,0.0003099283203482628,0.0010873684659600258,0.0012814889196306467,7.251976057887077e-06,-0.0005478924140334129,0.0007270574569702148
181,3.1378247571361486,-0.011308155656931341,2.7677893878160216,0.003767646849155426,0.0113079147413373,0.9999290108680725,-0.0013274671509861946,0.0014885291457176208,0.002145579783245921,0.00018437928520143032,0.00022772885859012604,0.0011085867881774902
182,3.1378014994697137,-0.011313373877426251,2.7677258858912803,0.0037909019738435745,0.01131313294172287,0.9999287128448486,0.0003168899565935135,-0.0003513507544994354,0.0018144338391721249,-5.249911919236183e-05,0.0003445809707045555,-0.0001424551010131836
183,3.1378330703814554,-0.011262217494123199,2.767736927976373,0.003759335959330201,0.01126197911798954,0.9999294877052307,0.0005405740812420845,0.0007127644494175911,-0.0005035372450947762,0.0011082172859460115,-0.0005960864946246147,0.0004366636276245117
184,3.137809122098368,-0.011265715622968681,2.767761887521144,0.0037832828238606453,0.011265477165579796,0.9999294877052307,0.0014200801961123943,-0.0012880233116447926,0.0011245382484048605,0.0005044371355324984,-0.00029440782964229584,0.0005893707275390625
185,3.1378493873256135,-0.01122967060908123,2.767691784147801,0.0037430203519761562,0.011229434981942177,0.9999296069145203,-0.0016286736354231834,-0.0004763565957546234,0.001408593961969018,-0.0003555703442543745,0.0006571589037775993,0.000710904598236084
186,3.1379041205615095,-0.011289007587120857,2.767636574840616,0.003688288852572441,0.01128876768052578,0.9999292492866516,-0.001385105773806572,0.00027629081159830093,-0.000895737437531352,0.0003095134161412716,0.000857226550579071,0.0018863081932067871
187,3.137920186368121,-0.01123488860594272,2.767601992231582,0.00367222772911191,0.011234652251005173,0.9999302625656128,-0.003620491363108158,-0.00020966306328773499,-0.00041210511699318886,0.00029505835846066475,-0.0003551328554749489,0.0004208087921142578
188,3.1378522878729456,-0.01118589368602342,2.767572921106172,0.003740123240277171,0.011185660026967525,0.9999305009841919,0.004056628793478012,0.0014008432626724243,0.000562670873478055,0.0006544082425534725,-0.0004434725269675255,0.0006798505783081055
189,3.1378189545362507,-0.011222348593314084,2.7674060134917142,0.003773452714085579,0.01122211292386055,0.9999300241470337,-0.00014045462012290955,-0.0008129081688821316,-0.0009207273833453655,4.1244784370064735e-05,-3.741960972547531e-05,0.0002684593200683594
190,3.1378104843989982,-0.011259619088389133,2.767177883489756,0.0037819205317646265,0.011259380728006363,0.9999294877052307,-1.3553537428379059e-05,0.0018743742257356644,0.0021571971010416746,-0.00022662244737148285,0.0002915225923061371,-0.0007687807083129883
191,3.137764550075535,-0.011248576069465631,2.7672162612343305,0.0038278528954833746,0.011248338967561722,0.999929666519165,-0.0006402870640158653,-0.001408240757882595,-0.0013784829061478376,-2.8413720428943634e-05,0.000821365974843502,0.0005741119384765625
192,3.1377188029034913,-0.011246033473495612,2.767202967943477,0.003873595967888832,0.011245796456933022,0.9999292492866516,-0.0004722205922007561,0.0010377666912972927,-0.0030006198212504387,0.00041412352584302425,3.044772893190384e-05,-0.00018864870071411133
193,3.1377444190457284,-0.011289992626298272,2.767144790720681,0.0038479804061353207,0.011289753019809723,0.9999290108680725,0.00037361588329076767,2.961140125989914e-06,0.0011531463824212551,0.00031766947358846664,-0.00041023455560207367,0.0014138221740722656
194,3.137744864850317,-0.011283779124498551,2.7671534151284782,0.003847535001114011,0.011283539235591888,0.9999291300773621,-0.0017013726755976677,-0.001335691660642624,0.0013330515939742327,-0.0005974122323095798,6.900262087583542e-05,0.0004067420959472656
195,3.1377551442072056,-0.01126592861813383,2.7670148441134597,0.0038372566923499107,0.011265690438449383,0.9999292492866516,0.0017740009352564812,0.001275850459933281,0.0017977242823690176,-0.00020566442981362343,0.00013262592256069183,-3.600120544433594e-05
196,3.1378374730167757,-0.01128484019608509,2.7668191168942826,0.003754932899028063,0.01128460094332695,0.9999293684959412,-0.0012179696932435036,0.0012992131523787975,0.0019278593827039003,-0.0003064465709030628,-0.0007102601230144501,0.0012303590774536133
197,3.1378833734984886,-0.011309528278456998,2.7667815307027395,0.003709035227075219,0.011309287510812283,0.9999293684959412,0.0011068149469792843,0.0012566284276545048,-0.0007328965002670884,0.00045661465264856815,-0.0006586508825421333,0.001047372817993164
198,3.1379012973129,-0.011281011884424041,2.7668330614387338,0.0036911119241267443,0.011280772276222706,0.9999293088912964,-0.003204548731446266,0.0009223180823028088,8.834595791995525e-05,0.0007797121070325375,0.0011551380157470703,-0.00011265277862548828
199,3.137869250093027,-0.011314026103738778,2.766840072554649,0.0037231561727821827,0.0113137848675251,0.9999289512634277,-0.0023480579257011414,0.0010209009051322937,-0.0017554463120177388,-0.00085450429469347,0.0007406584918498993,0.00023877620697021484
200,3.137958719704682,-0.011282863337408348,2.7668639322054953,0.0036336949560791254,0.011282623745501041,0.9999298453330994,-0.0008074752986431122,0.001232725102454424,0.0012373668141663074,0.0005319546908140182,-0.0001131892204284668,0.0014892816543579102
201,3.1379663706245613,-0.011285225040084066,2.7668204323677985,0.003626043675467372,0.011284985579550266,0.9999296069145203,0.0004976363852620125,0.0018781675025820732,-9.964918717741966e-05,0.0010431448463350534,0.0004032440483570099,0.0014282464981079102
202,3.1379570805749837,-0.011337699148756885,2.76683491066987,0.003635332453995943,0.011337456293404102,0.9999294281005859,0.0010494096204638481,-0.0019233189523220062,0.0007399031892418861,-0.0008277143351733685,0.0005186256021261215,0.00016236305236816406
203,3.138004693602445,-0.01130890186698213,2.7668452229893514,0.003587724408134818,0.011308660730719566,0.9999300241470337,0.0009196721948683262,-0.002540287096053362,0.0009023994207382202,0.0003185272216796875,0.0010051857680082321,-0.00047898292541503906
204,3.1379205388493654,-0.011351059585570583,2.7668615861192474,0.003671870334073901,0.011350816115736961,0.9999289512634277,0.002609923016279936,-0.0006149760447442532,5.651568062603474e-05,-0.00258849561214447,0.00012379419058561325,-5.0902366638183594e-05
205,3.13791835030226,-0.011349557673264543,2.7668756229835783,0.003674058709293604,0.011349313892424107,0.9999289512634277,0.0009550256654620171,0.0012431014329195023,0.0008901625405997038,0.0009798724204301834,-0.000439278781414032,-0.0003103017807006836
206,3.1378671994504956,-0.011329194899330285,2.766854304393023,0.0037252064794301987,0.011328952386975288,0.999928891658783,-0.00158010795712471,0.0006378623656928539,8.788425475358963e-06,0.0004862190689891577,-0.000159519724547863,0.000483095645904541
207,3.1378881707410327,-0.011301418678166733,2.7668321998491625,0.003704237984493375,0.011301178485155106,0.9999293684959412,0.00033660419285297394,-0.002777725923806429,0.0004386487416923046,-0.0010949845891445875,-0.00025381334125995636,-8.189678192138672e-05
208,3.137923361884989,-0.011295017676158174,2.766976826850302,0.0036690502893179655,0.011294777505099773,0.9999297261238098,-0.0009289635345339775,0.0010299780406057835,0.0018105292692780495,0.0012442809529602528,0.00039345771074295044,0.0005129575729370117
209,3.1379728850334896,-0.011250765091088997,2.7674992823480724,0.003619531635195017,0.011250527575612068,0.999930202960968,0.00019836146384477615,-0.00029206089675426483,-0.0023714136332273483,-0.0006288092117756605,0.0001935632899403572,0.0007564425468444824
210,3.1379740520426602,-0.011317588731521958,2.767483311721335,0.0036183618940413,0.011317347176373005,0.9999293684959412,0.00020082015544176102,-0.0016042492352426052,0.00010526482947170734,-0.00013935798779129982,-0.0002242075279355049,-0.0002651214599609375
211,3.1379850268772604,-0.01130757081183803,2.7674660287281556,0.003607388585805893,0.01130732987076044,0.999929666519165,-0.00030176620930433273,0.002468761056661606,0.0029205845203250647,0.0011533540673553944,0.0005334913730621338,0.0017794370651245117
212,3.138012102072256,-0.011322418991698956,2.7674347456326647,0.003580315038561821,0.01132217701524496,0.999929666519165,0.0014904760755598545,-0.00039974041283130646,-0.0004654306685552001,-0.0002844161354005337,-0.00018326006829738617,-5.841255187988281e-06
213,3.1380348608227395,-0.011307051813169017,2.767449552678124,0.003557558637112379,0.01130681112408638,0.9999299645423889,0.0008158758282661438,2.7563422918319702e-05,-0.0014108582399785519,0.0014015482738614082,-0.0008545396849513054,-0.0006469488143920898
214,3.1380408945121205,-0.0113097447748761,2.767454917561512,0.0035515238996595144,0.011309503577649593,0.9999296069145203,-0.0034528113901615143,0.0019072876311838627,0.0012751761823892593,0.0009193010628223419,0.001050114631652832,0.00029915571212768555
215,3.1380040150676254,-0.011345213509012492,2.767473608566975,0.0035884007811546326,0.0113449702039361,0.9999294877052307,0.0018605762161314487,0.0008883895352482796,-0.0006499033188447356,0.0005467324517667294,-0.00043493229895830154,0.00033020973205566406
216,3.1380226245032876,-0.01134776599025455,2.7674687944260925,0.0035697922576218843,0.011347522027790546,0.9999294281005859,0.0005054213106632233,0.0028399103321135044,0.0007891843561083078,0.0008247396908700466,0.0010120971128344536,0.0006810426712036133
217,3.138036379193327,-0.011337413230176487,2.7674155112609125,0.0035560375545173883,0.011337170377373695,0.9999291896820068,-0.0019280770793557167,-0.0015141223557293415,0.0012730748858302832,-0.00030591641552746296,-0.00024403352290391922,0.0003604888916015625
218,3.1380526360094523,-0.011325815449328671,2.767363563643173,0.003539782715961337,0.011325573548674583,0.9999294877052307,0.0002540247514843941,0.0011279946193099022,0.0017714288551360369,9.18086152523756e-05,0.000515245832502842,-0.0011655688285827637
219,3.1379995673021215,-0.01136105095027146,2.767335579759132,0.003592846915125847,0.011360806412994862,0.9999290704727173,0.0004924600943922997,0.0008275113068521023,0.0009595586452633142,0.0016409177333116531,0.0009835539385676384,0.00040662288665771484
220,3.137923382412885,-0.011400177204410443,2.767482900495087,0.0036690249107778072,0.011399930343031883,0.9999284148216248,-0.0009285286068916321,0.0017442479729652405,0.0006288147997111082,-0.0010902895592153072,-9.316764771938324e-05,0.0011092424392700195
221,3.1379493424050398,-0.011396176586305396,2.767658020509197,0.0036430666223168373,0.01139593031257391,0.9999284744262695,-0.00041341595351696014,0.0010479744523763657,0.002671931404620409,0.0007362058386206627,0.0010247249156236649,0.0009565353393554688
222,3.1379215733231023,-0.011359108023685702,2.767638542035084,0.003670835169032216,0.011358863674104214,0.9999287724494934,-0.0024286285042762756,0.0007761381566524506,0.0007309862412512302,-0.0009395119268447161,0.0005124742165207863,0.0006052255630493164
223,3.1379022992542214,-0.011341497252927605,2.7676427942980584,0.003690108424052596,0.011341254226863384,0.9999287724494934,-0.0011676372960209846,-0.0020934357307851315,-0.00048532523214817047,0.000536575447767973,-9.552855044603348e-05,0.001093447208404541
224,3.1378622548866546,-0.011294624577735798,2.7676410855916314,0.0037301527336239815,0.011294384486973286,0.9999294281005859,0.00033160578459501266,0.0017964146099984646,0.0007492827717214823,-0.0005410658195614815,0.00019548367708921432,0.0005284547805786133
225,3.137874592013696,-0.01133174038559559,2.7675894328772594,0.003717815037816763,0.011331497691571712,0.9999290704727173,0.0013995184563100338,0.00036466214805841446,0.0012050813529640436,-0.0007728682830929756,-0.0004977565258741379,-5.1021575927734375e-05
226,3.1378993681443825,-0.011252791172085544,2.7676303811874026,0.003693042555823922,0.011252554133534431,0.999929666519165,-0.0029980065301060677,-0.000565909780561924,0.0005208798684179783,0.00013691256754100323,0.0004204167053103447,0.0007109642028808594
227,3.1378783914080346,-0.011290473047831531,2.7676379947096845,0.0037140159402042627,0.011290233582258224,0.9999291300773621,-0.0006217155605554581,0.0021552788093686104,0.0009197276085615158,-0.00012820144183933735,-0.0003039073199033737,0.0009861588478088379
228,3.137863130338503,-0.011289319296781343,2.767620920508941,0.0037292777560651302,0.011289079673588276,0.9999295473098755,-9.615160524845123e-05,0.0010493602603673935,0.0029394642915576696,-0.0007385541684925556,1.7685815691947937e-05,0.0012303590774536133
229,3.1378528939901495,-0.011281731013114629,2.767636994138413,0.003739513223990798,0.011281491257250309,0.9999294877052307,2.782978117465973e-05,0.0006659980863332748,-0.0019781100563704967,0.0002125136088579893,0.0007729530334472656,5.53131103515625e-05
230,3.137855775295318,-0.011337423129613562,2.7678152523704442,0.003736629383638501,0.011337180621922016,0.9999287724494934,0.0013995873741805553,-0.0009036660194396973,-0.000255063408985734,-0.0003949548117816448,-0.00024404190480709076,0.0008341670036315918
231,3.137830465612927,-0.011410069256376073,2.7681344265431944,0.0037619343493133783,0.011409821920096874,0.9999278783798218,0.00031112879514694214,0.0017634453251957893,-0.0009843151783570647,-8.272239938378334e-06,0.00043099839240312576,0.0006672143936157227
232,3.1378483442479337,-0.011471036453337304,2.768065810026957,0.0037440548185259104,0.011470784433186054,0.9999273419380188,-0.001882161945104599,-0.0016968632116913795,-0.00074635015334934,-0.00012772134505212307,-0.0007743733003735542,0.0006067752838134766
233,3.1378727457139224,-0.011369663503088275,2.768193423502609,0.003719658125191927,0.011369418352842331,0.9999282360076904,-0.000802469439804554,-0.00054549565538764,-0.0006825964665040374,-0.00014910241588950157,-0.0003067990764975548,4.100799560546875e-05
234,3.13790007507089,-0.0113892946370826,2.7682150649150215,0.0036923298612236977,0.011389048770070076,0.9999281167984009,-3.056507557630539e-05,0.0010521188378334045,-0.0001439168117940426,0.001327811274677515,3.978423774242401e-05,8.690357208251953e-05
235,3.1378944478841513,-0.011386311904549985,2.768326904644407,0.00369795854203403,0.011386065743863583,0.9999285936355591,-0.0013069286942481995,0.0017223898321390152,7.31288455426693e-05,-0.00011214218102395535,-6.404146552085876e-05,-0.00018775463104248047
236,3.1379377157989827,-0.011352741067583468,2.768573450033108,0.003654694650322199,0.011352497152984142,0.9999290704727173,-0.00010953191667795181,-5.8519188314676285e-05,-0.00031438213773071766,0.00017526187002658844,-0.0005034971982240677,1.0013580322265625e-05
237,3.1379377469748997,-0.011366764399190757,2.7688277308494027,0.0036546632181853056,0.011366520076990128,0.9999289512634277,0.0008854949846863747,-0.00048291636630892754,-0.00020745722576975822,0.001060303533449769,0.00010809209197759628,0.0001323223114013672
238,3.1379353659982003,-0.011400656155357469,2.768917907619981,0.0036570411175489426,0.011400409042835236,0.9999281167984009,-0.0015077609568834305,0.001238974742591381,0.00121233519166708,0.0002492084167897701,2.842303365468979e-05,0.0009413957595825195
239,3.1379621364889934,-0.011279535469033573,2.7691095669668417,0.003630278166383505,0.01127929612994194,0.9999297857284546,-0.0005157608538866043,-0.0012890854850411415,0.0003905072808265686,0.00024545425549149513,0.0004241950809955597,2.4437904357910156e-05
240,3.137967035147358,-0.011275586694227372,2.7691519431403426,0.0036253801081329584,0.01127534732222557,0.9999298453330994,0.0008355751633644104,-0.001298729795962572,-0.0002470554318279028,2.1470710635185242e-05,3.141537308692932e-05,0.0007109642028808594
241,3.1379743872340367,-0.011228354251420514,2.769291081280764,0.0036180312745273113,0.01122811809182167,0.9999306201934814,0.0008625779300928116,0.0014689648523926735,0.0024040343705564737,-0.000444202683866024,-0.00010446086525917053,0.0007561445236206055
242,3.1379932993537607,-0.01123546316959189,2.769382933294369,0.003599118674173951,0.01123522687703371,0.9999302625656128,0.0007179826498031616,-0.0005654837004840374,0.0004216821398586035,0.0007648940663784742,0.0003919685259461403,-5.251169204711914e-05
243,3.137945742913951,-0.01129776734421147,2.769334816683861,0.0036466699093580246,0.011297526769340038,0.9999295473098755,0.001280184369534254,-0.0008407598361372948,0.0010528042912483215,0.0008088964968919754,-0.00018912926316261292,-0.00020420551300048828
244,3.1378651315902943,-0.011294465112321425,2.7691126644046338,0.0037272751796990633,0.011294225230813026,0.9999291300773621,0.00023684371262788773,0.0023604491725564003,-1.1072028428316116e-05,0.0006367380265146494,0.00011934805661439896,0.0006963014602661133
245,3.1378574445596885,-0.01140853690185726,2.7687970319325017,0.003734957193955779,0.011408288963139057,0.9999279379844666,-0.00014013610780239105,-0.0006011519581079483,-0.000940408674068749,-0.00039328262209892273,0.00014261342585086823,0.00016361474990844727
246,3.137873737154445,-0.011439093176313201,2.7686699623721696,0.003718665335327387,0.011438843794167042,0.9999278783798218,-0.0001942962408065796,-4.372419789433479e-05,0.000846371753141284,0.0014388062991201878,-0.0006203595548868179,0.0008505582809448242
247,3.1378448461705255,-0.011438489423502356,2.7681919752300743,0.0037475540302693844,0.011438240297138691,0.9999277591705322,7.496681064367294e-05,0.0011757025495171547,0.00015805871225893497,-0.00016173813492059708,-0.00026880577206611633,0.00022494792938232422
248,3.1378900303874926,-0.011409163012730428,2.7678937198260547,0.0037023734766989946,0.011408915743231773,0.9999279379844666,0.0002573169767856598,0.0010604406706988811,0.0011422515381127596,-7.078167982399464e-05,-0.000193706713616848,0.00019401311874389648
249,3.1378919476771974,-0.01142255979942338,2.7677214582433525,0.003700456814840436,0.011422310955822468,0.9999281167984009,0.0011657201685011387,-0.0011434759944677353,0.00043134111911058426,0.0002973463851958513,0.0003116987645626068,0.0005297660827636719
250,3.137876280561699,-0.011431461409422266,2.7670836105208134,0.003716121893376112,0.011431212536990643,0.9999278783798218,0.0012095673009753227,-0.001013949979096651,0.0003048866055905819,-0.00022185873240232468,-0.00029229559004306793,0.0007741451263427734
251,3.13785895495238,-0.011443371095132212,2.766998297153464,0.0037334465887397528,0.01144312135875225,0.9999278783798218,-0.0015370454639196396,-0.00014966214075684547,-0.0003756193909794092,-0.0003307359293103218,-0.00019739102572202682,5.710124969482422e-05
252,3.1378922888938265,-0.011379296687224712,2.7668999961533096,0.003700116416439414,0.011379051022231579,0.99992835521698,0.002107962965965271,-0.0009454530663788319,-0.0005733071593567729,0.00019087456166744232,-8.754804730415344e-05,0.0013990998268127441
253,3.1378729798702722,-0.011396782382646293,2.767395287554101,0.0037194229662418365,0.01139653567224741,0.9999279975891113,-0.0014998186379671097,0.0006781639531254768,0.00031593814492225647,-8.783186785876751e-05,-0.001081596128642559,5.65648078918457e-05
254,3.1379041918297306,-0.011391222058945069,2.7681832059964946,0.003688214812427759,0.011390975676476955,0.9999285340309143,-5.92600554227829e-06,-0.0019469601102173328,-0.00023939181119203568,0.0006300229579210281,-0.0004656817764043808,0.0004988908767700195
255,3.1378870495842985,-0.011415281527458286,2.768609480241631,0.0037053548730909824,0.011415033601224422,0.9999281764030457,-0.0017292192205786705,0.00013834331184625626,-0.0011140975402668118,0.00018563680350780487,0.0011887270957231522,0.0006976127624511719
256,3.137858890860411,-0.011411386109947732,2.7686832048037116,0.0037335099186748266,0.01141113881021738,0.9999276995658875,0.0005673933774232864,0.0008745891973376274,-0.0012059486471116543,-0.00022398983128368855,-0.000424814410507679,0.0012012124061584473
257,3.1378771607962657,-0.0113785048804228,2.7687143305120316,0.0037152438890188932,0.011378259398043156,0.9999284148216248,0.0006026886403560638,-0.0021985392086207867,0.00039304024539887905,-0.0006482270546257496,-0.0007581422105431557,0.0011550188064575195
258,3.1379098505595904,-0.011412816950623529,2.7684944543051806,0.0036825560964643955,0.01141256932169199,0.9999284744262695,0.00045611336827278137,-0.0015653306618332863,-0.0015201440546661615,-0.0004324330948293209,-0.00016683805733919144,-0.0002485513687133789
259,3.137913335870681,-0.011435202957096735,2.7678497075485504,0.003679069923236966,0.011434953659772873,0.9999281764030457,-0.0006795590743422508,0.0017140023410320282,-3.3478718250989914e-05,0.0005018389783799648,0.00016172882169485092,5.6862831115722656e-05
260,3.1378678113977236,-0.011424850321594309,2.767811301534535,0.0037245904095470905,0.011424602009356022,0.9999277591705322,0.0001353798434138298,0.0005891779437661171,0.0030486183241009712,-0.00019981036894023418,0.0001873355358839035,0.001155555248260498
261,3.1378534906830295,-0.011404133250137068,2.7676054098941227,0.0037389120552688837,0.011403885670006275,0.9999282360076904,-0.0005700280889868736,-0.001657184213399887,0.0006799192633479834,0.00016733934171497822,-0.0011347178369760513,0.00017881393432617188
262,3.137820812718726,-0.0113806287353625,2.7674392200066342,0.0037715870421379805,0.011380382813513279,0.9999279975891113,0.001783628948032856,0.0008520567789673805,-0.0004933923482894897,-0.0002468074671924114,-5.836319178342819e-05,-0.0001569986343383789
263,3.1378090854416385,-0.011396097780184746,2.7673554227103243,0.003783313324674964,0.011395851150155067,0.9999278783798218,-0.0006713150069117546,0.003017761744558811,-0.00038720667362213135,-1.4392659068107605e-05,0.00021608639508485794,0.00022464990615844727
264,3.137807951898764,-0.01145224335162378,2.7675669702402006,0.0037844448816031218,0.011451993137598038,0.9999274015426636,0.00046484265476465225,-0.0010132919996976852,0.0002466677688062191,0.00030491105280816555,-0.0003435937687754631,-0.0005071163177490234
265,3.137764633920411,-0.01143630756709417,2.767654455049159,0.0038277606945484877,0.011436058208346367,0.9999274611473083,-0.00065572839230299,0.00043336767703294754,-0.0007670007180422544,0.0006430651992559433,-0.0004802476614713669,0.00030159950256347656
266,3.1377497223125697,-0.011402509264987077,2.7677384856419978,0.003842672100290656,0.01140226237475872,0.9999276399612427,-0.0001633157953619957,-0.00023218616843223572,-0.001661516260355711,-0.0006078090518712997,-0.0004922281950712204,0.0009726285934448242
267,3.1377497491393735,-0.011448312443004817,2.767896614854583,0.0038426429964601994,0.011448062025010586,0.9999270439147949,0.0006138598546385765,-0.0007852544076740742,0.0011135770473629236,0.001162239583209157,8.75815749168396e-05,0.0010189414024353027
268,3.1377411922193605,-0.011459679191792728,2.767892531048689,0.0038511997554451227,0.011459428817033768,0.9999271035194397,-0.0013380758464336395,-0.0006254697218537331,-0.0006730075692757964,-0.00028064241632819176,0.00032035820186138153,0.001522660255432129
269,3.1376982336461787,-0.0114703528131366,2.76787057922021,0.003894154680892825,0.011470100842416286,0.9999268054962158,0.0011105951853096485,-0.0019153999164700508,-0.0008159007411450148,-0.00017100945115089417,-0.00048377178609371185,0.00036323070526123047
270,3.1377194362581533,-0.011450493318558626,2.767793847500063,0.0038729540538042784,0.011450243182480335,0.9999269843101501,0.0013748607598245144,-0.0010056337341666222,0.000977782066911459,-1.2480653822422028e-05,-3.666989505290985e-05,0.0003324151039123535
271,3.137719002627592,-0.011427108131484183,2.767710742578305,0.003873388050124049,0.01142685953527689,0.9999271631240845,-0.0019491231068968773,-0.001335222739726305,-4.6469271183013916e-05,-0.0003028318751603365,-0.0003337208181619644,0.00021010637283325195
272,3.1377345249705453,-0.011426611719955234,2.7676618695685535,0.0038578680250793695,0.01142636314034462,0.9999274611473083,-0.0012425566092133522,0.002814333885908127,0.0022285096347332,-0.0009434381499886513,0.0002466132864356041,0.00022530555725097656
273,3.1377616393341956,-0.011399567208930213,2.7675582176297344,0.0038307569921016693,0.01139932032674551,0.9999279379844666,-0.0028164880350232124,0.0031890934333205223,-0.0017496142536401749,0.0011283503845334053,0.0006246082484722137,-0.00018715858459472656
274,3.1377913774035022,-0.011382624162650587,2.7676118670701455,0.0038010203279554844,0.01138237863779068,0.9999278783798218,-0.0013745920732617378,0.0010444726794958115,0.000605299836024642,4.4194282963871956e-05,-0.0006096735596656799,-3.4809112548828125e-05
275,3.1377284212995957,-0.011340407470826229,2.767573634030425,0.003863974940031767,0.011340164579451084,0.9999284148216248,0.00021270662546157837,0.0005999580025672913,0.0008821638766676188,0.0004237452521920204,-0.000994703732430935,-0.0003554821014404297
276,3.1377588380402854,-0.011317976923739016,2.767532105743764,0.0038335598073899746,0.01131773553788662,0.9999284148216248,-0.002054407261312008,-0.0010382486507296562,0.0004919057246297598,-0.0001561921089887619,0.0015454236418008804,-0.000615239143371582
277,3.13773715262849,-0.011317255878840603,2.7675669016987574,0.003855245653539896,0.011317014694213867,0.9999288320541382,0.0005758665502071381,0.0010074544697999954,0.0006088311783969402,-0.0004677935503423214,0.0009052790701389313,0.000590205192565918
278,3.1377319885950796,-0.011271153643144393,2.7676172517361364,0.003860409837216139,0.011270915158092976,0.9999289512634277,-0.0019487394019961357,-0.0008204351179301739,0.00010937871411442757,0.00024420395493507385,-0.0008491622284054756,0.0006202459335327148
279,3.1377906920734255,-0.011221326284073454,2.76783106101317,0.0038017136976122856,0.011221090331673622,0.9999300241470337,0.0009136912412941456,-0.00012113247066736221,-0.0007208648603409529,0.0008064410649240017,-0.00020424369722604752,0.0007872581481933594
280,3.1377509055579558,-0.011244961912850087,2.768129058263406,0.0038414965383708477,0.011244724504649639,0.9999296069145203,0.0011317301541566849,0.000130578875541687,-0.00019109202548861504,-0.0007287026382982731,0.0007334267720580101,0.0006809234619140625
281,3.1377844351903152,-0.011282615698952014,2.768198910126584,0.003807967295870185,0.011282376013696194,0.9999291896820068,0.0013425815850496292,-0.0024846764281392097,-0.0005261352052912116,0.0033636637963354588,0.0026488974690437317,0.0005743503570556641
282,3.1377535407971964,-0.011313342891675902,2.7690110678189255,0.0038388576358556747,0.011313101276755333,0.9999285936355591,0.00043278373777866364,-0.0005572754889726639,0.0013937752228230238,-0.005151113495230675,-0.0005403971299529076,0.0012310147285461426
283,3.1378038319976715,-0.011274799076976018,2.7701031265023275,0.0037885725032538176,0.01127456035465002,0.9999294281005859,0.00011173170059919357,-0.00048630451783537865,-0.00038619106635451317,0.0032609887421131134,-0.001341087743639946,0.0016118288040161133
284,3.1377719691951063,-0.01129300928979229,2.7713569615428546,0.0038204321172088385,0.011292769573628902,0.9999291300773621,0.002689054701477289,-0.0017711282707750797,0.0011032726615667343,-0.0005703093484044075,0.0002886531874537468,-0.0014090538024902344
285,3.137771295399406,-0.011338328948225224,2.772665553548241,0.0038211040664464235,0.011338085867464542,0.9999286532402039,0.0019727908074855804,-0.0006625950336456299,0.0016592463944107294,-0.001959530869498849,0.0006400663405656815,-0.0007066726684570312
286,3.1378098607832023,-0.011374031926201173,2.774315138867041,0.003782539861276746,0.011373786255717278,0.99992835521698,0.0014026970602571964,-0.002796559128910303,0.0011632363311946392,0.004808158613741398,-0.0008757393807172775,-0.00745081901550293
287,3.1375677656508767,-0.011177867494009874,2.7742852582123274,0.004024625290185213,0.011177634820342064,0.9999293684959412,-0.006087183952331543,0.01759740337729454,0.2651068866252899,-0.13755428791046143,0.07019748538732529,0.007837295532226562
288,3.139512872527806,-0.01205036577422871,2.7502400373070235,0.0020796291064471006,0.012050074525177479,0.999925434589386,0.013969152234494686,0.027721159160137177,-0.2466796487569809,0.01256880909204483,0.026020606979727745,0.00257718563079834
289,3.1188485095933487,-0.04025343042696704,2.7475920649176753,0.022723762318491936,0.04024256020784378,0.9989315867424011,0.5197867155075073,-0.18771310150623322,1.5453777313232422,-0.08386573195457458,-0.05157984048128128,0.05891454219818115
290,3.046164562965929,-0.09094914657226215,2.724372685024472,0.09488950669765472,0.09082381427288055,0.991335928440094,0.4249945282936096,-2.6427254676818848,-1.062729835510254,-0.0007732957601547241,-0.10583846271038055,0.32316291332244873
291,2.757401793507821,0.0014334367824748286,2.863646079859706,0.37480878829956055,-0.001433436293154955,0.9271012544631958,-2.5534281730651855,-4.220611095428467,-1.6395667791366577,0.12525230646133423,-0.029267244040966034,0.2057877779006958
292,2.0965386036858256,0.035127188008991596,3.0525997877210607,0.8644181489944458,-0.03511996567249298,0.5015456080436707,-0.6634740829467773,-8.123046875,0.09741164743900299,0.7173079252243042,-0.08273892104625702,0.5256760716438293
293,1.3207431962180187,0.10668311372461035,3.0504740190490214,0.9633909463882446,-0.10648086667060852,-0.24604861438274384,1.535770297050476,-5.7527031898498535,1.2066385746002197,-0.07532930374145508,0.05875135213136673,0.25581422448158264
294,1.0285291604600126,0.33160453999865125,3.0008713019360935,0.8098775744438171,-0.3255605697631836,-0.48796388506889343,0.42223724722862244,-0.741463840007782,1.3513267040252686,-0.7474233508110046,0.2398061752319336,0.3162262439727783
295,1.0104309007604795,0.4141763393072225,3.0337335299847847,0.7754403352737427,-0.4024360477924347,-0.4865568280220032,-0.2549436390399933,-0.2640478312969208,0.5133398175239563,-0.23132723569869995,0.05389478802680969,-0.06910723447799683
296,0.8497423849742506,0.3655464859776561,3.1282836194783847,0.701483428478241,-0.3574597239494324,-0.6165578961372375,-0.6046452522277832,-0.9051803946495056,-0.2773924171924591,-0.17667263746261597,0.06523862481117249,0.2672994136810303
297,0.8174217096899619,0.35843748302644945,3.101902320680153,0.6830291748046875,-0.3508114516735077,-0.6406265497207642,-0.6697089672088623,-0.5097650289535522,-0.0792650654911995,-0.10832220315933228,-0.06781339645385742,0.15971535444259644
298,0.7495570857741519,0.3099239454107787,3.0723028112238646,0.6488545536994934,-0.30498620867729187,-0.6971163153648376,0.8749039769172668,-1.8671224117279053,-0.9280468821525574,0.18012487888336182,0.04566311836242676,-0.08266878128051758
299,0.7688880712101076,0.2935136073326966,3.0277011745550193,0.6655992865562439,-0.2893173396587372,-0.6879485249519348,-0.6568658351898193,0.7358264923095703,-0.02318202145397663,-0.1426348090171814,0.012019366025924683,-0.04694533348083496
300,0.7678302365687613,0.2643791320384524,3.0283720699082357,0.6704428195953369,-0.26131001114845276,-0.6944231390953064,0.34912732243537903,0.19991400837898254,-0.0800134688615799,-0.08400177955627441,-0.03814372420310974,0.0741838812828064
301,0.850344493476779,0.2889768161957028,3.00857351073155,0.7203472256660461,-0.2849716246128082,-0.6323695182800293,0.4363147020339966,1.6486265659332275,-0.26205796003341675,-0.21869927644729614,0.04904019832611084,0.2110133171081543
302,1.1280095328313866,0.24336774390027674,2.99087337639393,0.8769349455833435,-0.24097248911857605,-0.41583332419395447,-0.38153496384620667,3.4087350368499756,-0.6196740865707397,-0.21947956085205078,0.17758747935295105,0.20993125438690186
303,1.4368778325777298,0.20542948489259366,2.9927871536388913,0.9702081084251404,-0.20398762822151184,-0.1307111382484436,-0.5270841717720032,3.0761866569519043,-0.24744568765163422,-0.4139642119407654,0.16892293095588684,0.2255445122718811
304,1.8930024442694935,0.12437542633957574,3.004766128061077,0.9412120580673218,-0.12405500560998917,0.3142138421535492,0.9846610426902771,3.9561777114868164,0.4344286620616913,0.5297962427139282,0.08998213708400726,-0.03702270984649658
305,2.1232391197488725,0.012603551297435933,2.9040212943793904,0.8511775135993958,-0.012603217735886574,0.5247265100479126,0.40495774149894714,1.334834098815918,0.044929277151823044,0.456760048866272,-0.3094640374183655,0.17607909440994263
306,2.2727097234974125,0.03329128847795224,2.793722616975764,0.7631849050521851,-0.03328514099121094,0.6453220844268799,1.3386976718902588,1.7298449277877808,1.1388025283813477,0.01733255386352539,-0.16633033752441406,0.21193182468414307
307,2.418357838774262,0.07947236541970268,2.6664607292754616,0.6597243547439575,-0.07938873767852783,0.7473027110099792,-0.550225555896759,1.3386249542236328,0.6026467084884644,-0.021922171115875244,0.04527008533477783,0.10668593645095825
308,2.5579086089875727,0.13609114540618297,2.7102352229231412,0.5460063219070435,-0.1356714516878128,0.8267228603363037,-0.06366067379713058,2.038083791732788,0.3522692024707794,0.07766622304916382,0.1274774670600891,0.06310880184173584
309,2.7769454840800973,0.15784204761056525,2.6428494101562596,0.3521864712238312,-0.15718744695186615,0.9226357936859131,0.4332580864429474,0.8417868614196777,0.2244829684495926,0.054658591747283936,0.08971308171749115,-0.3027017116546631
310,2.848415186676783,0.08373758095039699,2.644428180363221,0.28798291087150574,-0.08363975584506989,0.9539759755134583,0.30928128957748413,1.0616809129714966,-0.3302084803581238,0.053783416748046875,-0.05246863514184952,0.11641275882720947
311,2.9246530358228737,0.05129207098641997,2.685362734957043,0.21495887637138367,-0.05126958340406418,0.9752762913703918,-0.2955820560455322,1.0118985176086426,-0.6604686975479126,0.11028218269348145,-0.027877748012542725,0.11166810989379883
312,3.026632620094782,0.10100006742554539,2.7603173683439763,0.1141224130988121,-0.10082843899726868,0.9883368015289307,-0.004583053290843964,0.5162366032600403,-0.46473830938339233,0.0612010583281517,-0.052720747888088226,-0.01185065507888794
313,3.051382917090504,0.10803126140408177,2.8439782423674393,0.08956226706504822,-0.10782124847173691,0.9901279807090759,-0.37345561385154724,-0.2553490698337555,-0.9300997853279114,0.08357921242713928,0.006060391664505005,-0.09928929805755615
314,3.0390952614170965,0.10454319505740893,2.8962517778756474,0.1017594039440155,-0.10435286909341812,0.9893207550048828,-0.06629377603530884,-0.8275853395462036,-0.18047332763671875,-0.0743241012096405,-0.13873489201068878,-0.1708698272705078
315,2.9504548155623525,0.07992978821986639,2.8640428379466445,0.18936966359615326,-0.07984470576047897,0.9786545038223267,0.7182791829109192,0.3635774552822113,0.8353877663612366,-0.3060840666294098,-0.15517118573188782,0.1972949504852295
316,3.008232330705764,0.059879575949671165,2.8006732437134616,0.1327270269393921,-0.059843797236680984,0.98934406042099,0.07060170918703079,0.49571725726127625,0.3484038710594177,-0.07172241806983948,0.008909977972507477,0.05780529975891113
317,3.003841661705943,0.06646273852755825,2.762799178076724,0.1370125710964203,-0.06641381978988647,0.9883403182029724,-0.23837557435035706,-0.08112981915473938,0.4071531295776367,0.025829195976257324,0.07317347079515457,-0.06431394815444946
318,3.034189352802446,0.05452399613050101,2.7663772459120897,0.10703761875629425,-0.05449698492884636,0.992760181427002,0.15123113989830017,0.08908567577600479,-0.40776413679122925,0.06535615772008896,0.12801384925842285,-0.02912205457687378
319,2.9524316631504273,0.03150499962442461,2.7336621472255564,0.18794158101081848,-0.03149978816509247,0.98167484998703,0.27092447876930237,-0.7165887951850891,0.7185207009315491,-0.002989828586578369,-0.011026449501514435,-0.01649552583694458
320,2.9367523230596455,0.05180889041203316,2.667832071029819,0.20313788950443268,-0.05178571492433548,0.9777796864509583,0.11005795747041702,0.18380415439605713,0.48084941506385803,-0.07822942733764648,0.06528974324464798,0.022403359413146973
321,2.980692770782019,0.045944628349856076,2.6653906316931266,0.16003747284412384,-0.0459284670650959,0.9860419034957886,-0.2641414403915405,0.27253207564353943,-0.1331508904695511,-0.01896996796131134,-0.0649724155664444,0.030605435371398926
322,2.9907004396249124,0.04809979150918821,2.671711736632143,0.15014638006687164,-0.04808124527335167,0.9874937534332275,-0.025380272418260574,0.3062436878681183,0.028282737359404564,0.036422789096832275,-0.044768478721380234,0.015618860721588135
323,3.0123546176385343,0.06646719156087241,2.6702518034673886,0.12859401106834412,-0.06641826033592224,0.9894708395004272,-0.11699642241001129,0.40095534920692444,0.33596357703208923,0.017630979418754578,-0.053058065474033356,-0.037612199783325195
324,3.058620699538951,0.09740336131883683,2.58849161212896,0.08248395472764969,-0.09724941849708557,0.9918361902236938,-0.121505007147789,0.10244263708591461,0.9100905656814575,0.0019124075770378113,-0.0021463334560394287,-0.07760584354400635
325,3.0723951746175318,0.11260786982127505,2.5773195277986543,0.06870435178279877,-0.11237002909183502,0.991288423538208,-0.14471329748630524,0.31764668226242065,-0.32660120725631714,0.06291796267032623,-0.08101986348628998,0.04476809501647949
326,3.097317646469631,0.10097026792700961,2.5613263217128925,0.04403512179851532,-0.10079879313707352,0.9939320087432861,-0.02409280091524124,0.5941384434700012,0.08393935859203339,-0.0029126815497875214,0.016509220004081726,0.010661005973815918
327,3.085038111280354,0.10187258982452368,2.5887852428813454,0.05623134970664978,-0.10169647634029388,0.9932250380516052,-0.13311222195625305,0.020751094445586205,-0.6369637250900269,0.03782383352518082,0.01714751124382019,-0.04533374309539795
328,3.1282123160166693,0.12673241584652772,2.6566194145471638,0.013272631913423538,-0.12639343738555908,0.9918912649154663,-0.04226067289710045,-0.37245991826057434,-0.19530057907104492,-0.03321587294340134,0.024098530411720276,0.02347421646118164
329,3.121513766736348,0.11007830271440154,2.6454796207678233,0.019956016913056374,-0.10985612869262695,0.9937470555305481,0.27028197050094604,0.10206694900989532,-0.018049325793981552,0.030031774193048477,0.03636983036994934,-0.050128400325775146
330,3.139180572012234,0.08912570934112884,2.6421550495054067,0.0024025049060583115,-0.08900776505470276,0.9960278272628784,0.188767671585083,0.3710755407810211,0.17973607778549194,0.004769125021994114,-0.0049863457679748535,0.00966346263885498
331,-3.1181030820601863,0.09584324088105613,2.6318264995698315,-0.023379618301987648,-0.0956965759396553,0.9951359629631042,-0.021549809724092484,-0.06536012142896652,0.033018019050359726,0.001406962051987648,0.005318768322467804,0.010265588760375977
332,-3.111914081610386,0.09585044737108654,2.618831854086096,-0.029538001865148544,-0.09570374339818954,0.9949713349342346,0.19243133068084717,0.15474636852741241,0.22793371975421906,0.013363692909479141,0.021851234138011932,-0.0029060840606689453
333,-3.106678225968545,0.08876986550346387,2.6049349587172026,-0.034769896417856216,-0.0886533260345459,0.9954556822776794,-0.01610526256263256,0.05240387097001076,0.14145934581756592,-0.0008746422827243805,0.0020291581749916077,-0.009310483932495117
334,-3.1134529214665325,0.07617170013938818,2.604251811585248,-0.028054432943463326,-0.07609806209802628,0.9967055916786194,0.07863620668649673,-0.06889879703521729,0.017123598605394363,-0.0022800378501415253,-0.0047582536935806274,0.028715550899505615
335,-3.1198062967995517,0.07926507051281691,2.5978144044102063,-0.021716229617595673,-0.07918209582567215,0.9966233968734741,-0.08870730549097061,-0.08974552154541016,0.06579862534999847,-0.01084602065384388,0.016239605844020844,0.007954001426696777
336,-3.1222380467148843,0.07989141661604476,2.5903106882013085,-0.019291674718260765,-0.07980645447969437,0.9966239929199219,-0.10360842943191528,-0.012902908027172089,-0.0176215972751379,-0.006541458889842033,0.007113561034202576,0.010624170303344727
337,-3.1209190953079657,0.08291298009189361,2.592162598552409,-0.020601075142621994,-0.08281801640987396,0.9963518977165222,0.005855042953044176,0.025395900011062622,-0.006358587648719549,-0.003416260704398155,0.0008935704827308655,0.0018630027770996094
338,-3.1260928162742574,0.08092836147106026,2.5962583998639017,-0.015448492020368576,-0.08084005117416382,0.9966075420379639,0.020114092156291008,0.06603007018566132,-0.0747285783290863,-0.009438595734536648,0.0048207566142082214,-0.0009409189224243164
339,-3.1213557556181675,0.0779766362773234,2.600639652197861,-0.020174022763967514,-0.07789763808250427,0.996756911277771,0.010592388920485973,-0.037769678980112076,-0.022165048867464066,0.0037403125315904617,-0.009260550141334534,0.03856682777404785
340,-3.1211667103050877,0.07850028440841661,2.606227760048966,-0.020361630246043205,-0.07841968536376953,0.9967128038406372,-0.03306256979703903,-0.026233837008476257,-0.019450083374977112,0.016836846247315407,0.00937364250421524,0.0041877031326293945
341,-3.1303657036910724,0.0771413906783144,2.610361870156322,-0.01119332667440176,-0.07706490159034729,0.9969632029533386,0.007776606362313032,-0.004025493282824755,-0.07178208976984024,-0.01340384129434824,-0.00934562087059021,-0.0034024715423583984
342,-3.1240047304375955,0.0722565169580507,2.6241010086664645,-0.017541129142045975,-0.07219365984201431,0.9972366094589233,0.03161408007144928,0.004788295365869999,-0.041557036340236664,-0.013296885415911674,0.0007062256336212158,0.013246417045593262
343,-3.124043219515789,0.06856783434199931,2.631205518011511,-0.017507299780845642,-0.06851411610841751,0.9974967241287231,0.08369781076908112,0.003018021583557129,-0.10561276227235794,-0.024957910180091858,-0.026380300521850586,0.0009927749633789062
344,-3.118095095397945,0.09518688573502003,2.6576063650343333,-0.02338903583586216,-0.09504321217536926,0.9951983094215393,-0.017620950937271118,0.09987316280603409,-0.35540589690208435,-0.01263696514070034,-0.021076157689094543,-0.07004272937774658
345,-3.121388079406011,0.09670443457246687,2.6589059406589297,-0.02010880783200264,-0.09655378013849258,0.9951246976852417,-0.05957111343741417,-0.13701000809669495,0.09516654908657074,0.10134659707546234,0.055461861193180084,0.0085374116897583
346,-3.1370300221323983,0.07630259948050669,2.6702850778188867,-0.004549339879304171,-0.07622858136892319,0.9970799088478088,-0.05184277892112732,-0.16442422568798065,-0.3161188066005707,-0.005307837389409542,0.011485546827316284,0.04326421022415161
347,3.0830457864919345,0.0548860232493331,2.6489353047124395,0.05842531844973564,-0.05485846847295761,0.996783435344696,0.5497671365737915,-0.5204315781593323,0.079474538564682,-0.11990297585725784,0.010363832116127014,-0.03500664234161377
348,3.07848468530475,0.04755081830404744,2.6618338638736176,0.0629948154091835,-0.04753290116786957,0.9968814253807068,-0.1274709701538086,0.44457605481147766,-0.3301544487476349,-0.008139461278915405,0.004472598433494568,0.009512066841125488
349,3.091227624817101,0.047831612987399415,2.7036901684208976,0.050286151468753815,-0.04781337454915047,0.9975895285606384,0.022008325904607773,-0.032342828810214996,-0.5112044215202332,-0.013802394270896912,-0.08713534474372864,-0.004318833351135254
350,3.094029070401929,0.046386677911414056,2.7364255682583574,0.047494519501924515,-0.046370044350624084,0.9977948665618896,0.00952298566699028,0.10336507856845856,-0.27882930636405945,0.0005554184317588806,-0.09364461898803711,-0.020453929901123047
351,3.104974524436496,0.03804706936152118,2.7235978084868253,0.03658345341682434,-0.03803789243102074,0.9986064434051514,0.14439378678798676,-7.339008152484894e-05,0.5931907296180725,0.01619669795036316,-0.17396771907806396,0.08554577827453613
352,3.1117867619163313,0.03369599460976591,2.707793084995856,0.029784558340907097,-0.03368961811065674,0.9989883303642273,0.03518287092447281,-0.00871907640248537,0.03798234090209007,-0.011260392144322395,0.021574147045612335,-0.004313766956329346
353,3.1283310233603405,0.02114603712160441,2.6982786523164557,0.013258280232548714,-0.021144460886716843,0.9996888041496277,0.08658120036125183,0.18117554485797882,0.09205492585897446,-0.00626975204795599,0.008891647681593895,0.03685629367828369
354,3.1400255741910157,0.01076733992938332,2.6930810079494294,0.0015669877175241709,-0.010767132043838501,0.9999406933784485,0.19733738899230957,0.16671498119831085,0.012423778884112835,0.010914701968431473,-0.00383552722632885,0.002668440341949463
355,-3.1409422665525106,-0.006699470048749375,2.6912824400378446,-0.0006503722397610545,0.006699420046061277,0.9999771118164062,0.007325466722249985,-0.128872349858284,0.01613045111298561,-0.013891253620386124,0.006117961369454861,0.03140997886657715
356,3.137117460208204,-0.005806221792812638,2.6907732636801702,0.004475104156881571,0.005806189030408859,0.9999734163284302,-0.00864296406507492,-0.0253516286611557,0.00902622938156128,0.005153192672878504,0.01764656975865364,0.0022546052932739258
357,3.135503909635398,-0.006497385921825895,2.6895833950939254,0.006088578142225742,0.006497340276837349,0.9999604225158691,0.004683502018451691,-0.0024969358928501606,0.05049361288547516,0.0008236533030867577,-0.01910110004246235,0.0003600120544433594
358,3.1356580510189067,-0.006135321166733729,2.6754873126064216,0.005934454500675201,0.006135282572358847,0.9999632835388184,-0.00046839192509651184,-0.0003986069932579994,0.03767704963684082,0.00918700359761715,0.09153622388839722,0.0012113451957702637
359,3.136250869016917,-0.0069051812285051565,2.6752894695524114,0.005341632757335901,0.0069051263853907585,0.9999620914459229,0.001742516178637743,0.0008705882355570793,0.0003720284439623356,0.000624554231762886,-0.006493138149380684,0.0009993314743041992
360,3.1362756156959817,-0.00676975747819778,2.6753508641395554,0.0053168912418186665,0.006769705563783646,0.9999630451202393,0.0021536927670240402,-0.0020833532325923443,-0.001295572379603982,-0.006034053862094879,0.00012726802378892899,0.000525355339050293
361,3.1365086260156447,-0.007201938451006542,2.6753232828091127,0.005083874799311161,0.007201876025646925,0.9999613165855408,0.0026078340597450733,0.0028789211064577103,0.001458426471799612,0.0036288942210376263,0.012512479908764362,-0.0009071826934814453
362,3.1364554763961148,-0.007310143197856052,2.675290828927639,0.005137018393725157,0.007310078013688326,0.9999603033065796,-0.00023420248180627823,-0.0013018236495554447,-0.002377968979999423,-0.003702690824866295,-0.01002614013850689,0.0014742612838745117
363,3.1365504954451975,-0.007344921470246807,2.675320912279767,0.005042001139372587,0.007344855461269617,0.9999603629112244,0.001031248364597559,3.50000336766243e-05,-0.0006441478617489338,-0.0024785236455500126,0.011484491638839245,-0.0005859136581420898
364,3.136697231145811,-0.007788478922949813,2.6752407508274803,0.0048952545039355755,0.007788400165736675,0.9999577403068542,-0.001118726097047329,-0.0010236245580017567,-3.6694109439849854e-06,0.004229501821100712,-0.0018985061906278133,0.0016139745712280273
365,3.1366476702677866,-0.007754082088117374,2.675254651551034,0.004944814369082451,0.007754004560410976,0.9999576807022095,-0.001279774121940136,-0.003241776954382658,-0.0015462614828720689,-0.004075063858181238,-0.0010096202604472637,0.001339256763458252
366,3.1366817528597584,-0.008060803438344843,2.6752459690664887,0.004910722374916077,0.008060716092586517,0.9999556541442871,-1.5222467482089996e-05,-0.0007239882834255695,0.0011433803010731936,-0.004071488510817289,0.010524489916861057,-0.0006574392318725586
367,3.136839392377731,-0.008146881834403841,2.675264662976258,0.004753085784614086,0.008146791718900204,0.9999555349349976,0.0012471126392483711,0.0005105715245008469,0.0007644966244697571,0.004356411285698414,-0.008436708711087704,-0.0014051198959350586
368,3.1368123893148274,-0.008107697983789876,2.675326149324325,0.004780089017003775,0.008107609115540981,0.9999557137489319,8.573010563850403e-05,2.64020636677742e-05,0.0009531637188047171,-0.004764830693602562,0.007029109634459019,0.00305020809173584
369,3.1369587337002347,-0.00843614970967218,2.6753414778417444,0.004633738659322262,0.008436049334704876,0.9999537467956543,0.0002851998433470726,-0.0009480132721364498,-0.0008775551104918122,0.008870289660990238,0.001634751446545124,0.002502918243408203
370,3.1369770683934317,-0.00834957277942692,2.6753471690889543,0.00461540836840868,0.00834947545081377,0.9999546408653259,-0.0017180806025862694,-0.0017659040167927742,-0.0015639346092939377,-0.00630913395434618,-0.0035582156851887703,0.0032650232315063477
371,3.1370887428427054,-0.008337168196976589,2.675349998031157,0.004503738600760698,0.008337071165442467,0.9999549984931946,-0.0005444437265396118,4.182010889053345e-05,0.0007043692748993635,-0.0005059363320469856,0.006555505096912384,-0.0012673735618591309
372,3.1371939357998366,-0.008439373187134388,2.675337791178296,0.004398547112941742,0.00843927264213562,0.9999547600746155,-0.0015749353915452957,-0.0018895696848630905,0.0011719039175659418,0.0035055051557719707,-0.004075260832905769,-0.00015312433242797852
373,3.13715134453287,-0.008459702260170468,2.6753046240351623,0.0044411360286176205,0.008459601551294327,0.9999544620513916,0.0001970585435628891,0.00046138372272253036,-9.050499647855759e-05,-0.002488010562956333,-0.0014252988621592522,-0.00019848346710205078
374,3.1372699786822658,-0.008629613535686106,2.6752992680399275,0.004322501365095377,0.008629506453871727,0.9999536871910095,-0.0004335707053542137,-0.0007905997335910797,0.000874530291184783,0.003856209572404623,0.005942638032138348,-0.0013115406036376953
375,3.1372038275743237,-0.008715369030163513,2.67527754104277,0.0043886457569897175,0.008715258911252022,0.999952495098114,0.002042450476437807,0.0005511734634637833,-0.00042628333903849125,-0.00341208279132843,-0.004381762817502022,0.0029314756393432617
376,3.1373817751691107,-0.00867161637015657,2.675277923962009,0.004210707265883684,0.008671507239341736,0.9999534487724304,0.0010854550637304783,0.00276158656924963,-0.001854404341429472,0.0028388528153300285,0.0033524176105856895,0.0033728480339050293
377,3.1374202112836787,-0.008816454988834458,2.6752390810401447,0.004172268323600292,0.008816340938210487,0.9999524354934692,0.001324511133134365,-0.0017112256027758121,0.0002879071980714798,-0.0005559353157877922,0.0006288494914770126,0.0006121397018432617
378,3.137418242436165,-0.0087386228848561,2.6753053379962255,0.004174239933490753,0.008738511241972446,0.9999531507492065,0.0018584039062261581,0.001734062097966671,-0.0003865468315780163,-0.003457076847553253,-0.0022382671013474464,-9.047985076904297e-05
379,3.13750288573624,-0.008870655220448843,2.6752484924390907,0.004089596681296825,0.008870539255440235,0.9999525547027588,0.0008057919330894947,-0.0006871963851153851,0.0006208540871739388,0.002532718703150749,0.004602973349392414,-0.0027904510498046875
380,3.137510706181252,-0.008914034093394729,2.675207251402229,0.004081774037331343,0.008913915604352951,0.9999520182609558,-0.002596624195575714,-0.0008087670430541039,0.00025182520039379597,-0.0030136583372950554,-0.0025967760011553764,0.0010093450546264648
381,3.1375637937804863,-0.008834951641169864,2.6752107244811207,0.004028692375868559,0.00883483700454235,0.9999529719352722,-0.0005999961867928505,-0.0003830092027783394,-0.0004821429029107094,0.0003810981288552284,0.0009307889267802238,0.0001386404037475586
382,3.1376082556199183,-0.008970389224137192,2.675238826194063,0.003984228242188692,0.008970269002020359,0.9999521374702454,-0.00119881983846426,0.0007136845961213112,-0.0005540815182030201,-4.745973274111748e-05,0.0018634730949997902,0.0010247230529785156
383,3.13757888704886,-0.008924703586617674,2.6752397885445975,0.004013597033917904,0.008924584835767746,0.9999523758888245,-3.8078054785728455e-05,-0.0020400788635015488,-0.0013618565862998366,-0.0011754618026316166,-0.0024090809747576714,0.0004292726516723633
384,3.13757930107283,-0.00892291425861938,2.6752352116768714,0.004013181664049625,0.00892279576510191,0.9999520778656006,-0.0007956400513648987,0.0008229939267039299,0.002068393863737583,0.0015257582999765873,0.003650444559752941,-0.00021153688430786133
385,3.137551073857502,-0.008977338308228203,2.675171249652148,0.0040414053946733475,0.008977217599749565,0.9999514818191528,-0.0004386045038700104,0.0011230092495679855,0.00030852085910737514,-0.0005318848416209221,-0.0020192116498947144,-0.00014990568161010742
386,3.137544404846882,-0.008946688926169505,2.6751616611389246,0.004048075992614031,0.008946569636464119,0.9999518990516663,0.00041862018406391144,2.0101666450500488e-05,0.0003446163609623909,-0.00012656720355153084,0.000529138371348381,0.0016045570373535156
387,3.137547964464764,-0.008989445338972434,2.6751365270279095,0.004044514149427414,0.008989323861896992,0.9999512434005737,0.0019838432781398296,-0.0007244134321808815,0.002672255737707019,-0.00041292328387498856,0.0018749311566352844,-0.0006533265113830566
388,3.137562464661314,-0.009004816286700797,2.6751110224163357,0.004030014853924513,0.009004694409668446,0.9999514222145081,0.0006571435369551182,-0.0006182678043842316,0.0018853710498660803,-3.2211653888225555e-05,-0.001680474728345871,0.0013151168823242188
389,3.1375838598547454,-0.009014781064862466,2.6751328352088373,0.004008620511740446,0.009014658629894257,0.9999513626098633,0.0004782862961292267,0.0003466326743364334,0.0005937034729868174,0.0010420395992696285,0.0019258931279182434,-0.0011873245239257812
390,3.137479580177825,-0.009057780934574365,2.675172806875204,0.004112894181162119,0.009057656861841679,0.9999507665634155,-0.0009708404541015625,-0.0014858054928481579,-0.0003730384632945061,-0.0015036403201520443,-0.000238075852394104,-0.0005913972854614258
391,3.137511734915122,-0.009021906351300232,2.6751915152345287,0.0040807416662573814,0.00902178417891264,0.9999510645866394,0.0010557742789387703,0.00031647365540266037,-0.0017799715278670192,0.0008936235681176186,-0.0006904853507876396,0.001223921775817871
392,3.1374862861846986,-0.009032767788602541,2.675108869614025,0.0041061872616410255,0.009032645262777805,0.9999505281448364,-0.0013992451131343842,0.0005093058571219444,-0.00013923132792115211,-0.0006729606539011002,0.0020452337339520454,0.0012394189834594727
393,3.1375033686172222,-0.00905704637383396,2.675103784796397,0.00408910633996129,0.009056922979652882,0.9999507665634155,0.0009993878193199635,-0.00010498799383640289,-0.0003702638205140829,0.00027490779757499695,-0.001442786306142807,-0.00024056434631347656
394,3.137517378549553,-0.009044458455251344,2.6750882360864434,0.004075097385793924,0.009044335223734379,0.9999508261680603,-0.000927511602640152,-0.0010415567085146904,-0.0002638287842273712,-0.00030617695301771164,-0.00019423849880695343,0.0012241005897521973
395,3.137487578868389,-0.009106680340183816,2.6751186711731276,0.004104892257601023,0.009106554090976715,0.9999499320983887,0.0012874780222773552,0.0017798012122511864,0.0008664217311888933,-0.0012057232670485973,0.001757700927555561,-0.000636756420135498
396,3.1375126293723232,-0.009147725061648047,2.675136493854622,0.004079842008650303,0.00914759747684002,0.9999498724937439,0.002007829025387764,-0.0015371073968708515,-0.002182407071813941,-0.0002346276305615902,-0.00029750075191259384,0.0007215142250061035
397,3.1375468780276385,-0.009108398625148494,2.675204196415634,0.0040455968119204044,0.00910827238112688,0.9999504089355469,-0.0006491616368293762,0.00044896453619003296,0.0006282629910856485,0.00040996959432959557,0.0009472686797380447,-1.1444091796875e-05
398,3.137528624592195,-0.009109007792064744,2.675217364809081,0.0040638502687215805,0.00910888146609068,0.9999504685401917,-0.001398974098265171,-7.832981646060944e-05,0.002272834302857518,-0.0009663151577115059,0.0011908020824193954,0.00014126300811767578
399,3.1375491266660065,-0.009148443402890285,2.675220399262158,0.004043345805257559,0.009148315526545048,0.9999497532844543,0.00020689330995082855,-0.0009108097292482853,0.0018180152401328087,-7.606158033013344e-05,-0.0009543485939502716,8.052587509155273e-05
400,3.1375384370451216,-0.009161602937805354,2.6752926699188246,0.004054035991430283,0.009161475114524364,0.9999499917030334,-0.0011858213692903519,-0.0031469129025936127,4.1119055822491646e-05,0.00018790783360600471,0.0008940678089857101,-0.0002702474594116211
401,3.137502295476568,-0.009145415202522846,2.6752254815540524,0.0040901764295995235,0.009145287796854973,0.9999499917030334,-0.0007118033245205879,-0.000634028110653162,0.0028789271600544453,0.00031961407512426376,-0.0006156237795948982,0.0006147623062133789
402,3.1374686575276365,-0.00909643376867502,2.6747593546294945,0.00412381486967206,0.00909630861133337,0.9999504089355469,-0.0013217460364103317,-0.0005623851902782917,0.0003107551019638777,0.0003317524679005146,0.0008371658623218536,0.00015664100646972656
403,3.137488543142383,-0.00912158717244387,2.674612019425479,0.004103928804397583,0.00912146084010601,0.9999501705169678,0.0012676017358899117,0.0002735164016485214,0.001674781320616603,-0.0002129371277987957,0.0007509766146540642,0.00033986568450927734
404,3.137482367521603,-0.009100413085900963,2.6746836213927074,0.004110105335712433,0.009100287221372128,0.9999504685401917,-0.00063332449644804,0.0003853337839245796,-0.0027051670476794243,-0.0006616180762648582,-0.0005401056259870529,0.0011637210845947266
405,3.137504280645334,-0.009063005681619912,2.6745793756110507,0.004088193643838167,0.009062881581485271,0.9999505877494812,0.0013227327726781368,0.0005956282839179039,0.0011915822979062796,0.0009319479577243328,0.00036705005913972855,0.0014836788177490234
406,3.1374811632793147,-0.00898303097755484,2.6740201696143964,0.0041113137267529964,0.008982909843325615,0.9999513626098633,-0.0013728002086281776,-1.0293908417224884e-05,0.0030133575201034546,-0.0013647307641804218,-0.0007889401167631149,0.00029289722442626953
407,3.1375567465065934,-0.00900595664491656,2.674059795608929,0.004035733174532652,0.00900583527982235,0.9999514818191528,0.0018032044172286987,-0.0012622596696019173,0.002009420422837138,0.0005876808427274227,0.0006834985688328743,0.0006132125854492188
408,3.137563039832632,-0.008986273869335464,2.6739564155110105,0.004029440227895975,0.008986152708530426,0.9999514818191528,-0.0018278015777468681,0.00025121960788965225,0.0008348927367478609,-0.0004436252638697624,0.0007336949929594994,0.0011318325996398926
409,3.1375193652951245,-0.008999862789822576,2.6740588029406376,0.004073112737387419,0.00899974163621664,0.9999514222145081,-0.000434008426964283,0.00025057606399059296,0.000591679010540247,-1.4273915439844131e-05,-0.0009430982172489166,-0.0008667707443237305
410,3.1375109564385113,-0.009009015518960073,2.674153725869079,0.004081519786268473,0.009008893743157387,0.9999510049819946,0.0001849103718996048,0.0004581678658723831,0.0034918703604489565,-0.00011423509567975998,0.0003294842317700386,0.0001404285430908203
411,3.1375547914417683,-0.009058261106967115,2.67415874622079,0.004037687089294195,0.00905813742429018,0.999951183795929,-0.0006990721449255943,0.001991154160350561,0.0007962894160300493,-0.0010011871345341206,0.00028024427592754364,0.00020170211791992188
412,3.1375940602679466,-0.009095596381984095,2.674446912038123,0.003998416941612959,0.009095471352338791,0.9999505281448364,0.0022853990085422993,-0.0002910350449383259,-0.0012265198165550828,0.0007470659911632538,-0.0004132203757762909,4.935264587402344e-05
413,3.137582259848286,-0.009067786585006342,2.674372522789279,0.004010218195617199,0.009067662060260773,0.9999508857727051,0.002482807729393244,0.0006232857704162598,-0.0020382190123200417,-0.001080530695617199,0.0005453750491142273,-0.0006985664367675781
414,3.137641742983945,-0.009117919695816558,2.6743119633200707,0.00395073601976037,0.009117793291807175,0.9999505877494812,-0.0012194635346531868,5.2415765821933746e-05,-0.001053048181347549,0.0007337122224271297,-0.0003134720027446747,-4.220008850097656e-05
415,3.137595204473521,-0.009183695096542982,2.6742673630570843,0.003997269086539745,0.009183566085994244,0.99994957447052,0.0009380322881042957,-0.0004491726867854595,-0.0006359163671731949,1.5791039913892746e-05,0.0009177504107356071,0.00012642145156860352
416,3.1376002860180923,-0.009208355740545479,2.6741988615012846,0.003992187790572643,0.009208225645124912,0.9999496340751648,0.0011266903020441532,-9.56743024289608e-05,0.0001921753864735365,-0.0007878425531089306,0.0003437753766775131,8.088350296020508e-05
417,3.1376027091147303,-0.009200671332493204,2.674086835797178,0.003989765420556068,0.00920054130256176,0.9999498128890991,0.0017850440926849842,0.0010357699356973171,-0.000734010012820363,0.0017475397326052189,-0.0006251009181141853,0.0009200572967529297
418,3.137570882167033,-0.009209889760958594,2.674157342248504,0.004021590109914541,0.009209759533405304,0.9999494552612305,-0.0004270300269126892,-0.0003746030852198601,-0.0002322327345609665,-0.0016869953833520412,0.00018965359777212143,0.0009965300559997559
419,3.137604760791391,-0.009263616733448504,2.6741683873542033,0.003987710922956467,0.009263483807444572,0.9999491572380066,0.001030576415359974,0.0006174119189381599,0.0012218039482831955,0.0006204433739185333,0.001295597292482853,9.655952453613281e-05
420,3.1376488198714316,-0.009307443568772798,2.67386430267384,0.003943653777241707,0.009307309053838253,0.9999492168426514,0.003461422398686409,-0.001587540376931429,0.0024123606272041798,-0.0005409428849816322,0.0003820238634943962,0.0004477500915527344
421,3.137663985122265,-0.009298862128229264,2.6738382613875737,0.003928489051759243,0.009298727847635746,0.9999491572380066,-0.003728439100086689,0.0011269808746874332,0.0007431453559547663,-0.0006325901485979557,-0.0005554407835006714,-0.0002237558364868164
422,3.137745642257254,-0.009297083705076334,2.6737700300493445,0.003846836043521762,0.009296949952840805,0.9999494552612305,0.0003134794533252716,-0.00010731862857937813,-0.0006584539078176022,0.0006697655189782381,-0.000950392335653305,-0.00048351287841796875
423,3.137756555176187,-0.009344927158405783,2.6737883468813948,0.003835920710116625,0.009344791062176228,0.9999487996101379,0.00032720621675252914,-0.0008547520264983177,-0.0015257563209161162,-0.0013029626570641994,0.0006191963329911232,0.0009512901306152344
424,3.1377465972781007,-0.009423731137942832,2.673814388401283,0.003845875384286046,0.009423591196537018,0.9999480247497559,-0.0007407506927847862,-0.000627581961452961,-0.0005144884344190359,0.000701243057847023,0.00038780830800533295,-0.0006195902824401855
425,3.1378202626219722,-0.009368277955253758,2.6738325755005565,0.0037722161505371332,0.009368141181766987,0.9999489188194275,0.001448045950382948,-0.0028218417428433895,0.0007231803610920906,-0.0010714111849665642,-0.001311502419412136,0.000462949275970459
426,3.1378579561237165,-0.009327244556212104,2.673849325788744,0.0037345269229263067,0.009327108971774578,0.9999496936798096,0.0016576829366385937,0.001108348835259676,-0.0030864309519529343,-0.00010293489322066307,-0.0009652925655245781,0.0005387067794799805
427,3.137876189225114,-0.009258590269103141,2.6738393518108436,0.0037162969820201397,0.009258458390831947,0.9999503493309021,0.001354943960905075,0.0005842912942171097,-0.00024118507280945778,0.0007850457914173603,0.00020199082791805267,-0.0006369352340698242
428,3.137838581341124,-0.009320257412883717,2.6739961899716755,0.0037539012264460325,0.009320122189819813,0.9999497532844543,1.8157996237277985e-05,0.00031647831201553345,6.761006079614162e-05,-0.0011446475982666016,0.0017882771790027618,-0.00019371509552001953
429,3.1378524413998505,-0.009315076608425062,2.674036060758838,0.0037400403525680304,0.009314942173659801,0.9999493956565857,-0.0017651254311203957,-4.222104325890541e-05,0.0007590549066662788,0.0013106181286275387,8.447002619504929e-05,-0.0008346438407897949
430,3.1378035566804376,-0.009268502536216475,2.6739838826699174,0.003788925474509597,0.009268369525671005,0.9999499320983887,-0.0003001745790243149,-0.000825077760964632,-0.0007947287522256374,0.0019178616348654032,-0.0008760355412960052,-0.0005450248718261719
431,3.137816390314651,-0.009265649927357424,2.673976471648996,0.00377609278075397,0.009265516884624958,0.999950110912323,-0.0008509643375873566,-0.0013833912089467049,-0.00026100920513272285,-0.0010447686072438955,0.0009120972827076912,0.0013470649719238281
432,3.137879093889746,-0.009321519613677253,2.673985400087889,0.003713389625772834,0.009321385063230991,0.99994957447052,0.0002225814387202263,-0.0009664613753557205,-0.00032035610638558865,0.0006658826023340225,0.000261133536696434,0.0010879039764404297
433,3.137873249564744,-0.00925499846319378,2.6740058781367093,0.003719236934557557,0.009254866279661655,0.9999504089355469,-0.000866185873746872,0.00017927773296833038,-0.0016617360524833202,-0.0011862767860293388,-0.0008472716435790062,0.0007363557815551758
434,3.137887717197047,-0.009234197566584725,2.6739826386143677,0.003704770002514124,0.009234066121280193,0.9999505281448364,0.0025095087476074696,0.00109202042222023,0.0007872425485402346,0.0003540678881108761,-0.0004907799884676933,0.0011633634567260742
435,3.137895784202264,-0.009325965351342358,2.6739187937109743,0.0036967003252357244,0.009325830265879631,0.9999497532844543,0.00018109288066625595,-0.0004046116955578327,0.00010513421148061752,0.0016133582685142756,-0.001040307804942131,-0.0014603137969970703
436,3.137856956643588,-0.009352811831435512,2.6738727980522157,0.003735525533556938,0.009352675639092922,0.9999495148658752,0.0020862859673798084,5.208328366279602e-05,0.0005741135682910681,-0.0002870389726012945,0.001206408254802227,-8.666515350341797e-05
437,3.137873275316113,-0.009376064800720242,2.6738654008841163,0.0037192050367593765,0.009375927038490772,0.9999487996101379,-0.0004787435755133629,0.001652122475206852,-0.0008875946514308453,0.0011025711428374052,-0.0001291036605834961,-2.5451183319091797e-05
438,3.1378779118203965,-0.009370023451877447,2.6738433514364672,0.0037145696114748716,0.009369886480271816,0.999949038028717,-0.002815352752804756,0.0005795573815703392,0.0030417246744036674,-0.00037289527244865894,-0.0015879040583968163,0.0003559589385986328
439,3.1378912191172623,-0.009331118223106108,2.673836952255442,0.003701265435665846,0.009330983273684978,0.9999497532844543,2.4957582354545593e-05,-0.003095483873039484,-0.00043505593203008175,3.713835030794144e-05,-0.00025200285017490387,0.0009047985076904297
440,3.13788545085773,-0.009269526723798995,2.6738745050405,0.003707035444676876,0.009269393980503082,0.9999502897262573,-0.000810558907687664,-0.000516786240041256,-0.00033018807880580425,-0.00012121954932808876,6.898585706949234e-05,0.00032448768615722656
441,3.1378894124453565,-0.009243819066439389,2.6739457102782347,0.0037030745297670364,0.009243687614798546,0.9999504685401917,0.0018247594125568867,0.003209611400961876,0.0030566053465008736,0.00047783367335796356,0.0013153944164514542,0.001773834228515625
442,3.137825004346065,-0.009163247691541846,2.6739552530626702,0.003767481306567788,0.009163119830191135,0.9999507069587708,0.0008912337943911552,-0.00042658625170588493,-0.001093694823794067,-0.0016770276706665754,-0.0016100211068987846,0.0004915595054626465
443,3.1379487104655372,-0.009126454958554839,2.673937416561782,0.003643783275038004,0.009126327931880951,0.9999516606330872,0.0007377704605460167,0.0010222913697361946,-0.0011293810093775392,0.002459732349961996,0.001341201364994049,0.0024439096450805664
444,3.137899803047388,-0.009144853406001553,2.6739792672822786,0.003692688187584281,0.00914472620934248,0.9999514818191528,-0.0006117029115557671,-0.0010001370683312416,0.003493822878226638,-0.0021362912375479937,0.0027418723329901695,-0.0020418167114257812
445,3.137911641347485,-0.009103033946114083,2.6739957609441194,0.0036808522418141365,0.009102907963097095,0.9999520182609558,-0.0018564527854323387,-0.0007541477680206299,0.0009368814062327147,0.002697322051972151,-0.002419557422399521,0.0017876625061035156
446,3.137845183083809,-0.008936968145601206,2.6740424405856307,0.003747312119230628,0.008936849422752857,0.9999530911445618,0.0012204796075820923,-0.0010728444904088974,0.0005942666903138161,-0.001244870712980628,-0.0003156336024403572,-0.0010974407196044922
447,3.1378740720810607,-0.008928200462334591,2.674042936716171,0.0037184255197644234,0.008928081952035427,0.9999534487724304,-9.34600830078125e-05,-0.00037080375477671623,-0.0003366991877555847,-0.00046830298379063606,-7.798336446285248e-05,0.0005502700805664062
448,3.137906463040357,-0.008932803354023723,2.6740560772605773,0.0036860352847725153,0.008932684548199177,0.9999533295631409,0.0012096506543457508,0.0002587363123893738,-0.00023095682263374329,0.0009526368230581284,0.0012449277564883232,0.00045859813690185547
449,3.137963631819898,-0.008896322849019598,2.6740357971177198,0.0036288690753281116,0.008896205574274063,0.99995356798172,-0.001569211483001709,-0.0012049600481987,-0.0002901714760810137,-0.0024234256707131863,0.0005947593599557877,0.0034793615341186523
450,3.1379988841985456,-0.008863963751969762,2.67403904445689,0.0035936208441853523,0.008863847702741623,0.999954342842102,-0.0015498800203204155,-0.0014670006930828094,-0.0005951300263404846,0.0017011789605021477,-0.002775590866804123,0.0018919706344604492
451,3.1379548632686713,-0.008876880117376102,2.6740613942460802,0.0036376386415213346,0.00887676328420639,0.9999538660049438,0.002414219081401825,0.0001778891310095787,-0.0004016635939478874,-0.001058903755620122,0.001651800237596035,0.0018770694732666016
452,3.137907786292416,-0.009014662121253429,2.67405988656928,0.00368470954708755,0.00901454035192728,0.9999526739120483,0.00036084093153476715,-0.0009756069630384445,0.0010552301537245512,-0.0006939866580069065,0.003161974251270294,0.00016951560974121094
453,3.137899364042121,-0.009005951995131746,2.674081897203485,0.0036931317299604416,0.009005830623209476,0.9999527335166931,0.0001359758898615837,-8.641369640827179e-05,-0.001409183256328106,0.0018915850669145584,-0.002551361918449402,-0.0008376836776733398
454,3.137837551039622,-0.008903220336074815,2.6741361965098758,0.003754944773390889,0.008903102949261665,0.9999532699584961,-0.0012682359665632248,0.00045001693069934845,-0.00078430469147861,-0.0012677626218646765,-0.0018840599805116653,0.0006875395774841309
455,3.137832194543431,-0.008888746533594711,2.6741733468646314,0.003760300809517503,0.008888629265129566,0.9999532103538513,-0.0016477322205901146,0.00047034304589033127,-0.0023972592316567898,0.00014594802632927895,-0.00026741623878479004,0.0004585385322570801
456,3.1378801954803124,-0.00891375679904937,2.6742277497686393,0.0037123023066669703,0.00891363900154829,0.9999533891677856,0.001519590150564909,0.00020797550678253174,-0.00039052218198776245,0.001048440346494317,0.0021642427891492844,0.00019919872283935547
457,3.1378773031644305,-0.00900794098011228,2.674230530601487,0.0037151919677853584,0.00900781899690628,0.9999527335166931,-8.201412856578827e-05,-0.000851211603730917,5.008140578866005e-05,-0.002036724705249071,0.001398676075041294,0.00044417381286621094
458,3.137872291973817,-0.008915711691252111,2.674271706057203,0.0037202059756964445,0.008915593847632408,0.99995356798172,-0.0007106680423021317,-0.0005483566783368587,-0.0003469563089311123,0.0013762302696704865,-0.002659488469362259,0.00026023387908935547
459,3.137867207329525,-0.008870030548152871,2.6742753743576557,0.0037252914626151323,0.008869914337992668,0.9999538064002991,-0.00018938258290290833,-0.00034504104405641556,0.0019661278929561377,-0.0004293927922844887,-0.0007980139926075935,0.0004734992980957031
460,3.1378935765490916,-0.008899818497667099,2.674284751770293,0.0036989219952374697,0.008899700827896595,0.9999535083770752,0.0005755024030804634,0.000621517188847065,0.0008957390673458576,-0.0016237266827374697,0.001506793312728405,0.0009161233901977539
461,3.1379291011705877,-0.008868933855224888,2.6742681613687704,0.003663399023935199,0.008868817239999771,0.9999536275863647,-0.0002482244744896889,0.00021534226834774017,0.0010251314379274845,0.0008684596978127956,0.0010951682925224304,2.384185791015625e-07
462,3.1378993666973627,-0.008872227518999052,2.674312975877803,0.003693133359774947,0.008872111327946186,0.9999538660049438,0.0018084980547428131,0.0016848370432853699,-0.0003123492933809757,-0.002716571092605591,0.0010155830532312393,-6.0677528381347656e-05
463,3.137928193839267,-0.008833101805262008,2.6742913700957205,0.003664308227598667,0.008832987397909164,0.9999541640281677,-0.0027525434270501137,-0.0005269129760563374,0.000956070376560092,0.0015541973989456892,-0.001783427782356739,0.0002288222312927246
464,3.1379342200165183,-0.008817162990833427,2.674260716333933,0.0036582828033715487,0.008817048743367195,0.999954342842102,0.0009729210287332535,-0.0007609198801219463,0.0020029759034514427,0.0013160821981728077,0.0005060704424977303,0.0017545223236083984
465,3.137870281651184,-0.008918736971515314,2.6742302600192436,0.00372221483848989,0.00891861878335476,0.9999531507492065,-0.001110871322453022,-0.0004813363775610924,0.0012780020479112864,-0.0007314928807318211,0.0020066723227500916,0.00047391653060913086
466,3.1378726424075385,-0.00895909032393492,2.67425288824587,0.003719853237271309,0.008958970196545124,0.9999529123306274,0.0006284988485276699,3.2247044146060944e-05,0.000130912521854043,0.0010714062955230474,-0.0008565541356801987,-0.0004412531852722168
467,3.137899853751003,-0.008830142874013215,2.6742460363694054,0.003692647209390998,0.008830028586089611,0.999954104423523,-0.0003943629562854767,-0.0003525693900883198,0.003271501511335373,-0.0005798547063022852,-0.000971752218902111,-0.0006866455078125
