,attitude.roll,attitude.pitch,attitude.yaw,gravity.x,gravity.y,gravity.z,rotationRate.x,rotationRate.y,rotationRate.z,userAcceleration.x,userAcceleration.y,userAcceleration.z
0,-0.0005929813154303029,0.012748674238297559,-1.9884161946038594,-0.0005929330945946276,-0.01274832896888256,-0.9999185800552368,0.001157679595053196,4.388159140944481e-05,0.0007969862781465054,-4.7936104238033295e-05,3.775767982006073e-05,-0.0033010244369506836
1,-0.0016801599032039245,0.012572825452338354,-1.985455200970998,-0.0016800262965261936,-0.012572494335472584,-0.9999195337295532,0.004054195247590542,0.010318630374968052,0.001929641468450427,0.005296359304338694,-0.0011298982426524162,0.003352820873260498
2,-0.0007578761475551447,0.012844777968863973,-1.9854063767862136,-0.0007578135700896382,-0.012844424694776535,-0.999917209148407,-0.0028350884094834328,-0.0008610216900706291,-0.001063054776750505,-0.004002928733825684,-0.000674862414598465,-0.0017765164375305176
3,-0.0009105375280902037,0.012878056396653013,-1.9854180605629268,-0.0009104618802666664,-0.012877700850367546,-0.999916672706604,6.653182208538055e-05,-8.14562663435936e-05,-0.0033113404642790556,0.0010020146146416664,0.0006859274581074715,-0.003592848777770996
4,-0.0007260760168921725,0.012807394373411727,-1.9854053360816462,-0.0007260164129547775,-0.012807044200599194,-0.99991774559021,-0.00017521344125270844,-0.0034484928473830223,0.00017837528139352798,0.0005734283477067947,0.0011645881459116936,0.001428365707397461
5,0.0018858623582357198,0.014144699037285593,-1.9855251293009255,0.001885672565549612,-0.014144227840006351,-0.9998981952667236,-0.022340739145874977,-0.051836855709552765,-0.3575420081615448,-0.09194304794073105,0.12693719565868378,0.012547731399536133
6,-0.01951080076164079,-0.008933567989310765,-2.047234635063917,-0.019508784636855125,0.008933449164032936,-0.9997697472572327,-0.654391884803772,0.06554673612117767,-0.5183124542236328,-0.012076906859874725,0.042885396629571915,0.012159943580627441
7,0.002887412211419711,-0.05762217098081525,-1.9523185004249415,0.0028826158959418535,0.057590287178754807,-0.998336136341095,-0.9458750486373901,-0.9517607688903809,-0.1611970216035843,-0.042082447558641434,-0.2522466778755188,-0.24333250522613525
8,-0.19803404322752807,-0.11567703025027062,-2.0040202197691084,-0.1954273283481598,0.11541922390460968,-0.9739027619361877,-0.5093681812286377,-3.3494415283203125,0.785190224647522,-0.052680596709251404,0.388288676738739,-0.25397199392318726
9,-0.5248450293577593,-0.20558057043127745,-2.011108868505566,-0.49052751064300537,0.20413553714752197,-0.8471785187721252,-0.5164173245429993,-2.3265862464904785,-1.7961876392364502,-0.6271635293960571,0.637325644493103,-0.32474225759506226
10,-0.7275493895061055,-0.0815515543216745,-2.276027030050726,-0.6628312468528748,0.08146119117736816,-0.7443243861198425,-1.5275753736495972,-1.0733095407485962,-3.095360279083252,-0.44045549631118774,0.30357909202575684,0.44514530897140503
11,-0.8046320106546648,0.03442023675598525,-2.6739557255716924,-0.7201486825942993,-0.03441344201564789,-0.6929657459259033,-2.2135226726531982,-1.9094408750534058,-3.3727409839630127,-0.012349426746368408,0.1907397359609604,0.1335633397102356
12,-0.8739098004826734,0.16512851881453164,-3.0405860186017613,-0.7564129829406738,-0.16437910497188568,-0.633102536201477,-1.960797905921936,-0.2476530820131302,-3.982753276824951,0.1339612603187561,0.3790550231933594,0.05439770221710205
13,-0.8541315079631854,0.29084425153651905,2.9610996362209523,-0.7223342657089233,-0.2867611348628998,-0.6292862892150879,-0.10747263580560684,2.603412389755249,-0.8094602227210999,0.3082870841026306,0.18037685751914978,-0.14766067266464233
14,-0.7130547350872285,0.4052064488142677,2.7906441463131273,-0.6011751890182495,-0.39420849084854126,-0.6951173543930054,-0.1711907684803009,-0.4061358571052551,-2.4280171394348145,-0.09670084714889526,0.29493480920791626,-0.08741438388824463
15,-0.6515460113595859,0.48214204701450486,2.635541595209453,-0.5372872352600098,-0.4636780917644501,-0.7045034170150757,-0.4797774851322174,-1.5962715148925781,-0.8484290838241577,0.35683679580688477,0.22043776512145996,-0.5045419931411743
16,-0.5947808728531128,0.40059226130974945,2.4422987213137106,-0.5159662961959839,-0.3899637758731842,-0.7626972198486328,-2.2295327186584473,1.5881354808807373,0.13183307647705078,0.015432238578796387,-0.032307952642440796,0.12428474426269531
17,-0.38255677377315633,0.21134312572461317,2.3290066050570175,-0.36498787999153137,-0.20977333188056946,-0.9070716500282288,-0.5444471836090088,1.4479283094406128,-1.1953567266464233,-0.06933829188346863,0.27221229672431946,-0.17012256383895874
18,-0.3139166877567311,0.33127646937322824,2.1881123645346565,-0.29199692606925964,-0.3252503573894501,-0.899416446685791,0.8683233261108398,-1.9672722816467285,-1.9571086168289185,0.23111438751220703,0.2912537753582001,-0.06370306015014648
19,-0.35601537262356703,0.396556913217893,2.0413687519265955,-0.32149407267570496,-0.3862447440624237,-0.8645556569099426,-1.1280827522277832,-0.1523529291152954,-0.7628987431526184,0.23154354095458984,0.1709737479686737,0.017082571983337402
20,-0.490444869647575,0.4239858991158468,1.992739826647437,-0.42931270599365234,-0.41139668226242065,-0.8040170073509216,1.4046610593795776,-2.955260753631592,-0.7413403987884521,0.27970024943351746,0.08528584241867065,-0.20214754343032837
21,-0.8519970713956618,0.6056882920650893,2.1254144710592024,-0.6187177896499634,-0.5693280696868896,-0.5413444638252258,2.9901840686798096,-2.783022403717041,0.1259773224592209,0.3120161294937134,0.02922797203063965,-0.33821791410446167
22,-1.4820534755309809,0.7027743969529051,2.6348770806211745,-0.7600492238998413,-0.6463371515274048,-0.06762655079364777,4.535629749298096,-2.3288731575012207,1.085317850112915,0.2683042883872986,-0.0050910115242004395,-0.24321019649505615
23,-1.7862457113926649,0.513759008738614,3.053112658319281,-0.8507683277130127,-0.49145445227622986,0.18618731200695038,3.591122627258301,-0.057677365839481354,1.3668630123138428,-0.02839726209640503,-0.10914671421051025,-0.187896266579628
24,-1.864731894698692,0.3230135901822431,-2.9224040403054823,-0.9076122641563416,-0.3174257278442383,0.27473774552345276,0.984616756439209,1.2835490703582764,0.6941677927970886,-0.04081302881240845,-0.005297660827636719,0.6871457099914551
25,-1.876488500449697,0.21298837802279616,-2.907594474815714,-0.9320901036262512,-0.2113816887140274,0.2941528856754303,1.195040225982666,-1.5890889167785645,1.140155553817749,-0.10260838270187378,0.0238359272480011,-0.2084442377090454
26,-2.021087984021123,0.08668896428194323,-2.8164688944631897,-0.8969395160675049,-0.08658042550086975,0.43359386920928955,1.1444909572601318,0.3065929114818573,0.4771474301815033,-0.14444243907928467,0.30011191964149475,-0.15179449319839478
27,-1.9951043893610605,0.048574336961244136,-2.769053195665497,-0.9102489352226257,-0.04855523630976677,0.4112047255039215,-0.5304665565490723,0.2500205636024475,0.09109824895858765,0.008500218391418457,0.18258842825889587,0.025379657745361328
28,-1.9555921759686947,0.06138204647033078,-2.866430726866238,-0.9251296520233154,-0.06134350970387459,0.3746630549430847,-1.0339161157608032,0.19908426702022552,0.3644135892391205,0.07609999179840088,0.07120067626237869,-0.09495410323143005
29,-1.8818638131306757,0.07401980491536211,-3.009010892381979,-0.9494005441665649,-0.07395223528146744,0.30523696541786194,-1.3972991704940796,0.5498411655426025,0.15661774575710297,-0.04354983568191528,0.08071188628673553,-0.0029450953006744385
30,-1.8459314167749232,0.10414467441365655,3.1361695919651695,-0.9571740031242371,-0.10395651310682297,0.27020493149757385,-1.4037078619003296,-0.3554806113243103,0.051632385700941086,0.05548650026321411,0.04539329558610916,0.02738720178604126
31,-1.870873896582099,0.11160487814431248,3.011065767281459,-0.9493703246116638,-0.11137333512306213,0.29375535249710083,-1.3077551126480103,-0.18329760432243347,0.2370847761631012,0.003218531608581543,0.06872501969337463,0.07360005378723145
32,-1.8724720745351562,0.12413484816819051,2.8700942850317555,-0.9474924206733704,-0.12381628155708313,0.29483434557914734,-1.1352050304412842,-0.20140007138252258,0.3421889543533325,-0.0051288604736328125,0.09850197285413742,-0.036854058504104614
33,-1.870125774807335,0.13388707453114512,2.7568091504417906,-0.9469828009605408,-0.13348743319511414,0.2922405004501343,-1.41883385181427,-0.009011385031044483,0.18343563377857208,0.08377796411514282,0.13814137876033783,-0.019123464822769165
34,-1.8387746946114234,0.16617487956000437,2.588137564746963,-0.9510245323181152,-0.16541114449501038,0.2611350417137146,-2.1189770698547363,0.25907158851623535,0.3055320084095001,0.39156103134155273,0.24902932345867157,0.021869778633117676
35,-1.8470323508207092,0.09945864104943532,2.3750146765043296,-0.9573343992233276,-0.0992947444319725,0.27138853073120117,-0.7781793475151062,-0.48585444688796997,1.5670887231826782,-0.4611074924468994,-0.01720614731311798,-0.11870905756950378
36,-1.829044160963059,0.08422214428908031,2.2035148206355877,-0.9634120464324951,-0.08412261307239532,0.2544816732406616,-1.3523200750350952,-0.4213390648365021,0.20548197627067566,-0.40243279933929443,-0.16787630319595337,-0.14994367957115173
37,-1.9024620285617562,0.0999647684043338,2.158835678513468,-0.9407811164855957,-0.09979835897684097,0.32399284839630127,-0.5231311917304993,-0.34291982650756836,-0.3363199830055237,-0.08746302127838135,-0.07244284451007843,-0.05949696898460388
38,-1.9204427230450989,0.16572684438643506,2.155210378957442,-0.9266217947006226,-0.16496926546096802,0.33787208795547485,0.005782275460660458,0.09204912930727005,-0.5301522612571716,0.1825268268585205,0.004156842827796936,-0.1399349868297577
39,-1.9063052722797762,0.18141299270107708,2.1788949111528693,-0.9287475347518921,-0.18041956424713135,0.323846697807312,0.24048931896686554,0.1647080034017563,-0.00926042441278696,0.14502573013305664,-0.06333957612514496,-0.10730913281440735
40,-1.9082172391079653,0.15860375009029745,2.1882299523184883,-0.9317680597305298,-0.15793964266777039,0.32689937949180603,0.01866115815937519,-0.16688622534275055,-0.1832357794046402,-0.11025452613830566,-0.1299784630537033,-0.044520169496536255
41,-1.8792352299966293,0.2148797672675034,2.165403842777342,-0.930895984172821,-0.2132299691438675,0.29659005999565125,-0.37380993366241455,0.4562778174877167,-0.6525986790657043,0.02209782600402832,-0.0510064959526062,-0.08121216297149658
42,-1.8467136355028513,0.271538655190088,2.1622315451975322,-0.9269207715988159,-0.26821401715278625,0.26244762539863586,0.09992373734712601,0.027141530066728592,-0.17933310568332672,0.10425859689712524,-0.028843998908996582,-0.09318190813064575
43,-1.8704091704093146,0.24447826354414476,2.2062178663326635,-0.9270392656326294,-0.2420501410961151,0.28637364506721497,0.6674216985702515,0.40524742007255554,0.35137316584587097,-0.23761826753616333,0.009307831525802612,-0.02607405185699463
44,-1.8068592552854956,0.20712390232228997,2.2669099749040305,-0.9514854550361633,-0.20564612746238708,0.22887778282165527,0.7254366874694824,0.6391335129737854,-0.34687092900276184,-0.042945027351379395,0.10197792947292328,0.11676429212093353
45,-1.7937498479711094,0.2705335808442267,2.3113731810120917,-0.939777135848999,-0.26724565029144287,0.21306881308555603,0.4412146806716919,-0.3363897502422333,-0.8163540363311768,0.01837533712387085,0.06982749700546265,0.0234881192445755
46,-1.7613101878779212,0.36289721783746176,2.3016025554538606,-0.9179577827453613,-0.35498425364494324,0.17703068256378174,-0.6598153710365295,0.45825162529945374,-0.8986935019493103,-0.09157907962799072,0.03732678294181824,0.012864962220191956
47,-1.654908000035158,0.5382930004983286,2.192032074304063,-0.855549693107605,-0.5126711130142212,0.07213190197944641,-2.0703423023223877,1.0997388362884521,-2.694566488265991,-0.254252552986145,-0.005578398704528809,0.011150598526000977
48,-1.2121409114276633,0.8420691317922966,1.7788453314773764,-0.6235477924346924,-0.7460225820541382,-0.23374846577644348,-3.2882578372955322,2.441997528076172,-3.938957691192627,-0.11395519971847534,-0.07342010736465454,0.014739066362380981
49,-0.35162411257422477,0.8138617946766257,1.0309442806990585,-0.23651398718357086,-0.7269444465637207,-0.6446804404258728,-3.9923763275146484,2.961773633956909,-2.2584550380706787,0.16032685339450836,0.22732597589492798,0.3600583076477051
50,-0.056613509847251726,0.5260423441284013,0.7954292125020741,-0.048933275043964386,-0.5021147131919861,-0.863415539264679,-1.9056938886642456,-0.4315742254257202,-0.2113853096961975,0.09367205202579498,0.14949935674667358,0.15217286348342896
51,-0.08333471322102491,0.40333875510112366,0.7914438450569383,-0.07655889540910721,-0.3924913704395294,-0.916563868522644,-1.0229953527450562,0.1810811311006546,-0.10439099371433258,-0.1461736559867859,0.08464527130126953,-0.015626072883605957
52,-0.0862223283974872,0.35054985588843884,0.7954534928516698,-0.08087833225727081,-0.3434142768383026,-0.9356951117515564,-0.5245794057846069,-0.006800513714551926,0.16232815384864807,-0.02369014173746109,-0.03353884816169739,-0.021168291568756104
53,-0.08524822788575859,0.3336852249742833,0.8041234471811526,-0.08044856041669846,-0.3275271952152252,-0.9414106011390686,0.1588747352361679,-0.001929236575961113,0.04430176690220833,0.014957845211029053,-0.030489742755889893,-0.04015672206878662
54,-0.10082969287063628,0.35220143454479413,0.811324540209998,-0.09448003768920898,-0.3449649512767792,-0.9338483214378357,-0.3424660563468933,0.18493779003620148,0.18878865242004395,-0.006044864654541016,-0.0003872215747833252,0.04339116811752319
55,-0.0889441165643308,0.34674990067179023,0.8225091123227776,-0.08354011178016663,-0.33984294533729553,-0.9367645382881165,0.25523483753204346,-0.04118083044886589,0.19885043799877167,-0.011140674352645874,0.01937788724899292,-0.0068846940994262695
56,-0.05980659026120028,0.336386934824604,0.8418683184902129,-0.056420985609292984,-0.33007869124412537,-0.9422657489776611,-0.24984808266162872,0.39555081725120544,0.054175861179828644,-0.012548744678497314,-0.012359082698822021,0.016057252883911133
57,-0.06648452814471978,0.3573106679558193,0.8482424246195651,-0.06223954260349274,-0.34975603222846985,-0.9347710609436035,0.4017435908317566,-0.22762876749038696,0.05575601011514664,0.00619400292634964,0.03775954246520996,0.058626651763916016
58,-0.08171928534614871,0.36763369435611654,0.8505001154077948,-0.07617399096488953,-0.35940825939178467,-0.9300662875175476,-0.0418529137969017,0.052233338356018066,-0.03046305850148201,-0.02871493250131607,0.03897368907928467,0.08002966642379761
59,-0.08304663246967241,0.32766396602671355,0.8406549484347858,-0.07853793352842331,-0.32183215022087097,-0.943533718585968,-0.5752120614051819,-0.31715482473373413,-0.03786782547831535,-0.00018215924501419067,0.03572985529899597,0.03809243440628052
60,-0.10417767019115907,0.2663535743135109,0.8347440085371313,-0.10032236576080322,-0.2632153630256653,-0.9595066905021667,-0.7754731178283691,0.004842591471970081,0.1465698778629303,0.0026050806045532227,-0.016020476818084717,-0.04667311906814575
61,-0.09499624193677972,0.19473297333404607,0.8469924936120804,-0.09306064248085022,-0.19350455701351166,-0.9766758680343628,0.1567557156085968,-0.292694628238678,0.17536978423595428,-0.0021389424800872803,-0.013908162713050842,-0.2321254014968872
62,-0.1208764741073706,0.21187235177162694,0.8475916830200724,-0.11788597702980042,-0.21029074490070343,-0.9705053567886353,0.04655511677265167,0.21362261474132538,-0.016928894445300102,-0.022784791886806488,0.017953723669052124,-0.08860713243484497
63,-0.11396262455636065,0.23369342683116284,0.8501605037552731,-0.11062504351139069,-0.23157212138175964,-0.9665073752403259,0.28154560923576355,-0.07180812209844589,0.004764331504702568,0.008452199399471283,0.006077751517295837,0.010284841060638428
64,-0.11125272158742684,0.24588305282513787,0.8570178555528796,-0.10768409073352814,-0.24341291189193726,-0.9639264941215515,0.06219957023859024,0.08159738034009933,0.09273485094308853,0.04750342667102814,0.006169259548187256,0.047514140605926514
65,-0.10535438693576976,0.2466858873007447,0.862457034511025,-0.10197610408067703,-0.24419152736663818,-0.9643502235412598,0.13507305085659027,0.05875183641910553,0.07079902291297913,-0.0011580437421798706,0.035115599632263184,-0.013722836971282959
66,-0.10575187748688472,0.26329688873024204,0.8743623859611616,-0.10191715508699417,-0.2602652311325073,-0.9601431488990784,0.24260516464710236,-0.10890917479991913,0.08616533875465393,-0.03222285211086273,0.030391573905944824,0.044203877449035645
67,-0.11768781475920737,0.2655955199072559,0.8689791323029876,-0.11329928785562515,-0.26248395442962646,-0.9582616686820984,-0.13170279562473297,0.14122328162193298,-0.05320696532726288,-0.02544887363910675,0.012194067239761353,0.039697885513305664
68,-0.12204625305722594,0.25361055656165526,0.8704203516561517,-0.11784926056861877,-0.25090065598487854,-0.9608123898506165,-0.1836974173784256,-0.08446547389030457,-0.002883525798097253,-0.01685532182455063,0.00131264328956604,0.008953869342803955
69,-0.1315349969354718,0.24113748858095993,0.8685569874261952,-0.12736129760742188,-0.23880736529827118,-0.9626786112785339,-0.08797896653413773,-0.1393449455499649,0.042903900146484375,-0.009220138192176819,-0.0010760724544525146,-0.010938942432403564
70,-0.1415725793070817,0.22987234730729963,0.8691415491826701,-0.13738855719566345,-0.2278532236814499,-0.963953971862793,-0.03653330355882645,-0.07483302801847458,0.007336519658565521,-0.010835319757461548,-0.01944597065448761,-0.04633045196533203
71,-0.15639944635924682,0.24361916784545576,0.8639355059975145,-0.15116316080093384,-0.2412164956331253,-0.9586262702941895,0.2234666496515274,-0.19819825887680054,-0.16666661202907562,-0.023321092128753662,-0.009378597140312195,-0.05275678634643555
72,-0.16735921622053715,0.28185755289848274,0.852577699792767,-0.16000591218471527,-0.2781403958797455,-0.9471198320388794,0.3601289391517639,-0.020883064717054367,-0.16028456389904022,-0.009076729416847229,0.0005982816219329834,-0.00849229097366333
73,-0.16107198027799777,0.30640323397857067,0.8414019644670162,-0.15290682017803192,-0.301631361246109,-0.9410834312438965,0.0721188485622406,0.03257376700639725,-0.20219869911670685,-0.0025192201137542725,0.008479505777359009,0.07113409042358398
74,-0.15716869453703164,0.3110824790199136,0.8213051854895833,-0.1490097939968109,-0.3060893416404724,-0.9402688145637512,-0.11502579599618912,-0.02912820875644684,-0.18575547635555267,-0.004173174500465393,0.0270061194896698,0.06621485948562622
75,-0.14516209224676133,0.2843229152932727,0.7983768529309971,-0.1388452649116516,-0.2805076241493225,-0.9497565031051636,-0.07411558926105499,-0.15282976627349854,-0.1817442923784256,-0.006693050265312195,0.01566082239151001,-0.03313833475112915
76,-0.1535713880621089,0.2765282850867254,0.7725487348146114,-0.14715704321861267,-0.2730174660682678,-0.9506872892379761,-0.20188242197036743,0.01980302482843399,-0.23939217627048492,-0.02195611596107483,0.008781015872955322,-0.013347744941711426
77,-0.14709680623343965,0.27000269916264896,0.7477479260574671,-0.14125682413578033,-0.2667340338230133,-0.9533621668815613,-0.10361140221357346,-0.05096018314361572,-0.21940314769744873,0.0003724396228790283,0.008707940578460693,0.009712934494018555
78,-0.15014576207212663,0.26017401674689694,0.7264321999864972,-0.14454810321331024,-0.25724872946739197,-0.9554731249809265,-0.11680649220943451,-0.1420792043209076,-0.13438595831394196,0.01854102313518524,-0.0020743608474731445,0.00034928321838378906
79,-0.15657167087733326,0.25406031537017865,0.711837725592574,-0.15092727541923523,-0.251336008310318,-0.9560602307319641,-0.10914488881826401,0.03312240540981293,-0.13410040736198425,-0.0025914013385772705,-0.023352742195129395,0.02306157350540161
80,-0.14594141982874254,0.2429068254365215,0.6832295279359815,-0.1411546766757965,-0.24052512645721436,-0.9603244066238403,-0.1827296018600464,0.07404158264398575,-0.277098685503006,0.013743802905082703,-0.02470313012599945,0.021573245525360107
81,-0.1431294978443211,0.23951853695489947,0.6577907261342609,-0.13856922090053558,-0.2372349351644516,-0.9615186452865601,-0.17093615233898163,-0.1834811419248581,-0.20901213586330414,0.03256642818450928,-0.03850661218166351,0.048844754695892334
82,-0.15252083563163177,0.20645654364556193,0.632740793486658,-0.1487037092447281,-0.20499299466609955,-0.9674012064933777,-0.2692328691482544,-0.14163771271705627,-0.23289354145526886,-0.014839991927146912,-0.029610902070999146,-0.07364493608474731
83,-0.17040187911728674,0.19764489675658933,0.6121287870677812,-0.16627702116966248,-0.19636061787605286,-0.9663304090499878,0.08447244018316269,-0.22678637504577637,-0.015159716829657555,0.07704362273216248,-0.022313088178634644,-0.03916275501251221
84,-0.1910249428450149,0.1944573754598352,0.6125493253417156,-0.1862868368625641,-0.1932341605424881,-0.963305652141571,-0.002802041359245777,0.09304001182317734,0.08780970424413681,0.04792013764381409,0.015408232808113098,-0.07384949922561646
85,-0.19259379877145694,0.21520465060842975,0.6307191177315506,-0.1869901716709137,-0.21354736387729645,-0.9588702917098999,0.47072872519493103,-0.30424773693084717,0.07175058871507645,-0.030264467000961304,0.09999145567417145,-0.008903145790100098
86,-0.21997459834714553,0.23970041646237292,0.644460948380585,-0.21196617186069489,-0.23741161823272705,-0.9480010867118835,-0.07443103194236755,0.12519359588623047,-0.09609784185886383,-0.07961402833461761,0.09385693073272705,0.008807361125946045
87,-0.20684389186738536,0.22921994263887388,0.6258678910826405,-0.20000037550926208,-0.22721794247627258,-0.9530854225158691,-0.17022734880447388,0.1628740131855011,-0.1592482626438141,0.02691994607448578,0.027892395853996277,0.002020418643951416
88,-0.18755400611876225,0.21909178736329263,0.6085595512943712,-0.18199916183948517,-0.21734321117401123,-0.9589776992797852,-0.12815852463245392,0.05049782246351242,-0.27645620703697205,-0.013328596949577332,-0.00873100757598877,-0.009650230407714844
89,-0.16528798862675326,0.2097582862783332,0.5706627004257959,-0.16092997789382935,-0.20822349190711975,-0.9647510051727295,-0.24284900724887848,0.20590640604496002,-0.3389865756034851,0.005992233753204346,-0.001645892858505249,0.015867948532104492
90,-0.15158272436967604,0.19396255712592808,0.5518282900833791,-0.1481713205575943,-0.19274865090847015,-0.9699965119361877,-0.04127202555537224,-0.06915149837732315,0.02887689881026745,0.0642021894454956,-0.061340704560279846,0.015040457248687744
91,-0.16988649370160894,0.1990751170684048,0.5568592107599795,-0.16573132574558258,-0.19776280224323273,-0.9661381840705872,0.019289333373308182,-0.22385387122631073,-0.005933330859988928,0.024679064750671387,-0.05533473193645477,-0.019701659679412842
92,-0.17333426630117574,0.20306380323182824,0.5507638169392245,-0.16892395913600922,-0.20167112350463867,-0.9647763967514038,-0.04945788532495499,-0.0057065351866185665,-0.0686090961098671,0.02605593204498291,-0.012379169464111328,-0.006888031959533691
93,-0.18086074068244637,0.20861720969945172,0.5463924833352909,-0.17597630620002747,-0.2071072906255722,-0.9623610973358154,0.08557824045419693,-0.18528017401695251,0.0374901257455349,0.06518223881721497,-0.012954965233802795,0.03543543815612793
94,-0.1888469883448702,0.2058458623233207,0.5441833600618418,-0.1837633103132248,-0.20439523458480835,-0.9614851474761963,0.07219468057155609,-0.23432804644107819,-0.08895716816186905,0.023179814219474792,-0.01348501443862915,-0.04293990135192871
95,-0.20092281487363203,0.20570050200242043,0.5265957233374504,-0.1953662782907486,-0.2042529433965683,-0.959225058555603,-0.1928081065416336,0.020384691655635834,-0.17174702882766724,0.023613348603248596,0.0014636367559432983,-0.03853189945220947
96,-0.20868352577865198,0.1974850300489829,0.5219992557674092,-0.20314538478851318,-0.19620387256145477,-0.9592893123626709,-0.1966264545917511,-0.32749077677726746,0.1872132271528244,0.046590209007263184,0.011252075433731079,0.0679776668548584
97,-0.2480188750594515,0.15965679291685755,0.5623148628636866,-0.2423618584871292,-0.1589793711900711,-0.9570717215538025,-0.03746820241212845,-0.2662264108657837,0.8881246447563171,0.017767727375030518,0.027708008885383606,-0.07646709680557251
98,-0.2914677598363617,0.15646391709381877,0.6491744608264907,-0.2838481664657593,-0.15582630038261414,-0.9461228251457214,0.5604091286659241,-0.47316774725914,0.4883866310119629,-0.07970774173736572,0.015750616788864136,0.0006882548332214355
99,-0.2986796035960945,0.16725241456463608,0.6544047042044577,-0.2901524007320404,-0.16647373139858246,-0.9423895478248596,-0.30168625712394714,0.4040800631046295,-0.22977344691753387,-0.0774928629398346,0.012192130088806152,0.02417665719985962
100,-0.2578646454667126,0.15633402499573767,0.6178379385044307,-0.2519063949584961,-0.1556979864835739,-0.9551446437835693,-0.1044885665178299,0.2268686592578888,-0.27567774057388306,-0.1212015151977539,0.06690710783004761,0.003865957260131836
101,-0.26375626385247036,0.1698626155499344,0.618948096113273,-0.25695663690567017,-0.16904693841934204,-0.9515232443809509,0.3007636070251465,-0.3954369127750397,0.047924965620040894,-0.07003918290138245,0.031687334179878235,0.07611125707626343
102,-0.31648737687594536,0.17491491212906488,0.6160557025502246,-0.30648136138916016,-0.17402434349060059,-0.9358336925506592,-0.4020894467830658,-0.29579052329063416,-0.1512860506772995,-0.08154964447021484,0.048108816146850586,0.01566767692565918
103,-0.32240934024680107,0.1487987375734842,0.5777099185232141,-0.31335142254829407,-0.1482502520084381,-0.9379940032958984,-0.08590906858444214,-0.039907556027173996,-0.2739536166191101,-0.07858586311340332,0.08500257134437561,-0.07044410705566406
104,-0.3214117128055232,0.13914700959486045,0.5503629075364438,-0.3128529489040375,-0.13869841396808624,-0.9396200180053711,-0.33063074946403503,-0.0740392804145813,-0.17090053856372833,-0.052060991525650024,0.013179615139961243,0.052214622497558594
105,-0.33584724979143504,0.12584962548654507,0.5299514432690718,-0.32696276903152466,-0.12551768124103546,-0.9366646409034729,-0.11562055349349976,-0.3191148340702057,-0.14577743411064148,-0.05116528272628784,0.004896968603134155,0.0295906662940979
106,-0.35146446762547906,0.11926210548580979,0.5071514636095373,-0.3418276309967041,-0.11897958815097809,-0.9322004914283752,-0.09402885288000107,-0.01652458682656288,-0.19763627648353577,-0.04406711459159851,0.01686777174472809,-0.009022653102874756
107,-0.3595171999111727,0.12482359604590326,0.49800954465016056,-0.3490850329399109,-0.12449970096349716,-0.9287838935852051,0.13625946640968323,-0.12663443386554718,-0.1104174479842186,-0.05608159303665161,-0.003063768148422241,0.006420612335205078
108,-0.38526397461466744,0.14562734155800414,0.4884159738238085,-0.3718259036540985,-0.14511315524578094,-0.9168902039527893,0.20125152170658112,-0.1804778128862381,-0.24391713738441467,-0.0358431339263916,0.0012990832328796387,0.011220037937164307
109,-0.38534577328682607,0.159282342893653,0.46935590060599647,-0.37112146615982056,-0.15860967338085175,-0.9149381518363953,0.07304663956165314,0.020387444645166397,-0.2282964587211609,0.04821494221687317,0.016886040568351746,0.013906657695770264
110,-0.38115295397097215,0.16001159164220738,0.4449282058223409,-0.3672389090061188,-0.15932965278625488,-0.9163785576820374,-0.36057573556900024,0.07510960847139359,-0.25787773728370667,-0.08030137419700623,0.025449037551879883,0.0046506524085998535
111,-0.3588255263269006,0.12953682785133494,0.4181405757482445,-0.34823259711265564,-0.1291748583316803,-0.9284653663635254,-0.155776247382164,0.07143165916204453,0.06603272259235382,-0.04124799370765686,0.008325263857841492,-0.01619100570678711
112,-0.37210378828072627,0.13551946772465817,0.4360909247232882,-0.3602425158023834,-0.13510502874851227,-0.9230232834815979,0.009320496581494808,-0.08517152816057205,0.018689315766096115,-0.06717139482498169,-0.026577085256576538,0.0503121018409729
113,-0.3763045077336228,0.13523341071500233,0.4380850157148504,-0.3641308844089508,-0.1348215937614441,-0.9215377569198608,0.05374615266919136,0.06153334677219391,0.10322519391775131,0.017176538705825806,0.004587829113006592,0.00399625301361084
114,-0.3635518057562187,0.13360989040675914,0.4589935617381123,-0.3524268567562103,-0.13321271538734436,-0.9263097047805786,0.09126032143831253,0.23525533080101013,0.2422892153263092,0.0007575452327728271,-0.02694353461265564,-0.007223010063171387
115,-0.34517484789296865,0.13648411750607292,0.4762194791569362,-0.33521461486816406,-0.13606077432632446,-0.9322653412818909,0.1035422757267952,0.2790282666683197,0.09480872005224228,-0.01311299204826355,0.012998640537261963,-0.018555641174316406
116,-0.31874968556894,0.14605550745006993,0.4955367202775749,-0.3100428581237793,-0.14553678035736084,-0.9395171403884888,0.2046763151884079,0.30933550000190735,0.15945254266262054,-0.013489216566085815,0.02143704891204834,0.00880730152130127
117,-0.2951316388805426,0.14821673449696277,0.5101449022755329,-0.28767675161361694,-0.14767464995384216,-0.946273922920227,-0.07215043902397156,0.18432345986366272,0.1581897884607315,-0.007702887058258057,0.03378304839134216,-0.005538821220397949
118,-0.28285215178368106,0.14036444391611172,0.5295397159761641,-0.2763507068157196,-0.1399039775133133,-0.950819194316864,0.10940906405448914,0.1966608613729477,0.23311400413513184,-0.016358643770217896,0.0057334452867507935,-0.032441914081573486
119,-0.2818268414869187,0.15876940046137375,0.5300408915246785,-0.2746129631996155,-0.15810319781303406,-0.9484677910804749,0.07145816087722778,-0.005315931048244238,-0.20086900889873505,0.056015580892562866,0.013053178787231445,0.023876726627349854
120,-0.27241044492578464,0.15853341548980615,0.5036154803976782,-0.26567980647087097,-0.15787018835544586,-0.951047420501709,-0.19926108419895172,0.10542747378349304,-0.20530161261558533,0.07508230209350586,0.06637850403785706,-0.03625720739364624
121,-0.23881589992339833,0.1309745118701092,0.49233348588128617,-0.23452624678611755,-0.13060036301612854,-0.9632969498634338,-0.08639723807573318,0.18076162040233612,0.038777537643909454,0.046324342489242554,0.05275002121925354,-0.04686540365219116
122,-0.2262406107416152,0.1277035844087626,0.49464013435725923,-0.22248892486095428,-0.12735676765441895,-0.9665810465812683,-0.11488949507474899,0.10798508673906326,0.03782382979989052,0.007309466600418091,0.006018877029418945,0.04360741376876831
123,-0.22061305782234847,0.11140382920647258,0.49795372941057975,-0.21747134625911713,-0.11117354035377502,-0.9697147011756897,-0.08266095817089081,0.02828274294734001,0.07080689817667007,-0.05509638786315918,-0.0033741965889930725,-0.013103842735290527
124,-0.2255621579856576,0.10666135068363884,0.5002214729126846,-0.2223833054304123,-0.10645922273397446,-0.9691295623779297,-0.05071597546339035,-0.012597518973052502,-0.03681899234652519,-0.0645582377910614,-0.022996336221694946,0.014890670776367188
125,-0.23427340874629185,0.10408692869710769,0.4958228000473492,-0.23087994754314423,-0.10389908403158188,-0.9674189686775208,-0.02374378778040409,-0.02911633439362049,-0.022812306880950928,-0.039460018277168274,-0.020048066973686218,0.011654198169708252
126,-0.23877008228437072,0.10070798826086802,0.48833405378941935,-0.2353094518184662,-0.10053784400224686,-0.9667065739631653,-0.09898946434259415,0.06252501904964447,-0.11896537989377975,-0.06309142708778381,-0.01747363805770874,-0.017759978771209717
127,-0.22388004354797655,0.09230600542226151,0.47955944117008137,-0.2210693359375,-0.09217497706413269,-0.9708924293518066,-0.06220303848385811,0.2029295563697815,-0.02863127551972866,-0.038696274161338806,0.00494047999382019,-0.01316213607788086
128,-0.22514881867553607,0.10231388693723968,0.4757832215568054,-0.2220839411020279,-0.10213547199964523,-0.9696633815765381,-0.010335836559534073,0.1618672013282776,-0.0601881742477417,-0.04630289971828461,0.013191983103752136,0.021054983139038086
129,-0.22180820434085802,0.11335405486541257,0.46222199840982386,-0.21858203411102295,-0.1131114587187767,-0.9692407846450806,0.24808716773986816,-0.06550946831703186,-0.2756633758544922,-0.06259167194366455,-0.0250721275806427,-0.008847594261169434
130,-0.2265727103273974,0.12627138691639198,0.42768726260907214,-0.22285065054893494,-0.1259361058473587,-0.9666838645935059,0.00915964413434267,-0.11566811800003052,-0.38203659653663635,-0.030384212732315063,-0.0005897879600524902,0.01340627670288086
131,-0.24383059895237358,0.13085121593684754,0.3998563171999307,-0.2393578141927719,-0.1304781287908554,-0.9621243476867676,-0.07278105616569519,-0.27154266834259033,-0.1627073585987091,0.02692495286464691,0.0230867862701416,0.050320208072662354
132,-0.28854805867690525,0.13464472920836296,0.3883978509344902,-0.2819850742816925,-0.13423825800418854,-0.9499813318252563,0.32058748602867126,-0.7760900259017944,-0.035218071192502975,0.031008511781692505,0.08708859980106354,-0.07409703731536865
133,-0.37935407374200397,0.19866901054760816,0.428381174191323,-0.3630363941192627,-0.1973647028207779,-0.9106326103210449,0.7475786209106445,-0.6705335974693298,0.33801892399787903,0.0690758228302002,-0.007789716124534607,-0.03165864944458008
134,-0.3487468931180185,0.17065647561015204,0.4574545221602227,-0.3367564082145691,-0.169829323887825,-0.9261496067047119,0.09701334685087204,0.3167356252670288,0.1104670837521553,-0.027760803699493408,-0.025635749101638794,-0.16624236106872559
135,-0.4083769670384631,0.2676786143882647,0.48167694094354,-0.38297784328460693,-0.2644934356212616,-0.8850826025009155,1.9144349098205566,-1.5990922451019287,-0.35979703068733215,0.07272088527679443,0.1040472686290741,-0.13443338871002197
136,-0.7114415489914436,0.533503906854923,0.6067365683836492,-0.5621894001960754,-0.5085534453392029,-0.6521629095077515,3.631723642349243,-3.1578738689422607,-0.59294193983078,0.15520697832107544,0.16339963674545288,-0.17725908756256104
137,-1.2297243584133661,0.7582997949222133,0.9601867920538142,-0.684185802936554,-0.6876880526542664,-0.2428472638130188,2.648015260696411,-1.7295928001403809,0.39805662631988525,0.20153510570526123,0.1314900517463684,-0.023967906832695007
138,-1.510379262892882,0.7141195407011166,1.26746800291376,-0.7542914152145386,-0.654952347278595,-0.04562760517001152,2.0541110038757324,-0.7123119235038757,0.9617050290107727,0.08836734294891357,0.02218562364578247,-0.18804550170898438
139,-1.7648607879002793,0.6299653800035045,1.509262066784578,-0.7928797006607056,-0.5891168117523193,0.15583094954490662,2.376039743423462,-2.2878546714782715,0.4182465076446533,0.006365418434143066,0.004598379135131836,-0.1953359842300415
140,-2.0896449220637434,0.5305223284822108,1.7844452961877908,-0.7490241527557373,-0.5059839487075806,0.42771825194358826,1.9889053106307983,-0.3577416241168976,0.11135873943567276,-0.01684492826461792,0.06935375928878784,-0.029402881860733032
141,-2.1707424148131724,0.4134701640809264,1.9545738641270127,-0.7558141350746155,-0.40178948640823364,0.5170204639434814,1.2925777435302734,-0.06759525090456009,0.45307403802871704,0.04856926202774048,0.03649407625198364,0.043968915939331055
142,-2.1424844820879883,0.33274473524292114,2.0119686304686497,-0.7948601841926575,-0.32663843035697937,0.5113756060600281,0.24045000970363617,1.0917046070098877,0.3103256821632385,0.0025017261505126953,0.030526340007781982,0.1151200532913208
143,-2.0595652346195976,0.2881236650608266,2.032322161772179,-0.8465168476104736,-0.2841537296772003,0.45018428564071655,0.6232202649116516,0.600879430770874,0.23669569194316864,-0.022547423839569092,0.055104076862335205,0.030955880880355835
144,-2.002115208944017,0.23244579598222617,2.0749931546669864,-0.8839840292930603,-0.23035822808742523,0.40682563185691833,0.7471683025360107,0.5777570605278015,0.5565235018730164,0.023891985416412354,0.03623594343662262,-0.03734937310218811
145,-1.9847016739731351,0.1485244768717744,2.1349096182926246,-0.9054773449897766,-0.1479790210723877,0.3977600932121277,0.664762020111084,0.2828969657421112,0.46495550870895386,-0.017938733100891113,0.021697252988815308,0.00595700740814209
146,-1.995874546794805,0.11076833267106956,2.1581668794693525,-0.9054231643676758,-0.11054195463657379,0.409864604473114,0.13197243213653564,-0.5524061322212219,0.47397875785827637,0.013516664505004883,0.06256836652755737,0.0018785297870635986
147,-2.0992207741247846,0.03126979235009973,2.180610497886191,-0.8631804585456848,-0.03126469627022743,0.5039269328117371,0.5438719987869263,-1.4590368270874023,0.4196200668811798,0.037328898906707764,0.012755777686834335,0.02851337194442749
148,-2.142852547211538,0.006888016705117211,2.18806058668737,-0.8407698273658752,-0.006887962110340595,0.5413492918014526,0.175568088889122,-0.18246692419052124,0.08777067065238953,-0.003438115119934082,-0.001992644742131233,-0.015714406967163086
149,-2.1716514269478595,-0.015692168674275062,2.2202778947568675,-0.8247509598731995,0.015691524371504784,0.5652784109115601,0.1324651688337326,0.17590495944023132,-0.2459341138601303,0.0010967254638671875,-0.006841421127319336,0.02241384983062744
150,-2.1706542650107994,0.0649443657288285,2.222075373657417,-0.8236755728721619,-0.06489872187376022,0.5633350014686584,-0.6468115448951721,-0.4247908294200897,-0.991402268409729,0.2988343834877014,0.10182501375675201,-0.04201865196228027
151,-2.3963765090189963,0.07129495840427488,2.333406137614542,-0.6764078140258789,-0.0712345764040947,0.7330741882324219,0.649874210357666,-2.2301063537597656,-0.8170621991157532,-0.20750319957733154,0.0213993638753891,0.21429812908172607
152,-2.5078703245473584,0.12150092776048088,2.398651622426076,-0.5877829790115356,-0.12120220810174942,0.7998881936073303,0.02811216376721859,-0.7705539464950562,-0.7017931938171387,-0.07396018505096436,-0.005232125520706177,-0.0890423059463501
153,-2.7149631827883653,0.15425910669732829,2.4568012938330384,-0.40889105200767517,-0.15364804863929749,0.8995555639266968,-0.4137718379497528,-2.0979626178741455,-0.796029269695282,-0.06829702854156494,-0.03023560345172882,0.04398685693740845
154,-2.886583441727114,0.18973178557117365,2.5256111334437112,-0.247727632522583,-0.1885955035686493,0.9502963423728943,0.3203362822532654,-0.9401485919952393,-0.6243857741355896,0.04684564471244812,0.024548232555389404,-0.05492568016052246
155,-2.9103545647084665,0.16182406603237984,2.566809326113047,-0.22618864476680756,-0.16111870110034943,0.9606664776802063,0.2822553217411041,0.7718459963798523,-0.093296580016613,-0.0010605603456497192,-0.09516794979572296,-0.07815885543823242
156,-2.8276956558394386,0.13268621408558223,2.5566039945660872,-0.30605348944664,-0.13229721784591675,0.9427770376205444,0.29815682768821716,0.8165673017501831,0.26961401104927063,0.01174202561378479,-0.15162304043769836,-0.07296508550643921
157,-2.760069104058945,0.13224084516902881,2.5449110405596858,-0.3690840005874634,-0.13185575604438782,0.9199950695037842,-0.478354275226593,0.5283769369125366,0.22998890280723572,0.09869828820228577,-0.09203644096851349,0.08981627225875854
158,-2.756162789077984,0.1376246264759757,2.52449368554475,-0.3724026381969452,-0.13719059526920319,0.9178751111030579,-0.07794666290283203,-0.13232503831386566,0.0972360223531723,-0.048373639583587646,-0.10238762199878693,-0.016691207885742188
159,-2.737846838183972,0.16277269076733758,2.5227687479106526,-0.38767266273498535,-0.1620548665523529,0.9074402451515198,-0.13920801877975464,0.4136124849319458,-0.15593625605106354,0.002785027027130127,-0.0257655531167984,-0.0495302677154541
160,-2.699207131543802,0.1821862793998005,2.5405904069371514,-0.42101144790649414,-0.18118010461330414,0.8887760043144226,0.05649837851524353,0.4119451940059662,-0.1995021402835846,0.045004427433013916,0.05050384998321533,-0.023724913597106934
161,-2.662744112228406,0.1818051139729436,2.5556590540068673,-0.4531637728214264,-0.1808052361011505,0.8728986978530884,0.043677739799022675,0.30087774991989136,-0.2684513032436371,-0.058127760887145996,0.04042437672615051,0.01798570156097412
162,-2.6557748446860328,0.18633196132907193,2.5838799976578257,-0.45884934067726135,-0.18525560200214386,0.8689866662025452,0.03116365522146225,0.03995846211910248,-0.20050783455371857,0.016374975442886353,0.06669482588768005,0.01825094223022461
163,-2.655965814456934,0.1900733204254934,2.5993900890767,-0.45835670828819275,-0.18893089890480042,0.8684553503990173,0.03367139399051666,0.016270089894533157,-0.08700697124004364,-0.012132883071899414,0.06655538082122803,0.007460355758666992
164,-2.648352004262553,0.19011519208482322,2.5986345283800487,-0.46495166420936584,-0.18897201120853424,0.8649330139160156,0.03199054300785065,0.09258205443620682,0.00141643057577312,-0.026732176542282104,0.05083422362804413,-0.01898592710494995
165,-2.6343721086507634,0.18147439279982494,2.608576191912829,-0.4777730107307434,-0.18047994375228882,0.8597442507743835,0.18863114714622498,0.15935684740543365,-0.1337844282388687,-0.021784543991088867,-0.01637369394302368,-0.04414665699005127
166,-2.625950230241437,0.16109826138282335,2.640642785524302,-0.48670923709869385,-0.1604023426771164,0.8587116003036499,0.36322009563446045,0.07907556742429733,-0.16502591967582703,-0.0010991096496582031,-0.04655267298221588,0.0006635785102844238
167,-2.624904723378202,0.15487496156694772,2.656560024931355,-0.4880903661251068,-0.15425655245780945,0.8590534925460815,-0.005761987529695034,-0.08451847732067108,-0.08732610940933228,0.0013349950313568115,-0.03164127469062805,0.03648495674133301
168,-2.6293236885135793,0.15964972187114584,2.659584246021794,-0.48392289876937866,-0.15897239744663239,0.860550045967102,-0.09349669516086578,0.15428687632083893,-0.1097528412938118,-0.03367048501968384,-0.05652749538421631,-0.01852428913116455
169,-2.610789298557955,0.17074486496002542,2.644144182338736,-0.4988649785518646,-0.16991643607616425,0.8498599529266357,-0.1618468314409256,0.2065972089767456,0.0872686579823494,0.0105837881565094,-0.051824286580085754,-0.028601527214050293
170,-2.5917546780588707,0.18884768411699163,2.6216590464518026,-0.5132588744163513,-0.1877271980047226,0.8374509215354919,-0.23370403051376343,0.15772536396980286,0.1872817873954773,0.04315078258514404,-0.0484788715839386,0.003369450569152832
171,-2.5924606438104703,0.1944344520627016,2.608736522922686,-0.5121120810508728,-0.19321167469024658,0.836905300617218,-0.03675924986600876,-0.02831927314400673,0.0120231993496418,-0.007495403289794922,-0.048090800642967224,-0.0021885037422180176
172,-2.59455514909439,0.20693729282297083,2.6239901400228085,-0.5090615153312683,-0.2054634988307953,0.8358473181724548,-0.04632990434765816,-0.06105111911892891,-0.14376384019851685,0.01870518922805786,-0.01040254533290863,-0.013505518436431885
173,-2.612052833996622,0.1999422360480815,2.6390432523907315,-0.4950728416442871,-0.19861271977424622,0.8458459973335266,0.18209092319011688,-0.26534828543663025,-0.055404212325811386,0.01449739933013916,0.0318647176027298,-0.009054124355316162
174,-2.6135711510630837,0.18565563303684207,2.6371646731754605,-0.49516722559928894,-0.18459093570709229,0.8489614129066467,0.023855306208133698,-0.004116997122764587,0.07478421181440353,-0.060969799757003784,0.04707874357700348,-0.014641404151916504
175,-2.5997088028585154,0.1860198667518621,2.6236395606109197,-0.5068531036376953,-0.1849489063024521,0.8419580459594727,-0.15706925094127655,0.04838811233639717,0.15882475674152374,0.03486835956573486,0.05852988362312317,0.07422512769699097
176,-2.615376343376864,0.1807023327979837,2.5927170564826754,-0.49408718943595886,-0.17972052097320557,0.8506342768669128,-0.17125599086284637,-0.25815534591674805,0.2935711443424225,-0.005256742238998413,-0.016522780060768127,-0.018206119537353516
177,-2.6138081971352043,0.19350967827583002,2.561863617287593,-0.4942207336425781,-0.19230423867702484,0.8478003144264221,-0.11646628379821777,0.15299415588378906,0.07659252732992172,0.00766366720199585,-0.11592331528663635,-0.1592320203781128
178,-2.5858940283338523,0.20318742874886203,2.5582497696413897,-0.5166844725608826,-0.20179221034049988,0.8320555686950684,-0.014049944467842579,0.3068373203277588,-0.06627196073532104,0.00012886524200439453,-0.04919955134391785,0.09357285499572754
179,-2.5911903319218146,0.21923954099382673,2.5531529873356598,-0.5105105638504028,-0.2174874246120453,0.8319125771522522,-0.22988559305667877,-0.09457261860370636,0.04636450111865997,0.04790979623794556,0.023929670453071594,-0.03139054775238037
180,-2.5725392734355004,0.22883896151685984,2.5344286864820336,-0.5247876644134521,-0.22684690356254578,0.8204501867294312,-0.23835498094558716,0.36906975507736206,0.13612902164459229,-0.02162957191467285,-0.058385640382766724,-0.007477164268493652
181,-2.557510576345242,0.24135189179060315,2.515123907352547,-0.5354509353637695,-0.23901554942131042,0.8100393414497375,-0.09240022301673889,-0.09989148378372192,0.063268281519413,0.029210150241851807,-0.01785089075565338,-0.0327720046043396
182,-2.5559312784000756,0.24352858288428234,2.5127736410067567,-0.5364408493041992,-0.2411285787820816,0.8087574243545532,0.02711445838212967,0.06805729866027832,-0.11220553517341614,-0.06095606088638306,-0.03490293025970459,0.03516054153442383
183,-2.5611930346165113,0.24201120004662408,2.522382320029891,-0.5323779582977295,-0.23965570330619812,0.8118739128112793,0.19862139225006104,-0.12583325803279877,0.01150455977767706,0.010511994361877441,0.022751957178115845,-0.05277949571609497
184,-2.5534384092342948,0.23320716403286545,2.5182783342892017,-0.539807140827179,-0.23109905421733856,0.809444785118103,-0.08492925763130188,0.16419075429439545,0.07829117029905319,-0.006533563137054443,-0.0010023117065429688,0.010745406150817871
185,-2.549429458132392,0.23038950797086866,2.507230528054805,-0.5434092879295349,-0.2283567637205124,0.8078114986419678,-0.044652651995420456,-0.08742981404066086,0.13559526205062866,0.010038375854492188,-0.01506669819355011,-0.013225376605987549
186,-2.5446574552783985,0.2354052020525032,2.488742801166919,-0.546607255935669,-0.23323702812194824,0.8042517900466919,-0.1735042780637741,0.05467894673347473,0.11741390824317932,-0.003975570201873779,-0.023766756057739258,-0.00763624906539917
187,-2.543228923287397,0.24282762610207353,2.4713910458611505,-0.5467654466629028,-0.2404482513666153,0.8020176887512207,-0.024941984564065933,-0.09013623744249344,0.10729356855154037,0.011761724948883057,-0.015685811638832092,-0.06687963008880615
188,-2.5354869392700423,0.24285620087034365,2.4629676230732556,-0.5529542565345764,-0.24047598242759705,0.7977549433708191,-0.09647531807422638,0.16136544942855835,0.06799698621034622,-0.010766446590423584,-0.01802314817905426,0.029896974563598633
189,-2.5444279486488686,0.2396965983008096,2.4564208488866557,-0.5462239384651184,-0.23740790784358978,0.8032911419868469,-0.0525837168097496,-0.1740802824497223,0.06770938634872437,0.0007985830307006836,-0.002704322338104248,-0.021949708461761475
190,-2.541626818070789,0.2412563787441973,2.4414126089937795,-0.548262357711792,-0.23892280459403992,0.8014516234397888,-0.2038213461637497,0.18528033792972565,0.15296423435211182,-0.005982697010040283,-0.02078181505203247,-0.03149294853210449
191,-2.524785812692455,0.24058252667559304,2.4302653774329968,-0.5617740750312805,-0.2382684201002121,0.7922360897064209,0.051213860511779785,-0.05838339775800705,0.06923812627792358,-0.011880099773406982,0.005968615412712097,0.0614626407623291
192,-2.5377114154895866,0.23539558423872323,2.4260463566283104,-0.552181601524353,-0.2332276850938797,0.8004373908042908,-0.07524725049734116,-0.016628317534923553,0.10464160889387131,0.008129537105560303,0.004452690482139587,-0.0356823205947876
193,-2.522975809973183,0.23708544023961844,2.41732313438739,-0.5636868476867676,-0.23487059772014618,0.7918919324874878,0.011704090982675552,0.24714326858520508,-0.009842704981565475,0.009060442447662354,-0.026161476969718933,-0.010474145412445068
194,-2.5251054391897174,0.231979917236716,2.4268897715593862,-0.5626851916313171,-0.22990486025810242,0.7940587401390076,0.22717328369617462,-0.05278525501489639,-0.006468766834586859,-0.014951586723327637,-0.0022118687629699707,-0.003455042839050293
195,-2.518190649689382,0.22741490499324157,2.438028905540015,-0.568769097328186,-0.2254597395658493,0.7909926176071167,0.13594380021095276,0.0055230287835001945,-0.03166523948311806,-0.047640085220336914,0.0012471377849578857,0.04692840576171875
196,-2.534114722980428,0.21225878653543112,2.4610344379485247,-0.5579883456230164,-0.21066853404045105,0.8026630282402039,0.3561350107192993,-0.14530974626541138,-0.10732243210077286,0.04077643156051636,0.004796937108039856,-0.05908691883087158
197,-2.538690384383845,0.18911812628930322,2.4785857650294703,-0.556925356388092,-0.18799281120300293,0.8090071678161621,-0.04119538143277168,0.26718372106552124,0.09707403182983398,0.035990357398986816,-0.006739810109138489,0.02006375789642334
198,-2.5320684646710614,0.1864388087345417,2.4673574358586534,-0.5625566840171814,-0.1853605955839157,0.8057117462158203,-0.02759580686688423,0.1118827611207962,0.12912267446517944,-0.034016191959381104,-0.037570297718048096,-0.05589485168457031
199,-2.513386097958247,0.18681913157715557,2.460107603557455,-0.577468752861023,-0.1857343167066574,0.7950047254562378,-0.0005460446700453758,-0.043144047260284424,-0.004693401046097279,-0.061248838901519775,0.013325288891792297,0.10965830087661743
200,-2.522786987254133,0.19666604261047074,2.4561186300828286,-0.5688811540603638,-0.19540072977542877,0.798869788646698,-0.15589039027690887,-0.17204932868480682,0.06681260466575623,0.0946226716041565,0.060635074973106384,-0.05477488040924072
201,-2.5288558886418566,0.19065876761991557,2.4305868828228148,-0.5646873116493225,-0.18950577080249786,0.8032532930374146,-0.1775810420513153,0.06296930462121964,0.31168946623802185,-0.01265949010848999,-0.011803433299064636,-0.09759533405303955
202,-2.5028091424732946,0.2021219584303605,2.38751906566711,-0.5840818881988525,-0.20074854791164398,0.7864784598350525,-0.4126405119895935,0.08394945412874222,0.11748556792736053,-0.060434043407440186,-0.018779635429382324,0.05574566125869751
203,-2.4898182846272783,0.22923183810891207,2.3549108685748275,-0.5907300710678101,-0.2272295206785202,0.7742122411727905,-0.2508426606655121,-0.19258171319961548,0.11463326215744019,0.07304519414901733,0.03118462860584259,-0.06132173538208008
204,-2.490025137434598,0.23679188499647474,2.315675616040761,-0.5895112156867981,-0.234585240483284,0.7729461789131165,-0.27021247148513794,-0.11426430195569992,0.352538138628006,-0.039059221744537354,0.05665256083011627,-0.03158283233642578
205,-2.4766983096159754,0.24537272386404388,2.2774805660409436,-0.5984957218170166,-0.24291789531707764,0.7634094953536987,-0.30257725715637207,0.06678310036659241,0.21822461485862732,0.01135265827178955,0.18728429079055786,0.07318419218063354
206,-2.4760670635171627,0.24395564184602453,2.21129842440843,-0.5991895198822021,-0.2415430247783661,0.7633016705513,-0.3391284644603729,-0.3231501281261444,0.7450965046882629,0.0362468957901001,0.11486448347568512,0.05302852392196655
207,-2.5024729598248667,0.22497708245823247,2.1383064206083024,-0.5814571976661682,-0.22308401763439178,0.782394528388977,-0.38696178793907166,-0.3739222288131714,0.6532744765281677,-0.06673616170883179,-0.046843960881233215,-0.0313262939453125
208,-2.5130501475671596,0.22491955787360463,2.0800214308636455,-0.5731568932533264,-0.22302794456481934,0.788511335849762,-0.1406111717224121,-0.0740489661693573,0.28660768270492554,-0.01722097396850586,-0.09940557181835175,-0.11370646953582764
209,-2.512247299315013,0.22587644589353692,2.0725730287251505,-0.5736636519432068,-0.22396063804626465,0.7878777384757996,0.030832109972834587,-0.05722968280315399,-0.048467133194208145,-0.019369065761566162,-0.04137443006038666,0.03792780637741089
210,-2.5248115005777256,0.22658102959229603,2.0719593192860484,-0.5636284351348877,-0.22464725375175476,0.7948943972587585,0.03112787939608097,-0.07245195657014847,0.04377133026719093,-0.015473246574401855,-0.010368674993515015,-0.04965490102767944
211,-2.519060739425778,0.2246103711491999,2.0729927432647433,-0.5684471130371094,-0.22272653877735138,0.7919977903366089,-0.07068171352148056,0.239618718624115,0.00890327338129282,-0.02809518575668335,-0.007726907730102539,0.009454727172851562
212,-2.4956984261778348,0.25071019984272813,2.064916715107429,-0.5830948352813721,-0.24809202551841736,0.773595929145813,-0.39644086360931396,0.10850045830011368,-0.14307564496994019,0.026439011096954346,0.029158934950828552,0.043451130390167236
213,-2.4839519075097747,0.28024294056423465,2.0635051036820475,-0.5874053835868835,-0.27658912539482117,0.7605612277984619,-0.22900761663913727,0.2918994724750519,-0.1233239397406578,0.011920154094696045,-0.026679307222366333,-0.007814645767211914
214,-2.4532492880591095,0.31352666493163633,2.06283247617619,-0.6042909622192383,-0.3084152936935425,0.7346512675285339,-0.5224901437759399,0.4559800624847412,-0.2731747627258301,-0.008364677429199219,-0.01902306079864502,0.02606034278869629
215,-2.4219772397410355,0.35083785615120133,2.06251738566954,-0.6189467310905457,-0.34368473291397095,0.7062475681304932,-0.11198059469461441,0.25342077016830444,-0.16485540568828583,0.012364089488983154,0.022685617208480835,-0.01566535234451294
216,-2.408538257131311,0.3599464199840373,2.0684559520700554,-0.6262611746788025,-0.35222408175468445,0.695510983467102,-0.029035642743110657,0.24256253242492676,-0.0690351352095604,-0.02368706464767456,0.018743187189102173,-0.004867494106292725
217,-2.384087937419276,0.36426023231640725,2.0723850823037986,-0.6420276761054993,-0.3562581539154053,0.6788819432258606,-0.04436751455068588,0.265633761882782,-0.12658613920211792,-0.023820161819458008,-0.026386499404907227,-0.01935136318206787
218,-2.364510559186974,0.37784226106560287,2.0874156820177387,-0.6517412066459656,-0.3689157962799072,0.662672221660614,0.029858721420168877,0.22167456150054932,-0.2174793928861618,0.010612726211547852,-0.030956000089645386,-0.06316971778869629
219,-2.3273121180316116,0.4053580791981312,2.1015560383974368,-0.6682980060577393,-0.3943478465080261,0.6307674646377563,-0.050966762006282806,0.5835316181182861,-0.33479976654052734,0.007760286331176758,-0.009735435247421265,-0.024078011512756348
220,-2.3045274882216753,0.40442440988178924,2.1310156396383166,-0.6827683448791504,-0.39348965883255005,0.6156244874000549,0.3227957487106323,-0.02546258084475994,-0.015712223947048187,-0.01956319808959961,0.008632510900497437,0.06635189056396484
221,-2.3040779596918686,0.4051208826586241,2.1411784087971975,-0.6828411221504211,-0.3941298723220825,0.6151338815689087,-0.1988484114408493,0.2954515516757965,-0.06288176029920578,0.020640254020690918,0.009257465600967407,0.012277066707611084
222,-2.306825517994818,0.39428177171450335,2.1493667215152223,-0.684274435043335,-0.38414517045021057,0.6198393106460571,0.10447278618812561,-0.07016808539628983,0.1850355565547943,0.047082722187042236,0.03676360845565796,0.050128281116485596
223,-2.3097638876554254,0.3853260770990445,2.1236867007192872,-0.6849658489227295,-0.3758613169193268,0.6241396069526672,-0.18954017758369446,-0.328276664018631,0.30146583914756775,0.0007617473602294922,0.03143996000289917,0.013845682144165039
224,-2.321572964869492,0.3869428477148205,2.0702362379644197,-0.6771023869514465,-0.3773590624332428,0.6317691802978516,-0.46788594126701355,-0.3671625852584839,0.3658411502838135,-0.012976288795471191,0.022241324186325073,-0.027795851230621338
225,-2.3255876068980825,0.3937403156578402,1.9972614076890725,-0.672676682472229,-0.3836452066898346,0.632710337638855,-0.5384970307350159,-0.2589777410030365,0.4873206317424774,0.01775425672531128,0.009728580713272095,-0.027531564235687256
226,-2.34030424052383,0.38967358838966065,1.9161395658110671,-0.6644080877304077,-0.3798865079879761,0.6436213850975037,-0.7967507839202881,-0.3179548978805542,0.48611024022102356,-0.04649907350540161,-0.003704279661178589,0.009836375713348389
227,-2.3197175825262857,0.4108920506517843,1.820034026112529,-0.6714605689048767,-0.39942729473114014,0.6241786479949951,-0.7944610714912415,-0.1467231661081314,0.49076101183891296,-0.013186216354370117,-0.009264200925827026,-0.06453192234039307
228,-2.28737434049892,0.41790329450638464,1.7289869033978078,-0.6891651749610901,-0.4058450758457184,0.6002846360206604,-0.5532928109169006,-0.02553120069205761,0.57781583070755,0.011369645595550537,-0.0031363368034362793,-0.0007361769676208496
229,-2.243119380821579,0.4245682029200764,1.629238660617938,-0.7129150032997131,-0.41192737221717834,0.5675104856491089,-0.9792079329490662,0.0754624605178833,0.5962299704551697,0.027398645877838135,0.04496872425079346,0.07346546649932861
230,-2.2065050338269327,0.42447213815232254,1.5074965504121571,-0.7332432270050049,-0.4118398129940033,0.5410564541816711,-0.7711407542228699,-0.37086406350135803,0.8249489068984985,0.029263854026794434,0.01782745122909546,-0.018641352653503418
231,-2.214778007121759,0.39301166658901343,1.3918119212351765,-0.7387416362762451,-0.38297221064567566,0.5546111464500427,-0.6501862406730652,-0.632966935634613,1.0141681432724,-0.01902526617050171,-0.019554704427719116,-0.03909289836883545
232,-2.216109070190162,0.3771008232687804,1.25700861897511,-0.7427772283554077,-0.368226557970047,0.5591883659362793,-1.228703498840332,-0.2653481960296631,0.7486855387687683,-0.07143193483352661,-0.028196901082992554,-0.039763808250427246
233,-2.176040499552922,0.4132031308896647,1.1009434145661323,-0.7531527280807495,-0.4015449285507202,0.5210787057876587,-1.614660620689392,-0.07854659855365753,0.4841262400150299,0.04819655418395996,-0.0007988810539245605,-0.047964632511138916
234,-2.0936791037894333,0.45528057750113726,0.917227593218617,-0.778131365776062,-0.43971434235572815,0.4485118091106415,-1.6284191608428955,0.14655393362045288,0.577931821346283,0.05210298299789429,-0.05268678069114685,-0.003519803285598755
235,-2.0555444484225136,0.4481929763272201,0.7797969717196291,-0.7974030375480652,-0.4333376884460449,0.41996097564697266,-0.4888150990009308,-0.8723445534706116,0.5510344505310059,-0.10234689712524414,-0.05840739607810974,0.00023564696311950684
236,-2.0626177876697263,0.45664963179261137,0.6893367567537122,-0.7911537885665894,-0.44094350934028625,0.4238449037075043,-0.8284246325492859,-0.35693028569221497,0.22347618639469147,-0.03433138132095337,0.08918267488479614,-0.0632186233997345
237,-2.0672380179370022,0.4356472945371035,0.6068574678388333,-0.7971552014350891,-0.4219973385334015,0.4318119287490845,-0.2958329916000366,-0.4629182815551758,0.7357911467552185,0.017538011074066162,0.11175569891929626,-0.08058518171310425
238,-2.064337854770512,0.3873131988128748,0.5414446862671504,-0.8154274821281433,-0.377701997756958,0.4386558532714844,-0.4633477032184601,-0.22700847685337067,0.7987702488899231,0.03037816286087036,0.08006411790847778,0.03534311056137085
239,-2.081691045947663,0.3222645661716226,0.4664351405450461,-0.8274015188217163,-0.3167153596878052,0.46378666162490845,-0.17756085097789764,-0.6387904286384583,0.965649425983429,-0.006643891334533691,0.017978787422180176,0.03976857662200928
240,-2.1119822217409685,0.2708980752241099,0.4010726199325644,-0.8258406519889832,-0.26759687066078186,0.4963655471801758,-0.5535719394683838,-0.2022436559200287,0.5442319512367249,-0.035792529582977295,-0.041622430086135864,0.022280603647232056
241,-2.11248729368518,0.2643386176888056,0.33910220208060116,-0.8270760178565979,-0.2612709105014801,0.49767687916755676,-0.46188756823539734,-0.19786903262138367,0.3262711763381958,0.017246484756469727,-0.003621608018875122,-0.04572701454162598
242,-2.1122275604255116,0.26125214095906635,0.28694433924825985,-0.8278924226760864,-0.2582904100418091,0.49787527322769165,-0.6512401700019836,0.2171904742717743,0.24188677966594696,-0.0058934688568115234,0.08195990324020386,0.05150201916694641
243,-2.0812529415678904,0.2688609817394322,0.21739964817103183,-0.8411754965782166,-0.2656335234642029,0.4710232615470886,-0.41602227091789246,-0.2964831590652466,0.29488879442214966,0.011005699634552002,0.0647972822189331,0.03959691524505615
244,-2.0950912566046203,0.2730610391223689,0.15220677562339008,-0.8336035013198853,-0.26968032121658325,0.48205527663230896,-0.7240612506866455,-0.29374465346336365,0.22483590245246887,-0.03115767240524292,0.05788838863372803,0.01455715298652649
245,-2.096869172107993,0.29456121834807847,0.07780548531932692,-0.8275389075279236,-0.2903200089931488,0.4805135726928711,-0.6781430244445801,-0.19489850103855133,0.15957008302211761,0.0016418099403381348,0.05962240695953369,-0.04103001952171326
246,-2.09286009738697,0.31030156547473775,0.0209913736759274,-0.8253952860832214,-0.3053458034992218,0.47485437989234924,-0.5424845218658447,-0.05520964786410332,0.05878768488764763,-0.014860451221466064,0.05446082353591919,0.009917378425598145
247,-2.087332634590772,0.3303603718335778,-0.012983098460430949,-0.8225154876708984,-0.324383944272995,0.4671655297279358,-0.2778492569923401,-0.09774225205183029,-0.12113595753908157,-0.008844494819641113,0.03155246376991272,-0.0009178519248962402
248,-2.0824983953719496,0.36435474656323547,-0.02808778983440704,-0.8146748542785645,-0.3563464879989624,0.45751768350601196,-0.33348721265792847,0.023526502773165703,-0.3401607275009155,-0.016440987586975098,0.04192382097244263,0.06021302938461304
249,-2.081260754890543,0.41335399459541244,-0.03931409406905923,-0.7990332841873169,-0.40168309211730957,0.44743356108665466,-0.28631410002708435,-0.09857507795095444,-0.3857995271682739,-0.029503822326660156,0.06725618243217468,0.032134950160980225
250,-2.086704001878618,0.46116031315473305,-0.0542106236085712,-0.7789785861968994,-0.4449875056743622,0.441790372133255,-0.4113282561302185,-0.12601688504219055,-0.28342580795288086,-0.017789721488952637,0.09342494606971741,-0.03702038526535034
251,-2.072593476082983,0.48961315410764167,-0.10089716051138851,-0.7737180590629578,-0.47028452157974243,0.42449137568473816,-0.40410086512565613,-0.27251091599464417,0.2147468477487564,-0.007379353046417236,0.009011328220367432,-0.07485151290893555
252,-2.0768459904094647,0.49222422923353676,-0.1495195171669114,-0.7708290815353394,-0.4725872278213501,0.4271809756755829,-0.32496461272239685,-0.2990648150444031,0.1299428790807724,-0.029326438903808594,-0.04378539323806763,-0.08011990785598755
253,-2.110081492181893,0.4833738968294157,-0.16458834566509203,-0.7597680687904358,-0.464769184589386,0.45468953251838684,-0.29267650842666626,-0.23952235281467438,0.15829423069953918,0.04983752965927124,-0.04311969876289368,0.04584461450576782
254,-2.116624862241057,0.4914861242361849,-0.22718753469389538,-0.7535289525985718,-0.4719366133213043,0.4576786756515503,-0.4249040484428406,-0.5968620777130127,0.310995876789093,0.007816791534423828,-0.015886813402175903,-0.04161730408668518
255,-2.1338955764518888,0.4940791549464072,-0.27991804133715525,-0.7444753050804138,-0.4742211401462555,0.4699689447879791,-0.49456527829170227,-0.15157310664653778,0.12812821567058563,0.012084007263183594,-0.025351613759994507,-0.040525585412979126
256,-2.1356574308123544,0.4887099490119757,-0.323494084522839,-0.7457859516143799,-0.4694872498512268,0.472635954618454,-0.18843971192836761,-0.27440428733825684,0.28465041518211365,0.027936339378356934,-0.06731688976287842,-0.04954037070274353
257,-2.115928837868933,0.5006039409779961,-0.36945796553399696,-0.75013667345047,-0.4799554646015167,0.45490381121635437,-0.8885231018066406,0.47555112838745117,-0.21061192452907562,-0.038147568702697754,-0.08658799529075623,0.09688439965248108
258,-1.902425365451832,0.6167272770122074,-0.5429408380856173,-0.7713265419006348,-0.5783684253692627,0.265603244304657,-2.4400973320007324,1.519622802734375,-0.5891305208206177,0.027521729469299316,-0.01739567518234253,0.10646697878837585
259,-1.475206435462681,0.706994193901581,-0.9148141641796247,-0.7568466067314148,-0.6495513319969177,-0.07256804406642914,-2.6640267372131348,1.2770378589630127,-0.36456841230392456,0.07691508531570435,0.074920654296875,-0.06993376463651657
260,-1.2264431515238854,0.6894953736414131,-1.1412859604169105,-0.7262715101242065,-0.6361479163169861,-0.26047173142433167,-1.5934579372406006,1.2914491891860962,-0.25573721528053284,0.022993922233581543,-0.001516878604888916,0.06895864009857178
261,-0.9019889490027835,0.6177868854931432,-1.40139654817553,-0.639545202255249,-0.5792325139045715,-0.5054420232772827,-2.3606061935424805,2.025391101837158,-0.39851006865501404,0.04928946495056152,-0.05193203687667847,0.053232550621032715
262,-0.6345310097282689,0.49337633459791963,-1.6251733073095402,-0.522101879119873,-0.4736022651195526,-0.7093028426170349,-1.6691378355026245,0.806133508682251,-0.5284500122070312,0.023581981658935547,-0.043853819370269775,-0.04207044839859009
263,-0.5341537444904568,0.4154284043503361,-1.7404855345884045,-0.46580949425697327,-0.4035819470882416,-0.7874916791915894,-0.8311907052993774,0.4685794711112976,-0.2817310392856598,0.0023848116397857666,0.022234290838241577,-0.033446431159973145
264,-0.46336450447355976,0.3530823514888258,-1.823868517209925,-0.41938796639442444,-0.34579163789749146,-0.8393698930740356,-0.8351406455039978,0.356059193611145,-0.1971135288476944,0.015945613384246826,0.010937541723251343,-0.03999406099319458
265,-0.41591473653231853,0.3017506614212287,-1.8752027826578166,-0.3857719898223877,-0.29719221591949463,-0.8734167218208313,-0.5756850242614746,0.44504088163375854,-0.0700468197464943,-0.011826306581497192,0.03898298740386963,-0.0167657732963562
266,-0.3710259039101101,0.2567524874916191,-1.9087319573460082,-0.35068652033805847,-0.2539408504962921,-0.9014061093330383,-0.46061545610427856,0.22281700372695923,-0.12209305912256241,-0.020193517208099365,0.03766283392906189,0.00786668062210083
267,-0.3640774582346937,0.22826501532544374,-1.9149925574861102,-0.3468506336212158,-0.22628788650035858,-0.9102134108543396,-0.3462395668029785,0.34187549352645874,0.2578043043613434,-0.01792597770690918,0.009323179721832275,0.0928458571434021
268,-0.3286314850233126,0.18380557672579106,-1.8982942755115624,-0.31731143593788147,-0.18277235329151154,-0.9305416345596313,-0.13178032636642456,0.11231688410043716,0.36112314462661743,-0.024439632892608643,-0.02389267086982727,-0.013809561729431152
269,-0.32942276848011265,0.17047926171372227,-1.8789373293832807,-0.31880733370780945,-0.16965468227863312,-0.9325122833251953,0.19259949028491974,-0.016810353845357895,0.29759812355041504,-0.021295785903930664,-0.02034774422645569,-0.04812431335449219
270,-0.32388170906742864,0.1728301322118209,-1.8398904810116927,-0.3135075569152832,-0.17197100818157196,-0.933883786201477,-0.0032638534903526306,0.3432880938053131,0.5649614930152893,0.02082875370979309,-0.011241257190704346,0.025589168071746826
271,-0.3527845511076559,0.19473576387182653,-1.7890830855425597,-0.33898162841796875,-0.19350729882717133,-0.920677125453949,0.2739461064338684,-0.32762089371681213,0.1406140774488449,-0.04970550537109375,-0.00784766674041748,0.023963868618011475
272,-0.35554051081501253,0.20095514265714157,-1.7828431895760142,-0.34109213948249817,-0.19960534572601318,-0.9185934066772461,0.20256952941417694,0.12123152613639832,0.15360011160373688,-0.06137368083000183,0.02234397828578949,0.008971214294433594
273,-0.368625082796294,0.20474323111422457,-1.7664821021036365,-0.35280701518058777,-0.20331576466560364,-0.9133399724960327,-0.02140825241804123,0.01956629566848278,0.09356226772069931,-0.05727294087409973,-0.015235871076583862,0.06453931331634521
274,-0.33268676371062555,0.18253561746217628,-1.789279938825509,-0.32115796208381653,-0.1815236508846283,-0.9294658303260803,-0.3734719753265381,0.5255371332168579,-0.23834212124347687,-0.059472501277923584,-0.013575226068496704,0.007148325443267822
275,-0.234431044246418,0.14950405393805102,-1.832987322035264,-0.22969844937324524,-0.14894773066043854,-0.9617968797683716,-0.7359575629234314,1.5629633665084839,-0.2541366219520569,-0.10369083285331726,-0.04775330424308777,0.10645020008087158
276,-0.04189324557712294,0.05650306743149642,-1.891963136827932,-0.041814155876636505,-0.056473005563020706,-0.9975281357765198,-0.9347711205482483,1.982604742050171,-0.6018962860107422,-0.061686210334300995,-0.084518201649189,0.018096983432769775
277,0.02355940966986107,0.05873474516557361,-1.9220070751075382,0.023516608402132988,-0.058700982481241226,-0.9979985952377319,0.7739877700805664,-0.8082208633422852,-0.17030556499958038,-0.06538672745227814,-0.04360920190811157,-0.06875860691070557
278,-0.1468093896455229,0.20746891609996534,-1.957965711467532,-0.1431456208229065,-0.20598375797271729,-0.9680289626121521,1.801422357559204,-1.6151326894760132,-0.5577846169471741,-0.033734261989593506,-0.025812506675720215,-0.0461769700050354
279,-0.1517991319489181,0.25741918823137977,-1.9915739095167857,-0.14623425900936127,-0.2545856237411499,-0.9559297561645508,-0.5923812985420227,0.5655379891395569,0.012693889439105988,0.03930066525936127,0.0540698766708374,-0.03416728973388672
280,-0.05020848336720263,0.23969811099454497,-1.9739057378088691,-0.04875251650810242,-0.23740938305854797,-0.9701855182647705,0.08661194145679474,1.8354624509811401,-0.34840479493141174,-0.0004265494644641876,0.03431491553783417,0.05444461107254028
281,-0.130768117022353,0.23698193596085043,-2.004478044237942,-0.12675130367279053,-0.23476998507976532,-0.9637516140937805,0.2858145833015442,-1.5613465309143066,-0.009673049673438072,0.14258992671966553,0.05785958468914032,0.09137612581253052
282,-0.2671884000112474,0.22027776252577214,-1.9770541544370959,-0.2576410472393036,-0.21850068867206573,-0.9412112236022949,-0.05557144433259964,-1.1452871561050415,0.08837690204381943,0.18494820594787598,0.08242279291152954,0.006305217742919922
283,-0.3053484715283245,0.26861100299271773,-1.974922257010491,-0.2898452579975128,-0.2653925120830536,-0.9195414781570435,0.6291993856430054,0.4880712926387787,-0.31199777126312256,0.09242701530456543,0.0456048846244812,0.05838119983673096
284,-0.33280658244184536,0.16447629972909833,-1.9896971473863927,-0.3222878575325012,-0.16373571753501892,-0.9323739409446716,-1.7440907955169678,-1.2502827644348145,0.330056756734848,0.14827662706375122,0.020440444350242615,0.10382169485092163
285,-0.3580110117281062,0.14788767083225401,-1.9184830385587535,-0.3465871512889862,-0.14734919369220734,-0.9263722896575928,0.03117082081735134,1.3830488920211792,0.904366135597229,0.06622213125228882,-0.09555546939373016,0.22216391563415527
286,-0.23308415111205208,0.10344691869300576,-1.8157820936986822,-0.2297445833683014,-0.1032625138759613,-0.9677573442459106,0.10286352038383484,0.21644935011863708,1.1408519744873047,0.10764375329017639,-0.0699552595615387,-0.14361655712127686
287,-0.1706148151763194,0.07505848729615433,-1.6865343780419475,-0.16931021213531494,-0.07498802989721298,-0.9827058911323547,-0.1815590262413025,1.269325852394104,1.3389760255813599,0.02549612522125244,-0.04851660877466202,0.06661397218704224
288,-0.09286421527317813,0.10258706809946655,-1.6039304347698125,-0.09224327653646469,-0.10240722447633743,-0.9904564023017883,0.835015594959259,0.9781000018119812,0.48643678426742554,0.0005989968776702881,-0.04001830518245697,0.1805657148361206
289,0.008198336498388786,0.14822451671696707,-1.5513666725222455,0.0081083495169878,-0.14768235385417938,-0.9890016317367554,0.12194772064685822,0.31260231137275696,0.440442830324173,0.10442522168159485,0.06186690926551819,-0.0002104043960571289
290,-0.003854018772011749,0.15617917668544185,-1.4901525677393157,-0.003807101398706436,-0.15554502606391907,-0.9878214597702026,-0.027440490201115608,0.04487162083387375,0.6816259622573853,0.062065161764621735,0.06643371284008026,0.1253489851951599
291,0.07185210784216692,0.15953958209159486,-1.426198535553152,0.07087860256433487,-0.15886364877223969,-0.9847530722618103,0.4626847207546234,0.9016757607460022,0.6501216292381287,0.14062348008155823,0.11502514779567719,-0.0909152626991272
292,0.18489451568495185,0.1742545368511833,-1.364822419899784,0.18105873465538025,-0.1733740121126175,-0.9680697917938232,-0.15735046565532684,1.2044669389724731,0.48171353340148926,-0.028119921684265137,0.13850770890712738,-0.17801779508590698
293,0.2825281883744984,0.1484821984781619,-1.314011236291792,0.27571696043014526,-0.14793720841407776,-0.9497866630554199,-0.5853344798088074,0.8314855694770813,0.1597478985786438,-0.19096964597702026,0.07962360978126526,-0.23652315139770508
294,0.34133880361404173,0.15157801582347427,-1.3151408603391619,0.33091074228286743,-0.15099823474884033,-0.9315028786659241,0.7785043120384216,-0.12319441139698029,0.019970668479800224,-0.09462839365005493,-0.027773737907409668,-0.3257145285606384
295,0.27045995798830874,0.17246581312773138,-1.2723758181402582,0.26321107149124146,-0.17161209881305695,-0.9493520259857178,-0.904512882232666,-1.2982029914855957,0.7432088851928711,-0.11983948945999146,0.008938148617744446,-0.014133691787719727
296,0.1370054647135302,0.048827878599210735,-1.2027745201707414,0.13641448318958282,-0.04880847781896591,-0.9894487261772156,-1.2642124891281128,-1.02293860912323,0.034434255212545395,-0.005997613072395325,0.01186695322394371,0.0028917789459228516
297,0.04171248030875638,-0.030768475336318577,-1.2285774384969914,0.04168064892292023,0.030763620510697365,-0.9986572861671448,-0.17991739511489868,-0.6786874532699585,-0.4080137610435486,0.03504054248332977,-0.044466014951467514,0.016021788120269775
298,0.00597323044464046,-0.014260787184675716,-1.2618386115354765,0.005972587503492832,0.014260304160416126,-0.9998804926872253,0.3080485165119171,-0.09429176896810532,-0.2084599882364273,0.09333161264657974,-0.02234746143221855,-0.012494385242462158
299,-0.015350561051667874,-0.0011115779903516532,-1.2893824135353908,-0.015349948778748512,0.0011115777306258678,-0.9998815655708313,0.04663340002298355,-0.237517312169075,-0.301630437374115,0.09704550355672836,0.022051263600587845,0.014926731586456299
300,-0.01727354755084506,0.01942120948526958,-1.3112536686589933,-0.017269430682063103,-0.019419988617300987,-0.9996622800827026,0.4124138057231903,0.12144596874713898,0.13167999684810638,0.08527785539627075,-0.060429252684116364,0.03165996074676514
301,-0.02374818894591126,0.0277901348589504,-1.307449253586047,-0.02373678795993328,-0.027786558493971825,-0.9993320107460022,0.0079880952835083,-0.10516196489334106,0.1143183559179306,0.06264670193195343,-0.049865417182445526,-0.018200278282165527
302,-0.016741586342631815,0.046972080017147894,-1.2854139221609466,-0.016722340136766434,-0.04695481061935425,-0.998757004737854,0.2579542398452759,0.4723387062549591,0.16442570090293884,0.019713062793016434,0.0018803514540195465,0.08933323621749878
303,0.02336731526259127,0.08930420822974577,-1.2504907453191247,0.0232720784842968,-0.08918555080890656,-0.9957430958747864,0.20094984769821167,0.29235711693763733,0.8251011371612549,0.016507582738995552,-0.09930626302957535,-0.005965828895568848
304,0.06898307060967675,0.0608350377347731,-1.1006642252450995,0.06880086660385132,-0.060797519981861115,-0.9957761168479919,-0.8179494142532349,0.4219156503677368,1.6906533241271973,-0.05026143789291382,0.1489017754793167,-0.08102130889892578
305,0.03539497423237966,-0.02610651307062063,-1.0262037192251616,0.03537552431225777,0.0261035468429327,-0.9990330934524536,-0.47105664014816284,-0.586157500743866,0.26664572954177856,-0.034978799521923065,0.07020992785692215,-0.01964360475540161
306,-0.009055479580158829,-0.027634153501840238,-1.0060317141065827,-0.009051898494362831,0.0276306364685297,-0.9995772242546082,-0.06517034769058228,-0.2702850103378296,-0.07421513646841049,-0.06446494907140732,0.0264312531799078,0.09489887952804565
307,-0.01759561014174177,-0.02895374931079322,-1.0075063867349585,-0.01758732832968235,0.02894970402121544,-0.9994261264801025,-0.0008267369121313095,-0.02626410499215126,0.04146299138665199,-0.02806696854531765,-0.03219982609152794,0.03272080421447754
308,0.009318491523098976,-0.0444027674734223,-1.0000628075535094,0.009309171698987484,0.04438817873597145,-0.9989709854125977,-0.08248449862003326,0.3742111921310425,0.042156320065259933,0.0022264719009399414,0.02490198239684105,-0.035727500915527344
309,0.0389172167483441,-0.03777889661582229,-1.008498747430602,0.0388796329498291,0.03776990994811058,-0.998529851436615,0.1476018875837326,0.23117399215698242,-0.10735821723937988,0.019286874681711197,0.02614915743470192,-0.01918560266494751
310,0.05482393021327579,-0.03630983843094002,-1.0251492589294489,0.05476035177707672,0.036301858723163605,-0.9978393912315369,-0.0784987360239029,0.26270920038223267,-0.19317173957824707,-0.028393171727657318,0.014830335974693298,0.01969003677368164
311,0.07459200772643475,-0.04410164803963887,-1.0458958036037824,0.07445039600133896,0.044087354093790054,-0.9962496757507324,-0.04726216197013855,0.20907950401306152,-0.2083495408296585,-0.02366914600133896,-0.032963696867227554,-0.03332185745239258
312,0.1045791024818641,-0.03507514760150365,-1.0657279262341286,0.10432437062263489,0.035067956894636154,-0.9939248561859131,0.3079715967178345,0.5752459168434143,-0.06460908055305481,-0.024719275534152985,-0.05987875163555145,-0.03163355588912964
313,0.12442830820370389,0.010486593872992724,-1.0830345112755633,0.12410065531730652,-0.010486401617527008,-0.9922142028808594,0.39849039912223816,-0.07196306437253952,-0.035776324570178986,-0.020173050463199615,-0.027660571038722992,0.02378469705581665
314,0.13013823596345026,0.01792811684847171,-1.086980859223629,0.1297503560781479,-0.017927156761288643,-0.9913846254348755,-0.06921304762363434,0.1796208620071411,0.02165478840470314,-0.020985707640647888,0.018781647086143494,0.01613438129425049
315,0.14245187096889145,0.003435352407515554,-1.0870450849021362,0.1419697403907776,-0.0034353455994278193,-0.9898650646209717,-0.14471450448036194,-0.059979990124702454,-0.20683297514915466,0.008512437343597412,0.043367594480514526,-0.07506108283996582
316,0.14724786516548263,0.0021324257866340147,-1.1066239688106745,0.14671599864959717,-0.0021324241533875465,-0.989176332950592,0.16991066932678223,0.13388830423355103,-0.18957771360874176,-0.0003842264413833618,0.0025596695486456156,0.013117432594299316
317,0.16160778887606222,0.0063579749977687745,-1.1261007612147405,0.1609019935131073,-0.00635793199762702,-0.9869499206542969,0.06821654736995697,0.26820868253707886,-0.007520560175180435,-0.0003032386302947998,-0.06551096588373184,-0.011112213134765625
318,0.17241808886549728,0.010612351302687298,-1.124029414380126,0.17155542969703674,-0.010612152516841888,-0.9851173162460327,-0.14457891881465912,-0.03123510256409645,-0.009087380021810532,-0.028183847665786743,0.0030743107199668884,-0.043599724769592285
319,0.15461270527365178,-0.0035006924897894374,-1.1308001776738887,0.15399649739265442,0.003500685328617692,-0.9880651831626892,-0.02153930813074112,-0.1894613653421402,-0.20737576484680176,-0.013249427080154419,0.01822783052921295,-0.04178100824356079
320,0.13848317494674514,0.010169448229790866,-1.147527873705181,0.13803383708000183,-0.010169273242354393,-0.990375280380249,0.12346475571393967,-0.20002372562885284,-0.09792277216911316,0.032284751534461975,-0.004692784510552883,-0.006237208843231201
321,0.12211721853969346,0.005548466847240723,-1.1482315884922378,0.12181205302476883,-0.005548438522964716,-0.9925376772880554,-0.07226862013339996,-0.17030468583106995,0.011457696557044983,0.018538281321525574,0.008935891091823578,-0.00950700044631958
322,0.10675184568328444,0.004483928020111732,-1.1502861204848938,0.10654813051223755,-0.004483913071453571,-0.994297444820404,0.03518311306834221,-0.1836540549993515,-0.04777361452579498,0.004856288433074951,-0.0013602040708065033,0.012836873531341553
323,0.10271242974949882,0.002300090690291995,-1.1525780565501387,0.10253165662288666,-0.002300088759511709,-0.9947270750999451,-0.08512353897094727,0.033357977867126465,0.03882156312465668,-0.015266649425029755,-0.011951621621847153,0.019385337829589844
324,0.10276283624451284,-0.0035559484979461107,-1.150688721358791,0.10258141905069351,0.003555940929800272,-0.9947182536125183,-0.08343122154474258,-0.0006608306430280209,-0.04546656459569931,-0.012554563581943512,0.007842376828193665,-0.02333289384841919
325,0.10397443049565092,-0.008121758141070301,-1.1598831192745942,0.10378377139568329,0.008121669292449951,-0.9945667386054993,0.019941095262765884,0.07700203359127045,-0.17159110307693481,-0.012414142489433289,0.003490269184112549,-0.021836459636688232
326,0.10024755391903616,0.004246539316765059,-1.1809023077338696,0.10007882863283157,-0.004246526397764683,-0.994970440864563,0.22030450403690338,-0.07096905261278152,-0.1988600641489029,0.01607106626033783,-0.0044357250444591045,0.008871257305145264
327,0.09801588947534381,0.019627597851577177,-1.1868023034634547,0.09784017503261566,-0.01962633803486824,-0.9950085878372192,0.004311696160584688,-0.05024353787302971,0.11964034289121628,0.007949009537696838,-0.01751355454325676,0.03449833393096924
328,0.09471127472364956,0.006778085649649897,-1.1728563698789294,0.09456756711006165,-0.0067780339159071445,-0.9954953789710999,-0.19531269371509552,-0.05310794338583946,0.09602432698011398,-0.017236024141311646,0.021182332187891006,-0.008319318294525146
329,0.08495410168367792,-0.0009340160765269334,-1.177889796084021,0.08485191315412521,0.0009340159595012665,-0.9963931441307068,0.081181600689888,-0.07179614156484604,-0.12789393961429596,0.0036948397755622864,-0.0050691477954387665,-0.025320112705230713
330,0.07720844733419775,0.006698357402121444,-1.181044937336048,0.0771300345659256,-0.006698307115584612,-0.9969985485076904,-0.020562564954161644,-0.10957168787717819,0.11750707775354385,0.010699555277824402,-0.03845244646072388,0.01448512077331543
331,0.07083875866942917,0.0003985619454547656,-1.1640903828811022,0.07077952474355698,-0.0003985619405284524,-0.9974918961524963,-0.08300953358411789,-0.01940034329891205,0.18431398272514343,-0.020623885095119476,0.008134767413139343,0.019022047519683838
332,0.07005451843220153,-0.0039608062771467785,-1.154734154818857,0.06999668478965759,0.003960795700550079,-0.9975393414497375,-0.060239117592573166,0.003184000961482525,0.001617498230189085,-0.012059062719345093,0.02548866719007492,-0.02579134702682495
333,0.062100371442555084,-0.010317239890728122,-1.1567932125209814,0.06205715984106064,0.010317056439816952,-0.998019278049469,0.014912355691194534,-0.06285777688026428,-0.06676552444696426,-0.0017239116132259369,0.013837607577443123,-0.010083138942718506
334,0.060681289826942514,-0.005710283462337533,-1.1587021048095172,0.060643069446086884,0.005710252560675144,-0.998143196105957,-0.004365129396319389,-0.03254111856222153,0.019439712166786194,-0.007679808884859085,-0.0031009986996650696,0.014088630676269531
335,0.05961988162796869,-0.011320142198848193,-1.1550937967823978,0.05958075076341629,0.0113199008628726,-0.9981592893600464,-0.02689925581216812,-0.022246580570936203,0.0028804007451981306,-0.01302618533372879,0.012514328584074974,-0.023965954780578613
336,0.055323519074274546,-0.010630975582211795,-1.1568630082158249,0.05529217794537544,0.0106307752430439,-0.998413622379303,0.05408177524805069,-0.09082670509815216,-0.03893376141786575,0.0032100193202495575,0.0110061876475811,-0.012404859066009521
337,0.05537413541852843,-0.010149622958873564,-1.1610686854720822,0.05534299090504646,0.010149449110031128,-0.9984158277511597,-0.04197150096297264,0.044392213225364685,-0.035868726670742035,-0.0022424012422561646,0.007810145616531372,0.03389251232147217
338,0.059169198548116586,-0.01911623777291435,-1.1629645756324296,0.059123873710632324,0.01911507360637188,-0.9980676174163818,-0.07564428448677063,0.016437575221061707,-0.05335531756281853,-0.0025290250778198242,0.012913122773170471,-0.028558969497680664
339,0.06134960000790894,-0.02265366348015494,-1.1679635922917622,0.061295390129089355,0.022651726379990578,-0.9978625774383545,-0.09277075529098511,0.020825402811169624,0.007719290442764759,-0.0009163618087768555,-0.002983149141073227,-0.0014050006866455078
340,0.05732034937303914,-0.038829270076837785,-1.1717178378191564,0.057245783507823944,0.03881951421499252,-0.9976050853729248,-0.06516014784574509,-0.02420942299067974,-0.09438632428646088,-0.014750059694051743,0.010603699833154678,-0.01661604642868042
341,0.04858605467349295,-0.043246633944398934,-1.1820912584603727,0.048521533608436584,0.04323315620422363,-0.997886061668396,-0.09700407832860947,-0.1060875728726387,-0.1530860960483551,-0.011244311928749084,0.005320310592651367,0.005042433738708496
342,0.04286154159571805,-0.044589085351812364,-1.1972293839817607,0.042805831879377365,0.0445743128657341,-0.9980885982513428,0.12473976612091064,0.021636836230754852,-0.1482686996459961,0.012904006987810135,-0.024249602109193802,0.020580053329467773
343,0.04531229048718078,-0.03839782712995105,-1.1972196631107352,0.04526339843869209,0.03838839381933212,-0.9982372522354126,-0.14521320164203644,-0.04071948677301407,0.1305340975522995,0.028070341795682907,-0.030285976827144623,-0.004173636436462402
344,0.039996492113573666,-0.045404693362852216,-1.185422646903281,0.039944618940353394,0.045389093458652496,-0.9981704354286194,-0.011257068254053593,0.04618094116449356,0.04665084928274155,-0.017682049423456192,0.026678163558244705,0.02522432804107666
345,0.04435407949780915,-0.0490770623412444,-1.1875581223178397,0.044286150485277176,0.04905736446380615,-0.9978136420249939,-0.05803045257925987,0.05300384387373924,-0.022890953347086906,-0.003590967506170273,-0.00859105959534645,-0.017567157745361328
346,0.044457432995585265,-0.05793933105745259,-1.188817776051014,0.04436821490526199,0.05790691822767258,-0.9973355531692505,-0.03112245909869671,0.05131752789020538,-0.00822339579463005,-0.011882256716489792,-0.017074406147003174,-0.041162312030792236
347,0.04946561218724057,-0.04698028366057624,-1.1905799623808573,0.04939088597893715,0.046963002532720566,-0.997674822807312,0.08015626668930054,0.1807604432106018,-0.017671342939138412,-0.00999268889427185,-0.014675404876470566,-0.01979649066925049
348,0.06510916867756433,-0.028612324212712686,-1.1935062434919028,0.06503654271364212,0.028608420863747597,-0.9974727034568787,0.3249429762363434,0.07275263220071793,-0.08465264737606049,0.03364204615354538,0.022584816440939903,-0.06106001138687134
349,0.08488786806130318,0.0067466603760807774,-1.2011605287208604,0.08478402346372604,-0.006746609229594469,-0.9963765144348145,0.292060524225235,0.17012649774551392,-0.023289579898118973,0.016946323215961456,0.023256618529558182,0.026054859161376953
350,0.10225829807009511,0.021474011924535227,-1.203000025357319,0.10205663740634918,-0.02147236093878746,-0.9945468306541443,0.08982383459806442,0.17555052042007446,0.00021602772176265717,-0.03290380537509918,0.02756062150001526,0.05094331502914429
351,0.11831706902481491,0.02569168606623632,-1.2035868800128724,0.1180022582411766,-0.025688860565423965,-0.9926809668540955,0.011705470271408558,0.0816785991191864,0.006700440309941769,-0.029836975038051605,-0.005332252010703087,-0.005259037017822266
352,0.10605638959146663,0.018264271370717816,-1.2008568641894366,0.10584002733230591,-0.018263256177306175,-0.9942154288291931,-0.16000685095787048,-0.24886463582515717,0.053494617342948914,-0.016652412712574005,-0.016709884628653526,0.01357889175415039
353,0.0843384297882154,0.0019451768117005519,-1.1908954486402386,0.08423832058906555,-0.0019451755797490478,-0.9964437484741211,-0.04049061983823776,-0.13955187797546387,0.08150967210531235,-0.0013983547687530518,0.01869932934641838,0.004378318786621094
354,0.07975486289544902,0.003971052018146115,-1.1858887836917906,0.07966971397399902,-0.0039710416458547115,-0.9968134164810181,0.004133074078708887,-0.08346910774707794,0.0359392985701561,0.03396248817443848,0.02038949728012085,-0.019696593284606934
355,0.07642387281834762,-0.0005119674455650539,-1.182370544343591,0.07634948939085007,0.0005119674024172127,-0.9970809817314148,-0.04403403028845787,-0.0011748583056032658,0.04365864768624306,0.022496946156024933,0.01619640365242958,0.010417163372039795
356,0.08065817165255307,-0.009488288180359501,-1.1780054676539287,0.08056711405515671,0.00948814582079649,-0.9967040419578552,-0.09570388495922089,-0.004837503656744957,0.035047583281993866,0.013198144733905792,-0.0006685666739940643,-0.024261534214019775
357,0.08195042407229429,-0.014434476019262813,-1.1736758705862997,0.08185020089149475,0.014433974400162697,-0.9965401291847229,-0.051514882594347,-0.017840005457401276,0.03876077011227608,0.001844257116317749,-0.0015708152204751968,-0.0116080641746521
358,0.07969617348652255,-0.018106072446211544,-1.1685557429383366,0.07959878444671631,0.01810508407652378,-0.9966625571250916,-0.05728362873196602,-0.019696969538927078,0.05298861488699913,-0.011910796165466309,0.0007395222783088684,0.004291951656341553
359,0.06317799669743693,-0.03189453896137088,-1.1608200127388026,0.06310386955738068,0.03188913315534592,-0.9974973797798157,-0.5743613243103027,-0.6718913316726685,0.1642627716064453,0.021048352122306824,-0.03809945657849312,-0.09231585264205933
360,-0.047361793685497526,-0.15919162520052446,-1.1515296221617253,-0.046745460480451584,0.15852010250091553,-0.9862485527992249,-0.8098059296607971,-0.8051770925521851,-0.09408555179834366,-0.028022605925798416,0.03665505349636078,0.039608538150787354
361,-0.0332472523688538,-0.10382325317270048,-1.1676695002807769,-0.033062130212783813,0.10363683104515076,-0.994065523147583,0.9404242634773254,0.5200643539428711,-0.18876847624778748,0.020473629236221313,-0.015181630849838257,0.05871701240539551
362,-0.01814551411304517,-0.09722329155250477,-1.1721159251392212,-0.018058830872178078,0.09707020223140717,-0.9951136708259583,-0.5491998195648193,-0.2132309526205063,0.07803621143102646,0.06133275851607323,-0.04343555122613907,-0.05331772565841675
363,-0.03480144450111359,-0.13100962589534082,-1.1664534610820163,-0.0344962477684021,0.13063518702983856,-0.9908301830291748,0.005905746482312679,-0.03506994992494583,0.05933280289173126,0.0117301344871521,-0.011006265878677368,0.0020759105682373047
364,-0.05087718620714385,-0.1187617215908991,-1.151725279256054,-0.05049702152609825,0.11848273873329163,-0.9916712641716003,0.300405353307724,-0.2619750499725342,0.2140098363161087,0.028631173074245453,-0.028379589319229126,-0.04809314012527466
365,-0.0457910850485499,-0.09384358679273715,-1.134015649059741,-0.04557367041707039,0.0937059074640274,-0.9945563077926636,0.20789466798305511,0.10052885860204697,0.0483332984149456,-0.02544073387980461,0.049894556403160095,0.006732821464538574
366,-0.04133409401134077,-0.08871620740263889,-1.131927673913157,-0.04115981608629227,0.08859987556934357,-0.9952165484428406,-0.11900874227285385,-0.004810814745724201,0.007204139605164528,-0.009545139968395233,0.023918434977531433,0.023979365825653076
367,-0.038287369138855956,-0.10279130831521555,-1.1338971186696805,-0.038075968623161316,0.10261038690805435,-0.9939926266670227,-0.10711659491062164,0.1194189190864563,-0.03276534751057625,-0.008249714970588684,0.012379847466945648,-0.011149585247039795
368,-0.03505969562987585,-0.11608134048122447,-1.1415032782763244,-0.03481661528348923,0.11582081764936447,-0.9926597476005554,-0.047394849359989166,0.05134592950344086,-0.08294292539358139,0.00019441917538642883,-0.015036515891551971,-0.01501542329788208
369,-0.02863607872537167,-0.10556251854337072,-1.1423285289786194,-0.0284727830439806,0.10536657273769379,-0.9940257668495178,0.0657191351056099,0.017757607623934746,0.06257425993680954,0.008743168786168098,-0.024311885237693787,-0.008003652095794678
370,-0.025951133431082532,-0.10367166476068077,-1.1322270182567564,-0.025808902457356453,0.10348605364561081,-0.9942960143089294,-0.018347911536693573,0.0637095645070076,0.08934665471315384,-0.003747371956706047,0.0037374496459960938,0.011019647121429443
371,-0.024049964932520356,-0.10705682141710711,-1.1226289321388436,-0.023909971117973328,0.1068524420261383,-0.9939873814582825,-0.04443144425749779,0.03717648983001709,0.19197237491607666,0.012984680011868477,-0.028696924448013306,-0.00825566053390503
372,-0.019922607611630307,-0.10687664240894798,-1.107540825730173,-0.019807621836662292,0.10667329281568527,-0.9940968155860901,0.08289242535829544,0.042881160974502563,0.0756412148475647,-0.013670161366462708,0.022660203278064728,-0.0007304549217224121
373,-0.01915765034743532,-0.10470462740769632,-1.1006235214122648,-0.01905156672000885,0.10451342165470123,-0.9943409562110901,-0.06461969763040543,-0.016958028078079224,0.0608687698841095,-0.0086431335657835,8.556991815567017e-05,0.017366528511047363
374,-0.020501640649850893,-0.11429817711859837,-1.094291481238594,-0.02036644145846367,0.11404947191476822,-0.9932662844657898,-0.1547248363494873,-0.029516905546188354,0.04804908111691475,-0.011020887643098831,0.01792379468679428,-0.009037792682647705
375,-0.02741905156646044,-0.1274203354397932,-1.0992587296838618,-0.027193358168005943,0.12707582116127014,-0.9915201663970947,0.0682486966252327,0.03671759366989136,-0.08150402456521988,0.0021994654089212418,0.0052636414766311646,-0.006648719310760498
376,-0.02501343845796393,-0.13066914495083665,-1.1077794133602896,-0.024797610938549042,0.13029761612415314,-0.9911648035049438,-0.0925423726439476,-0.004335119388997555,-0.07034886628389359,0.026720218360424042,-0.013628914952278137,-0.011856436729431152
377,-0.01621705053427927,-0.13113243295940152,-1.1082082036618022,-0.016077114269137383,0.1307569295167923,-0.9912840723991394,-0.003433319739997387,0.18774589896202087,0.015822434797883034,-0.010702058672904968,-0.028019502758979797,0.033688247203826904
378,-0.004704559363455369,-0.13001360904991746,-1.1108627749634203,-0.004664836451411247,0.1296476423740387,-0.9915491342544556,-0.0475623793900013,-0.02031843736767769,-0.021171223372220993,-0.022999349981546402,-0.00435774028301239,-0.024670898914337158
379,-0.011119886791098951,-0.1386729862175312,-1.1164130569867308,-0.011012911796569824,0.13822896778583527,-0.9903390407562256,-0.09465615451335907,-0.10198379307985306,-0.14134639501571655,-0.032947659492492676,0.03398171067237854,-0.02762049436569214
380,-0.014112554351878918,-0.13778367619392543,-1.1297031736145149,-0.013978343456983566,0.13734813034534454,-0.9904242157936096,0.0635332316160202,0.09246471524238586,-0.1270340085029602,-0.010969776660203934,0.015911146998405457,0.01039797067642212
381,-0.011496192921625703,-0.1364477847860387,-1.140484457182436,-0.011389089748263359,0.13602478802204132,-0.9906399846076965,-0.025717850774526596,0.094878189265728,-0.06223670020699501,0.00984795019030571,-0.00930054485797882,0.014031708240509033
382,-0.004739205204807859,-0.13686504822507745,-1.1452913536894538,-0.00469486927613616,0.13643816113471985,-0.990637481212616,-0.02756693959236145,0.08719027042388916,-0.03580087423324585,0.011973310261964798,-0.003915563225746155,0.015234649181365967
383,-0.0002228795096991949,-0.15000959253767418,-1.1489752746432602,-0.00022037648886907846,0.14944761991500854,-0.9887695908546448,-0.11695241928100586,-0.09999942034482956,-0.16371671855449677,0.010535314679145813,0.03306274116039276,-0.06379687786102295
384,-0.005372016561867134,-0.14090751758479048,-1.1722088767409713,-0.005318748764693737,0.14044170081615448,-0.990074634552002,0.2277003526687622,-0.07358405739068985,-0.18210738897323608,0.06150160729885101,-0.025604069232940674,-0.04009193181991577
385,-0.013403487296254232,-0.12812364715532734,-1.1786456295954715,-0.01329322624951601,0.12777338922023773,-0.9917142987251282,0.08152119815349579,-0.037393830716609955,0.034334778785705566,0.052203141152858734,-0.015667080879211426,0.032104313373565674
386,-0.007789032687979539,-0.12236176749748318,-1.1744625289488135,-0.007730716839432716,0.12205665558576584,-0.9924930334091187,-0.01657034084200859,0.0037066126242280006,-0.023423463106155396,0.042917486280202866,0.02619774639606476,0.016159415245056152
387,0.0033414612212483547,-0.1200386397887446,-1.1765510247352402,0.0033174098934978247,0.11975056678056717,-0.9927984476089478,0.008936050347983837,0.08295203000307083,-0.012744449079036713,0.01891464740037918,-0.0007777959108352661,-0.0012810826301574707
388,0.012681002272410802,-0.1206508674417141,-1.1769814828280296,0.012588480487465858,0.12035837024450302,-0.9926506876945496,0.08269437402486801,0.06718557327985764,0.05721619352698326,0.01458742469549179,-0.023007288575172424,-0.02468329668045044
389,0.015146323981850462,-0.11231754162466774,-1.1658800906762714,0.01505031157284975,0.11208153516054153,-0.9935850501060486,0.00452415132895112,0.019472381100058556,0.1661788374185562,-0.032246965914964676,-0.01672936975955963,0.042428433895111084
390,0.017600844541874654,-0.113372089835547,-1.1478377778156617,0.017486948519945145,0.1131293773651123,-0.9934263825416565,-0.06922808289527893,0.0010911859571933746,0.11646909266710281,-0.040329355746507645,0.029158830642700195,-0.004025399684906006
391,0.013173574763850684,-0.10889548982517236,-1.141859808937228,0.013095165602862835,0.10868039727210999,-0.9939904808998108,0.13217981159687042,-0.021976584568619728,0.11303780972957611,0.0066802240908145905,-0.018134742975234985,-0.012677609920501709
392,0.009231738635749642,-0.10778201209756098,-1.1302456177022657,0.009178037755191326,0.10757344961166382,-0.9941547513008118,-0.026818502694368362,0.03481348976492882,0.09580568224191666,-0.0192946158349514,0.005631498992443085,0.03404128551483154
393,0.016498942095406255,-0.10773517565360104,-1.1216117771292509,0.01640254072844982,0.10752688348293304,-0.9940668344497681,-0.08204413950443268,0.0823485478758812,0.07270094752311707,-0.02131587080657482,0.006776697933673859,0.005999267101287842
394,0.020121328594541407,-0.11362462298051271,-1.1187482661154622,0.019990229979157448,0.11338029056787491,-0.9933505654335022,-0.018125202506780624,0.02375604212284088,0.00879588257521391,-0.0193188413977623,0.011436611413955688,-0.0430569052696228
395,0.013756327018283603,-0.11763016052177708,-1.1219527485684666,0.013660834170877934,0.11735907942056656,-0.99299556016922,0.047192804515361786,-0.07010149955749512,-0.04022730886936188,-0.0029796818271279335,0.003582082688808441,-0.008377671241760254
396,0.009312892973883635,-0.11751565400640664,-1.123278166368345,0.009248527698218822,0.11724536120891571,-0.9930599331855774,-0.0689210593700409,-0.0477232001721859,0.007458643056452274,0.002729620784521103,-0.00874011218547821,-0.0010196566581726074
397,0.0011036157838905992,-0.11994838285446383,-1.1227712161048442,0.001095685875043273,0.11966095864772797,-0.9928141832351685,-0.0035757841542363167,-0.08091970533132553,-0.017779765650629997,0.008090104907751083,0.004392988979816437,0.014924228191375732
398,-0.00010328373448368335,-0.12331369394672678,-1.1236808233946667,-0.00010249944898532704,0.12300141155719757,-0.9924064874649048,-0.025737013667821884,-0.05022331699728966,-0.012667028233408928,0.01807735487818718,0.0005795210599899292,-0.023783087730407715
399,-0.0007636311058945002,-0.12412852473990924,-1.1225295945495553,-0.0007577555952593684,0.12381000816822052,-0.9923056364059448,-0.05154066160321236,0.008252392522990704,0.028431663289666176,0.001978456974029541,-0.006454668939113617,0.0240439772605896
400,0.0066341638057747935,-0.13096901245765016,-1.1200144937200165,0.006577299442142248,0.13059492409229279,-0.9914140105247498,-0.020981956273317337,0.043079525232315063,0.029037248343229294,-0.0021369941532611847,0.006490051746368408,-0.014735281467437744
401,0.008690767826003544,-0.13417844403163579,-1.1166366839756607,0.00861254334449768,0.13377618789672852,-0.9909741282463074,-0.027148114517331123,-0.014811176806688309,0.03467554226517677,-0.007468130439519882,0.006360530853271484,-0.029655754566192627
402,0.0059800034417911915,-0.13439041593916468,-1.1141277160448109,0.0059260474517941475,0.13398624956607819,-0.9909654855728149,0.011035703122615814,-0.019924089312553406,-0.02532605454325676,-0.012334741652011871,0.019822344183921814,-0.010056853294372559
403,0.00870940215793922,-0.12338144698384812,-1.1209269100554538,0.00864308513700962,0.12306864559650421,-0.992360532283783,0.23827017843723297,0.13819573819637299,-0.08939643204212189,-0.00220387801527977,0.006386920809745789,0.014012753963470459
404,0.012621897587451395,-0.11807948834098655,-1.1241621787530092,0.012533674947917461,0.11780528724193573,-0.992957592010498,-0.13299092650413513,-0.057574886828660965,0.0014518098905682564,-0.0014252783730626106,-0.010688595473766327,0.009177744388580322
405,0.011880880618492585,-0.12238701471866531,-1.1250764710453236,0.011791734956204891,0.1220817118883133,-0.9924499988555908,0.0067213443107903,0.010390253737568855,-0.02246374636888504,-0.006161239929497242,-0.0012931451201438904,-0.015164077281951904
406,0.005831094365959505,-0.12506620374706529,-1.1246519238274653,0.005785517394542694,0.12474042177200317,-0.9921725392341614,-0.03403656184673309,-0.04130522534251213,0.03895184397697449,0.001401372253894806,0.003509700298309326,0.014999687671661377
407,0.0024690158660368687,-0.12800156768331528,-1.12102345191236,0.002448814222589135,0.12765231728553772,-0.991815984249115,-0.08036809414625168,-0.0002505248412489891,0.04264114797115326,-0.004997033625841141,-0.00430026650428772,0.03124469518661499
408,0.0029404941454210555,-0.1373370542602112,-1.1197969096727522,0.0029128023888915777,0.1369057297706604,-0.9905797839164734,-0.029156815260648727,-0.019279226660728455,-0.010945106856524944,0.005006507039070129,-0.0046883225440979,-0.03140813112258911
409,-0.00073432008619741,-0.1384477610835779,-1.118820291460464,-0.0007272936054505408,0.13800589740276337,-0.9904311299324036,-0.05631333589553833,-0.05800078809261322,0.02660679630935192,0.004145260900259018,-0.010503455996513367,-0.00499117374420166
410,-0.00044460396257761707,-0.13836471287195753,-1.1168119862053518,-0.00044035480823367834,0.13792364299297333,-0.9904427528381348,0.00847221352159977,0.005488618277013302,0.007975763641297817,0.0015237294137477875,0.0045323967933654785,-0.001988828182220459
411,0.006850079718062879,-0.13618443346860953,-1.117996312163881,0.006786603480577469,0.13576386868953705,-0.9907180070877075,0.09200382232666016,0.052451714873313904,-0.004843952599912882,0.00030872970819473267,0.0017025619745254517,-0.01344764232635498
412,0.0057995379313712245,-0.13897804051967433,-1.1191711540019367,0.005743586923927069,0.13853107392787933,-0.9903414249420166,-0.022597288712859154,0.011746247299015522,-0.013867749832570553,-0.014715753495693207,-0.004894614219665527,-0.0010373592376708984
413,0.0018663106444167029,-0.13914860898183712,-1.1208159112671063,0.0018482706509530544,0.13870000839233398,-0.9903327226638794,-0.03295258432626724,-0.08052654564380646,-0.03229323402047157,-0.0003529079258441925,-8.916854858398438e-05,-0.012200236320495605
414,-0.0025864341266421233,-0.13927514415737574,-1.1244074976205345,-0.002561386441811919,0.13882531225681305,-0.9903135895729065,0.020671671256422997,-0.03086557611823082,-0.041290558874607086,0.005903061479330063,0.005095586180686951,-0.014737069606781006
415,-0.007657452769121061,-0.13724949322096786,-1.1287664878562158,-0.00758536858484149,0.136818990111351,-0.9905670285224915,0.010361015796661377,-0.02651275508105755,-0.06284133344888687,0.006196819245815277,0.008688807487487793,0.014309704303741455
416,-0.003296784019097087,-0.1359110720401733,-1.1330346231791975,-0.0032663762103766203,0.13549304008483887,-0.9907729029655457,-0.04307321831583977,0.06836140900850296,-0.012886617332696915,-0.002119976794347167,-0.003550305962562561,0.01341700553894043
417,-0.0015572468088889564,-0.14253937428194352,-1.1331903738731701,-0.0015414532972499728,0.14205719530582428,-0.9898572564125061,-0.017918899655342102,0.008472980931401253,-0.021456174552440643,-0.006316818296909332,0.015978097915649414,-0.031825482845306396
418,-0.005262445902811188,-0.1409824286438153,-1.1336036813596317,-0.005210210103541613,0.14051586389541626,-0.9900647401809692,-0.006577705033123493,-0.07746852934360504,-0.0021934115793555975,0.007331185042858124,0.01266711950302124,-0.012300372123718262
419,-0.0059719872994722,-0.1403887528610475,-1.1311875688812796,-0.005913197994232178,0.13992805778980255,-0.9901440143585205,0.004070376977324486,0.010517725721001625,0.029334384948015213,0.0006946884095668793,0.0007427334785461426,0.009553194046020508
420,-0.0015938025473682816,-0.138240718750028,-1.1254517186196238,-0.0015785968862473965,0.13780082762241364,-0.9904587268829346,0.08849776536226273,0.021132580935955048,0.0834113210439682,0.017279889434576035,-0.003004699945449829,-0.04178309440612793
421,0.014764057310174378,-0.12522115102872325,-1.114467019854923,0.014647923409938812,0.1248941570520401,-0.9920619130134583,0.2631603181362152,0.3028044104576111,0.11803071200847626,-0.010695901699364185,-0.0783701166510582,-0.15796244144439697
422,0.056103247729390175,-0.07287984622738457,-1.138299958935095,0.05592497065663338,0.07281534373760223,-0.9957762360572815,0.8864676356315613,0.9435504078865051,-0.5597178339958191,-0.06883390992879868,-0.11116068065166473,-0.194912850856781
423,0.16401609542785445,0.08395731824309316,-1.2032248374856047,0.16270656883716583,-0.08385872095823288,-0.983104407787323,1.956209421157837,0.8425393104553223,-0.33640044927597046,0.08871248364448547,0.06383918225765228,-0.1654399037361145
424,0.14555972689964222,0.23249155304180985,-1.2624941758408708,0.14114384353160858,-0.23040275275707245,-0.9628047347068787,0.546746551990509,-0.7910099029541016,-0.30519798398017883,-0.024597227573394775,0.19198113679885864,0.10953330993652344
425,0.07829741416292689,0.21963094263232577,-1.3153984336331837,0.07633849233388901,-0.21786944568157196,-0.9729878306388855,-0.3549821078777313,-0.7988157272338867,-0.7114928960800171,-0.07531615346670151,0.14471881091594696,0.1046406626701355
426,0.023282344537555417,0.20240354199405952,-1.3918385702862124,0.022805003449320793,-0.2010243833065033,-0.979320764541626,0.09656830877065659,-0.6384623646736145,-0.6805802583694458,-0.07650068402290344,0.1179707944393158,0.03153634071350098
427,-0.00504534403720582,0.2264141588880928,-1.4638650058058063,-0.0049165538512170315,-0.2244846522808075,-0.9744652509689331,0.5051429867744446,-0.34688544273376465,-0.6795440316200256,-0.07189618796110153,0.1079075038433075,0.027352213859558105
428,-0.022272636511202547,0.24443745998740848,-1.537362964543971,-0.021608764305710793,-0.24201054871082306,-0.9700329899787903,-0.0804184153676033,-0.24997423589229584,-0.5148780941963196,-0.02364879846572876,0.011297658085823059,0.008897125720977783
429,-0.02638192067482653,0.2613029445038646,-1.592382846663629,-0.02548340894281864,-0.2583394944667816,-0.9657180309295654,0.36869966983795166,-0.0030926279723644257,-0.6260808110237122,0.0048992931842803955,0.11179408431053162,0.04166102409362793
430,0.0037404773783616626,0.29768661174000877,-1.677065725583822,0.0035759538877755404,-0.29330936074256897,-0.9560108780860901,0.3953523635864258,0.054462336003780365,-0.7299349904060364,-0.03490225970745087,0.027653813362121582,0.0008106827735900879
431,0.005249668651493796,0.3322217580658922,-1.735138126721891,0.004962594248354435,-0.32614409923553467,-0.9453070163726807,0.060298703610897064,-0.4243225157260895,-0.33773690462112427,0.02944597601890564,0.054980188608169556,0.04201728105545044
432,-0.04802033352845727,0.27784652462910375,-1.800899387564576,-0.04616092890501022,-0.2742854058742523,-0.9605398178100586,-1.016217827796936,-0.7486864328384399,-0.7664692401885986,-0.013149984180927277,0.10306653380393982,0.0721731185913086
433,-0.07200916234105718,0.1997118227892909,-1.8787790828906976,-0.0705169141292572,-0.19838689267635345,-0.9775837659835815,-0.8808317184448242,0.2504247725009918,-0.5502536296844482,-0.018975883722305298,0.045020803809165955,0.04066359996795654
434,-0.017849117772724507,0.16615975034884234,-1.9811885243768028,-0.017602350562810898,-0.16539621353149414,-0.9860700964927673,-0.012279734946787357,0.3441995680332184,-1.3967605829238892,0.027306945994496346,0.0004944950342178345,-0.04041910171508789
435,0.01443673918356838,0.12441367317409471,-2.129944485695529,0.014324653893709183,-0.1240929588675499,-0.9921671748161316,-0.7039136290550232,-0.013624222949147224,-1.2772034406661987,0.06917144358158112,-0.1167822778224945,-0.03865551948547363
436,0.03719543562575451,0.11047640521155427,-2.262995149532952,0.03696015849709511,-0.11025181412696838,-0.9932162165641785,0.37996870279312134,0.23337432742118835,-1.2475333213806152,0.1524014174938202,-0.09590967744588852,-0.002816438674926758
437,0.08519209127655765,0.11263599187467813,-2.3579981959518785,0.08454988896846771,-0.11239797621965408,-0.9900596141815186,-0.15682291984558105,0.3165910542011261,-0.6651418805122375,0.2171010971069336,-0.11175364255905151,-0.026099443435668945
438,0.11080984937054404,0.10314331694796851,-2.4063083918998793,0.1099955216050148,-0.10296053439378738,-0.9885848760604858,-0.09890033304691315,0.16556517779827118,-0.23459412157535553,0.0978749543428421,-0.08977323025465012,0.06785434484481812
439,0.12122825078364878,0.09132108905132083,-2.4073765696715803,0.12042763084173203,-0.09119421243667603,-0.9885245561599731,-0.1805107295513153,-0.1689617931842804,0.20026393234729767,0.12719200551509857,-0.058753907680511475,-0.018616557121276855
440,0.09958809793725241,0.08119557901596294,-2.3761589749973746,0.09909600764513016,-0.08110639452934265,-0.9917669892311096,0.032228898257017136,-0.2331051081418991,0.37792229652404785,0.17695075273513794,-0.07196977734565735,0.04335695505142212
441,0.05856340813174368,0.07746062488829782,-2.3158993674877517,0.05835443362593651,-0.07738318294286728,-0.9952922463417053,-0.03892231360077858,-0.45247459411621094,0.7072063684463501,0.1999005675315857,-0.08524498343467712,0.05785328149795532
442,0.025971146540831914,0.08620066195796473,-2.2160977760966585,0.02587180770933628,-0.0860939472913742,-0.9959510564804077,-0.11689294874668121,-0.010433252900838852,1.3079156875610352,0.13404029607772827,0.012119337916374207,-0.004018425941467285
443,-0.01927152779280114,0.08923286775205864,-2.0866512074895445,-0.01919366605579853,-0.08911449462175369,-0.9958364367485046,0.4957387149333954,-0.5463699102401733,1.311401128768921,0.10767938196659088,0.1283753514289856,0.07147425413131714
444,-0.06920986201233388,0.11610801271925414,-1.9314346045533655,-0.0686890035867691,-0.11584731191396713,-0.9908891320228577,-0.3259595036506653,-0.15800318121910095,1.712876319885254,-0.028478965163230896,0.07712050527334213,0.19518905878067017
445,-0.09727157507624616,0.0012408193379759224,-1.7613818967562378,-0.09711817651987076,-0.0012408189941197634,-0.9952720999717712,-1.2766447067260742,0.3846910297870636,1.7474780082702637,-0.13113804161548615,0.1400500237941742,0.04402393102645874
446,-0.05010676039069734,-0.07247267731336454,-1.6399417526591256,-0.04995432123541832,0.0724092498421669,-0.996123194694519,-0.28371530771255493,0.4138411581516266,0.9151908755302429,-0.15060719847679138,0.0518888384103775,-0.09967142343521118
447,-0.01686156905549977,-0.1033821975633851,-1.5502134592860453,-0.016770746558904648,0.10319814085960388,-0.9945194125175476,-0.15946358442306519,0.0884932354092598,0.9126415848731995,-0.07105883955955505,-0.018786519765853882,-0.07431298494338989
448,0.013570337846562685,-0.10285130580870126,-1.4497253810942572,0.013498210348188877,0.10267006605863571,-0.9946238994598389,0.20280857384204865,0.3489367365837097,1.0756895542144775,-0.1091402992606163,-0.03594338148832321,0.029444456100463867
449,0.03853289059012811,-0.06809270082365634,-1.3601700930064722,0.03843408077955246,0.06804009526968002,-0.9969419836997986,0.28870537877082825,0.04023361578583717,0.9157894253730774,-0.07214075326919556,-0.08026238530874252,0.04372549057006836
450,0.04011261257434922,-0.012828818955459358,-1.2484080383215719,0.04009855538606644,0.012828467413783073,-0.9991133809089661,0.916074275970459,-0.40478628873825073,1.158955454826355,-0.09622038900852203,0.06277883052825928,-0.22479408979415894
451,-0.01134852237124198,0.04438689661686998,-1.1837706602030542,-0.011337101459503174,-0.0443723239004612,-0.998950719833374,-0.02562468871474266,-0.6198779344558716,0.3063719868659973,-0.07769793272018433,0.1336362361907959,0.0459020733833313
452,-0.11833513017669521,0.003895809167848428,-1.1904603016627693,-0.11805824935436249,-0.003895799396559596,-0.9929990172386169,-0.8001351356506348,-0.941499650478363,0.0710553228855133,0.11769204586744308,-0.006648022681474686,0.16839885711669922
453,-0.16141117983855588,-0.09398369088891927,-1.1787955279761586,-0.1600019484758377,0.09384538978338242,-0.9826456308364868,-0.7063579559326172,0.053521811962127686,0.15388767421245575,0.0424635112285614,0.06347273290157318,0.017435669898986816
454,-0.10939729657416962,-0.10340222904079925,-1.1806161386790845,-0.1085960641503334,0.10321806371212006,-0.9887127876281738,0.17830553650856018,0.649546205997467,0.032106366008520126,0.061980463564395905,0.045433059334754944,-0.13686704635620117
455,-0.11529820342586453,-0.11749395572851085,-1.1941453367570123,-0.11424975842237473,0.1172238141298294,-0.9865118265151978,-0.2752312123775482,-0.5198534727096558,-0.3670707046985626,0.06531481444835663,0.07387726753950119,-0.007079482078552246
456,-0.12467768766773954,-0.13317058076234106,-1.2245610734655827,-0.12325387448072433,0.13277731835842133,-0.9834524393081665,-0.0651467815041542,0.3029477298259735,-0.21891866624355316,0.027657561004161835,-0.012110814452171326,0.007240891456604004
457,-0.1122841294565115,-0.11674171735945256,-1.236881928441559,-0.11128567159175873,0.11647672951221466,-0.986939013004303,0.01199021004140377,-0.1697416603565216,-0.057478755712509155,0.002154819667339325,-0.05588408559560776,0.011826157569885254
458,-0.13423579197065075,-0.13439264388203492,-1.2241633297048957,-0.1326262354850769,0.13398845493793488,-0.982067883014679,-0.2928013503551483,-0.1817852109670639,0.4468558132648468,-0.015612885355949402,-0.04045209288597107,0.06051337718963623
459,-0.12603865622188154,-0.186127722203562,-1.1854220919543499,-0.12353406101465225,0.18505489826202393,-0.974932849407196,-0.3858086168766022,0.04288351908326149,0.18326668441295624,-0.030488155782222748,0.09585940837860107,-0.09713441133499146
460,-0.12614867745737618,-0.20684405693314778,-1.1918003118461278,-0.12313249707221985,0.20537225902080536,-0.9709070920944214,-0.07777927815914154,-0.1309158205986023,-0.10337668657302856,0.012903012335300446,0.04084354639053345,-0.10016828775405884
461,-0.12784695513302227,-0.21651191044126658,-1.1979277682323461,-0.12452220916748047,0.21482428908348083,-0.9686819314956665,-0.06449636816978455,0.12474952638149261,0.003061189316213131,0.0032148435711860657,0.007496267557144165,-0.00954371690750122
462,-0.1168939287882705,-0.22586642793450273,-1.1942692309599061,-0.11366560310125351,0.22395086288452148,-0.9679494500160217,-0.2437041997909546,0.0838979110121727,0.12055402994155884,0.0074339210987091064,-0.033536434173583984,0.04479271173477173
463,-0.09465978577558587,-0.22826304380504966,-1.167426720370703,-0.09206675738096237,0.22628596425056458,-0.9697001576423645,0.2666788697242737,0.13045071065425873,0.37485310435295105,-0.014714241027832031,-0.010953933000564575,-0.0705830454826355
464,-0.10116449539750737,-0.22944232962135802,-1.1409888163087392,-0.09834536910057068,0.22743450105190277,-0.9688146114349365,-0.03828023374080658,-0.27514269948005676,0.13833162188529968,-0.018063940107822418,0.050733208656311035,0.0043370723724365234
465,-0.1289603889731594,-0.24413024049896756,-1.1351241432327144,-0.12478987872600555,0.24171245098114014,-0.9622902870178223,-0.07213025540113449,0.18006563186645508,0.04589208588004112,-0.025066688656806946,0.017992138862609863,0.043772220611572266
466,-0.10909216535345954,-0.24079423774992018,-1.1421406574914315,-0.10573471337556839,0.2384740263223648,-0.9653757214546204,-0.0076587628573179245,0.1944943368434906,-0.0036160002928227186,0.015906229615211487,-0.04303945600986481,-0.019502758979797363
467,-0.11164596830073525,-0.25158087313027266,-1.1370064835453313,-0.10790686309337616,0.24893537163734436,-0.9624901413917542,-0.12306197732686996,-0.07316521555185318,0.10846959799528122,-0.00690026581287384,-0.015445396304130554,0.00509268045425415
468,-0.11457689655475249,-0.26110939149434986,-1.1309219686741,-0.11045118421316147,0.25815248489379883,-0.9597696661949158,-0.07893657684326172,-0.024502389132976532,-0.0027077540289610624,-0.023154765367507935,0.013789653778076172,0.010489881038665771
469,-0.11702109419426762,-0.263417668999003,-1.1337960186777651,-0.1127268448472023,0.2603818476200104,-0.9589024782180786,-0.022578470408916473,-0.058718714863061905,-0.03540417551994324,-0.008931472897529602,-0.001257091760635376,-0.009618639945983887
470,-0.11913380768301692,-0.2706840520501935,-1.1361672676182115,-0.11452458053827286,0.267390638589859,-0.9567582607269287,-0.09246988594532013,-0.007062006276100874,0.0340801365673542,-0.011116288602352142,-0.004695326089859009,-0.010557413101196289
471,-0.11945539419841773,-0.28145301361921654,-1.1373898809927872,-0.11448244750499725,0.27775177359580994,-0.95380699634552,-0.01587006077170372,0.05506850406527519,-0.007938570342957973,-0.020527318120002747,0.0011178255081176758,-0.04245460033416748
472,-0.12354158187063381,-0.2771964140424033,-1.1409782856947597,-0.11852353066205978,0.27366015315055847,-0.9544958472251892,0.07915563136339188,-0.09571070969104767,-0.019208155572414398,0.019326135516166687,0.006506472826004028,-0.07646423578262329
473,-0.12767286969507285,-0.26382849445750367,-1.140870071979004,-0.12292063981294632,0.2607784867286682,-0.9575411677360535,0.1711156666278839,0.013500584289431572,-0.017933031544089317,0.033504143357276917,0.030343949794769287,0.010763823986053467
474,-0.12271820706218216,-0.25869562072075897,-1.1403999749773626,-0.11833715438842773,0.25581979751586914,-0.9594542980194092,0.06140981614589691,0.05168123170733452,-0.005918029695749283,0.020925045013427734,0.02988576889038086,0.03463435173034668
475,-0.10864921084947897,-0.2596855920782184,-1.1375651545306695,-0.10479981452226639,0.25677669048309326,-0.960771918296814,-0.06432842463254929,0.12009282410144806,0.05246428772807121,-0.001477651298046112,0.005888074636459351,0.01695483922958374
476,-0.10107507485337759,-0.2676155302576416,-1.1293002846302638,-0.09731133282184601,0.2644326090812683,-0.9594821333885193,-0.05225552245974541,-0.023943966254591942,0.08419904857873917,-0.023980773985385895,0.013155251741409302,-0.03630644083023071
477,-0.10628359080250763,-0.2690387600097,-1.1272812836363844,-0.10226744413375854,0.26580488681793213,-0.9585870504379272,0.02892785519361496,-0.005922708660364151,-0.029144179075956345,-0.023358166217803955,0.01813066005706787,0.004195570945739746
478,-0.11325450910576244,-0.2698944747120525,-1.1299736114900591,-0.10892139375209808,0.26662972569465637,-0.9576244950294495,-0.008216324262320995,-0.0653294026851654,0.017782283946871758,0.012485846877098083,-0.005597621202468872,-0.03222841024398804
479,-0.11657289607093768,-0.2630608207888622,-1.1350157305005457,-0.11230785399675369,0.26003730297088623,-0.9590451121330261,0.16804175078868866,0.06710472702980042,-0.14611557126045227,0.015994392335414886,0.01648247241973877,-0.00010704994201660156
480,-0.10564715407180511,-0.24667179525740895,-1.1457391234068006,-0.10225879400968552,0.24417786300182343,-0.9643237590789795,0.06740902364253998,0.09654264152050018,-0.05372534319758415,0.027368664741516113,-0.01657775044441223,0.003615140914916992
481,-0.09348379202961042,-0.24461901440159972,-1.1406374862689643,-0.09056869894266129,0.24218669533729553,-0.9659932255744934,0.008519873023033142,0.14244595170021057,0.14510440826416016,-0.011482089757919312,-0.008788257837295532,-0.05384320020675659
