,attitude.roll,attitude.pitch,attitude.yaw,gravity.x,gravity.y,gravity.z,rotationRate.x,rotationRate.y,rotationRate.z,userAcceleration.x,userAcceleration.y,userAcceleration.z
0,-0.022764274743319674,0.20448295374596737,-2.704006275158914,-0.022288082167506218,-0.20306091010570526,-0.9789124131202698,0.040607452392578125,0.003643942065536976,-0.011928746476769447,0.02054857835173607,0.009732052683830261,0.007766783237457275
1,0.22932009428423514,0.209780668416355,2.2777060145813968,0.2223319411277771,-0.2082453817129135,-0.9524717330932617,-0.20678845047950745,0.3649075925350189,-0.06546866148710251,-0.1283378005027771,-0.025580301880836487,0.06521892547607422
2,0.23606897920070208,0.21814071652288541,2.2379427347484215,0.2283397912979126,-0.21641477942466736,-0.9492236971855164,0.6332235932350159,-0.3249049782752991,-0.5637370347976685,-0.1201854944229126,-0.29515141248703003,-0.13827019929885864
3,0.22614182718840803,0.21886023952969677,2.1998818513908875,0.2188706398010254,-0.21711719036102295,-0.9512916207313538,-0.21860963106155396,-0.007685847580432892,-0.48096615076065063,-0.02593851089477539,0.04539477825164795,-0.02919238805770874
4,0.2418794196549431,0.21593241080021194,2.1505561588572277,0.2339652180671692,-0.21425828337669373,-0.9483426213264465,0.44644826650619507,0.08740432560443878,-0.9183915257453918,0.03193442523479462,0.059747785329818726,0.028130829334259033
5,0.2515191176297635,0.2527895125902889,2.089822171697719,0.24096593260765076,-0.2501057982444763,-0.9377539753913879,0.49830693006515503,-0.2880490720272064,-0.7510993480682373,0.06372156739234924,0.08248800039291382,0.02332526445388794
6,0.25508165772536506,0.2601145075089433,2.028641547235057,0.24383635818958282,-0.2571912109851837,-0.9350917339324951,0.23151235282421112,-0.018696926534175873,-0.8518385291099548,0.12496855854988098,0.07004213333129883,0.04756426811218262
7,0.263078907326345,0.2644665558365814,1.9837459942935662,0.2510131895542145,-0.2613944113254547,-0.9320221543312073,0.08863744139671326,-0.2363044172525406,-0.6352381110191345,0.12182003259658813,-0.0133705735206604,0.09234631061553955
8,0.2533073353385552,0.25092906295513917,1.9574270784542778,0.242758646607399,-0.24830403923988342,-0.937770426273346,0.19041621685028076,-0.1596577763557434,-0.3668299615383148,0.1462031602859497,0.010648384690284729,0.013499796390533447
9,0.22667760345518936,0.2528084276990106,1.9596379476130836,0.21759769320487976,-0.25012409687042236,-0.9434453845024109,-0.03320755809545517,-0.46497011184692383,-0.00045982468873262405,0.11901119351387024,-0.06208598613739014,0.01690119504928589
10,0.1883062500697977,0.2571633249991457,1.9940929088861168,0.181039497256279,-0.25433817505836487,-0.950019359588623,0.014768329448997974,-0.3024684190750122,0.2742309868335724,0.10716851055622101,-0.040415823459625244,0.027961254119873047
11,0.1645228065576319,0.2784280242430997,2.041538161538991,0.15747416019439697,-0.27484455704689026,-0.9485053420066833,0.16294896602630615,-0.10022001713514328,0.39022576808929443,0.08016622066497803,-0.04401835799217224,0.07255929708480835
12,0.13343048419804895,0.28783767558451334,2.1023528647856895,0.12756185233592987,-0.28387951850891113,-0.9503369927406311,-0.021885395050048828,-0.17718173563480377,0.4323943853378296,0.07335063815116882,-0.06749984622001648,0.045750200748443604
13,0.10115804034452092,0.29973910548496463,2.16411773460807,0.096483014523983,-0.2952709496021271,-0.9505293965339661,0.018245939165353775,-0.23040242493152618,0.43151307106018066,0.0357038751244545,-0.10547062754631042,-0.0061356425285339355
14,0.07504296965997131,0.28076585790647024,2.2194250682816232,0.07203689217567444,-0.2770915925502777,-0.9581393003463745,-0.0982610210776329,-0.13460755348205566,0.36468759179115295,0.015609592199325562,0.05568656325340271,-0.11380589008331299
15,0.04700687084627228,0.2852387924005535,2.262885374350493,0.0450909249484539,-0.2813866138458252,-0.9585344791412354,0.20658473670482635,-0.26750925183296204,0.20008604228496552,-0.007401712238788605,0.1087791919708252,-0.0049817562103271484
16,0.019431695129828765,0.2926360248354062,2.2740975156904026,0.018604420125484467,-0.28847718238830566,-0.9573060274124146,0.026021461933851242,-0.30861878395080566,-0.1114022508263588,-0.03480925410985947,0.11579346656799316,0.02809154987335205
17,-0.005140884251467137,0.2892597260993962,2.280430262925918,-0.004927285946905613,-0.28524279594421387,-0.9584426283836365,-0.1950354427099228,-0.27031633257865906,0.03338589891791344,-0.05696236342191696,0.04996749758720398,0.007713258266448975
18,-0.024849710138409198,0.26852000311668256,2.3014761631592577,-0.023956745862960815,-0.2653047740459442,-0.9638669490814209,-0.07627081125974655,-0.022104676812887192,0.21667052805423737,0.041367024183273315,0.053512781858444214,-0.0581514835357666
19,-0.03027724501801564,0.27344574030209895,2.3293541452795745,-0.02914787270128727,-0.2700507640838623,-0.9624047875404358,0.07660122960805893,-0.08078832179307938,0.20664814114570618,0.03602959215641022,0.023911237716674805,-0.01896423101425171
20,-0.03458419466307142,0.271868583036873,2.3611823752075636,-0.03330730274319649,-0.268531858921051,-0.9626948237419128,0.0347488597035408,-0.0010801427997648716,0.3216850161552429,-0.029055364429950714,0.034599363803863525,0.011416137218475342
21,-0.039325515693303115,0.2731054492454037,2.4010124512156747,-0.0378582701086998,-0.2697230875492096,-0.9621934294700623,-0.05099235847592354,0.09127351641654968,0.2936936318874359,-0.0186755433678627,0.008431583642959595,0.006688058376312256
22,-0.04788516331826849,0.2641427376415484,2.4284160125695577,-0.04620668292045593,-0.26108184456825256,-0.9642101526260376,-0.004682760685682297,-0.13179859519004822,0.1433630734682083,-0.06156614422798157,0.0031930506229400635,-0.018318533897399902
23,-0.05420152864627135,0.2564640943034986,2.431387401382733,-0.05240308865904808,-0.2536619007587433,-0.9658724069595337,-0.14550571143627167,0.031253915280103683,-0.1840340495109558,-0.06689012050628662,0.004333317279815674,0.05478543043136597
24,-0.06693598158113587,0.24054256343440228,2.4182336086787037,-0.0649602860212326,-0.23822960257530212,-0.96903395652771,-0.18651892244815826,-0.14318127930164337,-0.1059911698102951,-0.024715617299079895,0.016305774450302124,0.02114272117614746
25,-0.07932604616278326,0.21658956686910466,2.400182755782823,-0.07739145308732986,-0.21490012109279633,-0.973564863204956,-0.352146714925766,-0.24354061484336853,-0.2824538052082062,-0.036301784217357635,0.0019637346267700195,0.031517744064331055
26,-0.08646903113457939,0.1718404438783901,2.3637489808915433,-0.08508936315774918,-0.17099598050117493,-0.9815906286239624,-0.47638052701950073,-0.03777444362640381,-0.2967335283756256,0.022940322756767273,0.03928211331367493,-0.0434337854385376
27,-0.0904799884887244,0.1378697298189948,2.32311631551995,-0.08949919044971466,-0.13743336498737335,-0.9864593148231506,-0.5196139812469482,-0.11191623657941818,-0.517135500907898,-0.04328279197216034,-0.021105438470840454,-0.017004430294036865
28,-0.09532447266917986,0.10343479216607379,2.2668710635216227,-0.09467147290706635,-0.10325045138597488,-0.9901397228240967,-0.3226120173931122,-0.1361081302165985,-0.6194419264793396,-0.08606888353824615,-0.02472500503063202,-0.05466008186340332
29,-0.10796422376288463,0.09564612831286366,2.190906023313754,-0.10726209729909897,-0.09550036489963531,-0.9896335005760193,-0.08402957022190094,-0.21609094738960266,-0.908602237701416,-0.10721543431282043,0.008876226842403412,-0.0016994476318359375
30,-0.1148600212675538,0.09644993707604031,2.0993384981531933,-0.11407497525215149,-0.09630046784877777,-0.9887937903404236,-0.021789804100990295,-0.01634368859231472,-0.8958719968795776,-0.06036350131034851,0.03337322175502777,0.020440518856048584
31,-0.10295494569263249,0.09927283763796511,2.006597885517242,-0.10226715356111526,-0.09910985827445984,-0.9898073673248291,-0.2084483653306961,-0.17616714537143707,-0.6785492300987244,0.03316010534763336,0.012974001467227936,0.020111382007598877
32,-0.04783984352097809,0.05759609935550604,1.9157369311020425,-0.04774229973554611,-0.05756426230072975,-0.9971995949745178,-0.722387969493866,1.0395113229751587,-1.1104544401168823,-0.1372705101966858,-0.006766792386770248,-0.04619640111923218
33,-0.02785140247229108,0.06516989955049136,1.8517678515567235,-0.027788685634732246,-0.0651237815618515,-0.9974901676177979,0.6687847375869751,-0.49139875173568726,-0.3903317153453827,0.025927113369107246,0.0048668235540390015,-0.05649542808532715
34,-0.09108510526308543,0.10407520769150316,1.8368827562514873,-0.09046703577041626,-0.10388742387294769,-0.9904661178588867,0.11902749538421631,-0.533653199672699,-0.016968483105301857,0.05389171838760376,0.026754245162010193,0.01803874969482422
35,-0.0979004565747945,0.11169498310183372,1.8743785849476824,-0.09713505953550339,-0.11146288365125656,-0.9890100359916687,-0.05486781522631645,0.18368744850158691,0.9143163561820984,0.09357976913452148,-0.06895703822374344,0.0316430926322937
36,-0.20703154556927109,0.14506970483661688,2.0482645088115,-0.20339655876159668,-0.14456140995025635,-0.9683655500411987,0.7971880435943604,-1.284303069114685,1.7863714694976807,-0.15126347541809082,0.08061181008815765,0.06885993480682373
37,-0.3170234025946631,0.13115003097682013,2.1262711292102807,-0.30906251072883606,-0.1307743787765503,-0.9420076608657837,-0.5441794991493225,-0.6362708806991577,0.1370224505662918,0.16611817479133606,0.04823958873748779,0.11566793918609619
38,-0.2970496567688875,0.003682730948214933,2.0435236709020375,-0.29269838333129883,-0.003682722570374608,-0.9561977386474609,-1.378422498703003,0.8148313760757446,-0.7910687923431396,0.38051271438598633,-0.08324658870697021,-0.18447303771972656
39,-0.17270837851160176,-0.034474767555382535,1.9916105395049808,-0.17174895107746124,0.03446793928742409,-0.9845376014709473,-0.09928359091281891,1.8839648962020874,0.27305683493614197,0.37188321352005005,0.008439771831035614,-0.031590938568115234
40,-0.03617338851840487,-0.09338794875264209,2.0634096365006456,-0.03600791096687317,0.0932522639632225,-0.9949911832809448,-0.8444457054138184,0.44444185495376587,1.1139328479766846,0.22509482502937317,0.11556426435709,-0.09703457355499268
41,-0.006697213180127113,-0.1290404565522196,2.2500492798717713,-0.006641481537371874,0.12868264317512512,-0.9916635751724243,0.188368022441864,-0.056831054389476776,2.6126649379730225,0.05550012364983559,0.17061851918697357,-0.06294763088226318
42,0.02697282944110422,-0.09791800085303198,2.4925681422033574,0.026840370148420334,0.0977616012096405,-0.99484783411026,0.29143452644348145,-0.026575259864330292,1.8359841108322144,0.018569784238934517,0.0524001345038414,0.033086419105529785
43,0.025602634858180977,-0.061207798699785675,2.6395836440177174,0.025551898404955864,0.0611695870757103,-0.9978002905845642,0.2963387370109558,-0.037135425955057144,1.1473883390426636,0.08461655676364899,0.0589018240571022,0.05460876226425171
44,0.03341366097016168,-0.04515745341187097,2.7567687508534835,0.0333733856678009,0.04514210671186447,-0.9984229803085327,0.0534101277589798,-0.0240288395434618,1.1893000602722168,0.0582861602306366,0.14019113779067993,0.060282111167907715
45,0.035645759810053176,-0.02515554574277889,2.909918249207154,0.035626936703920364,0.025152891874313354,-0.9990485906600952,0.2678159475326538,-0.09533578157424927,1.877841591835022,-0.039960432797670364,0.18248870968818665,0.058252692222595215
46,0.05721026793876416,-0.022896507120375116,3.106105772166284,0.05716407671570778,0.02289450727403164,-0.9981022477149963,-0.5971398949623108,0.031297340989112854,1.8599190711975098,-0.12181557714939117,0.1592954397201538,-0.05162608623504639
47,0.02925512681290481,-0.034809419215830334,-2.9889120100034243,0.029233234003186226,0.0348023883998394,-0.9989665746688843,0.19198141992092133,-0.43289852142333984,1.8473083972930908,-0.11927534639835358,0.0468931682407856,-0.07070505619049072
48,0.03795207133750189,-0.0021924932692669354,-2.838627444843435,0.03794287145137787,0.0021924914326518774,-0.9992775321006775,0.32416921854019165,0.43976500630378723,1.3319026231765747,-0.06675146520137787,0.04218006879091263,0.06978839635848999
49,0.07639855562538306,-0.006238699313374636,-2.717769060961596,0.0763227716088295,0.0062386589124798775,-0.9970636367797852,-0.5035317540168762,0.14231902360916138,1.0411200523376465,0.0236528143286705,0.026460926979780197,0.052742958068847656
50,0.0823707047340277,-0.012006400218299726,-2.6242026732339596,0.08227165788412094,0.012006111443042755,-0.9965376257896423,0.32387399673461914,0.11300104856491089,0.7938252687454224,0.009021669626235962,0.025362664833664894,-0.07852035760879517
51,0.09328583090305735,0.007327831893088154,-2.592580400497362,0.09314808994531631,-0.00732776615768671,-0.9956253170967102,-0.02742522582411766,0.13375531136989594,0.18425466120243073,0.036505840718746185,-0.010402947664260864,0.049244701862335205
52,0.06967713804885003,-0.015944118074190296,-2.5698564137058884,0.06961192190647125,0.015943443402647972,-0.9974467158317566,-0.2882041037082672,-0.7949175238609314,0.2719854712486267,0.03747425228357315,-0.12058822065591812,-0.05823254585266113
53,0.02344158928932512,0.000766939922884177,-2.52677325081431,0.02343943528831005,-0.000766939832828939,-0.9997249841690063,0.41710805892944336,-0.1793466955423355,0.2946430742740631,-0.013109235092997551,-0.15247708559036255,-0.008926749229431152
54,0.039266045859243065,0.04368421949924563,-2.5500342295010463,0.03921850770711899,-0.043670326471328735,-0.9982759356498718,0.4662655293941498,0.4048212170600891,-0.6705231666564941,0.03733484074473381,-0.12579378485679626,0.10765093564987183
55,0.07202475385434895,0.08047074590955632,-2.6453803059665963,0.0717296227812767,-0.08038392663002014,-0.9941797256469727,0.06350546330213547,0.31424862146377563,-0.8561237454414368,0.1031818762421608,0.05950990319252014,0.056588172912597656
56,0.1007152616155816,0.08372734750234342,-2.6873341941032063,0.10019285976886749,-0.0836295560002327,-0.9914471507072449,0.608971118927002,0.00671148207038641,-0.22394803166389465,-0.10153564065694809,0.1492270976305008,-0.14936089515686035
57,0.07507236178006607,0.10103047411627206,-2.6919073671637777,0.07461941242218018,-0.10085868835449219,-0.9920985102653503,-0.41912558674812317,0.07930348813533783,-0.07395926117897034,-0.23401272296905518,-0.037004463374614716,0.07173418998718262
58,0.04949743788263491,0.06606050460062139,-2.7099905261059254,0.04936930909752846,-0.06601246446371078,-0.9965966939926147,-0.25102272629737854,-0.636812686920166,-0.19952481985092163,-0.19373270869255066,-0.04673471301794052,0.05021613836288452
59,-0.017848078073485815,0.05491819473456728,-2.730075311891318,-0.017820224165916443,-0.05489059165120125,-0.9983333349227905,0.12926077842712402,-0.0819552019238472,0.047133926302194595,-0.14715780317783356,-0.09665969759225845,0.06683003902435303
60,-0.06274015612571043,0.1083599620068979,-2.7031108731330225,-0.06233126297593117,-0.10814803093671799,-0.9921787977218628,0.7440786957740784,-0.6961420774459839,0.6512203216552734,-0.08624356985092163,-0.14429336786270142,0.21605581045150757
61,-0.1208165166486471,0.1382627061849345,-2.6403501253928483,-0.1193726509809494,-0.13782261312007904,-0.9832370281219482,-0.01453225314617157,-0.8828209042549133,0.758380115032196,-0.007931411266326904,-0.06872035562992096,0.015250027179718018
62,-0.20587957364470494,0.1573057359949693,-2.5662105588515014,-0.20190414786338806,-0.15665778517723083,-0.9667952656745911,0.8342797756195068,-0.14410817623138428,0.6984786987304688,0.07501205801963806,0.06895026564598083,-0.16736000776290894
63,-0.16758810876749214,0.15678488031420007,-2.5199843940815354,-0.16475877165794373,-0.15614333748817444,-0.9738962054252625,-0.7603093981742859,0.09936472028493881,0.6963480114936829,0.11864671111106873,0.18559280037879944,-0.07938748598098755
64,-0.1987394186342943,0.07995778447768462,-2.453195022493469,-0.19680292904376984,-0.07987261563539505,-0.9771842360496521,-0.3221307694911957,0.4322582185268402,0.5421142578125,0.044642284512519836,0.09093523025512695,-0.2057839035987854
65,-0.08659091470390172,0.016732666654831814,-2.4633559109841623,-0.08647064119577408,-0.016731886193156242,-0.9961138963699341,-0.8836687207221985,1.5689128637313843,0.06949739903211594,-0.08421417325735092,0.1297384798526764,-0.000681757926940918
66,-0.04668574749082456,-0.01428959377023126,-2.4217030283569896,-0.046664025634527206,0.01428910717368126,-0.9988084435462952,0.1101716160774231,-1.0128716230392456,0.14083442091941833,-0.094342440366745,0.29950788617134094,0.050383150577545166
67,-0.015445669926986037,-0.026610826385196348,-2.39049226732111,-0.015439587645232677,0.026607686653733253,-0.9995267391204834,0.23383356630802155,0.6474093198776245,0.7949274182319641,0.003125743940472603,0.1378973126411438,-0.1030733585357666
68,-0.028195901052480425,-0.015435647670043174,-2.3698460335677343,-0.028188806027173996,0.015435034409165382,-0.9994834661483765,0.08896884322166443,0.004583785310387611,-0.21696501970291138,0.1060849279165268,0.13342970609664917,0.043169379234313965
69,-0.0035110480820081088,0.014538668885959257,-2.38423209571277,-0.003510669805109501,-0.014538156799972057,-0.9998881816864014,0.46943360567092896,0.26786383986473083,-0.0071072508580982685,0.06805534660816193,-0.016070973128080368,0.023508787155151367
70,-0.020554059684752518,0.03242766105607951,-2.3787420616767014,-0.020541807636618614,-0.03242197632789612,-0.9992631673812866,0.313499391078949,-0.18122608959674835,-0.10308317095041275,-0.11133990436792374,0.09034433960914612,-0.01729261875152588
71,-0.040812603983775314,0.04930140818138198,-2.3871620153704605,-0.04075169935822487,-0.04928143694996834,-0.9979532361030579,0.01288376934826374,-0.16864703595638275,-0.019427938386797905,0.03066563978791237,-0.04718462750315666,0.007261097431182861
72,-0.05383194789240498,0.05535513136156155,-2.392392322856085,-0.0537235364317894,-0.05532686412334442,-0.9970219135284424,-0.09868577122688293,0.002269444987177849,-0.09819786250591278,-0.018450535833835602,-0.008485391736030579,0.007031679153442383
73,-0.04644756386426368,0.04272480844788119,-2.389668732610922,-0.04638849198818207,-0.04271181300282478,-0.9980099201202393,-0.12856711447238922,0.17813140153884888,0.0906262993812561,-0.007398735731840134,-0.022977270185947418,0.005074799060821533
74,-0.03707311821360901,0.035324359034831936,-2.385641388182918,-0.03704150393605232,-0.035317014902830124,-0.9986894726753235,-0.1492735892534256,0.1407490074634552,0.012261413969099522,-0.0023719482123851776,0.034523554146289825,-0.025480449199676514
75,-0.028918084679976187,0.009779632401921864,-2.377777617895257,-0.02891267091035843,-0.009779476560652256,-0.9995341300964355,-0.19607461988925934,0.08987414836883545,0.15297532081604004,-0.001635424792766571,-0.03820941597223282,0.013053417205810547
76,-0.025183793913540444,0.012832998741075954,-2.36668494252364,-0.02517905831336975,-0.012832646258175373,-0.9996005892753601,0.14264409244060516,0.07835762202739716,0.11597500741481781,-0.001111835241317749,0.0785827711224556,-0.008730709552764893
77,-0.01384506960078935,0.046656699849125786,-2.357365267018089,-0.013829560950398445,-0.04663977399468422,-0.9988160133361816,0.190389484167099,0.15252263844013214,0.06414204835891724,0.032201141119003296,0.03408179059624672,-0.006005764007568359
78,0.0705518511234304,0.055873615694527694,-2.3680917214760133,0.07038333266973495,-0.05584454908967018,-0.9959555864334106,-1.1771738529205322,0.8531824350357056,0.2725456655025482,-0.12903812527656555,-0.21831011772155762,-0.10958939790725708
79,0.30737992081222454,-0.17856014584425867,-2.2270390166695355,0.2977518141269684,0.1776127964258194,-0.9379752278327942,-1.690287709236145,1.649982213973999,1.7716807126998901,-0.1651681661605835,-0.024261951446533203,-0.36077654361724854
80,0.36926459837970416,-0.027486974149984838,-2.0269229049512067,0.3607933521270752,0.027483513578772545,-0.9322407245635986,2.779268741607666,-0.5863474607467651,2.876974105834961,-0.3163902759552002,0.0391974002122879,-0.03187060356140137
81,0.386187156415649,0.2958185413111778,-1.9671301598636275,0.3602985143661499,-0.29152292013168335,-0.886114776134491,0.12547355890274048,0.012693580240011215,0.1996079385280609,-0.0890125036239624,-0.13364794850349426,0.47359341382980347
82,0.3955815107966243,0.2736717919441539,-1.9947276325624326,0.37100425362586975,-0.27026841044425964,-0.8884316682815552,0.12105786055326462,0.05755622684955597,-0.3607269525527954,0.002866595983505249,-0.008433401584625244,0.24608242511749268
83,0.3098901956661628,0.17336552384118326,-2.0169223125475777,0.30038273334503174,-0.17249839007854462,-0.9380909204483032,-1.6703404188156128,-3.179746389389038,-0.6332660913467407,0.18229854106903076,0.04543845355510712,0.06582224369049072
84,0.16397978191167173,0.15596653083027007,-2.0907765327676477,0.16126437485218048,-0.1553349643945694,-0.9746100902557373,1.4721341133117676,-0.03508611023426056,-0.3352167010307312,0.28952598571777344,0.17723135650157928,-0.05227583646774292
85,0.16146601272580102,0.19144909446719413,-2.139889569762561,0.15782806277275085,-0.1902817189693451,-0.9689598083496094,-0.49707815051078796,0.610539972782135,-0.8440777659416199,0.07933928072452545,0.1527451127767563,-0.01008981466293335
86,0.2570705434993043,0.11181841575273364,-2.191298072364068,0.2526606321334839,-0.11158554255962372,-0.9610989689826965,-0.8244467973709106,0.458951473236084,-0.5413609147071838,0.05854237079620361,0.019681856036186218,0.03678256273269653
87,0.25639155563346316,0.08483561614285437,-2.2067582881822827,0.252679705619812,-0.08473388850688934,-0.9638324975967407,-0.2371688038110733,-0.36532825231552124,0.37814638018608093,-0.1384982168674469,-0.02744872123003006,0.098704993724823
88,0.23188547188504377,0.0649101831491345,-2.1476197067330194,0.2293289750814438,-0.0648646131157875,-0.9711852669715881,0.022565513849258423,0.7987431287765503,0.4865577518939972,-0.2189072072505951,-0.1086430773139,0.14437252283096313
89,0.2402944399448683,0.021821023657795858,-2.1885897196613042,0.23793195188045502,-0.02181929163634777,-0.9710367321968079,-0.004230635240674019,-0.26548290252685547,-0.700128972530365,0.05697466433048248,-0.18850785493850708,-0.12497156858444214
90,0.21620867349332054,0.028464691873136397,-2.275102410480667,0.2144412100315094,-0.028460849076509476,-0.9763221740722656,0.569553554058075,0.2298988699913025,-0.9336044192314148,-0.027643129229545593,0.007678374648094177,0.14670181274414062
91,0.14921128467543937,0.05411287770811147,-2.357348313902806,0.1484406292438507,-0.05408647283911705,-0.9874411821365356,1.5841339826583862,-1.0203454494476318,0.25417593121528625,-0.03554084897041321,0.05813005194067955,-0.10369956493377686
92,0.1593401412331294,0.0645331987494008,-2.3234943964989494,0.15833647549152374,-0.06448841840028763,-0.985276997089386,-0.4912355840206146,-0.06291715800762177,0.334795206785202,0.023548290133476257,0.03192616254091263,-0.13303959369659424
93,0.13784126697084123,0.20389309692303234,-2.3396201264149963,0.13455893099308014,-0.20248331129550934,-0.9699971079826355,1.121442198753357,0.21074612438678741,0.7891411185264587,-0.028495103120803833,0.04685892164707184,0.2594258785247803
94,0.1076987266565363,0.2991613178294003,-2.2720676728009557,0.1027163416147232,-0.2947188913822174,-0.9500474333763123,1.2697527408599854,-0.6701306700706482,0.4728441536426544,0.0179959237575531,0.08771815896034241,-0.04287242889404297
95,0.06202171935273483,0.36137441020907607,-2.304837806708292,0.057978659868240356,-0.353560209274292,-0.9336132407188416,0.5900202989578247,-0.2401166558265686,-0.6808143854141235,-0.052683860063552856,-0.2200939655303955,-0.17673832178115845
96,0.08578219813195198,0.37849149169356755,-2.348290835430424,0.07961307466030121,-0.3695191442966461,-0.9258063435554504,-0.38439592719078064,0.30987218022346497,0.057780440896749496,0.05434383451938629,0.013287454843521118,0.10756903886795044
97,0.09067311784009165,0.36359033074244823,-2.3168959063746133,0.08462937921285629,-0.35563212633132935,-0.9307866096496582,0.023181982338428497,-0.012490145862102509,0.0018637103494256735,0.1007343977689743,0.036433517932891846,-0.1203150749206543
98,0.08733854593892361,0.33851884918978,-2.299248690757554,0.08227717876434326,-0.3320903778076172,-0.9396523237228394,-0.2934549152851105,0.08504726737737656,-0.13805390894412994,-0.01584041863679886,-0.022005081176757812,-0.035018086433410645
99,0.09653431003168535,0.28906922009955205,-2.332560696091976,0.0923854187130928,-0.28506019711494446,-0.9540469646453857,-0.9707679748535156,0.029799941927194595,-0.28141406178474426,0.008444644510746002,-0.09976646304130554,0.21404153108596802
100,0.08803620024627684,0.2584595207914922,-2.327885182641053,0.08500216901302338,-0.2555915415287018,-0.963040828704834,-0.40364333987236023,-0.22061502933502197,0.055299777537584305,-0.0067398399114608765,-0.029503673315048218,-0.052172183990478516
101,0.0789457892452324,0.25993621164124836,-2.332198045458636,0.0762144923210144,-0.25701889395713806,-0.963396430015564,0.34231653809547424,-0.1446843445301056,-0.07038897275924683,-0.022961318492889404,0.04895004630088806,-0.021131157875061035
102,0.06849966071299167,0.2623254951741698,-2.332959709025144,0.06610453128814697,-0.2593272030353546,-0.963524580001831,0.08390188962221146,-0.500674307346344,0.07045729458332062,0.021480925381183624,0.013401269912719727,-0.052100419998168945
103,0.036843415559500506,0.2937746036743943,-2.339983375484474,0.03525698184967041,-0.28956717252731323,-0.9565081000328064,0.5246719717979431,0.10854018479585648,0.059160295873880386,-0.006188984960317612,0.05308648943901062,-0.020954608917236328
104,0.032530479837318375,0.3391079599706782,-2.3395698876786537,0.03067251667380333,-0.332645982503891,-0.9425528049468994,0.2849688231945038,0.18992212414741516,-0.14901986718177795,-0.04249807447195053,0.03821241855621338,0.09686499834060669
105,0.028719335923874614,0.34587478057498844,-2.360770387712383,0.0270148403942585,-0.339019775390625,-0.9403913021087646,0.025390982627868652,-0.28684180974960327,-0.046122919768095016,0.026314616203308105,-0.0037994384765625,-0.02300286293029785
106,0.032252985381538306,0.36452893312514845,-2.3585668312512325,0.03012847527861595,-0.3565092086791992,-0.9338058829307556,0.21284477412700653,0.3535133898258209,0.09889951348304749,-0.0200881976634264,0.009310752153396606,-0.02794027328491211
107,0.05001449613467314,0.3772366786266163,-2.3535037200543556,0.04647839814424515,-0.36835286021232605,-0.9285235404968262,-0.06711982190608978,-0.0004768720827996731,-0.006528047379106283,0.016830310225486755,0.01759907603263855,0.06023740768432617
108,0.03763600501619246,0.35850244536857845,-2.349347781916843,0.03523491322994232,-0.350872278213501,-0.9357602000236511,-0.18699491024017334,-0.11589492857456207,0.006810933351516724,-0.010927662253379822,0.0012629032135009766,0.006316840648651123
109,0.028062420657871564,0.3479182973779391,-2.3472472460843954,0.026377584785223007,-0.34094157814979553,-0.9397143721580505,-0.0891820415854454,0.01561275590211153,0.059583667665719986,-0.015574358403682709,0.008071064949035645,0.002946794033050537
110,0.023943986367062756,0.349033145203189,-2.3494746786618945,0.022498104721307755,-0.3419893980026245,-0.9394344687461853,0.01986309327185154,-0.028101984411478043,-0.00434692669659853,-0.002356506884098053,0.0079745352268219,0.008922994136810303
111,0.02572688148127745,0.3474004878767138,-2.3468900492413654,0.02418731153011322,-0.34045472741127014,-0.9399497509002686,0.0698789656162262,0.04173871874809265,-0.01429716031998396,-0.005037523806095123,0.004761397838592529,-0.016944169998168945
112,0.020404196120707794,0.35249380343582404,-2.350603548527924,0.019148308783769608,-0.3452393412590027,-0.9383193254470825,-0.03575585037469864,-0.12855392694473267,-0.016455385833978653,-0.000715695321559906,0.011300742626190186,0.02059471607208252
113,0.011878556958437205,0.3391064438435505,-2.351661892773589,0.011201837100088596,-0.3326445519924164,-0.9429857730865479,-0.0003184955567121506,-0.028514938428997993,-0.02396523393690586,-0.01762578636407852,0.006823629140853882,-0.04482245445251465
114,0.01568955903967579,0.3419141217017167,-2.349690434982036,0.014780756086111069,-0.3352910280227661,-0.9419986605644226,0.023483991622924805,0.04927532747387886,0.03869376704096794,-0.0037791654467582703,0.007257580757141113,0.014676272869110107
115,0.016353652690596857,0.34224402328390735,-2.3468684396620034,0.015404518693685532,-0.335601806640625,-0.9418779611587524,0.06728266924619675,0.01517154648900032,0.016572143882513046,-0.0006340146064758301,0.0025787651538848877,-0.011704802513122559
116,0.014771002497892635,0.3389559445766577,-2.346953386125038,0.013930059969425201,-0.3325026333332062,-0.9429994225502014,-0.15581881999969482,-0.05612681061029434,0.0034600666258484125,0.004288925789296627,-0.0021378397941589355,0.04033529758453369
117,0.011333987671054712,0.3304152107099264,-2.347354562575274,0.010720676742494106,-0.3244358003139496,-0.9458469748497009,0.014962231740355492,0.00409446656703949,0.015872187912464142,-0.005792088806629181,0.011523842811584473,-0.013106882572174072
118,0.015099017057160956,0.33810953664508225,-2.345864980974166,0.01424362137913704,-0.3317042589187622,-0.9432758688926697,0.10818064957857132,0.08942246437072754,0.03644198179244995,-0.006644740700721741,0.011971592903137207,0.007469594478607178
119,0.012975269865339121,0.3380951891645157,-2.3429781460884125,0.012240372598171234,-0.3316907286643982,-0.9433087706565857,-0.061239078640937805,-0.10848479717969894,0.013644648715853691,-0.014086686074733734,0.007945001125335693,0.012446343898773193
120,0.003866248316030523,0.3327354989095634,-2.3446527787938614,0.003654184751212597,-0.3266296982765198,-0.945145308971405,-0.09124912321567535,0.024422701448202133,-0.04205450043082237,-0.026023566722869873,-0.008239656686782837,-0.005751848220825195
121,0.0219975949583115,0.3266542316499967,-2.355651235898652,0.020832708105444908,-0.32087597250938416,-0.9468920826911926,-0.0257151760160923,0.40270179510116577,0.13070522248744965,0.004939377307891846,-0.020722538232803345,-0.014060676097869873
122,0.04656251587242535,0.2989180192314172,-2.378910078750226,0.04448165372014046,-0.2944863736629486,-0.9546198844909668,-0.2631267309188843,-0.000979769043624401,-0.3105557858943939,0.017606351524591446,0.004203200340270996,0.022155344486236572
123,0.05830794964784876,0.26836540666820413,-2.385414576310869,0.056189000606536865,-0.26515570282936096,-0.9625670313835144,-0.2521626949310303,0.22870220243930817,-0.08177785575389862,-0.004904214292764664,0.0036963820457458496,-0.009066879749298096
124,0.06952366094224015,0.2528519895027619,-2.3941759285136195,0.0672587975859642,-0.25016626715660095,-0.9658638834953308,-0.014938405714929104,-0.04557392746210098,0.007166694849729538,0.0059376060962677,0.025816351175308228,-0.023561716079711914
125,0.06826209754245746,0.25678900554737677,-2.3894889574439264,0.06597255170345306,-0.25397616624832153,-0.9649578928947449,0.05418502166867256,-0.022223347797989845,0.0868658572435379,0.017737165093421936,0.008401215076446533,0.011100471019744873
126,0.056601655503541584,0.27154887886099366,-2.3877828760210673,0.05449846759438515,-0.2682238817214966,-0.9618138670921326,0.23122040927410126,-0.09235337376594543,0.06651220470666885,-0.011743344366550446,0.002217411994934082,-0.005700170993804932
127,0.0496454259957765,0.28283907697240035,-2.3781149070811147,0.047653283923864365,-0.2790830433368683,-0.9590838551521301,0.12905636429786682,-0.13371971249580383,0.13349832594394684,0.006362833082675934,-0.027771204710006714,0.001808464527130127
128,0.04113441859649455,0.29108149995568394,-2.3791381222715753,0.039392948150634766,-0.28698840737342834,-0.9571237564086914,-0.00047069136053323746,-0.015750231221318245,0.05603831261396408,-0.03351832181215286,0.0002910196781158447,0.012879371643066406
129,0.035584829804980546,0.2918663568287929,-2.3773908493618787,0.03407270088791847,-0.28774014115333557,-0.9571022391319275,0.089859738945961,-0.026101578027009964,0.07279663532972336,-0.004333332180976868,-0.01732882857322693,-0.01549297571182251
130,0.03469008203051044,0.2982032099191037,-2.3798913491094025,0.033152416348457336,-0.2938031852245331,-0.9552908539772034,0.00014876294881105423,0.019628893584012985,-0.004739703610539436,0.005635425448417664,-0.002125769853591919,0.0008230805397033691
131,0.033393605756096185,0.30547159364353604,-2.378884095747281,0.031841736286878586,-0.3007429838180542,-0.9531735181808472,0.09442059695720673,-0.002085056621581316,0.05218164995312691,-0.013164974749088287,0.0197676420211792,0.001818537712097168
132,0.028228315771375103,0.32019542328081296,-2.3699557378721945,0.02679002285003662,-0.31475207209587097,-0.9487957954406738,0.24776601791381836,-0.09559665620326996,0.06666374951601028,0.009037621319293976,-0.010580599308013916,0.009632587432861328
133,0.020397125827545617,0.33491561326101915,-2.361872937704042,0.019262485206127167,-0.32868948578834534,-0.9442415833473206,-0.023485155776143074,0.013523931615054607,0.14081110060214996,-0.009176420047879219,0.003066927194595337,0.03202545642852783
134,0.018621956140324854,0.33241943003319896,-2.35168254392907,0.017601490020751953,-0.3263309597969055,-0.9450916647911072,-0.021047353744506836,0.0038808416575193405,-0.014864053577184677,-0.034233562648296356,-0.020104557275772095,-0.012244701385498047
135,0.018643584083940404,0.3321642420999362,-2.3552021797647473,0.017623482272028923,-0.3260897397994995,-0.945174515247345,-0.025212330743670464,-0.02448362484574318,-0.13397789001464844,0.0006718114018440247,-0.014425396919250488,0.01023799180984497
136,0.01861379320202347,0.33265344312544126,-2.3671074245804617,0.017592353746294975,-0.326552152633667,-0.9450154304504395,-0.07400823384523392,0.004752482287585735,-0.08969426900148392,0.0074625760316848755,0.025175809860229492,-0.004416942596435547
137,0.017554578286323636,0.33434707812315123,-2.3577181395502187,0.016581637784838676,-0.32815247774124146,-0.94447922706604,0.042259082198143005,0.038573987782001495,0.08111940324306488,0.006733790040016174,-0.0011932551860809326,-8.559226989746094e-05
138,0.016565884251350853,0.3335231741758766,-2.349443482800724,0.015652302652597427,-0.32737407088279724,-0.9447651505470276,-0.11250264942646027,0.0064912224188447,0.06083785742521286,-0.030468584969639778,-0.007983565330505371,0.006120800971984863
139,0.0164500586647833,0.32243018072997914,-2.3495935626805915,0.01560165360569954,-0.3168724477291107,-0.9483398199081421,-0.0501752644777298,-0.06255356222391129,-0.03457947075366974,0.015785671770572662,0.0008476674556732178,0.0009673833847045898
140,0.009370579226879196,0.3247928311194099,-2.3498477867382084,0.008880525827407837,-0.3191124498844147,-0.9476752281188965,0.15048283338546753,-0.036132603883743286,0.03992215543985367,0.026062101125717163,-0.01069098711013794,-0.01841968297958374
141,0.009867682194599511,0.3289875205375707,-2.3512492529528934,0.009338326752185822,-0.3230850100517273,-0.9463238716125488,-0.010674934834241867,-0.016571108251810074,0.030976705253124237,-0.018432557582855225,0.012843310832977295,0.0009045600891113281
142,0.013079857272387207,0.32142967609224005,-2.345077979624957,0.012409615330398083,-0.3159233331680298,-0.9487035870552063,-0.029193757101893425,0.01092283334583044,0.016506686806678772,0.02451665699481964,-0.008142828941345215,0.013858616352081299
143,0.01485028184543717,0.3082785799712742,-2.343054359229079,0.014149678871035576,-0.3034188151359558,-0.9527522325515747,-0.21111397445201874,0.07440701127052307,0.006040003150701523,-0.029118552803993225,-0.01716834306716919,0.000664830207824707
144,0.02280296806841777,0.28938364828710317,-2.348924641323565,0.021852925419807434,-0.28536155819892883,-0.9581707715988159,-0.22298315167427063,0.14048686623573303,-0.020611220970749855,0.002362772822380066,0.013221055269241333,-0.017415165901184082
145,0.026098178113533436,0.27857398648732173,-2.34671757879412,0.025089208036661148,-0.2749848961830139,-0.961121141910553,-0.0783005878329277,-0.03719423711299896,0.02239077165722847,0.00852590799331665,0.010901033878326416,-0.0014795660972595215
146,0.028147811230773583,0.27193339821689705,-2.3391788833046436,0.027109894901514053,-0.26859429478645325,-0.9628718495368958,-0.06013500690460205,0.0957108587026596,-0.016593080013990402,-0.028071194887161255,-0.008490055799484253,0.008114159107208252
147,0.03149048889962524,0.26448329855132785,-2.345280859875326,0.03039046935737133,-0.26141056418418884,-0.9647491574287415,-0.07965441048145294,-0.02036898583173752,-0.054360151290893555,-0.0030924975872039795,-0.0015441477298736572,-0.011691272258758545
148,0.03222017689933931,0.26309478066405173,-2.3556269496906213,0.031106090173125267,-0.2600700855255127,-0.9650886058807373,-0.010918520390987396,-0.05741988122463226,-0.068610280752182,0.0005406364798545837,0.027510881423950195,-0.0032646656036376953
149,0.02959868804870254,0.27284550239709127,-2.3616767143797888,0.02849961258471012,-0.26947277784347534,-0.9625862240791321,0.21973736584186554,-0.032162509858608246,-0.028984948992729187,0.001453392207622528,0.021715819835662842,-0.00865095853805542
150,0.039665096597706166,0.2803747740731634,-2.3568816487138564,0.03810625150799751,-0.27671581506729126,-0.9601959586143494,0.09072153270244598,0.24030371010303497,-0.031540218740701675,-0.03081255406141281,-0.04069751501083374,-0.0029388070106506348
151,0.08710571335824974,0.280424227608269,-2.3782180612930626,0.08359739184379578,-0.27676331996917725,-0.9572948813438416,-0.11762548238039017,0.40403392910957336,-0.19514329731464386,-0.01348327100276947,0.009002119302749634,0.003910541534423828
152,0.10746280803767999,0.2773307142706331,-2.389220848406409,0.10315780341625214,-0.27378934621810913,-0.9562415480613708,0.23984327912330627,-0.001560078002512455,0.16981084644794464,0.08290787041187286,0.03871244192123413,-0.03986746072769165
153,0.09373967702158283,0.30921379408551,-2.375390249055383,0.08916318416595459,-0.30430981516838074,-0.9483910202980042,0.2598649561405182,-0.281982421875,-0.014946400187909603,-0.00620114803314209,0.026859253644943237,0.0009422898292541504
154,0.08891412298550373,0.3436077264944152,-2.3652930961071412,0.08360642194747925,-0.33688610792160034,-0.9378260374069214,0.7474271655082703,0.397475004196167,-0.02331813983619213,-0.024753272533416748,-0.0054447948932647705,-0.10492902994155884
155,0.04453142975867096,0.4093211545246506,-2.3463780684223323,0.040839239954948425,-0.39798665046691895,-0.9164817333221436,0.4906994104385376,-0.786147952079773,0.4502946734428406,-0.004218146204948425,0.013022661209106445,0.17314982414245605
156,0.019777334709929404,0.4039704271367074,-2.33963471019966,0.018184224143624306,-0.3930722773075104,-0.9193277359008789,-0.8516992330551147,0.15173184871673584,-0.014378380961716175,0.006733385846018791,-0.038141071796417236,0.08664041757583618
157,0.036908584168937775,0.35266338057874447,-2.34894223747832,0.0346292220056057,-0.345398485660553,-0.9378169775009155,-0.2078692615032196,0.22291965782642365,-0.2285773605108261,-0.005637526512145996,-0.0073541998863220215,-0.04347574710845947
158,0.054374758238509686,0.3353583578706757,-2.364107649995908,0.05132037401199341,-0.3291075825691223,-0.942896842956543,-0.08816785365343094,0.06168823689222336,-0.0663120225071907,-0.004857368767261505,0.022116005420684814,-0.03209400177001953
159,0.056123127492186974,0.3301111584865507,-2.3669232825097586,0.05306496471166611,-0.32414817810058594,-0.9445168375968933,0.09501965343952179,-0.01961372420191765,0.047530777752399445,0.03961692750453949,-7.05718994140625e-05,-0.00917273759841919
160,0.05037560741793037,0.332066431180976,-2.3609181189666995,0.047603484243154526,-0.3259972631931305,-0.9441714286804199,-0.1904044896364212,-0.02639886736869812,-0.010725112631917,-0.07654940336942673,-0.011756032705307007,0.020862102508544922
161,0.05561998901833779,0.32565825202572324,-2.373250408738433,0.052669454365968704,-0.3199325203895569,-0.9459752440452576,-0.09007835388183594,-0.012530294246971607,-0.02878643572330475,0.038288190960884094,0.013856470584869385,0.01799672842025757
162,0.055548010399644195,0.31698608776371423,-2.3700468917905204,0.052753422409296036,-0.31170421838760376,-0.9487136006355286,0.1144423708319664,-0.02300327643752098,0.0501730814576149,0.0024986527860164642,-0.0005668699741363525,-0.04194796085357666
163,0.05203656991582581,0.3198741415059257,-2.365056531706576,0.04937472566962242,-0.3144470751285553,-0.9479900598526001,-0.09216684103012085,-0.014455575495958328,0.09285692870616913,-0.00831332802772522,-0.007864326238632202,0.011741280555725098
164,0.048425681412878285,0.3226278346519475,-2.3612145534537645,0.04590923339128494,-0.3170599043369293,-0.9472936987876892,0.005062534008175135,-0.01881387084722519,0.030657552182674408,-0.0013078004121780396,-0.005205720663070679,0.015042722225189209
165,0.04692955919668092,0.3140883846157048,-2.36239550545644,0.04461731016635895,-0.3089495897293091,-0.9500312805175781,-0.1085396334528923,0.0048863645642995834,-0.0255728792399168,-0.007736824452877045,-0.006983637809753418,-0.010707855224609375
166,0.045244789836156415,0.30856454129948074,-2.364466977915099,0.04309319332242012,-0.3036912977695465,-0.9517954587936401,-0.07284025847911835,-0.08856446295976639,-0.0008827978745102882,0.008847728371620178,0.013484358787536621,0.0019205808639526367
167,0.03827450058825164,0.3098925073690147,-2.366347474905361,0.03644244745373726,-0.30495625734329224,-0.9516688585281372,0.10264470428228378,-0.04230740666389465,0.03373119980096817,-0.01376788318157196,0.0018556714057922363,-0.008963465690612793
168,0.03529436298137251,0.31325242207228793,-2.3652990285970237,0.03356983885169029,-0.3081544041633606,-0.9507438540458679,-0.029680369421839714,-0.002155119553208351,0.01591501012444496,-0.005081687122583389,-0.004696518182754517,0.018325090408325195
169,0.03298471220757046,0.3147395258270663,-2.366227910257338,0.03135871887207031,-0.3095687925815582,-0.9503598213195801,0.016477830708026886,-0.021903563290834427,0.025435367599129677,0.006635658442974091,0.0023178160190582275,-0.0016512870788574219
170,0.028734715659229346,0.3134980463161705,-2.364672523163328,0.027330443263053894,-0.3083880841732025,-0.9508679509162903,-0.005355645902454853,-0.007188805844634771,0.015118922106921673,-0.010103270411491394,-0.008933693170547485,-0.009199798107147217
171,0.030073767037859307,0.308459842089252,-2.3657986298103055,0.028650034219026566,-0.3035915195941925,-0.9523714184761047,-0.027727805078029633,0.002254907041788101,-0.024108804762363434,-0.0028321612626314163,0.005846798419952393,-0.008306622505187988
172,0.03389157808828053,0.308873510325676,-2.3666900995151043,0.032281532883644104,-0.3039856553077698,-0.9521295428276062,0.009120432659983635,0.029841747134923935,-0.009132588282227516,-0.0003448799252510071,0.0033875107765197754,0.00039309263229370117
173,0.03806311682405766,0.3095251074095706,-2.3678325806379172,0.03624553978443146,-0.3046063482761383,-0.9517884254455566,-0.03768150880932808,0.06267159432172775,-0.012100839987397194,0.0008028037846088409,-0.010975897312164307,0.010885775089263916
174,0.03385322240647701,0.3010867804088318,-2.370207470733104,0.03232415020465851,-0.2965582609176636,-0.9544675946235657,-0.07758498191833496,-0.025103002786636353,0.022479239851236343,0.007943790405988693,-0.010433286428451538,-0.003921687602996826
175,0.03203916621216058,0.2960897034093962,-2.37364530940319,0.030639732256531715,-0.29178231954574585,-0.9559938907623291,-0.01111464761197567,0.015732495114207268,-0.02262350358068943,-0.004791341722011566,-0.004039853811264038,-0.011871099472045898
176,0.03218457609646255,0.2925281373711493,-2.3741250125409064,0.030811987817287445,-0.2883738875389099,-0.9570220112800598,0.003093327861279249,-0.02539178356528282,0.0033133402466773987,0.009730614721775055,-0.002962172031402588,-0.013131797313690186
177,0.03147636078365476,0.2908889972116527,-2.373518391617659,0.030149037018418312,-0.2868039906024933,-0.957514762878418,-0.004764564335346222,-0.005902948789298534,0.0028659100644290447,0.005617573857307434,0.0006864368915557861,-0.008061408996582031
178,0.030198440692280455,0.2901583665907286,-2.374207906155311,0.02893170528113842,-0.2861039638519287,-0.9577617049217224,0.000354117713868618,-0.0339452363550663,0.02822203002870083,0.005125910043716431,0.007661581039428711,-0.0015278458595275879
179,0.028603385306641308,0.29174244575385744,-2.372040369132848,0.027390990406274796,-0.28762146830558777,-0.9573523998260498,0.01955758035182953,-0.004239317029714584,-0.008332325145602226,-0.006867922842502594,0.0019769668579101562,0.0003821849822998047
180,0.026360226132087525,0.28973568465229227,-2.36960307035408,0.025258591398596764,-0.28569895029067993,-0.9579864740371704,-0.029933271929621696,-0.00935591384768486,0.023488877341151237,-0.002172047272324562,-0.0037755072116851807,-0.0063078999519348145
181,0.026261410021189483,0.2908626278739069,-2.369247047477106,0.025155456736683846,-0.2867787182331085,-0.9576665163040161,0.02222440019249916,-0.03559274226427078,0.025852952152490616,0.005713075399398804,0.0054829418659210205,-0.0030573606491088867
182,0.024726222717997126,0.29470632433196375,-2.3668537413233035,0.023657802492380142,-0.2904588580131531,-0.9565950036048889,0.03734690696001053,0.0252279844135046,0.03134390711784363,-0.004645355045795441,-0.004585087299346924,0.002966463565826416
183,0.024223461527037565,0.2943496065711014,-2.366572591964216,0.023179369047284126,-0.2901175022125244,-0.9567102789878845,-0.007106520235538483,-0.018147142603993416,0.0021522731985896826,-0.003602340817451477,0.00045990943908691406,-0.0010381340980529785
184,0.020422635446718147,0.2940136981537442,-2.3646560458807158,0.01954490877687931,-0.28979602456092834,-0.9568888545036316,0.0009265532717108727,0.008200976997613907,0.04843134433031082,0.0021683424711227417,-0.0009144246578216553,-0.0016377568244934082
185,0.020048878939411735,0.29352026734029246,-2.361845636837636,0.01919012889266014,-0.28932371735572815,-0.957038938999176,0.010088647715747356,-0.011368772946298122,-0.0022171384189277887,-0.0031989216804504395,-0.0025158822536468506,-0.0017318129539489746
186,0.02103959078273553,0.2932606497110515,-2.3615080650857427,0.020139848813414574,-0.28907519578933716,-0.9570944905281067,0.003373284824192524,-0.001670698169618845,0.01165416557341814,0.007753213867545128,-0.001253753900527954,-0.003507256507873535
187,0.019391477837394994,0.2935180433115569,-2.3610145992720986,0.018560979515314102,-0.2893216013908386,-0.9570519924163818,-0.021993441507220268,0.010767771862447262,0.018288491293787956,-0.0027376115322113037,0.001693427562713623,0.001546621322631836
188,0.018781795316957516,0.29107746805121193,-2.360121187589868,0.017990685999393463,-0.28698453307151794,-0.9577662944793701,-0.029756469652056694,0.016418468207120895,-0.014468762092292309,-0.005402185022830963,-0.0015133917331695557,0.004122495651245117
189,0.02189291165275365,0.2911824203597178,-2.361590488550229,0.020969657227396965,-0.28708508610725403,-0.9576755166053772,-0.050818875432014465,0.00411546416580677,0.00869274977594614,0.0036580245941877365,0.0012421905994415283,0.016940712928771973
190,0.02116893748525352,0.2852681243730858,-2.3626129515581877,0.020311903208494186,-0.2814147472381592,-0.9593712091445923,-0.0807836651802063,0.0344695970416069,-0.031355198472738266,-0.00033814646303653717,-0.006869524717330933,-0.01041632890701294
191,0.021002578529016647,0.28655334664532994,-2.363227493220957,0.020144691690802574,-0.2826477885246277,-0.9590122103691101,0.04001317545771599,-0.07608970999717712,0.02098260633647442,-0.004595987498760223,-0.0071471333503723145,0.012555301189422607
192,0.015704995969758155,0.29623546204875284,-2.3673371266795344,0.015020303428173065,-0.2919217348098755,-0.9563242793083191,0.09963463246822357,0.059115469455718994,0.14479288458824158,0.037622518837451935,0.0122891366481781,-0.005391418933868408
193,0.012314172490616858,0.29557430701232745,-2.3571282948685823,0.011779870837926865,-0.2912892997264862,-0.9565624594688416,-0.009156855754554272,0.01993735134601593,-0.008051758632063866,-0.03585824370384216,-0.033310920000076294,-0.018275797367095947
194,0.011045236912842375,0.30147775465041776,-2.3628019618898133,0.010546868667006493,-0.2969316244125366,-0.9548404812812805,-0.0031290268525481224,-0.015624014660716057,-0.009169508703052998,0.0005157506093382835,0.01645985245704651,0.007925868034362793
195,0.007833501199057997,0.30672961241134655,-2.3583510776967938,0.007467804942280054,-0.30194249749183655,-0.9532968997955322,0.03759061545133591,-0.054978083819150925,-0.04070420190691948,0.000832974910736084,-0.006742805242538452,0.008610010147094727
196,0.005477964540606757,0.3104186457177309,-2.354966901506289,0.005216123536229134,-0.30545729398727417,-0.9521914720535278,0.006946687586605549,-0.017109252512454987,0.06320971995592117,0.0012993738055229187,-0.0004203915596008301,0.003476262092590332
197,0.002511727257213762,0.3113891033961525,-2.3451850861360923,0.0023909329902380705,-0.3063812255859375,-0.9519059062004089,0.03354308381676674,-0.004425311926752329,0.05350017547607422,-0.0006819441914558411,-0.0027007758617401123,0.009462058544158936
198,0.0009374549197555069,0.31406775300098616,-2.3446340451093954,0.0008915989892557263,-0.3089299499988556,-0.9510843753814697,-0.04648842662572861,0.05505433306097984,0.05710827186703682,-0.006430543959140778,-0.014144361019134521,0.009052515029907227
199,-0.001411534803773389,0.311825875380802,-2.3432998346066944,-0.0013434630818665028,-0.30679696798324585,-0.9517740607261658,-0.021471016108989716,-0.020682422444224358,0.015685774385929108,-0.003936074674129486,0.004444092512130737,-0.008095324039459229
200,-0.002361465981595634,0.3106713444099917,-2.339587862072785,-0.0022484171204268932,-0.3056979179382324,-0.9521259069442749,0.007854577153921127,-0.023167921230196953,-0.004870388191193342,0.004109986126422882,-0.0003476142883300781,0.008247733116149902
201,-0.002071927516352845,0.30786825671640566,-2.3429211562925514,-0.001974507700651884,-0.30302780866622925,-0.9529796838760376,-0.059840597212314606,-0.0014419951476156712,-0.051694080233573914,-0.008843973278999329,-0.002407371997833252,-0.004234671592712402
202,-0.001253958045322414,0.30134276261747034,-2.343781307461339,-0.0011974528897553682,-0.29680272936820984,-0.9549380540847778,-0.058762941509485245,0.0005450565367937088,0.011452395468950272,0.008948914706707,0.0028879642486572266,-0.008257687091827393
203,-0.0003152705316027415,0.3001604270233142,-2.3416497654898216,-0.0003011744993273169,-0.2956734597682953,-0.9552890062332153,-0.006366928108036518,0.003914196044206619,0.010439934208989143,-0.002796359360218048,0.002002805471420288,0.002545475959777832
204,0.0002431089808201295,0.2974430816814514,-2.3418603494903207,0.00023243381292559206,-0.2930765151977539,-0.9560889601707458,0.012519348412752151,-0.0019094953313469887,-0.010291901417076588,0.0012629330158233643,0.0034189224243164062,-0.0023613572120666504
205,0.0007605233775759195,0.2968888866432291,-2.34083130882903,0.0007272513466887176,-0.2925466299057007,-0.9562509655952454,-0.014568045735359192,0.001291121356189251,-0.007459388114511967,-0.007212236523628235,0.0022024214267730713,0.0009287595748901367
206,0.0012633193186184313,0.2947351292888351,-2.3413277548647047,0.0012088435469195247,-0.2904864251613617,-0.9568783640861511,-0.007386860437691212,-0.025989864021539688,-0.010472731664776802,0.0010952353477478027,0.0021105706691741943,-0.003280937671661377
207,0.0010628987855695988,0.28902848871801246,-2.3388417902587713,0.0010188109008595347,-0.2850211560726166,-0.9585207104682922,-0.03108559362590313,0.0753943920135498,0.01607692614197731,0.001712515950202942,-0.009320884943008423,-0.0016538500785827637
208,0.0018024666011516026,0.28534853927119513,-2.3408481728696566,0.0017295804573222995,-0.2814919054508209,-0.9595620632171631,-0.04071839153766632,-0.013974287547171116,-0.01834242045879364,-0.008138269186019897,0.005246788263320923,-0.016603708267211914
209,0.001770827139893423,0.28668403078842947,-2.3391756873467617,0.0016985530965030193,-0.28277313709259033,-0.9591853022575378,0.03853795304894447,-0.017791856080293655,0.005701661575585604,0.012186944484710693,-0.0028255879878997803,0.008440673351287842
210,0.0037754948199736145,0.28368027601978796,-2.3387077651115677,0.003624586621299386,-0.2798907160758972,-0.9600250124931335,-0.048432864248752594,0.016022242605686188,-0.03999222442507744,-0.006294876337051392,-0.002824127674102783,0.001071155071258545
211,0.003942019383061735,0.27976993213720375,-2.340185557994342,0.0037887399084866047,-0.27613452076911926,-0.9611115455627441,-0.003711084835231304,0.0008496548980474472,-0.013504402711987495,0.007029742002487183,0.00698477029800415,-0.01125478744506836
212,0.00393151458826228,0.28083048092260443,-2.3376394770751796,0.0037774902302771807,-0.27715370059013367,-0.9608181715011597,0.0006080027669668198,-0.013654552400112152,0.020928964018821716,-0.008919700980186462,-0.003806382417678833,0.004992365837097168
213,0.004022458888269064,0.2789557130083121,-2.3404173915050968,0.003866954240947962,-0.275351881980896,-0.9613357186317444,-0.014369554817676544,0.0009577209129929543,-0.024309813976287842,0.0020534545183181763,0.003409743309020996,-0.0021194815635681152
214,0.005047669579056105,0.27976349156746083,-2.339635509131417,0.004851399455219507,-0.276128351688385,-0.9611085057258606,0.025364568457007408,0.020324595272541046,0.02027973160147667,0.0025491113774478436,0.0008598268032073975,-0.0009428262710571289
215,0.003720351545306535,0.27975410495997655,-2.3390264722182716,0.003575708484277129,-0.27611932158470154,-0.9611167311668396,-0.011953242123126984,0.014100863598287106,0.004685441497713327,-0.008244894444942474,-0.003772646188735962,0.0007895827293395996
216,0.00393052593874348,0.2783119070090855,-2.3398984536725687,0.00377927185036242,-0.27473291754722595,-0.9615131616592407,-0.0036418763920664787,0.011951369233429432,0.006066002417355776,0.0017444118857383728,-0.0016495585441589355,-0.006229758262634277
217,0.01042091216985079,0.2733474002616057,-2.3391021849835574,0.01003383006900549,-0.2699560523033142,-0.9628203511238098,-0.1473534107208252,0.019292514771223068,-0.03428643196821213,-0.014413096010684967,-0.001452028751373291,0.011831581592559814
218,0.013625313099610794,0.2667193936450558,-2.343885880425351,0.013143125921487808,-0.263568252325058,-0.9645512104034424,-0.03423363342881203,0.04175150394439697,-0.003624415025115013,0.011286191642284393,0.006884902715682983,0.002621889114379883
219,0.013785073756658649,0.2645704634428129,-2.3442371255281507,0.013304999098181725,-0.2614946961402893,-0.9651132225990295,0.03021106868982315,0.008642944507300854,0.028379123657941818,0.003205016255378723,0.004063665866851807,-0.02246612310409546
220,0.01536706617201659,0.26817321763529883,-2.343200600629594,0.014817210845649242,-0.2649703919887543,-0.9641426801681519,0.04193626344203949,-0.0030454243533313274,0.012221366167068481,0.0001058792695403099,-0.0007461309432983398,0.002121865749359131
221,0.013184279878303428,0.2725590263940039,-2.342437536338538,0.012697217054665089,-0.26919686794281006,-0.9630014896392822,0.08205932378768921,0.008120328187942505,0.02748166397213936,0.0062389373779296875,0.0018323659896850586,-0.0057637691497802734
222,0.016157923565614886,0.2801341633450503,-2.3413183185657336,0.015527385286986828,-0.27648457884788513,-0.960892915725708,0.055710285902023315,0.11875586211681366,-0.006728642620146275,-0.014413498342037201,-0.011982828378677368,0.007722139358520508
223,0.03790999845697229,0.2751191889045213,-2.34961174659456,0.03647557273507118,-0.271661639213562,-0.9617013335227966,-0.1767245978116989,0.25823143124580383,-0.12558308243751526,-0.04350986331701279,0.009210467338562012,-0.01667696237564087
224,0.0634716906135195,0.2664789699188575,-2.3633458195241,0.061190295964479446,-0.26333633065223694,-0.9627615213394165,-0.028585242107510567,0.1394474357366562,-0.2528740167617798,0.035855598747730255,-0.011581271886825562,0.010246872901916504
225,0.07101815966087809,0.2663504700937902,-2.378172847160294,0.06845633685588837,-0.2632123529911041,-0.9623060822486877,-0.10444658249616623,0.08639616519212723,-0.045302312821149826,-0.01752249151468277,0.003309398889541626,-6.574392318725586e-05
226,0.09196800927472218,0.2575427119912368,-2.390348276610124,0.08880947530269623,-0.2547050714492798,-0.9629321098327637,-0.10017078369855881,0.0336836613714695,-0.14529851078987122,0.026531703770160675,0.0008903741836547852,0.023189067840576172
227,0.08910763488506288,0.2502124802322372,-2.3962352872718196,0.08621860295534134,-0.24760982394218445,-0.9650159478187561,-0.07392221689224243,0.06434520334005356,0.03152146562933922,-0.008841291069984436,0.015096411108970642,-0.019526898860931396
228,0.09104445239750919,0.2496259536062546,-2.3928730456313745,0.08810068666934967,-0.2470415234565735,-0.964991569519043,0.032018110156059265,-0.07818634808063507,-0.03395611047744751,0.008060209453105927,-0.017042338848114014,0.01749706268310547
229,0.09114122241840074,0.23932639489230334,-2.3962638238980514,0.08842097222805023,-0.23704826831817627,-0.9674656987190247,-0.10468407720327377,0.1330091655254364,0.09231311827898026,0.005802057683467865,-0.0021484941244125366,-0.015230834484100342
230,0.08722534616696292,0.23440152130261446,-2.394467316318949,0.08473250269889832,-0.23226091265678406,-0.9689557552337646,-0.02247489243745804,-0.11384859681129456,0.007861845195293427,0.013991869986057281,0.021537035703659058,-0.0052874088287353516
231,0.07625507139033577,0.24264959436341482,-2.3848513055646148,0.07394944131374359,-0.24027544260025024,-0.9678838849067688,0.20790275931358337,-0.1580086201429367,0.1740601658821106,0.023981459438800812,0.00025469064712524414,-0.011211574077606201
232,0.06256934468317506,0.2592535047427662,-2.372233003616081,0.06043892353773117,-0.2563590705394745,-0.9646902084350586,0.11688977479934692,-0.07758763432502747,0.15048450231552124,-0.02590828388929367,-0.023075133562088013,0.015227317810058594
233,0.061360342160468116,0.25572790938255174,-2.3724697532112726,0.0593276247382164,-0.25294971466064453,-0.9656586647033691,-0.08942734450101852,0.006756516173481941,-0.06500233709812164,0.0030503049492836,-0.01644420623779297,-0.0012450218200683594
234,0.058191963750778675,0.25170284400846354,-2.3728591865317763,0.05632651597261429,-0.24905350804328918,-0.9668503999710083,-0.0972648486495018,0.027349794283509254,-0.014855857938528061,-0.021277084946632385,0.009002238512039185,0.005638241767883301
235,0.06247329413458525,0.2446058329045714,-2.375042405085914,0.06057422235608101,-0.2421739101409912,-0.9683400988578796,-0.04127927124500275,0.05604860559105873,0.03565036877989769,3.369152545928955e-05,0.002031087875366211,-0.007917225360870361
236,0.06769385984180068,0.23443420970101406,-2.3776292131880785,0.06579188257455826,-0.23229271173477173,-0.9704182147979736,-0.14392873644828796,0.0342857800424099,-0.08750350028276443,-0.007976330816745758,0.004097536206245422,-0.004770934581756592
237,0.06925641357366051,0.23128044181807558,-2.377641965540357,0.06735849380493164,-0.2292240560054779,-0.9710402488708496,-0.06667560338973999,-0.07936863601207733,-0.01672663912177086,-0.0066132619976997375,0.008246272802352905,0.02267599105834961
238,0.06623985918774761,0.23145455663116205,-2.3772208560898354,0.06442635506391525,-0.22939354181289673,-0.9711991548538208,0.11212116479873657,-0.014272088184952736,0.04344959929585457,0.005443640053272247,0.010643541812896729,-0.0110548734664917
239,0.061010052894402166,0.24657624555525304,-2.372890882308124,0.059128034859895706,-0.2440851926803589,-0.9679495096206665,0.14187851548194885,-0.04520507901906967,0.08313019573688507,-0.010010000318288803,0.0015009939670562744,0.0018698573112487793
240,0.05997371400267341,0.2523487513193153,-2.372602419541029,0.05803946033120155,-0.24967901408672333,-0.9665877223014832,-0.06038997694849968,-0.135933980345726,-0.07947646826505661,-0.004801534116268158,0.009581953287124634,0.028187453746795654
241,0.04937848877633712,0.2537962602026631,-2.387122510016682,0.047777287662029266,-0.2510804235935211,-0.9667863845825195,0.1523311287164688,0.015818748623132706,0.09302812814712524,0.01644696295261383,-0.01521599292755127,-0.04221630096435547
242,0.04982713277295884,0.25799205377453244,-2.382582675582682,0.048158131539821625,-0.2551395893096924,-0.9657042026519775,0.028989408165216446,-0.06053287163376808,-0.10662660002708435,-0.012132138013839722,-0.006167173385620117,-0.006540060043334961
243,0.049188514235440496,0.25701153577548397,-2.380468948407303,0.04755368456244469,-0.25419139862060547,-0.9659841656684875,-0.08185240626335144,0.018475212156772614,0.029686901718378067,-0.005180031061172485,-0.007313728332519531,0.008815586566925049
244,0.04867511045900124,0.25671947115625615,-2.3834305564976206,0.04706134647130966,-0.2539089024066925,-0.9660825729370117,0.05517188832163811,0.003842046484351158,0.01798628270626068,0.006558038294315338,0.010973721742630005,-0.012066841125488281
245,0.0447851183911472,0.2610128791659384,-2.3795455351680577,0.04325374215841293,-0.2580592632293701,-0.9651603698730469,0.03858932852745056,-0.019119005650281906,0.029479539021849632,-0.01078304648399353,0.003893613815307617,0.002483367919921875
246,0.04640061647249688,0.2604387070390559,-2.377917586725091,0.04481976479291916,-0.25750449299812317,-0.9652370810508728,-0.06567594408988953,-0.005445841699838638,-0.054166682064533234,-0.006718575954437256,-0.010149925947189331,0.015667378902435303
247,0.04620305025526066,0.25026520355291465,-2.384534846346755,0.04474775120615959,-0.24766090512275696,-0.9678128361701965,-0.07557416707277298,0.07076849788427353,-0.02080475725233555,-0.007592599838972092,-0.007786467671394348,-0.01799643039703369
248,0.048630073266116514,0.2480471327206656,-2.383442559047752,0.04712310805916786,-0.24551133811473846,-0.9682477116584778,-0.0029171621426939964,-0.022457849234342575,0.04201975464820862,0.01694854348897934,0.01386764645576477,0.0001996159553527832
249,0.047242221361947355,0.251188577417105,-2.376482226166464,0.04574263095855713,-0.24855540692806244,-0.967536985874176,0.006647731177508831,0.01870712637901306,0.021208688616752625,-0.015484452247619629,-0.01679493486881256,0.015464842319488525
250,0.049165679312686214,0.24452289325946272,-2.3797020840564334,0.04768392816185951,-0.24209344387054443,-0.9690805077552795,-0.05583197623491287,-0.0005644587799906731,-0.05887793004512787,0.0005796253681182861,0.005124449729919434,-0.011998593807220459
251,0.046903501534470426,0.24652502946578053,-2.378676149860794,0.045468758791685104,-0.2440355271100998,-0.9686997532844543,0.005286858417093754,-0.021027717739343643,0.03984983265399933,0.006365351378917694,0.0032670944929122925,0.010218918323516846
252,0.04311667793332464,0.24534381904174193,-2.3759735334656726,0.04181254282593727,-0.242889866232872,-0.9691523313522339,-0.010233641602098942,-0.02088593877851963,0.022898759692907333,-0.009479165077209473,0.0015873759984970093,-0.0019322633743286133
253,0.04369753085786743,0.2426522246879735,-2.375919984222626,0.04240387678146362,-0.2402779906988144,-0.969777524471283,-0.023742951452732086,-0.015169680118560791,-0.03181872516870499,0.003845512866973877,0.002393469214439392,0.007527768611907959
254,0.043106135566881934,0.24497513018726033,-2.376030773476176,0.0418061800301075,-0.24253219366073608,-0.9692421555519104,0.038077786564826965,0.005363439209759235,0.0032362353522330523,-0.0068635493516922,-0.003561556339263916,0.0038490891456604004
255,0.04184692867720523,0.24615697192529948,-2.37698655469583,0.04057365283370018,-0.24367858469486237,-0.9690069556236267,-0.00872858241200447,-0.010393083095550537,0.04497344419360161,0.005889363586902618,0.009776607155799866,-0.000948488712310791
256,0.042536474113269475,0.24585019629329002,-2.3745748084009413,0.0412449948489666,-0.24338103830814362,-0.9690533876419067,-0.04182741045951843,0.013860590755939484,0.0008555150125175714,-0.0046391598880290985,-0.009838536381721497,0.009260356426239014
257,0.03665326188106448,0.24002373124969056,-2.373280539321649,0.035594526678323746,-0.23772567510604858,-0.9706799387931824,-0.09325141459703445,-0.07872321456670761,0.04174340143799782,0.0001568123698234558,0.000619351863861084,-0.00032836198806762695
258,0.034355027212438195,0.23819373564550145,-2.37095431085775,0.033378470689058304,-0.23594774305820465,-0.9711923003196716,0.04027120769023895,0.0009752688929438591,0.017865091562271118,0.006782662123441696,0.005601078271865845,-0.00030422210693359375
259,0.03065903950178532,0.23846725444460282,-2.3672761704727687,0.02978675812482834,-0.2362135350704193,-0.9712445139884949,0.009052316658198833,-0.03633900731801987,0.026519708335399628,-0.010575942695140839,-0.0066300928592681885,-0.009758293628692627
260,0.02795346077718953,0.23693322678512507,-2.3682194970728974,0.027168968692421913,-0.23472264409065247,-0.971682608127594,-0.021758731454610825,0.00039888639003038406,0.018357358872890472,-0.0007254872471094131,-0.0020021945238113403,-0.01279914379119873
261,0.026964171336623776,0.23746082533182314,-2.366027760535007,0.026204338297247887,-0.23523546755313873,-0.9715850949287415,-0.053037434816360474,-0.026218749582767487,0.04345175623893738,0.012980237603187561,-0.004831075668334961,0.014477550983428955
262,0.02363172732174713,0.23525782112417593,-2.3643319895296533,0.022978635504841805,-0.23309370875358582,-0.9721827507019043,0.04304587095975876,0.004670360125601292,0.031200191006064415,0.0016795694828033447,0.0016483962535858154,-0.019180774688720703
263,0.023891073501818624,0.23629399141666993,-2.3625579227445965,0.023224985226988792,-0.23410122096538544,-0.9719347953796387,-0.018102211877703667,-0.00768753606826067,-0.02642396092414856,-0.005250133574008942,-0.004592031240463257,0.004466533660888672
264,0.025356319460704473,0.2341466253228636,-2.363925844988732,0.024661770090460777,-0.23201298713684082,-0.9724000096321106,-0.019045811146497726,-0.013287018053233624,-0.0493680015206337,-0.013385526835918427,0.007846102118492126,0.0009949803352355957
265,0.02523072289193574,0.23325368031236365,-2.3659548804298494,0.024544857442378998,-0.23114430904388428,-0.97260981798172,0.04087211936712265,0.0023806244134902954,0.01771116442978382,0.010565616190433502,0.010212302207946777,-0.00918644666671753
266,0.02446454128956822,0.23632256810194763,-2.363325816194506,0.023782189935445786,-0.23412899672985077,-0.9719145894050598,0.026595402508974075,0.012612039223313332,0.022229371592402458,-0.011422568932175636,-0.009035050868988037,-0.0016723871231079102
267,0.02496603060088518,0.23604409591322237,-2.3647182723335205,0.024271218106150627,-0.23385825753211975,-0.9719676971435547,-0.020779341459274292,-0.008299017325043678,-0.025013355538249016,0.004033833742141724,0.001741558313369751,0.0041027069091796875
268,0.026762625337686363,0.23908074155657166,-2.364979984855499,0.02599828690290451,-0.2368096113204956,-0.9712081551551819,0.04087299853563309,0.027780473232269287,0.005001877434551716,0.0016658976674079895,0.0049370527267456055,0.005967676639556885
269,0.02682706916087857,0.23904082471174984,-2.363871559826212,0.026061128824949265,-0.2367708384990692,-0.9712159633636475,-0.006890655495226383,-0.009668364189565182,0.014658153057098389,0.000962182879447937,-0.002898961305618286,0.002862691879272461
270,0.02726787826759937,0.23801521535202838,-2.3649899599848454,0.026495855301618576,-0.23577426373958588,-0.9714465737342834,-0.05843068286776543,0.01145929004997015,-0.038655322045087814,-0.008704105392098427,0.00619053840637207,0.0011097192764282227
271,0.028548353363790455,0.23506135167183156,-2.364379475432696,0.027759503573179245,-0.2329026460647583,-0.9721037745475769,-0.011338804848492146,0.017130225896835327,0.009706884622573853,-0.0031165629625320435,-0.0085829496383667,-0.005908310413360596
272,0.029058881893698645,0.23187089866265168,-2.366262628492348,0.028277233242988586,-0.22979874908924103,-0.9728273153305054,-0.011965450830757618,-0.02503127232193947,-0.009942112490534782,0.0019656866788864136,0.012254208326339722,-0.010555863380432129
273,0.027242830432374656,0.23640842082921268,-2.3643895206064207,0.026481807231903076,-0.2342124581336975,-0.9718247056007385,0.07904075086116791,-0.011488830670714378,-0.004782956559211016,-0.0009843707084655762,0.0009666085243225098,0.007392942905426025
274,0.024548404595134014,0.23836479843723152,-2.3651430206927535,0.0238519124686718,-0.23611398041248322,-0.9714325666427612,0.027552399784326553,-0.05170609802007675,0.006893520709127188,0.0022253599017858505,-0.0016179382801055908,-0.001971304416656494
275,0.023152483240153763,0.24105177478428613,-2.36484989160123,0.022481076419353485,-0.23872412741184235,-0.9708271622657776,-0.024535097181797028,-0.019971106201410294,-0.013234992511570454,-0.0038500968366861343,0.00172463059425354,0.010820508003234863
276,0.021735364027722182,0.24230756609167806,-2.366211737154249,0.021098744124174118,-0.23994341492652893,-0.9705575704574585,0.005728185176849365,0.02375570870935917,0.0007689353078603745,-0.0017506033182144165,0.0010670721530914307,0.004508376121520996
277,0.022922145339075117,0.24171734748622373,-2.3655598541405047,0.022253811359405518,-0.2393704056739807,-0.9706732630729675,0.026316646486520767,0.012645358219742775,0.03706122934818268,0.005746066570281982,0.002721846103668213,-0.0013268589973449707
278,0.021960148554245693,0.24048173041791163,-2.3642653413642964,0.021326495334506035,-0.23817051947116852,-0.9709891676902771,-0.01240087766200304,-0.07719380408525467,-0.0263620987534523,-0.005747273564338684,-0.004352673888206482,-0.0050697922706604
279,0.021555450197374777,0.2416802161947738,-2.363135798385378,0.020927367731928825,-0.2393343448638916,-0.9707116484642029,0.0017550350166857243,-0.007409277372062206,0.015376068651676178,0.0029831528663635254,-0.0036008358001708984,0.003548562526702881
280,0.02197780746852891,0.24010631654087883,-2.3638543719951577,0.021345604211091995,-0.23780588805675507,-0.971078097820282,-0.019964128732681274,-0.0007267305627465248,-0.022984329611063004,3.196112811565399e-05,0.00394970178604126,0.0008175373077392578
281,0.021600310606238248,0.2423498821159222,-2.363314138927751,0.020967448130249977,-0.23998449742794037,-0.9705502390861511,0.03520623594522476,-0.003321263939142227,0.014325973577797413,0.004163771867752075,0.0025577396154403687,0.002700507640838623
282,0.02120124487955436,0.2425780433236505,-2.362924591214956,0.02057897113263607,-0.24020598828792572,-0.9705038070678711,0.007257165387272835,-0.006859618704766035,0.00020902208052575588,-0.0024973079562187195,-0.0029733479022979736,-0.0032815933227539062
283,0.021026877506528666,0.24324158426181144,-2.364277250139832,0.020406391471624374,-0.2408500462770462,-0.9703478217124939,-0.01289395336061716,-0.001976889092475176,0.00258364574983716,0.004419652745127678,0.0036216676235198975,0.0024217963218688965
284,0.020370311976544445,0.244375743491074,-2.3629737916664304,0.01976371370255947,-0.24195066094398499,-0.9700872302055359,0.004013916943222284,0.012445810250937939,0.027255233377218246,-0.00612235814332962,-0.0017779767513275146,0.004190623760223389
285,0.018842631903339423,0.2460703906581389,-2.3615114078876727,0.018273957073688507,-0.24359461665153503,-0.9697049856185913,-0.009184746071696281,0.02159510925412178,0.05631040409207344,0.0009063407778739929,-0.0038571804761886597,0.0006955862045288086
286,0.019128057727957913,0.24686181170213134,-2.360079373914772,0.018547041341662407,-0.24436211585998535,-0.9695066809654236,-0.025760820135474205,0.003955351188778877,0.002856341190636158,-0.006660446524620056,-0.0045239925384521484,0.008401334285736084
287,0.018968098776142497,0.24529745656684487,-2.361242927355561,0.018399188295006752,-0.24284489452838898,-0.9698906540870667,-0.013517270796000957,-0.00573674077168107,-0.001518073258921504,0.002383282408118248,0.003403976559638977,-0.0028113722801208496
288,0.018812881048036738,0.24529805081217748,-2.3601680164588066,0.01824864000082016,-0.24284546077251434,-0.9698933362960815,0.018554411828517914,-0.013636150397360325,0.011689065024256706,0.00253383070230484,3.235042095184326e-05,-0.005570530891418457
289,0.017844811422600776,0.24590224752723047,-2.359099150962079,0.017307085916399956,-0.24343152344226837,-0.9697636365890503,0.0022843978367745876,-0.012439867481589317,-0.010910071432590485,-0.002994345501065254,-0.0020365864038467407,0.0006932616233825684
290,0.017019678291523507,0.2464663392349891,-2.3592738214531486,0.0165045578032732,-0.2439786195755005,-0.9696401357650757,-0.008446463383734226,-0.009803438559174538,-0.0040177758783102036,0.003438679501414299,0.002782955765724182,-0.001612246036529541
291,0.015896774445911414,0.24908380900739127,-2.357546585307564,0.015405530110001564,-0.246516153216362,-0.9690162539482117,0.017014155164361,0.01774110272526741,0.004312059376388788,-0.009958140552043915,-0.0046892911195755005,0.00417250394821167
292,0.015599522840323668,0.24847960251139395,-2.358939266807652,0.015119808726012707,-0.2459305375814438,-0.9691694974899292,0.04815003275871277,-0.009767984971404076,0.04022593051195145,0.009904607199132442,-0.0026656240224838257,-0.027366697788238525
293,0.01718376079694224,0.250862356566032,-2.35896106996124,0.016645068302750587,-0.2482394129037857,-0.9685556888580322,-0.046629589051008224,-0.003765375819057226,-0.026622828096151352,-0.0015236083418130875,0.005182176828384399,0.008076012134552002
294,0.01456200789036117,0.25421223996003783,-2.3570869997923602,0.014093511737883091,-0.2514830529689789,-0.9677590727806091,0.08848250657320023,-0.012141430750489235,0.043471090495586395,0.0008143261075019836,-0.008282572031021118,0.002259194850921631
295,0.01410851882972295,0.2534253098788563,-2.358205981701654,0.013657430186867714,-0.2507213354110718,-0.9679629802703857,-0.016777046024799347,-0.01471661776304245,-0.040716081857681274,-0.0004738345742225647,0.006061911582946777,-3.933906555175781e-05
296,0.01278568958168924,0.2567845468221209,-2.358051587798036,0.012366130948066711,-0.2539718449115753,-0.967132568359375,0.019571978598833084,-0.023354601114988327,-0.005456260871142149,0.0037776678800582886,-0.0016891658306121826,0.0087432861328125
297,0.011358802518556735,0.2569193700118022,-2.358540899285451,0.010985740460455418,-0.25410225987434387,-0.9671149849891663,0.026706304401159286,-0.019525103271007538,0.024251343682408333,0.003540627658367157,-0.0016808509826660156,-0.00859302282333374
298,0.010329819329873023,0.2575825189602544,-2.357914002005885,0.009988847188651562,-0.2547435760498047,-0.9669570326805115,-0.017202921211719513,-0.006388602778315544,0.0005716059822589159,0.0011042878031730652,-0.0054035186767578125,-0.006630003452301025
299,0.008264480413374081,0.2588505218790825,-2.3577613661426393,0.007989057339727879,-0.2559695243835449,-0.9666518568992615,0.00553069356828928,0.007737013511359692,0.01206183061003685,-0.009926922619342804,-0.003643512725830078,-0.0016556382179260254
300,0.008589848645444851,0.2583748749537194,-2.3592823618303447,0.00830461923032999,-0.25550970435142517,-0.9667708277702332,-0.01413741521537304,-0.010032933205366135,-0.0138145936653018,0.0034751668572425842,0.005479186773300171,0.0010573267936706543
301,0.006983391048391821,0.2590184813232454,-2.3578514468089717,0.006750382948666811,-0.2561318874359131,-0.9666182994842529,0.011081289499998093,-0.014271356165409088,0.02352718636393547,-0.003958024084568024,-0.002687692642211914,0.0032699108123779297
302,0.0070415171630808055,0.25756318669532385,-2.3586152707677903,0.006809186190366745,-0.2547248899936676,-0.9669895768165588,-0.02051968313753605,-0.0009169052354991436,-0.016979502514004707,0.0016289204359054565,-0.0007987916469573975,0.003336012363433838
303,0.006074315924215378,0.25725496097189426,-2.358793750801015,0.00587438652291894,-0.2544268071651459,-0.9670742154121399,0.015073340386152267,0.0071630580350756645,0.01144452765583992,0.0015719011425971985,0.002214282751083374,-0.004147708415985107
304,0.005250502578166607,0.2564632290836718,-2.3589469945925376,0.005078752059489489,-0.25366103649139404,-0.967279851436615,-0.027172572910785675,-0.03380684554576874,-0.015095171518623829,-0.0007452517747879028,0.003798365592956543,0.0014137625694274902
305,0.0005094205846305986,0.25423097378406934,-2.3579855107943857,0.0004930462455376983,-0.2515011727809906,-0.9678568840026855,-0.013931351713836193,-0.061510778963565826,0.004558735992759466,0.004130370914936066,-0.0033511221408843994,-0.0011372566223144531
306,-0.003912877267536169,0.253582301461927,-2.3575612061653572,-0.0037877336144447327,-0.25087329745292664,-0.9680125117301941,-1.1557713150978088e-06,-0.1557864099740982,0.02006392553448677,0.012607313692569733,0.0008885860443115234,-0.010121583938598633
307,-0.017273518977550778,0.26436011861920966,-2.3545787308688544,-0.016672605648636818,-0.2612916827201843,-0.9651159048080444,0.1515319049358368,-0.07459038496017456,0.053564637899398804,0.0033364295959472656,0.0069123804569244385,0.0036290884017944336
308,-0.05089383920733978,0.28814834937094996,-2.340349828204853,-0.048774510622024536,-0.28417739272117615,-0.9575302600860596,0.5201874375343323,-0.07053106278181076,0.087997667491436,0.030677594244480133,0.046033501625061035,0.030375778675079346
309,-0.07096708739373565,0.30244133688273134,-2.3258484243643824,-0.0676891952753067,-0.2978516221046448,-0.9522092938423157,-0.03565956652164459,0.10460133105516434,0.06246337294578552,-0.0580890029668808,-0.022613465785980225,-0.007507443428039551
310,-0.028753361634369073,0.28544357188899144,-2.3430633402296404,-0.027586108073592186,-0.28158310055732727,-0.9591402411460876,-0.6657847762107849,0.7357068657875061,-0.12380114197731018,-0.02427852153778076,-0.03842422366142273,0.09201377630233765
311,0.029162641169516876,0.1700705898361953,-2.2727936266884003,0.028737831860780716,-0.1692519187927246,-0.9851537346839905,-0.6800339221954346,0.48043522238731384,1.6400762796401978,-0.031316570937633514,-0.1352066844701767,-0.24317872524261475
312,0.08712299338102183,0.19201734579834379,-2.196246598731031,0.08541363477706909,-0.19083955883979797,-0.977898120880127,0.4572376012802124,-0.06739768385887146,-0.8164517283439636,0.03870135545730591,-0.035829752683639526,-0.10869550704956055
313,0.07108202227056115,0.13636001372600742,-2.2220691169966065,0.07036290317773819,-0.13593782484531403,-0.9882155656814575,-0.19144600629806519,0.5589349865913391,1.0066715478897095,0.08791650831699371,0.18673433363437653,-0.04207313060760498
314,-0.17286653269550864,0.2526994864634952,-2.1669841295692867,-0.1665440946817398,-0.2500186264514923,-0.9538100957870483,1.8018603324890137,-4.91077184677124,0.822657585144043,0.352426677942276,-0.1783718466758728,-0.07898098230361938
315,-0.6391902342944813,0.5043360926509233,-1.9921143764787632,-0.522273063659668,-0.48322629928588867,-0.7026543021202087,3.7848703861236572,-4.309506893157959,1.1097491979599,0.24235057830810547,0.02770569920539856,-0.20324468612670898
316,-1.2364008641059319,0.7211751061970264,-1.588957554451054,-0.7094299793243408,-0.6602676510810852,-0.24648679792881012,3.749437093734741,-3.740588426589966,0.23139052093029022,0.17610478401184082,0.044773876667022705,-0.11098086833953857
317,-2.089564367004566,0.6238765811647508,-0.9984750327994674,-0.7048355937004089,-0.5841858386993408,0.40240976214408875,5.51993989944458,-4.905338287353516,0.5111177563667297,0.19261330366134644,0.2679321765899658,-0.10175061225891113
318,-2.623685236072957,0.3055107074204196,-0.6750966958828509,-0.47213849425315857,-0.3007802665233612,0.8286234140396118,3.4308433532714844,-3.1270647048950195,0.4851795434951782,0.2017984688282013,0.1390218436717987,0.07320165634155273
319,-2.7630934933338684,0.16705646900263998,-0.6531215386673732,-0.36438196897506714,-0.16628052294254303,0.9162843227386475,0.6871986985206604,-0.46212634444236755,-0.15790626406669617,-0.08405858278274536,0.18428586423397064,-0.08489382266998291
320,-2.767830448912413,0.0857415869678072,-0.619095757997413,-0.3637791872024536,-0.08563657104969025,0.9275403618812561,0.7603366374969482,0.2948325276374817,0.4877240061759949,0.060190349817276,0.03796812891960144,-0.027790606021881104
321,-2.7654365593710217,0.03868259633226837,-0.6174197820414751,-0.3670732378959656,-0.038672950118780136,0.9293878078460693,-0.8020341396331787,0.731174111366272,0.03774676471948624,0.036766231060028076,-0.07744643092155457,0.19091248512268066
322,-2.7822036595865294,0.018812818257185546,-0.6189887015117628,-0.35164007544517517,-0.018811708316206932,0.9359462261199951,1.305301547050476,-0.9392613172531128,0.35238561034202576,-0.03449881076812744,0.03533697873353958,-0.024691343307495117
323,-2.931169813971651,-0.11801237831690702,-0.5929395730589656,-0.20742066204547882,0.11773864179849625,0.9711408615112305,1.233033299446106,-2.1316492557525635,-0.02593410015106201,-0.06879395246505737,-0.026079080998897552,0.05576050281524658
324,-3.0620937205317342,-0.17226498914801971,-0.5571382522389318,-0.07823982834815979,0.17141425609588623,0.9820877313613892,-0.5320244431495667,0.3739051818847656,0.2903772294521332,0.018211722373962402,-0.06109316647052765,0.27368032932281494
325,-3.020278430210344,-0.10691451801289036,-0.5477089084967762,-0.12032588571310043,0.10671094805002213,0.9869825839996338,-0.4056636691093445,0.13180381059646606,-0.054030369967222214,0.00023920834064483643,0.027093373239040375,-0.04646134376525879
326,-2.9039099482981925,-0.026852357303011398,-0.5602103623510084,-0.23536624014377594,0.026849130168557167,0.971535861492157,-1.394870638847351,1.9481489658355713,0.21430234611034393,-0.012009277939796448,0.04602685198187828,0.030524134635925293
327,-2.8562031477816157,0.0021488836158106905,-0.5560525365167089,-0.28153061866760254,-0.002148882020264864,0.9595499634742737,0.8431583046913147,-0.8376719355583191,0.042548682540655136,0.03053876757621765,0.020200029015541077,-0.1259775161743164
328,-2.892377742424722,-0.039815146917357984,-0.5313143873996126,-0.24644772708415985,0.03980462998151779,0.9683382511138916,0.08999398350715637,-0.031102413311600685,0.010899392887949944,0.04507748782634735,0.02000981941819191,0.023467719554901123
329,-2.902131709885464,-0.07304202241541473,-0.5171039028061497,-0.23654663562774658,0.07297708839178085,0.9688759446144104,0.38743939995765686,-0.16381604969501495,-0.04824849218130112,-0.0485028475522995,-0.02410317212343216,0.03904366493225098
330,-2.9068750967621697,-0.07975057921361342,-0.497669386332226,-0.23182916641235352,0.07966607064008713,0.9694890975952148,0.08898250013589859,-0.02529926598072052,-0.018933285027742386,-0.01441723108291626,0.01605234295129776,-0.03798556327819824
331,-2.909023497117659,-0.08745740362179928,-0.4840968122398066,-0.22959741950035095,0.08734595775604248,0.969358503818512,0.04262687265872955,-0.022896097972989082,0.10609985888004303,0.028318703174591064,0.0055648162961006165,-0.0067882537841796875
332,-2.939316420995299,-0.11190750352022713,-0.48543381561439836,-0.19964297115802765,0.11167407780885696,0.9734839797019958,0.2883918583393097,-0.3313562572002411,0.13408240675926208,-0.04347522556781769,0.015752039849758148,0.010371923446655273
333,-2.9660488025977236,-0.13672614751418394,-0.48637190401982283,-0.17301379144191742,0.13630054891109467,0.9754425883293152,0.254142701625824,-0.14354515075683594,0.111902616918087,0.04140675067901611,0.01213693618774414,-0.04999709129333496
334,-2.976986023066791,-0.17063812087594918,-0.49089855873812793,-0.16148440539836884,0.16981123387813568,0.9721556901931763,0.22449864447116852,-0.14702697098255157,0.25264111161231995,0.008438780903816223,-0.02437974512577057,0.044918715953826904
335,-3.078356209872219,-0.20117135408424536,-0.47859163819682254,-0.06191989406943321,0.19981719553470612,0.9778749942779541,0.2833969295024872,-1.229096531867981,-0.3055584728717804,-0.06886319816112518,0.008404269814491272,0.0843658447265625
336,3.127550993010068,-0.1908591968332265,-0.413807457031301,0.013786232098937035,0.18970255553722382,0.9817447066307068,-0.3621533513069153,-0.3497382402420044,-0.60841965675354,0.004005515016615391,0.012949392199516296,-0.015741407871246338
337,-3.134192229824566,-0.16971871981502684,-0.37068609230047345,-0.007294030394405127,0.1689051240682602,0.9856053590774536,0.13459821045398712,0.14739061892032623,-0.32512733340263367,-0.034377723932266235,0.002618923783302307,-0.10370838642120361
338,3.0913204076657936,-0.23230937691877515,-0.3354759037438437,0.04890119656920433,0.23022547364234924,0.971907913684845,0.6554338932037354,-0.5027367472648621,-0.10511154681444168,0.03656328469514847,0.004775121808052063,0.0626227855682373
339,3.043249223783054,-0.22045581574840303,-0.3177274578720571,0.09580869972705841,0.218674436211586,0.9710829854011536,-0.4453320801258087,-0.4636700749397278,-0.21385055780410767,0.03300599753856659,-0.016251340508461,0.05639803409576416
340,3.061845589200898,-0.1803813960834707,-0.3141548818184747,0.07837007194757462,0.17940479516983032,0.9806488752365112,-0.5334299206733704,0.297377347946167,0.14539989829063416,0.027327552437782288,0.03630870580673218,-0.04237067699432373
341,3.0798200216302893,-0.1698412673646618,-0.32896523764907887,0.06084511801600456,0.16902589797973633,0.9837318658828735,0.17774543166160583,0.4906027615070343,0.3315584659576416,0.0047219060361385345,-0.016849979758262634,0.062075138092041016
342,3.1013820520038426,-0.1489126781486721,-0.3328429497115014,0.03975488618016243,0.148362934589386,0.9881338477134705,-0.22794800996780396,0.28032487630844116,-0.10092716664075851,-0.03792382776737213,0.05045910179615021,-0.04749035835266113
343,3.0656565308374923,-0.18992810923078976,-0.32023790965321963,0.0744989812374115,0.1887882947921753,0.9791878461837769,0.7944622039794922,-0.6281024217605591,0.0029747041407972574,0.026544712483882904,-0.05416001379489899,-0.03341764211654663
344,3.018520980872626,-0.23541044122692187,-0.32475657130700614,0.11937527358531952,0.23324212431907654,0.9650632739067078,0.3315129578113556,-0.4833245575428009,-0.14299213886260986,-0.0019131451845169067,-0.012249141931533813,0.03476858139038086
345,3.025766883065377,-0.20977322364940074,-0.33267830369149376,0.11303354799747467,0.20823809504508972,0.9715248942375183,-0.4287373423576355,0.29623889923095703,0.0286567360162735,-0.03242135047912598,0.031080782413482666,-0.036450862884521484
346,3.0528951347511963,-0.21692197816523037,-0.3288224656349711,0.08650532364845276,0.2152247577905655,0.9727256298065186,0.30781295895576477,0.3586669862270355,0.015555905178189278,0.01792582869529724,0.01364181935787201,0.020758867263793945
347,3.066300081039593,-0.22352389255369867,-0.33479108052359347,0.07335013896226883,0.22166721522808075,0.9723598957061768,0.06227396801114082,0.12367350608110428,0.05601690709590912,0.008711643517017365,0.008450597524642944,0.018744349479675293
348,3.049925033678458,-0.215894485283517,-0.33824382696823857,0.08941421657800674,0.21422123908996582,0.9726840257644653,-0.49490073323249817,-0.21019910275936127,0.15867826342582703,0.0019096210598945618,-0.0005676895380020142,0.012759029865264893
349,3.016242859357985,-0.18247811183199028,-0.33860346266616853,0.12294601649045944,0.18146710097789764,0.975680947303772,-0.18820197880268097,-0.32537901401519775,-0.03545242175459862,-0.005773812532424927,0.006826296448707581,0.013530731201171875
350,2.973559394140353,-0.12766186851839376,-0.3357559198606704,0.1658826470375061,0.12731538712978363,0.9778924584388733,-0.8506019711494446,-0.33883821964263916,0.1511325091123581,-0.00017219781875610352,0.014988064765930176,0.050626158714294434
351,2.9330408042114455,-0.03808204993141739,-0.3295022914593595,0.20689325034618378,0.038072846829891205,0.9776225090026855,-0.8135927319526672,-0.20932038128376007,0.24743710458278656,-0.012114807963371277,-9.372085332870483e-05,-0.018638134002685547
352,2.924830901701814,0.016204509344334008,-0.3302836327218915,0.21504008769989014,-0.016203800216317177,0.976470947265625,-0.03390226513147354,-0.2671736478805542,-0.045532967895269394,-0.006910160183906555,0.0024251118302345276,-0.06027209758758545
353,2.8729479241658646,0.025643194911178332,-0.3171096660186804,0.2653377652168274,-0.02564038522541523,0.9638146162033081,-0.2870284616947174,-0.46551513671875,-0.19615960121154785,-0.009829312562942505,0.017782103270292282,0.056723833084106445
354,2.8376825061187447,0.041558905367444936,-0.30297959879655295,0.2989950180053711,-0.04154694452881813,0.9533496499061584,-0.2626945674419403,-0.2743743658065796,0.023681096732616425,0.03056424856185913,-0.004717696458101273,0.0474589467048645
355,2.819483728721333,0.06712298154816995,-0.2924776385449558,0.31585487723350525,-0.06707259267568588,0.9464339017868042,-0.1360795944929123,-0.12526816129684448,-0.06640535593032837,-0.015470355749130249,-0.0009968653321266174,-0.0275648832321167
356,2.8061391767649417,0.07440096245618064,-0.28389736680674404,0.3282867670059204,-0.0743323415517807,0.9416490793228149,-0.16868804395198822,0.11117710173130035,0.23325632512569427,-0.004861384630203247,0.006461232900619507,0.03399813175201416
357,2.8096391671478815,0.07175126099599703,-0.28298365933554964,0.3250519633293152,-0.07168971002101898,0.9429749846458435,0.10722483694553375,0.021977096796035767,-0.10408920049667358,0.023016244173049927,-0.01733005791902542,0.006182730197906494
358,2.8205025410404216,0.08062170870754017,-0.2840542685530204,0.31457605957984924,-0.08053439855575562,0.9458099007606506,0.009283328428864479,0.06338053941726685,-0.09165579825639725,-0.008057475090026855,0.007414273917675018,-0.03637075424194336
359,2.817184672079044,0.07653765682722274,-0.2804251613194805,0.31781458854675293,-0.07646295428276062,0.9450648427009583,-0.08841204643249512,-0.07307112216949463,0.023412302136421204,-0.01271510124206543,-0.00224187970161438,0.023212194442749023
360,2.812097393175383,0.0886279061404436,-0.275721885017268,0.32229554653167725,-0.08851192146539688,0.9424921274185181,-0.22153833508491516,-0.08428193628787994,0.015984028577804565,0.004852920770645142,-0.004658252000808716,0.013272762298583984
361,2.781308244090249,0.12147101011521723,-0.25658441221524214,0.34994271397590637,-0.12117251008749008,0.928901195526123,-0.49060288071632385,-0.4172876179218292,-0.1318712830543518,0.010668277740478516,-0.0009588524699211121,-0.004157543182373047
362,2.7565213239309463,0.14700594474229545,-0.24204156328454077,0.37157371640205383,-0.14647702872753143,0.9167754054069519,0.038353629410266876,-0.11265954375267029,-0.09481500834226608,-0.043174147605895996,0.04509766399860382,-0.02837836742401123
363,2.753622512170202,0.1401563874612161,-0.2363540617263907,0.37460047006607056,-0.13969796895980835,0.9166015982627869,0.016794750466942787,0.007679510861635208,-0.05524749308824539,0.023470759391784668,-0.008831053972244263,0.014993011951446533
364,2.74441061792118,0.14846556467440888,-0.23212495005546424,0.3825658857822418,-0.14792075753211975,0.912010133266449,-0.20379605889320374,-0.06362424045801163,0.03053984045982361,-0.013730525970458984,-0.004850208759307861,-0.0036851167678833008
365,2.7464399645448156,0.15038452890481588,-0.22874227474188386,0.3806043565273285,-0.1498183310031891,0.9125210046768188,0.08943162113428116,0.0033489642664790154,-0.10094353556632996,0.008708328008651733,0.0031966418027877808,-0.0062100887298583984
366,2.7466859569433515,0.14365262113404512,-0.22793818024380463,0.3807593286037445,-0.14315906167030334,0.9135249853134155,0.06999910622835159,0.030319154262542725,-0.11060497164726257,-0.003943502902984619,0.005616337060928345,0.029025673866271973
367,2.740908687630947,0.14699653028325024,-0.2234443604227799,0.3858416974544525,-0.14646771550178528,0.910863995552063,-0.18160094320774078,-0.06770870089530945,0.13413475453853607,0.01514396071434021,0.016890093684196472,0.013345539569854736
368,2.7275361625575223,0.15120196597229366,-0.21849217126913384,0.39773616194725037,-0.15062649548053741,0.9050513505935669,-0.016249103471636772,-0.27157673239707947,-0.14183592796325684,0.0348505973815918,-0.003929793834686279,-0.031699180603027344
369,2.6893003488702907,0.14842375337328473,-0.20175223295945807,0.43222343921661377,-0.14787940680980682,0.8895583748817444,-0.1326284557580948,-0.22083529829978943,-0.06795625388622284,-0.04039308428764343,-0.005700290203094482,0.03664982318878174
370,2.6669810716943982,0.13944424897323626,-0.17572478551096274,0.4525572657585144,-0.1389927864074707,0.8808367848396301,0.0024561164900660515,-0.356656938791275,-0.4811623990535736,0.030795514583587646,0.004578083753585815,0.0025557279586791992
371,2.597370801191424,0.11837407126427688,-0.12230743787443703,0.5141292214393616,-0.11809781193733215,0.8495433330535889,-0.172698512673378,-0.44794997572898865,-0.1795322149991989,0.010559439659118652,-0.05734772980213165,0.017750859260559082
372,2.557433306482564,0.12900877518758636,-0.10151485021928204,0.5469151735305786,-0.1286512166261673,0.8272436857223511,-0.16779665648937225,-0.21636195480823517,-0.017492981627583504,-0.02172309160232544,0.02110731601715088,0.019054293632507324
373,2.5445910779032594,0.12556203631402685,-0.09760755720647127,0.5577396750450134,-0.12523236870765686,0.8205143213272095,0.12396618723869324,-0.11177794635295868,-0.11260277032852173,0.001922309398651123,0.014041543006896973,-0.009311139583587646
374,2.5435721849671507,0.12751256677401712,-0.10225894286072977,0.5584367513656616,-0.12716729938983917,0.8197421431541443,-0.08513004332780838,0.03333967179059982,0.12232031673192978,-0.006312668323516846,0.0007024407386779785,-0.02048659324645996
375,2.5518124695424653,0.1272282921587268,-0.1130042414832148,0.5516830086708069,-0.126885324716568,0.8243458271026611,0.11929081380367279,0.0810803771018982,-4.1582854464650154e-05,-0.016801416873931885,-0.009879201650619507,-0.013814210891723633
376,2.5684174171737015,0.12376478322551192,-0.12324407575811078,0.5381544828414917,-0.12344905734062195,0.8337567448616028,0.12430479377508163,0.19277918338775635,0.08925174176692963,0.021125972270965576,-0.007868096232414246,0.002699613571166992
377,2.5768688417586736,0.12765993685820157,-0.13386287393123203,0.5308275818824768,-0.12731347978115082,0.8378626108169556,-0.030678702518343925,0.09886974841356277,0.08325512707233429,-0.02295398712158203,0.011316150426864624,-0.013155460357666016
378,2.5901432221905725,0.11938792075030659,-0.14170589719190266,0.5201928615570068,-0.11910450458526611,0.8457027673721313,0.2390495091676712,0.0992414578795433,-0.05221555009484291,0.0015966296195983887,0.009790562093257904,-0.016372501850128174
379,2.6005527535673263,0.10715853691805392,-0.15138225187981544,0.5120736360549927,-0.10695356875658035,0.8522570729255676,0.10371258854866028,0.12144055962562561,-0.013936706818640232,-0.003711700439453125,-0.002574034035205841,0.014839112758636475
380,2.6070232137023353,0.10636577744698371,-0.151964540677029,0.5065914392471313,-0.1061653271317482,0.8556252121925354,-0.10291488468647003,0.11399302631616592,0.17644335329532623,0.010330617427825928,-0.004750832915306091,0.018581509590148926
381,2.642715854044654,0.1110441940368658,-0.1681676688199512,0.47549280524253845,-0.1108161211013794,0.8727121353149414,0.3861042261123657,0.8485047221183777,0.31381165981292725,0.02745211124420166,-0.028466105461120605,-0.009034156799316406
382,2.857777640508158,0.119421276370362,-0.240468616429787,0.27802571654319763,-0.11913762241601944,0.9531568884849548,0.21798624098300934,3.195967674255371,1.082308053970337,0.11970993876457214,-0.04703059792518616,0.0011278390884399414
383,-3.1253227640289505,0.14775724141644944,-0.3038790764244552,-0.01609189808368683,-0.147220179438591,0.9889727830886841,-0.5860971212387085,2.025420904159546,0.15603935718536377,0.0018859673291444778,0.029132425785064697,-0.028920352458953857
384,-2.943162089095041,0.20864870918796177,-0.3342364093683051,-0.19285549223423004,-0.20713810622692108,0.9591144323348999,-0.4555715322494507,1.455864667892456,0.11954362690448761,0.02453581988811493,-0.014068558812141418,-0.03157848119735718
385,-2.818358812333012,0.21816983056142442,-0.354547986478008,-0.3101051151752472,-0.21644319593906403,0.9257360100746155,0.20985594391822815,1.2041887044906616,0.46003517508506775,0.07440266013145447,0.024335041642189026,-0.03317314386367798
386,-2.5907143322029116,0.1599622523061936,-0.40954750860952993,-0.5167533159255981,-0.1592809408903122,0.8411871194839478,0.5940346717834473,3.30774188041687,0.6464253067970276,-0.01200956106185913,0.0282231867313385,0.1386408805847168
387,-2.24629548328203,0.22090930923769653,-0.5202751235849868,-0.7614300847053528,-0.2191169261932373,0.6100914478302002,-1.9790232181549072,3.555663824081421,0.27973222732543945,0.09547567367553711,0.07573015987873077,0.049851059913635254
388,-1.8820405797425508,0.2818219212227328,-0.6687381960431333,-0.9143989682197571,-0.278106153011322,0.2941621243953705,-1.2925654649734497,2.9004173278808594,0.07436861842870712,0.06848233938217163,0.06506296992301941,0.07066032290458679
389,-1.6945957923200938,0.29595237097718513,-0.7485136393696661,-0.9492042660713196,-0.2916509509086609,0.11811501532793045,-0.06286300718784332,0.6154559254646301,-0.1192912757396698,0.004090070724487305,0.009103953838348389,-0.10181868076324463
390,-1.6565020192824425,0.29496311117325286,-0.7697830171705324,-0.9533010125160217,-0.29070454835891724,0.08190396428108215,-0.04874585568904877,-0.23891609907150269,0.18389064073562622,0.06893199682235718,-0.01753827929496765,-0.06926964968442917
391,-1.6827285823699598,0.26901975638564984,-0.7682747347784774,-0.9579992294311523,-0.2657865881919861,0.10768109560012817,0.048179756850004196,0.1736736297607422,0.19774536788463593,-0.021599888801574707,0.007958799600601196,-0.032882556319236755
392,-1.6786947792325388,0.25549077649188573,-0.7584709733691898,-0.9619126915931702,-0.25272029638290405,0.1041935458779335,0.03674742579460144,-0.15184827148914337,0.05074942857027054,-0.04124581813812256,-0.00933411717414856,0.02982436865568161
393,-1.682353064466182,0.25657161352302604,-0.7569619352096686,-0.9612529873847961,-0.25376588106155396,0.10768131166696548,0.01236211322247982,0.10332027822732925,0.0137320626527071,0.012461662292480469,0.025555461645126343,-0.003524795174598694
394,-1.673063546126102,0.25003621277520915,-0.7587714851861498,-0.9638410806655884,-0.24743904173374176,0.09891442209482193,-0.07677633315324783,0.07833400368690491,0.04762350767850876,0.0010116100311279297,0.005205810070037842,-0.003531709313392639
395,-1.673602281735468,0.24702219920405274,-0.7589957799882484,-0.9645253419876099,-0.24451763927936554,0.09950976818799973,0.0710761547088623,-0.000999415758997202,0.054969675838947296,-0.012205123901367188,0.007609650492668152,-0.015464410185813904
396,-1.6795851116665168,0.2439420354042232,-0.7526996265073927,-0.9646567702293396,-0.24152982234954834,0.10535981506109238,-0.015245337039232254,0.04829604923725128,-0.03885139897465706,-0.0155525803565979,0.02210843563079834,0.024873971939086914
397,-1.6787595089134044,0.24156761246448605,-0.7527736431848019,-0.9653109312057495,-0.23922501504421234,0.10462485998868942,-0.008066737093031406,-0.0630992203950882,0.05292213335633278,0.02489638328552246,-0.0030845701694488525,0.014592066407203674
398,-1.6764631088397288,0.2379900134696128,-0.7598842925994174,-0.9663933515548706,-0.2357497662305832,0.10249743610620499,0.03302519768476486,-0.06864321231842041,0.06681150197982788,0.006676733493804932,0.0022598356008529663,-0.02096964418888092
399,-1.682396424640839,0.22706387727831803,-0.7624005005919616,-0.9682705402374268,-0.2251177430152893,0.10850994288921356,0.036274656653404236,-0.14671170711517334,0.09889071434736252,-0.016638636589050293,0.007023826241493225,-0.027745231986045837
400,-1.6879051005422978,0.2237141937833524,-0.7687476801381627,-0.9684013724327087,-0.22185277938842773,0.11392960697412491,-0.03621456027030945,-0.053304463624954224,0.012519358657300472,-0.0005316734313964844,0.013524532318115234,-0.004127390682697296
401,-1.6895658998393313,0.22138367196464143,-0.7718652768588459,-0.9687217473983765,-0.21957974135875702,0.11559873074293137,-0.04958339035511017,0.035775769501924515,0.004150454420596361,0.022203803062438965,-0.007410019636154175,0.008226394653320312
402,-1.6760712546557348,0.21569992829163,-0.7820998408822826,-0.9714188575744629,-0.2140311896800995,0.10264553129673004,-0.030791327357292175,0.07493649423122406,0.18101470172405243,0.03163003921508789,0.004695862531661987,-0.020248055458068848
403,-1.679834633900536,0.19988592762315233,-0.7845993566996883,-0.9742686748504639,-0.1985575258731842,0.10665562748908997,-0.0056280530989170074,-0.01924801617860794,0.1075848713517189,-0.0010425448417663574,0.007700607180595398,0.002490513026714325
404,-1.667728073670415,0.19498096909787904,-0.7905706293622398,-0.9764460325241089,-0.1937478631734848,0.09494616836309433,-0.056549157947301865,0.03142479807138443,0.10613014549016953,0.003530442714691162,0.007651671767234802,-0.030645616352558136
405,-1.6749129394843292,0.18943134388759564,-0.7848134807523331,-0.9767930507659912,-0.18830044567584991,0.10206946730613708,-0.023996412754058838,0.0009252633899450302,-0.04968991130590439,-0.06252878904342651,0.026419997215270996,0.046078190207481384
406,-1.6775343518723302,0.1989235834047262,-0.790198356328243,-0.9747012257575989,-0.19761425256729126,0.10443459451198578,-0.09285413473844528,0.029120534658432007,-0.16253215074539185,0.013824522495269775,0.005185648798942566,0.011120341718196869
407,-1.679123396557583,0.20282055653341508,-0.8004567410881512,-0.9737609624862671,-0.20143286883831024,0.10589922964572906,0.0010206103324890137,-0.19009193778038025,0.08928218483924866,0.04392075538635254,0.0017715990543365479,-0.03752468526363373
408,-1.6790209260935487,0.19861644518564942,-0.8079004571691014,-0.9746050834655762,-0.19731315970420837,0.10588998347520828,-0.02495897188782692,0.018693726509809494,0.06628452986478806,0.03380906581878662,-0.013609111309051514,-0.026315316557884216
409,-1.681122374791084,0.19483237811557064,-0.8041020146410628,-0.9751154184341431,-0.1936020851135254,0.10801924765110016,0.01023729145526886,-0.007030520122498274,-0.025971371680498123,-0.032803893089294434,0.01710367202758789,0.005597710609436035
410,-1.6858566778007622,0.19878543237873725,-0.7978260953550649,-0.9738252758979797,-0.19747883081436157,0.11254577338695526,0.05273208022117615,-0.012147932313382626,-0.15687943994998932,-0.05106186866760254,0.004958659410476685,0.03615105152130127
411,-1.6897589810935223,0.21640030631258816,-0.7988594421196522,-0.9697737693786621,-0.21471528708934784,0.11591418832540512,0.013754177838563919,-0.0812295600771904,-0.16355516016483307,-0.012724339962005615,0.04590731859207153,0.010642290115356445
412,-1.6957989333207366,0.22699443858970952,-0.8027062649457795,-0.9667446613311768,-0.22505007684230804,0.12147898972034454,-0.15015926957130432,-0.08583391457796097,-0.161834716796875,0.03847628831863403,-0.017717227339744568,0.024227134883403778
413,-1.6975909554674835,0.2410851728318763,-0.8151224779726787,-0.9632838368415833,-0.23875655233860016,0.12279799580574036,-0.15184074640274048,0.23628656566143036,-0.1950681060552597,-0.0026736855506896973,0.0012535303831100464,-0.017024047672748566
414,-1.6192445354144709,0.2790522974929555,-0.8367484507435369,-0.9601890444755554,-0.27544471621513367,0.04655586928129196,-0.1341785043478012,0.7151106595993042,-0.45345571637153625,0.01455599069595337,-0.04068690538406372,-0.03810250386595726
415,-1.5393902950811023,0.31857746530047415,-0.8601396665468269,-0.949213445186615,-0.3132159113883972,-0.02982083335518837,-0.23005080223083496,0.6712890863418579,-0.2122865617275238,0.034647583961486816,0.04490545392036438,-0.017542416229844093
416,-1.509059658651545,0.31909174725761813,-0.8845184797342637,-0.9477118849754333,-0.3137042820453644,-0.05858302116394043,-0.3282068371772766,-0.1368553191423416,0.18496735394001007,-0.02604299783706665,0.023207485675811768,0.01210474967956543
417,-1.5380742502708091,0.3102856465221446,-0.9042901156637855,-0.9517367482185364,-0.30533066391944885,-0.031153922900557518,-0.20946770906448364,-0.24733901023864746,-0.07287538796663284,0.002594172954559326,-0.010526269674301147,0.05173802003264427
418,-1.5413520529200597,0.31106499250142944,-0.9600746584068789,-0.9515956044197083,-0.3060726821422577,-0.028027141466736794,-0.7291197180747986,-0.17866776883602142,0.12064474076032639,0.09362435340881348,0.00509306788444519,0.05758344754576683
419,-1.5197698246330893,0.279691245824885,-1.0464617596135555,-0.9598897695541382,-0.2760589122772217,-0.0490223728120327,-0.5760617852210999,0.006127091124653816,0.32140040397644043,0.022359251976013184,0.0017974376678466797,-0.049793541431427
420,-1.5170327397778245,0.24845005942134232,-1.0854691175485083,-0.9678941965103149,-0.2459019124507904,-0.05208766087889671,-0.18502753973007202,0.1823633760213852,0.16611869633197784,-0.04972970485687256,0.05061990022659302,-0.05168735980987549
421,-1.4749994400731932,0.23252385438071108,-1.1048655393299962,-0.9686262011528015,-0.23043419420719147,-0.09307627379894257,-0.30170008540153503,0.4916795790195465,0.05680899694561958,-0.037370383739471436,-0.05366921424865723,0.007291384041309357
422,-1.4486418303328936,0.23069497575408432,-1.1251865906659533,-0.966253399848938,-0.228654146194458,-0.1186228096485138,-0.009098069742321968,0.02256893739104271,0.13635168969631195,0.036611855030059814,0.010346725583076477,-0.017943359911441803
423,-1.4656886059260508,0.214552451949504,-1.120962151847013,-0.9716795086860657,-0.21291016042232513,-0.1025087907910347,-0.07341913878917694,-0.06802446395158768,0.03276880085468292,-0.02067577838897705,-0.007304653525352478,0.0299837663769722
424,-1.4566774192572076,0.2021151043785319,-1.1320545648166287,-0.9732721447944641,-0.20074182748794556,-0.11155343055725098,0.15594959259033203,-0.07939562946557999,0.3362727761268616,0.029760122299194336,-0.0038479864597320557,-0.07263541221618652
425,-1.468600849733224,0.18803762812027477,-1.1214433734430531,-0.9772474765777588,-0.18693147599697113,-0.10021940618753433,0.09271597862243652,-0.20706114172935486,-0.08604780584573746,-0.046601951122283936,-0.00969327986240387,-0.02166777104139328
426,-1.4727432034864696,0.19194490333027373,-1.127638116755755,-0.9769198894500732,-0.19076843559741974,-0.09609822183847427,-0.07730533182621002,0.06577168405056,-0.04608869180083275,0.0027378201484680176,-0.0049102455377578735,-0.004380933940410614
427,-1.4864966912215796,0.18624681459652928,-1.1253521786625613,-0.9792163372039795,-0.1851719319820404,-0.08274368196725845,0.041653506457805634,-0.0016285176388919353,0.051291581243276596,-0.012620091438293457,0.004797831177711487,-0.012974731624126434
428,-1.4898222514548227,0.18830483546204657,-1.1215613937259044,-0.979104220867157,-0.18719395995140076,-0.07945579290390015,0.03851011395454407,-0.014317173510789871,-0.10139311850070953,-0.003454864025115967,-0.012024804949760437,-0.0007901713252067566
429,-1.4796358311182796,0.19599591023007093,-1.1198507500272117,-0.9767815470695496,-0.19474346935749054,-0.08929137140512466,0.03811751306056976,0.18200169503688812,-0.01764043979346752,0.031331658363342285,0.0010941624641418457,-0.004901118576526642
430,-1.4765973961346277,0.19560284470642528,-1.1147212759024578,-0.9765818119049072,-0.19435791671276093,-0.0922660306096077,0.0006177341565489769,-0.050215400755405426,0.01828884705901146,0.011127710342407227,-0.013695687055587769,0.0149344801902771
431,-1.4642206143108227,0.1984836792093104,-1.1179887057120688,-0.9748042821884155,-0.1971830129623413,-0.1042855978012085,0.040392257273197174,0.10697399824857712,0.023863160982728004,0.029537558555603027,0.009957671165466309,0.0009530782699584961
432,-1.4756065267406409,0.1923046557924572,-1.11119523904191,-0.9771226048469543,-0.19112157821655273,-0.09329405426979065,0.019426461309194565,-0.16984823346138,0.03159117326140404,-0.022877275943756104,-0.008951649069786072,-0.00027280300855636597
433,-1.469253166297359,0.19974441217920016,-1.1165250376318028,-0.9750686287879944,-0.19841882586479187,-0.09935326129198074,0.006142269819974899,0.07518203556537628,-0.0868874192237854,-0.01110684871673584,0.005868136882781982,-0.026485979557037354
434,-1.4529203989413138,0.2070797193268295,-1.1139993469662328,-0.9718442559242249,-0.20560288429260254,-0.11509059369564056,-0.0038466481491923332,0.13314469158649445,-0.043743062764406204,0.02843928337097168,0.0026457607746124268,0.013604417443275452
435,-1.4493646405614784,0.2072035525235148,-1.1154955795307442,-0.9714037179946899,-0.2057240754365921,-0.11854242533445358,0.02095172181725502,-0.0610724501311779,0.03811972960829735,0.017515838146209717,-0.005884811282157898,-0.010928384959697723
436,-1.4519815062914994,0.21170861329354995,-1.1169012518247405,-0.9707804918289185,-0.21013067662715912,-0.11588896065950394,0.07823765277862549,0.08578453958034515,-0.20305833220481873,-0.03996163606643677,-0.011213317513465881,-0.025727860629558563
437,-1.4396802411076453,0.22624091135492058,-1.1122214994911082,-0.966151773929596,-0.2243158221244812,-0.12740899622440338,0.07827146351337433,0.061359282582998276,-0.0714716762304306,0.011851906776428223,0.006145671010017395,-0.004701599478721619
438,-1.4195788171916746,0.23074683472347962,-1.1092750759868626,-0.9623867273330688,-0.22870463132858276,-0.14664922654628754,0.044600196182727814,0.1623314768075943,-0.02118883654475212,0.03297388553619385,-0.0009859204292297363,0.02688300609588623
439,-1.4185093117552248,0.22603289178663868,-1.118867390721116,-0.9632841944694519,-0.2241131067276001,-0.14784032106399536,-0.08031970262527466,-0.08290910720825195,0.06784062832593918,0.01432490348815918,0.009757652878761292,-0.00210784375667572
440,-1.420897410354548,0.2202998629880376,-1.1236383451089298,-0.9648891687393188,-0.21852225065231323,-0.1457289755344391,0.03934256732463837,-0.014202175661921501,0.022604716941714287,-0.030166983604431152,-0.01017645001411438,-0.0671769380569458
441,-1.4140141652273575,0.22513686212763925,-1.1148111350571912,-0.962807834148407,-0.22323977947235107,-0.15220020711421967,0.11064706742763519,0.08609765768051147,-0.07385766506195068,0.009835541248321533,-0.003215879201889038,-0.007910236716270447
442,-1.4126947035769677,0.2266721850168308,-1.1052520358344127,-0.9622666835784912,-0.2247360795736313,-0.15341633558273315,0.07223701477050781,0.06704095005989075,-0.02287871018052101,-0.011259317398071289,0.0019272863864898682,0.019871413707733154
443,-1.4088114685250777,0.22632062550277404,-1.1067020141284045,-0.96174156665802,-0.22439350187778473,-0.15716460347175598,-0.054414425045251846,-0.04826546087861061,0.03709068149328232,0.01493370532989502,-0.0011466741561889648,0.012099266052246094
444,-1.413087389340909,0.22385705170196354,-1.1140383731946832,-0.9629478454589844,-0.22199207544326782,-0.15313720703125,-0.015064078383147717,-0.058395251631736755,0.015732796862721443,0.001155853271484375,0.0010447949171066284,-0.038162216544151306
445,-1.4124200385663557,0.22299892527560497,-1.1139963352892337,-0.9630331993103027,-0.2211552858352661,-0.1538097858428955,0.03063329868018627,-0.04861631616950035,0.013383605517446995,0.006276607513427734,0.001245647668838501,-0.011732816696166992
446,-1.4216052981529408,0.2231208970973089,-1.1153837196295895,-0.9643787741661072,-0.2212742269039154,-0.14495371282100677,-0.0010168300941586494,-0.06651164591312408,0.035026103258132935,0.006386160850524902,0.006583064794540405,-0.011540412902832031
447,-1.4179110305950655,0.2226773214998176,-1.1123247856877745,-0.9639334678649902,-0.22084163129329681,-0.14853030443191528,0.04633358493447304,0.07459777593612671,-0.021006029099225998,-0.020746707916259766,-0.008024930953979492,-0.012159943580627441
448,-1.4281097433802699,0.22652189218945948,-1.106391541487226,-0.9645505547523499,-0.22458963096141815,-0.13857011497020721,0.08752981573343277,-0.07435864955186844,-0.06376945227384567,-0.04114091396331787,0.001307755708694458,0.005666077136993408
449,-1.4296714207191197,0.23950440194664127,-1.1080717740516746,-0.9617980122566223,-0.23722121119499207,-0.1366419941186905,-0.02838512882590294,-0.3667278587818146,-0.09949357807636261,0.04427158832550049,-0.005286753177642822,-0.0352025181055069
450,-1.4459643377879012,0.2475201153741835,-1.1014168081591464,-0.9619787335395813,-0.24500040709972382,-0.12071339786052704,0.16543878614902496,0.4893565773963928,-0.18797853589057922,-0.0183069109916687,-0.00522845983505249,-0.025267422199249268
451,-1.430682527244675,0.2612236569482503,-1.0763715205201636,-0.9566072821617126,-0.25826290249824524,-0.13491792976856232,0.20564226806163788,0.165739506483078,-0.129966601729393,0.0008272528648376465,-0.02100345492362976,0.0306088924407959
452,-1.423589318859306,0.27142049642147337,-1.059040434647757,-0.9529715180397034,-0.26810020208358765,-0.14130626618862152,0.16791167855262756,-0.00672734621912241,0.002610152820125222,0.0049735307693481445,0.029803723096847534,0.01641310751438141
453,-1.4354627013265433,0.272009507326851,-1.0464712127066287,-0.9544253945350647,-0.268667608499527,-0.12996023893356323,0.006482239812612534,-0.22698889672756195,-0.04589062184095383,-0.03300124406814575,-0.005136042833328247,0.02964898943901062
454,-1.4412181502504255,0.284597652610007,-1.0485471482217004,-0.9517282843589783,-0.28077131509780884,-0.1240181028842926,-0.012678466737270355,-0.019768182188272476,-0.10835254937410355,0.0608440637588501,-0.013433396816253662,-0.006597146391868591
455,-1.4424605016329406,0.28988926779137497,-1.0522541393686506,-0.9503951072692871,-0.28584611415863037,-0.12264379858970642,0.04253198578953743,-0.05562242865562439,0.04324048385024071,0.0038617849349975586,0.018374741077423096,-0.043020859360694885
456,-1.446821665742706,0.28816741495726544,-1.0438158502033805,-0.951407790184021,-0.2841956913471222,-0.11855848133563995,0.013473378494381905,-0.07475034147500992,-0.046374909579753876,-0.034111618995666504,-0.011840075254440308,0.02499157190322876
457,-1.4565525304699745,0.2954556738625903,-1.0446542375166492,-0.9504333138465881,-0.29117581248283386,-0.10905597358942032,0.034842170774936676,-0.05823087692260742,-0.03153107315301895,0.041650354862213135,0.00356292724609375,0.02452225238084793
458,-1.4570326696935048,0.2930466971545233,-1.0427164868891832,-0.951179563999176,-0.28887036442756653,-0.1086789146065712,-0.02098899893462658,0.16693046689033508,0.052536431699991226,0.046516597270965576,-0.02736794948577881,0.004354618489742279
459,-1.4341464992411443,0.28982655778073685,-1.0474794938658638,-0.9493600726127625,-0.2857860326766968,-0.13054345548152924,0.033879976719617844,0.02447500266134739,0.1591378152370453,-0.001872718334197998,0.030476003885269165,-0.061763033270835876
460,-1.4334975090652806,0.27879663555794526,-1.0370125256304412,-0.9523400068283081,-0.27519893646240234,-0.13158302009105682,0.0020151264034211636,-0.07110731303691864,0.040755800902843475,-0.048178791999816895,0.00032711029052734375,0.04184609651565552
461,-1.4444947336576872,0.28093066569407976,-1.0405300442582186,-0.9531446695327759,-0.2772499620914459,-0.12102792412042618,-0.0846753716468811,0.06831411272287369,-0.15405942499637604,-0.01591050624847412,-0.00010907649993896484,0.04070568084716797
462,-1.4476278272570857,0.28823672090844066,-1.0527623525705123,-0.9514833092689514,-0.28426212072372437,-0.11778901517391205,-0.2032800316810608,-0.07947729527950287,-0.021803995594382286,0.05332064628601074,0.0037446022033691406,0.004263661801815033
463,-1.4417643184593478,0.287731197625888,-1.0621862293162776,-0.9509189128875732,-0.2837774157524109,-0.123384490609169,-0.08046849071979523,-0.022065892815589905,-0.00446579372510314,0.011465787887573242,-0.012670338153839111,-0.027891159057617188
464,-1.435874876501726,0.28746818078179226,-1.0632242997824677,-0.9502497911453247,-0.2835251986980438,-0.12899275124073029,0.03107500821352005,0.07892372459173203,0.019411100074648857,0.010994911193847656,-0.009992897510528564,-0.020497635006904602
465,-1.4268024133283523,0.2854623171148445,-1.0541378713659963,-0.9496011734008789,-0.28160110116004944,-0.1376897394657135,0.08194392174482346,0.23375090956687927,0.04579531028866768,0.004136085510253906,-0.0004576146602630615,0.04534351825714111
466,-1.4252154607103704,0.2812993139088071,-1.0517582247216024,-0.9505331516265869,-0.2776041328907013,-0.13936540484428406,-0.07184471189975739,-0.15371902287006378,0.04993664473295212,-0.02010887861251831,0.027054816484451294,0.01344984769821167
467,-1.4480677097510153,0.27764107702504276,-1.0605327836625051,-0.9544710516929626,-0.2740878164768219,-0.11773261427879333,0.026128588244318962,-0.38849765062332153,0.041790202260017395,-0.016766130924224854,-0.007711499929428101,-0.028751783072948456
468,-1.4517229805570204,0.2839336537322919,-1.056255990682669,-0.9531635046005249,-0.2801339626312256,-0.11403582990169525,-0.035871461033821106,0.003929317928850651,-0.10105080157518387,0.014564931392669678,0.004819661378860474,-0.007515721023082733
469,-1.4573540830862426,0.28737276305899045,-1.0522146263782075,-0.9528278112411499,-0.2834337055683136,-0.10855700075626373,0.04029092937707901,0.0656578466296196,-0.0198358166962862,0.0315631628036499,-0.017866313457489014,0.002065896987915039
470,-1.4536485275165139,0.28795489997602347,-1.0498871772859877,-0.9522548913955688,-0.2839919328689575,-0.11206769198179245,-0.045458778738975525,0.0333954356610775,0.017836863175034523,0.023299813270568848,0.006083637475967407,0.005225658416748047
471,-1.4562695199678801,0.2835751232495392,-1.0456866958492808,-0.9537718892097473,-0.2797897756099701,-0.10971254855394363,0.11338832229375839,0.04034413397312164,0.02943878434598446,-0.047280967235565186,0.0035904645919799805,0.004076011478900909
472,-1.4566607859022085,0.2881366752853754,-1.0430078592063075,-0.9525367617607117,-0.28416621685028076,-0.109192855656147,-0.051896438002586365,-0.028479915112257004,-0.11349958926439285,-0.007500350475311279,0.012956559658050537,0.030579589307308197
473,-1.4658464618844194,0.2979349247058835,-1.0600331795679507,-0.9506849646568298,-0.29354673624038696,-0.10014220327138901,-0.1838972121477127,-0.04462384060025215,-0.10975857079029083,-0.013823091983795166,0.03568845987319946,-0.03224307298660278
474,-1.4691006067143668,0.3008322878878247,-1.0622013022862007,-0.9501557350158691,-0.2963152229785919,-0.09696125984191895,0.11278845369815826,-0.01154724694788456,-0.024051913991570473,0.01058053970336914,-0.02900215983390808,-0.030541181564331055
475,-1.459583459388048,0.30960783862954416,-1.0544107824587265,-0.9465691447257996,-0.30468514561653137,-0.1057068333029747,0.05281032994389534,0.033343613147735596,-0.008166087791323662,0.06696099042892456,-0.015078067779541016,0.044107139110565186
476,-1.4650161045798977,0.3067893398104201,-1.0539469647593076,-0.9479795098304749,-0.30199944972991943,-0.10065317898988724,-0.05926806852221489,-0.003473188728094101,0.10384432226419449,0.01943647861480713,0.02847042679786682,0.011694446206092834
477,-1.472201167471471,0.2960517691465693,-1.060357564840765,-0.9518505334854126,-0.29174602031707764,-0.09415314346551895,0.0011900211684405804,-0.03696354478597641,0.018104499205946922,-0.0638660192489624,-0.0010090768337249756,-0.03868991136550903
478,-1.4667322710441029,0.2993037245417128,-1.0633209189497754,-0.9503726959228516,-0.2948549687862396,-0.099258191883564,-0.04273662343621254,0.034768618643283844,-0.11234702169895172,-0.006185472011566162,-0.0027066469192504883,-0.009414903819561005
479,-1.4683232059150515,0.30215241344703375,-1.0621902938496428,-0.949690043926239,-0.29757580161094666,-0.09765977412462234,0.0035787425003945827,-0.17292916774749756,0.08445481210947037,0.050672709941864014,-0.004120975732803345,0.013583838939666748
