,attitude.roll,attitude.pitch,attitude.yaw,gravity.x,gravity.y,gravity.z,rotationRate.x,rotationRate.y,rotationRate.z,userAcceleration.x,userAcceleration.y,userAcceleration.z
0,-0.2313207999911078,0.26024667431150383,-2.066626340080151,-0.22154325246810913,-0.257318913936615,-0.9405878782272339,-0.3980768918991089,0.5676720142364502,-0.45355793833732605,-0.13058382272720337,-0.0020805001258850098,0.2422083616256714
1,0.024989394741802326,0.2628083746341229,-2.3307398251591973,0.024128852412104607,-0.2597935199737549,-0.9653626680374146,-0.26112100481987,0.490866094827652,0.07782649993896484,-0.03738873451948166,-0.00918838381767273,-0.00042706727981567383
2,0.011818413714105653,0.23228107691021457,-2.3310451481442844,0.011500748805701733,-0.230197936296463,-0.9730758666992188,-0.5936469435691833,-0.1310102492570877,-0.2040155678987503,-0.033687032759189606,-0.03875347971916199,-0.00106048583984375
3,0.021721068167112275,0.20620617354144738,-2.345806475448779,0.021259229630231857,-0.20474793016910553,-0.978583812713623,0.029623225331306458,-0.009673669002950191,0.03851327300071716,0.04011162370443344,0.009328633546829224,-0.016670644283294678
4,-0.0005087391194758835,0.20858957986125598,-2.346727013965482,-0.0004977116477675736,-0.20708025991916656,-0.9783238172531128,0.15289606153964996,-0.1499321460723877,-0.00891825370490551,-0.012075535953044891,0.015384092926979065,-0.003945469856262207
5,-0.009439993205881774,0.21987564524100028,-2.349032229204356,-0.009212584234774113,-0.21810826659202576,-0.9758810997009277,0.1238367035984993,-0.07994577288627625,-0.017100010067224503,-0.014209657907485962,0.014556005597114563,0.017064571380615234
6,-0.012623087390243629,0.22405883379433741,-2.3534554196552007,-0.012307229451835155,-0.2221888154745102,-0.9749259948730469,-0.02010638266801834,-0.0938815176486969,0.02758401446044445,0.02987010031938553,-0.023645520210266113,0.020915985107421875
7,-0.018649768352951224,0.2250029870215626,-2.3609256001274552,-0.01817861758172512,-0.22310927510261536,-0.9746239185333252,-0.17585669457912445,0.11651622503995895,-0.1406562179327011,-0.04134591668844223,0.014826804399490356,0.024535417556762695
8,-0.013505354824342675,0.20076505726384342,-2.371908504833975,-0.013233687728643417,-0.1994190812110901,-0.979824960231781,-0.07737713307142258,-0.04074452817440033,0.00823827926069498,0.029621630907058716,-0.004499375820159912,0.009503304958343506
9,-0.004237364393206691,0.18737334443541456,-2.3857259990269566,-0.0041631851345300674,-0.18627886474132538,-0.9824880957603455,-0.20333218574523926,0.02420967072248459,-0.1353551149368286,-0.006716329604387283,0.025252848863601685,-0.004740297794342041
10,-0.010621776677236922,0.18320431567645948,-2.389548737956064,-0.010443824343383312,-0.1821811944246292,-0.983209490776062,0.10629075765609741,-0.09287866204977036,0.04857868701219559,0.03096689283847809,0.01648600399494171,0.007699847221374512
11,-0.019060162291096343,0.19212769810672228,-2.3816384498123413,-0.018708325922489166,-0.19094787538051605,-0.9814218878746033,0.20597714185714722,-0.0761534795165062,0.17062629759311676,0.015961743891239166,-0.005264893174171448,0.0021585822105407715
12,-0.0372359845570063,0.20859591841960082,-2.3548134738784294,-0.036420390009880066,-0.2070864588022232,-0.9776445031166077,0.034604959189891815,-0.15808440744876862,0.31697648763656616,0.014218848198652267,-0.006887525320053101,0.014509737491607666
13,-0.05203750065057461,0.20305621183572944,-2.311925557422587,-0.050945382565259933,-0.20166368782520294,-0.978128969669342,-0.05654189735651016,0.017411399632692337,0.4740367829799652,-0.032611746340990067,0.022662848234176636,0.027903199195861816
14,-0.06266902590730027,0.19387728625595668,-2.304448433360636,-0.0614546500146389,-0.1926649808883667,-0.9793382883071899,0.01762545108795166,-0.10065729916095734,-0.1879638284444809,-0.0191880464553833,-0.00032816827297210693,-0.028596222400665283
15,-0.06126496912193771,0.20712433594548393,-2.316778799270577,-0.05991801247000694,-0.2056465595960617,-0.9767903089523315,0.08664903789758682,0.06547614932060242,-0.013509644195437431,0.020718183368444443,-0.016384094953536987,0.020598292350769043
16,-0.059343453454080465,0.21013199366164811,-2.3158380795946076,-0.05800404027104378,-0.20858898758888245,-0.9762818217277527,-0.038447875529527664,-0.04041822627186775,-0.07234854251146317,-0.006738997995853424,0.0027174055576324463,-0.013861000537872314
17,-0.06733066323971355,0.2103361183897351,-2.312665182158923,-0.06579700857400894,-0.20878861844539642,-0.9757448434829712,0.07220986485481262,0.0032901400700211525,0.09103000164031982,-0.01731761544942856,0.002810239791870117,-0.007165253162384033
18,-0.07361378099713882,0.21660438495337173,-2.31572858322138,-0.07182872295379639,-0.21491460502147675,-0.973987877368927,-0.050427526235580444,-0.11904840916395187,-0.06874457746744156,0.005147814750671387,0.005548760294914246,0.012241661548614502
19,-0.07974182593211149,0.2206787051554703,-2.3169312734336653,-0.07772558182477951,-0.2188919186592102,-0.9726485013961792,0.24175405502319336,0.09528675675392151,0.06564252078533173,0.0005618929862976074,-0.005778491497039795,-0.0035020112991333008
20,-0.08035069611149032,0.22866090236056602,-2.3102372175737265,-0.07817505300045013,-0.22667348384857178,-0.9708284139633179,0.15507182478904724,0.08072330802679062,0.08704905956983566,-0.0017657428979873657,-0.013743996620178223,-0.010647416114807129
21,-0.07393402683257445,0.2513394537515949,-2.320583058926734,-0.07154580950737,-0.2487015575170517,-0.965934157371521,0.06250075995922089,-0.47501182556152344,-0.6996285915374756,-0.033800870180130005,0.0003800243139266968,0.007544875144958496
22,-0.07298195363874815,0.2738802196743826,-2.387520865862189,-0.07019945979118347,-0.270469069480896,-0.9601658582687378,0.04861036315560341,0.2218172550201416,-0.6264500617980957,-0.04096081107854843,-0.001915574073791504,0.004172265529632568
23,-0.04361998071228772,0.2851774596550664,-2.44668867247474,-0.04184497147798538,-0.2813277542591095,-0.9586989283561707,0.1438479870557785,-0.5045844316482544,-0.6443592309951782,0.04649890214204788,-0.004789799451828003,-0.04185032844543457
24,-0.21275526673494816,0.32463436716894645,-2.478029999501571,-0.20012472569942474,-0.3189622759819031,-0.926397979259491,0.043101318180561066,-1.248179316520691,0.08070897310972214,0.09166526794433594,0.060325801372528076,0.06003439426422119
25,-0.22710132942216835,0.2577323039939077,-2.4414728040243343,-0.2177174985408783,-0.2548884153366089,-0.9421417117118835,-0.6257008910179138,0.3600905239582062,0.7484883069992065,0.024998992681503296,0.012075304985046387,-0.030834972858428955
26,-0.19520536170157532,0.2135105687566207,-2.3715153911669384,-0.18956358730793,-0.2118920534849167,-0.9587321877479553,-0.4025144577026367,0.35406461358070374,0.5598657131195068,-0.006130397319793701,0.05089657008647919,0.09215503931045532
27,-0.1253148940370515,0.22771826666747497,-2.365377414415753,-0.12176050245761871,-0.22575528919696808,-0.9665448665618896,1.14075767993927,0.7726008892059326,-0.39227741956710815,-0.1519821733236313,-0.06791536509990692,-0.09920525550842285
28,-0.10692938771414488,0.3480524542941309,-2.389373751887687,-0.10032632201910019,-0.34106770157814026,-0.9346697330474854,-0.16862449049949646,-0.30491816997528076,-0.45395728945732117,0.013183385133743286,0.03802815079689026,0.14052605628967285
29,-0.11105461536102974,0.2713818653085942,-2.3738341758472,-0.10677038878202438,-0.2680629789829254,-0.9574666023254395,-0.6291524767875671,0.24963265657424927,0.26121482253074646,-0.036296017467975616,-0.010028421878814697,-0.06627601385116577
30,-0.10878625163145449,0.27020174205185515,-2.3557506098354106,-0.10463250428438187,-0.2669258713722229,-0.9580201506614685,0.09737195074558258,0.04446766898036003,0.09413930028676987,0.0069457367062568665,0.0250435471534729,0.033993661403656006
31,-0.11481090040576905,0.23721265276219033,-2.3397656510760574,-0.11135081946849823,-0.23499424755573273,-0.9655975699424744,-0.4615626931190491,-0.12072329968214035,0.25046390295028687,-0.004783816635608673,-0.02593103051185608,0.01062631607055664
32,-0.11143716035156286,0.19329169311988117,-2.332070554976865,-0.1091356873512268,-0.19209031760692596,-0.975290060043335,-0.4122732877731323,0.20567595958709717,-0.004059090279042721,-0.025980889797210693,-0.016726195812225342,-0.011205911636352539
33,-0.09771082266387757,0.17196725537938673,-2.3393942188517096,-0.09611647576093674,-0.17112091183662415,-0.9805504679679871,-0.15527459979057312,0.053253527730703354,-0.0162197332829237,-0.001173563301563263,0.012826234102249146,-0.00841742753982544
34,-0.09368976813610123,0.16407526104851827,-2.342200240153499,-0.09229633212089539,-0.16334007680416107,-0.9822430610656738,0.060445308685302734,-0.06239262595772743,-0.04286474362015724,0.005977362394332886,-0.0038199573755264282,-0.022456645965576172
35,-0.10128602850220517,0.16412629439895668,-2.3391846051986263,-0.09975413233041763,-0.16339042782783508,-0.9815053343772888,-0.17400313913822174,0.013698144815862179,0.05649859458208084,-0.008506976068019867,-0.014054030179977417,0.02270406484603882
36,-0.11008560678261872,0.13773570871349394,-2.3388688506874193,-0.10882291942834854,-0.13730062544345856,-0.984533429145813,-0.4395607113838196,-0.2216935008764267,0.021005531772971153,-0.0016659721732139587,0.00012411177158355713,0.016637980937957764
37,-0.12149687448243168,0.10958503530629299,-2.330836527604106,-0.12047117948532104,-0.10936583578586578,-0.9866741299629211,0.28619396686553955,-0.07352541387081146,0.2738479673862457,0.023532100021839142,0.005697622895240784,-0.05084723234176636
38,-0.13712019122858946,0.10745105956290714,-2.300930143932008,-0.13590256869792938,-0.10724440962076187,-0.9849005937576294,-0.8027368187904358,-0.09399775415658951,0.19051167368888855,-0.024024799466133118,0.0005091726779937744,0.011801838874816895
39,-0.14574846284526263,0.0507359583305505,-2.2896562461913983,-0.14504611492156982,-0.050714194774627686,-0.9881243109703064,0.07280363887548447,-0.12167034298181534,0.15483492612838745,-0.016361340880393982,-0.058447178453207016,-0.002613544464111328
40,-0.14196607224946833,0.08661032202585697,-2.284898399199786,-0.14095932245254517,-0.0865020826458931,-0.9862291216850281,0.5361009836196899,0.1106274276971817,0.05433780699968338,0.015699923038482666,-0.0062713623046875,-0.007179081439971924
41,-0.12732031996891838,0.155661660986704,-2.2663240190680223,-0.12544135749340057,-0.15503379702568054,-0.9799127578735352,0.7066428065299988,0.011365463025867939,0.03900357335805893,-0.014863207936286926,0.010670378804206848,0.004982948303222656
42,-0.12283316273201224,0.18555358620815315,-2.2753398034034475,-0.12042129039764404,-0.1844906508922577,-0.975429117679596,0.0451744943857193,0.09688397496938705,-0.08083800226449966,-0.010834813117980957,-0.024722620844841003,0.03199344873428345
43,-0.118769688317033,0.14660625552817097,-2.290135620245056,-0.11721955239772797,-0.14608164131641388,-0.982303261756897,-0.5209370255470276,-0.011474480852484703,-0.18144024908542633,-0.015547163784503937,-0.0014708340167999268,-0.022762596607208252
44,-0.10333619123463846,0.20456954128748994,-2.3022313839032287,-0.10100150108337402,-0.20314569771289825,-0.9739252924919128,0.8582537770271301,-0.052305180579423904,-0.13378046452999115,0.009174108505249023,0.017965033650398254,0.015154540538787842
45,-0.1212422919681941,0.15093003393199542,-2.3095332833900875,-0.1195705235004425,-0.1503576636314392,-0.9813742637634277,-1.676343321800232,-0.27991345524787903,0.09468257427215576,0.002627171576023102,-0.05510193109512329,0.05470806360244751
46,-0.1228080368642414,0.06743390614961862,-2.326794066346565,-0.12222115695476532,-0.0673828125,-0.9902128577232361,0.8337575197219849,0.27447789907455444,-0.2171218991279602,-0.05479604750871658,0.0426483228802681,-0.14913034439086914
47,-0.11204637215862116,0.2074518691971668,-2.3214336168309195,-0.10941470414400101,-0.20596706867218018,-0.97242271900177,0.6804240345954895,-0.21746404469013214,-0.0012890950310975313,0.047967568039894104,0.017795711755752563,0.024958789348602295
48,-0.14211467966365132,0.13997183286594692,-2.3240070398233303,-0.14025157690048218,-0.139515221118927,-0.9802372455596924,-1.3996093273162842,-0.14537176489830017,0.10711421817541122,-0.04091602563858032,-0.0570027232170105,0.03988385200500488
49,-0.12456468908672455,0.1060134142866257,-2.3335789381631202,-0.12354528903961182,-0.10581494867801666,-0.9866811633110046,0.6157124638557434,0.03495299071073532,-0.22464682161808014,-0.0012410804629325867,0.03890516608953476,-0.07679533958435059
50,-0.13039668593920278,0.14742194898240635,-2.3315315058799775,-0.128617063164711,-0.14688853919506073,-0.9807555079460144,-0.11259651929140091,-0.07333054393529892,0.18474149703979492,0.013870999217033386,-0.012138545513153076,0.02853083610534668
51,-0.13425086496872846,0.12761473809201396,-2.32829671782674,-0.13275954127311707,-0.12726864218711853,-0.9829433560371399,0.1575976312160492,0.22126702964305878,-0.057941984385252,-0.059882670640945435,-0.01582828164100647,-0.012829959392547607
52,-0.11775676975163205,0.18327937166686126,-2.332102650666341,-0.11551709473133087,-0.18225499987602234,-0.9764419794082642,0.32512176036834717,-0.0327540822327137,-0.03209645673632622,0.03823132812976837,0.012043192982673645,0.01408541202545166
53,-0.1289829972051509,0.15517986790385602,-2.328576554233015,-0.1270800530910492,-0.15455780923366547,-0.9797767996788025,-0.6330177187919617,-0.15487852692604065,0.001032080384902656,-0.018793970346450806,-0.024763479828834534,0.02501910924911499
54,-0.13445677199352657,0.10729880962729045,-2.3352325941993235,-0.13328106701374054,-0.10709303617477417,-0.9852752089500427,-0.108768992125988,0.06988126784563065,-0.012953807599842548,-0.0070082396268844604,0.00505751371383667,-0.014785826206207275
55,-0.1306254596006749,0.13995568971725708,-2.3351234195904214,-0.12898069620132446,-0.139499232172966,-0.9817860722541809,0.26145750284194946,-0.01174547616392374,0.05449853092432022,0.026670530438423157,0.009448587894439697,0.020787596702575684
56,-0.13329432060281773,0.11749394681016112,-2.332306473832267,-0.131983682513237,-0.11722379922866821,-0.9842961430549622,-0.32253730297088623,0.04417945072054863,-0.034172751009464264,-0.0328875333070755,-0.01384919136762619,-0.0018641352653503418
57,-0.13067656055720936,0.13704792069716143,-2.3348117580955265,-0.12908317148685455,-0.13661931455135345,-0.9821775555610657,0.27736616134643555,-0.04864493012428284,-0.005237610545009375,0.025765925645828247,0.01610541343688965,7.611513137817383e-05
58,-0.13150736359634052,0.12134364258845463,-2.330613705603046,-0.13016442954540253,-0.12104608118534088,-0.9840757250785828,-0.421664297580719,-0.03527955710887909,0.003039691597223282,-0.021813079714775085,-0.02708623558282852,0.01990342140197754
59,-0.13113564841063352,0.10205317723828666,-2.335938286755223,-0.13007979094982147,-0.10187612473964691,-0.9862558245658875,0.06325579434633255,0.011538618244230747,-0.035285834223032,-0.003816083073616028,0.015099383890628815,-0.03260403871536255
60,-0.13490780329433258,0.11611703420872543,-2.3346764233599413,-0.13359323143959045,-0.11585627496242523,-0.9842408895492554,0.03375118598341942,-0.03809062018990517,0.033645741641521454,-0.001187652349472046,-0.011798754334449768,0.005603194236755371
61,-0.13417469084343603,0.11055816567161117,-2.332553041747877,-0.13295574486255646,-0.11033307760953903,-0.9849616289138794,-0.1325952410697937,0.02904219552874565,-0.025009242817759514,-0.021615788340568542,-0.003604307770729065,-0.0035790205001831055
62,-0.13696975091216276,0.10534904872020731,-2.3342820522514165,-0.13578487932682037,-0.10515429079532623,-0.9851421117782593,0.03619445860385895,-0.017351308837532997,0.022020375356078148,-0.006976336240768433,-0.0007722154259681702,-0.014888346195220947
63,-0.1339175634555048,0.12987082963035712,-2.333276431839849,-0.1323932409286499,-0.12950606644153595,-0.9827004671096802,0.31065255403518677,0.04515020549297333,-0.041442882269620895,-0.005836129188537598,-0.0006056278944015503,-0.0032461881637573242
64,-0.1376247949200337,0.13105586671382713,-2.3304526932873535,-0.13601426780223846,-0.13068102300167084,-0.9820501804351807,-0.26796266436576843,-0.03929277881979942,0.06093426048755646,-0.005739867687225342,-0.013163581490516663,0.019144296646118164
65,-0.13842799669077702,0.11026489288927245,-2.3326672792735277,-0.13714832067489624,-0.11004158854484558,-0.9844192266464233,-0.010781874880194664,0.036621950566768646,0.00022598530631512403,-0.00576549768447876,-0.001225501298904419,-0.02844393253326416
66,-0.13947609169935302,0.11916205374449831,-2.331304525482504,-0.13803844153881073,-0.1188802421092987,-0.9832664132118225,-0.00927131250500679,-0.0014176368713378906,0.016742412000894547,-0.00963611900806427,-0.004441283643245697,0.008245110511779785
67,-0.1419551000063539,0.11244769472466087,-2.3326810235428104,-0.1405853033065796,-0.11221086978912354,-0.9836892485618591,-0.16864949464797974,-0.07877285778522491,-0.03759501874446869,-0.0009399652481079102,-0.006990790367126465,0.005463540554046631
68,-0.14663750677906331,0.07666997433842417,-2.3385161297600385,-0.14568331837654114,-0.07659488171339035,-0.9863618016242981,-0.13812467455863953,0.024359647184610367,0.020968863740563393,-0.011390656232833862,0.006679117679595947,-0.027920424938201904
69,-0.1440394013955087,0.10498310410621706,-2.335275420926146,-0.142751544713974,-0.10479036718606949,-0.9841955900192261,0.3422180116176605,-0.016809621825814247,0.005255242809653282,0.006276935338973999,0.011315032839775085,0.008029818534851074
70,-0.1483734459067106,0.09088697769380714,-2.33742758809435,-0.1472194939851761,-0.09076189994812012,-0.9849308133125305,-0.3388136625289917,-0.028742479160428047,0.0075468625873327255,-0.00455966591835022,-0.018063783645629883,0.0019291043281555176
71,-0.14735330376139305,0.10421090319932338,-2.3352314062084614,-0.14602412283420563,-0.10402238368988037,-0.9837968945503235,0.45802226662635803,0.0461764894425869,0.022311678156256676,-0.0023370832204818726,0.018649466335773468,-0.018964946269989014
72,-0.15289896076266962,0.11358799976366744,-2.3320831559625974,-0.15132243931293488,-0.11334390193223953,-0.9819647073745728,-0.2619449496269226,-0.12910878658294678,-0.004262674134224653,0.0015574097633361816,-0.016264259815216064,0.018509507179260254
73,-0.1591868489330089,0.1003764023227584,-2.3315932373589825,-0.1577175110578537,-0.10020793229341507,-0.9823866486549377,0.06672140210866928,-0.1381235420703888,0.010309563018381596,0.010790616273880005,0.011981606483459473,-0.022999703884124756
74,-0.17472318641517237,0.11288273077586466,-2.3196672629210817,-0.17272916436195374,-0.11264314502477646,-0.9785071015357971,0.17091932892799377,-0.1578056812286377,0.0875726118683815,-0.005920737981796265,0.0012692511081695557,-0.003640115261077881
75,-0.19019608522114542,0.12742481303750874,-2.3114391988141825,-0.18751870095729828,-0.1270802617073059,-0.9740058183670044,0.18501727283000946,-0.0866931825876236,0.06314986944198608,-0.010692968964576721,0.0014699101448059082,0.008872151374816895
76,-0.19741687939343971,0.13822065663771058,-2.310851776287887,-0.1942664235830307,-0.13778096437454224,-0.9712244868278503,0.09354980289936066,-0.12331665307283401,-0.09420816600322723,-0.012001872062683105,0.011361896991729736,0.005221068859100342
77,-0.1983519407336371,0.13593790664010136,-2.3149895017435775,-0.1952359676361084,-0.1355196237564087,-0.971348226070404,-0.12650620937347412,0.03892045468091965,-0.004542823415249586,0.0048520565032958984,-0.01731240749359131,0.012669026851654053
78,-0.19666832866539805,0.13177388227189823,-2.313679272340881,-0.19370891153812408,-0.13139285147190094,-0.9722205400466919,0.04670822620391846,0.05171344801783562,0.05629589781165123,-0.00866842269897461,0.01025332510471344,-0.0036553144454956055
79,-0.19452051183324823,0.1292029711708831,-2.3129074784925208,-0.19168497622013092,-0.12884379923343658,-0.9729625582695007,-0.10966696590185165,0.031452424824237823,-0.019240714609622955,-0.007884681224822998,-0.010560467839241028,-0.006163418292999268
80,-0.1901791954751554,0.1232437625625269,-2.3126911856756505,-0.18760104477405548,-0.12293200939893723,-0.9745222330093384,-0.09592660516500473,0.08637098968029022,0.04355279728770256,-0.0017757713794708252,-0.005043454468250275,0.004643082618713379
81,-0.18525554829933158,0.11597840450405482,-2.3118194347941343,-0.18296028673648834,-0.11571857333183289,-0.9762861728668213,-0.03385030850768089,0.026454932987689972,-7.997953798621893e-05,-0.0017626136541366577,0.0021626651287078857,-0.007280111312866211
82,-0.183425009862937,0.11370015451497117,-2.3123456571749053,-0.18122045695781708,-0.11345533281564713,-0.9768761396408081,-0.028975296765565872,0.029400143772363663,-0.0013120182557031512,0.0008158236742019653,-0.005593724548816681,0.003045022487640381
83,-0.18212351033395527,0.1117297839671828,-2.3116866221638603,-0.1799890398979187,-0.11149746179580688,-0.9773291349411011,-0.019589152187108994,0.007439427077770233,0.033465635031461716,-0.0009191632270812988,0.0038619637489318848,-0.008419156074523926
84,-0.18256042625584992,0.11254955823843656,-2.3035736721996454,-0.18039938807487488,-0.11231209337711334,-0.9771602153778076,0.029172170907258987,0.03115112893283367,0.12283153086900711,-0.001958400011062622,0.0032575279474258423,-0.004056215286254883
85,-0.18005492945871993,0.11448266164321748,-2.2924440382351006,-0.17791134119033813,-0.11423274874687195,-0.9773936867713928,0.028612537309527397,0.046082694083452225,0.04708034172654152,-0.009771764278411865,0.005391806364059448,0.007026255130767822
86,-0.18072096224083578,0.1093884303061641,-2.2963856800513684,-0.17866455018520355,-0.10917040705680847,-0.9778347611427307,-0.03501952439546585,-0.009754221886396408,-0.03483577072620392,-0.0009161382913589478,0.008141964673995972,-0.007638871669769287
87,-0.17755828072579263,0.11360242832330339,-2.2969591139743937,-0.17548826336860657,-0.11335823684930801,-0.977933406829834,0.07092967629432678,0.02483176812529564,-0.012912997975945473,-0.006137087941169739,-0.014754541218280792,-0.00529712438583374
88,-0.173114335147513,0.1141695809651417,-2.3028168427237206,-0.17112956941127777,-0.11392171680927277,-0.9786401391029358,-0.0008889352902770042,0.09289757907390594,-0.0952645093202591,-0.02753986418247223,0.008117273449897766,-0.002499997615814209
89,-0.13300424878613576,0.12842066722602868,-2.3242548835529555,-0.13152043521404266,-0.1280679702758789,-0.9830060601234436,0.6934213042259216,1.0980640649795532,-0.33482807874679565,-0.02918510138988495,0.0155496746301651,-0.04854905605316162
90,-0.04006270151845289,0.22644648514186824,-2.350930790496575,-0.03902947157621384,-0.2245161533355713,-0.9736884236335754,0.29708370566368103,1.0226340293884277,-0.20998431742191315,0.038342829793691635,0.03494097292423248,0.10633313655853271
91,0.06097301679438022,0.15861219593698375,-2.2849145844906698,0.06017034873366356,-0.15794797241687775,-0.9856125116348267,-1.1335253715515137,0.7179872989654541,0.8012949824333191,-0.011540587991476059,-0.020732447504997253,-0.05204617977142334
92,0.11396401751105388,0.14305024584335904,-2.283615380401298,0.11255595088005066,-0.1425628662109375,-0.9833651185035706,0.7495380640029907,0.46787700057029724,-0.3718458116054535,-0.03954263776540756,0.0285491943359375,-0.05795568227767944
93,0.16222284592879724,0.19881652519205945,-2.2951880589865103,0.15833063423633575,-0.197509303689003,-0.9674303531646729,0.01643838919699192,0.6117578148841858,0.21121498942375183,0.037637993693351746,0.062240153551101685,0.07573723793029785
94,0.2166097082194425,0.20634616305967649,-2.28791519270978,0.21036049723625183,-0.20488494634628296,-0.9559134840965271,0.5186280608177185,0.00022089574486017227,0.00392277492210269,0.07581809163093567,-0.05529266595840454,0.1176261305809021
95,0.23726008404118748,0.2360322829301563,-2.2928159381603392,0.22852349281311035,-0.2338467687368393,-0.9450358152389526,0.2317463904619217,-0.5199831128120422,0.5308329463005066,0.23918890953063965,-0.02558314800262451,0.00021159648895263672
96,0.15121845354603197,0.2834201575297572,-2.268764102017966,0.14463284611701965,-0.27964097261428833,-0.9491481781005859,0.474260538816452,-0.9185329079627991,-0.2330402284860611,-0.12787869572639465,-0.12622755765914917,0.14830589294433594
97,0.09025448764487733,0.3031028058018891,-2.2291736686710344,0.08602333068847656,-0.2984830141067505,-0.9505302906036377,0.243833526968956,-0.11015226691961288,0.4445015490055084,0.12320517003536224,-0.10080894827842712,0.10061579942703247
98,0.09463751865659337,0.35956989666625994,-2.1423974282286293,0.08845311403274536,-0.35187166929244995,-0.9318596124649048,-1.594892978668213,0.953310489654541,0.6987677216529846,0.03183191269636154,0.04350683093070984,0.12521904706954956
99,0.05393100215652016,0.24284202573607852,-2.1412682446054325,0.05232321098446846,-0.24046222865581512,-0.9692472219467163,0.9432218074798584,-0.4786602258682251,-0.05416908115148544,-0.08264242857694626,0.06466571986675262,0.10494363307952881
100,0.08135209343696143,0.352749055318343,-2.1523460034600017,0.07625877857208252,-0.345478892326355,-0.9353229403495789,0.9407515525817871,0.03211038187146187,-0.3957805037498474,0.023243777453899384,0.11079874634742737,-0.08874017000198364
101,0.18361651589644795,0.5095805760109003,-2.244407787005759,0.1593887209892273,-0.4878111481666565,-0.8582746982574463,1.110722303390503,1.3412052392959595,-0.31498634815216064,-0.08448335528373718,-0.04168406128883362,0.09667807817459106
102,0.32135319811176105,0.52720212515631,-2.2897554906486155,0.2729639708995819,-0.5031173229217529,-0.8199778199195862,0.5330179333686829,0.5127536654472351,-0.46229180693626404,-0.005904644727706909,0.01372218132019043,-0.09011739492416382
103,0.3728689738229422,0.5910396616190866,-2.325945208277146,0.3024914860725403,-0.5572246313095093,-0.7733044028282166,0.6632670164108276,0.262355238199234,0.26383015513420105,0.008711516857147217,-0.020915627479553223,0.013676106929779053
104,0.39410306259775535,0.6592993688330301,-2.3309365967923994,0.30350619554519653,-0.6125631928443909,-0.7298288941383362,0.5713001489639282,0.1756419688463211,-0.05645030736923218,-0.011300384998321533,0.054549336433410645,0.03286850452423096
105,0.4400059105246852,0.6942229652058418,-2.3687635314959214,0.3273603320121765,-0.6397884488105774,-0.6953458786010742,0.6212557554244995,0.3603215217590332,-0.08196636289358139,0.0011155903339385986,-0.04906952381134033,0.021807730197906494
106,0.49065099223013775,0.7185883010699368,-2.383007480628593,0.35468927025794983,-0.6583226919174194,-0.6639328598976135,0.007711146958172321,0.20856662094593048,-0.05119486153125763,0.010087370872497559,0.039441466331481934,-0.01723480224609375
107,0.5721003057967559,0.6915976906363956,-2.4094330216435313,0.41700077056884766,-0.637768566608429,-0.6475813388824463,-0.28356418013572693,1.5045154094696045,-0.6562235951423645,-0.062096595764160156,0.057797253131866455,0.11628556251525879
108,0.7687833825592189,0.6048732701113915,-2.4404437291588996,0.5719039440155029,-0.5686578154563904,-0.5912309288978577,-0.7274013161659241,1.5038490295410156,-0.9019625186920166,0.04803013801574707,0.02349191904067993,-0.07858407497406006
109,0.8835250885155599,0.49168686216275637,-2.480713592202376,0.6814111471176147,-0.47211357951164246,-0.5592742562294006,-0.09071334451436996,0.3089587092399597,-0.8848957419395447,-0.014846205711364746,-0.015481024980545044,-0.05649423599243164
110,0.984769000033671,0.45969754454566997,-2.517633136359799,0.7466529011726379,-0.44367706775665283,-0.4956410825252533,0.22178886830806732,0.8393259644508362,0.31667402386665344,0.028188347816467285,-0.17261013388633728,-0.0801188051700592
111,1.0644515383815103,0.49135078111749647,-2.5258643768458073,0.7710638046264648,-0.471817284822464,-0.42760854959487915,0.028978552669286728,0.6792142987251282,-0.0344572439789772,-0.007071495056152344,0.03916960954666138,-0.04346078634262085
112,1.1542490809358714,0.46255556584974705,-2.5348984731603084,0.8183920979499817,-0.44623658061027527,-0.3620874285697937,-0.1649569272994995,1.2200466394424438,0.03280174359679222,-0.1331656575202942,-0.03200438618659973,-0.0408819317817688
113,1.3384270726229976,0.4670978657998437,-2.458306051888979,0.8688814043998718,-0.45029693841934204,-0.20561547577381134,-0.9658179879188538,2.376537799835205,-0.3057151734828949,0.0869443416595459,-0.12155666947364807,-0.06315283477306366
114,1.3151178724972297,0.45845436910261256,-2.4641296312303194,0.8675864338874817,-0.44256260991096497,-0.22678661346435547,0.4866650700569153,-0.6919799447059631,0.03771805390715599,-0.015077829360961914,-0.10118430852890015,0.12200450897216797
115,1.335713494998567,0.4799421732788824,-2.465874645562857,0.8626242280006409,-0.46172788739204407,-0.20660823583602905,-0.020556798204779625,0.5120375752449036,0.17879872024059296,0.04364103078842163,0.05917051434516907,0.004139363765716553
116,1.3851525634711384,0.44243153204387725,-2.4736770560619337,0.8881853222846985,-0.4281381368637085,-0.16680672764778137,-0.05374149978160858,1.227136254310608,-1.0326402187347412,-0.017122089862823486,-0.1337515115737915,-0.02060168981552124
117,1.5648179795940664,0.3463338645248531,-2.4763665821513725,0.9406068921089172,-0.3394516408443451,-0.005623341538012028,0.33490562438964844,0.7433042526245117,-0.514957070350647,0.10045462846755981,0.1406296193599701,-0.24985456466674805
118,1.6765714984036115,0.30845260053140494,-2.545517045226978,0.9474793076515198,-0.30358463525772095,0.10059523582458496,0.890407383441925,1.0859447717666626,-0.19951695203781128,-0.06509405374526978,-0.025547444820404053,-0.05404067039489746
119,1.6968712043572083,0.2974445450389626,-2.6050223986445333,0.9485000967979431,-0.29307791590690613,0.12021967023611069,-0.0901804193854332,-1.5547618865966797,0.0188816636800766,0.03701925277709961,-0.1220373809337616,0.04903089255094528
120,1.5552484193367557,0.281731831671455,-2.5864844424016664,0.960459291934967,-0.27801960706710815,-0.014934335835278034,-0.00833833497017622,-1.2066446542739868,-0.2630961835384369,0.18771880865097046,-0.14667826890945435,0.007030308246612549
121,1.5545479181276396,0.27410975377972163,-2.6214347036619365,0.9625394940376282,-0.27069002389907837,-0.015641111880540848,0.26579010486602783,0.4367387592792511,0.040926557034254074,-0.08302289247512817,0.004485189914703369,0.15020835399627686
122,1.6700934854788256,0.2660330766896523,-2.616612625987213,0.9600688219070435,-0.26290613412857056,0.09564667195081711,-0.027852285653352737,-0.047128304839134216,0.11075004935264587,0.05891311168670654,0.03889185190200806,-0.19092261791229248
123,1.7500902930248259,0.23997662253008023,-2.627423032409117,0.955772876739502,-0.23767991364002228,0.17322447896003723,0.06784947216510773,0.5586433410644531,-0.19766344130039215,-0.06449168920516968,0.04885241389274597,-0.07091426849365234
124,1.733462421345667,0.2323664096402903,-2.6227842624084174,0.9602779746055603,-0.23028098046779633,0.157597154378891,0.002991284243762493,-0.04763270914554596,0.0807807445526123,0.025531291961669922,-0.10382544994354248,-0.02522718906402588
125,1.671144658081899,0.22096263743921368,-2.640251543513563,0.9707785844802856,-0.21916896104812622,0.09774431586265564,0.34992989897727966,-1.0092607736587524,-0.5147220492362976,-0.028395771980285645,-0.00917881727218628,0.025897741317749023
126,1.675845810463566,0.1802510535898855,-2.64961921378814,0.9783753752708435,-0.17927657067775726,0.10315757244825363,0.11450975388288498,-0.08642244338989258,-0.3425397276878357,0.010485649108886719,0.06866559386253357,-0.08927202224731445
127,1.6089640265474023,0.16484203301251002,-2.664190660058223,0.9857257604598999,-0.16409650444984436,0.03764116391539574,-0.04228845611214638,-0.7779204845428467,-0.12103085964918137,-0.12271928787231445,0.014056861400604248,0.09359967708587646
128,1.6208149680194446,0.15540583489714554,-2.659901823910145,0.986713171005249,-0.1547810584306717,0.049395252019166946,-0.04978416487574577,0.28987422585487366,-0.3153704106807709,-0.010074377059936523,0.052531898021698,0.014874696731567383
129,1.6325403727978403,0.12661704402069976,-2.6601787525754603,0.9901044368743896,-0.12627899646759033,0.061210859566926956,0.08233246952295303,0.03439398854970932,-0.1274266541004181,0.009041011333465576,0.00843539834022522,-0.03389764204621315
130,1.6688754533030858,0.11280682666454042,-2.6784822657434475,0.9888686537742615,-0.1125677302479744,0.09729956835508347,0.3061896860599518,0.3292333483695984,0.13467678427696228,0.05005645751953125,-0.0730554386973381,-0.03243447095155716
131,1.7276475013963248,0.07847644703909151,-2.7153563966694527,0.98468416929245,-0.07839591801166534,0.1557280570268631,0.6221302151679993,0.8761406540870667,-0.5278624296188354,-0.03743380308151245,0.019878461956977844,0.04309403896331787
132,1.77686251889033,0.04995471090650107,-2.7475205096380657,0.977622389793396,-0.049933936446905136,0.20435567200183868,0.5936042666435242,0.3043290674686432,0.13886786997318268,-0.0648568868637085,0.02954818308353424,-0.0010018348693847656
133,1.8399966864068729,0.04254076466997597,-2.7900982566154737,0.963111937046051,-0.042527936398983,0.2657201290130615,0.3516501486301422,0.6900663375854492,-0.04142769053578377,0.09555834531784058,-0.0017988495528697968,-0.012042701244354248
134,1.8495345908774936,-0.0004797361021985377,-2.8491645665750687,0.9614031910896301,0.0004797360743395984,0.2751427888870239,0.8553107976913452,0.2136865109205246,-0.09849972277879715,0.0435863733291626,-0.12470154464244843,0.049869388341903687
135,1.8964903753540259,-0.01168052186341145,-2.919231544256106,0.9473643898963928,0.011680256575345993,0.3199446499347687,0.4259287118911743,0.6656159162521362,0.2876293957233429,-0.04576820135116577,-0.00446284469217062,-0.0249006450176239
136,1.9646952774464612,0.01734904171931521,-2.956487060583773,0.9232809543609619,-0.017348172143101692,0.3837340176105499,0.08950367569923401,0.30116894841194153,0.32536405324935913,0.03610038757324219,0.04185378924012184,-0.055822521448135376
137,1.9522742551669283,0.009897206041561983,-2.9597020198271164,0.9280698299407959,-0.009897044859826565,0.3722742795944214,0.2547384798526764,-0.11666423827409744,-0.21373845636844635,0.033447325229644775,-0.02268046699464321,0.04143720865249634
138,1.9554473450087497,-0.009144998087335042,-2.998473936064575,0.9268906116485596,0.009144870564341545,0.3752199709415436,0.5485738515853882,-0.07093190401792526,0.12386205792427063,-0.019938766956329346,0.007563501596450806,-0.017096281051635742
139,1.967878733879573,-0.024854996950065617,-3.032419288873716,0.9219086170196533,0.024852437898516655,0.3866100311279297,0.23175252974033356,0.16941651701927185,-0.22834153473377228,0.006726264953613281,-0.012431776151061058,-0.020582109689712524
140,1.997184375231883,-0.014679696066902233,-3.0495253021359554,0.9103674292564392,0.014679169282317162,0.41354039311408997,0.12122684717178345,0.5902897119522095,0.363165020942688,-0.034039974212646484,0.025893952697515488,0.005862683057785034
141,2.0319640634860003,-0.005538327277529026,-3.0729719787061236,0.8955199122428894,0.00553829874843359,0.444987416267395,0.22308491170406342,-0.32599347829818726,-0.14168621599674225,-0.011517047882080078,0.07003848254680634,-0.06965166330337524
142,2.0283198586394993,-0.019051342433018755,-3.081769549911396,0.8969866037368774,0.01905019022524357,0.44164764881134033,0.13271713256835938,0.43645620346069336,0.1725427210330963,0.01416170597076416,-0.03791004791855812,0.04536724090576172
143,2.047145520886632,-0.023998491272066214,-3.076003597280648,0.8884189128875732,0.02399618737399578,0.4584057927131653,-0.192579448223114,-0.28287556767463684,-0.3767320215702057,-0.04425698518753052,0.07683388888835907,-0.020005613565444946
144,2.008109457279684,-0.05136966058555727,-3.069517138538645,0.904697835445404,0.051347069442272186,0.42294833064079285,0.28473278880119324,-0.7975537776947021,-0.17106644809246063,0.10081052780151367,-0.020554840564727783,-0.02116909623146057
145,1.9518803726352025,-0.08508236387820714,-3.0725833879083906,0.9249041080474854,0.08497975021600723,0.37058156728744507,0.10802175104618073,0.0003364225849509239,-0.19639235734939575,-0.04409056901931763,-0.05029653012752533,0.04436585307121277
146,1.9484420190528957,-0.09359846749995995,-3.0713055221928767,0.9254666566848755,0.09346186369657516,0.36711910367012024,0.07134518027305603,-0.20826417207717896,-0.17358556389808655,-0.02986729145050049,0.014875538647174835,-0.018318533897399902
147,1.9389796510449198,-0.12063130917865621,-3.0758064636430213,0.9262025952339172,0.12033895403146744,0.35730549693107605,0.15982432663440704,0.11650910973548889,0.005376655608415604,0.025839030742645264,-0.029762782156467438,0.020700454711914062
148,1.9457808319167067,-0.12441005168343865,-3.086152000243369,0.9233213067054749,0.12408936768770218,0.3634272813796997,0.05548765882849693,-0.18821032345294952,-0.14217489957809448,0.022235214710235596,0.0008190721273422241,-0.007302433252334595
149,1.9328511768416978,-0.11937254502146769,-3.088948414026935,0.9285157918930054,0.11908923834562302,0.35167595744132996,0.06077831983566284,0.040761347860097885,0.07202059030532837,0.002270221710205078,0.00438486784696579,-0.01619616150856018
150,1.8664512151241166,-0.08743941704662926,-3.135559902192261,0.952957034111023,0.08732803910970688,0.29025328159332275,0.6207497119903564,-1.395517110824585,0.9774654507637024,0.0772554874420166,0.004514619708061218,-0.058273881673812866
151,1.7185035564194127,-0.06946711612939607,3.0401607745838066,0.9867255687713623,0.0694112554192543,0.14681577682495117,0.6322906017303467,-0.9908396601676941,-0.49503567814826965,-0.0706794261932373,0.0275278240442276,0.13432753086090088
152,1.7254559956717221,-0.08469308965279894,3.0343854549150526,0.9845224618911743,0.08459187299013138,0.15349169075489044,0.07516304403543472,0.5808307528495789,0.07780648022890091,-0.05262249708175659,0.04968545585870743,-0.009219899773597717
153,1.7485574787752498,-0.0970555933767481,3.0052598014688447,0.979610025882721,0.09690329432487488,0.17599427700042725,0.27598023414611816,0.08230532705783844,-0.1979885846376419,-0.04529911279678345,-0.028208225965499878,0.025208115577697754
154,1.76921641839051,-0.11393460233525861,2.966338475858062,0.9740228056907654,0.11368826031684875,0.19584260880947113,0.46264782547950745,0.22754907608032227,-0.07924208790063858,0.01860707998275757,0.017064295709133148,-0.04841221868991852
155,1.7688890526610008,-0.12410153882501573,2.963826946801952,0.9729034304618835,0.12378323078155518,0.19528618454933167,-0.09545408934354782,-0.15589624643325806,-0.1085045263171196,-0.005252063274383545,0.007991671562194824,0.007503151893615723
156,1.7619200372482218,-0.11390867912427634,2.967866014108497,0.9754286408424377,0.11366251111030579,0.18873116374015808,-0.02327711135149002,-0.17021796107292175,0.25888508558273315,-0.01031041145324707,-0.009506046772003174,-0.00431351363658905
157,1.7529184863413974,-0.07497946125544033,2.9734405187791806,0.98069828748703,0.07490922510623932,0.18060815334320068,-0.3522944152355194,-0.10495402663946152,0.36436253786087036,0.02943342924118042,0.026409126818180084,-0.04424037039279938
158,1.7139583110046304,-0.055866500494850424,2.9990602963276936,0.9882257580757141,0.055837444961071014,0.14245088398456573,-0.053749267011880875,-0.27714040875434875,-0.020239220932126045,-0.001943349838256836,-0.003850754350423813,0.09496057033538818
159,1.7024165144418086,-0.05566188422294908,2.995062927970257,0.9898152947425842,0.055633146315813065,0.13103723526000977,0.1278107762336731,-0.1527356505393982,0.08777455240488052,-0.013420581817626953,0.00021402165293693542,-0.009348392486572266
160,1.6547098976931542,-0.06068329960660571,2.964175108967372,0.9946470260620117,0.06064606085419655,0.08366084098815918,0.5025857090950012,-0.724927544593811,-0.16098302602767944,0.0072296857833862305,-0.0017318837344646454,0.016101114451885223
161,1.5935039044191182,-0.07779693298298279,2.9197541062902523,0.9967182278633118,0.07771848142147064,0.02263694815337658,-0.05546869337558746,0.04388497769832611,-0.04160303249955177,0.014939367771148682,-0.01625608652830124,0.019553540274500847
162,1.5865918074542562,-0.08492516819950738,2.9312604370214763,0.9962717294692993,0.0848231241106987,0.015737898647785187,-0.04118767008185387,-0.2749219834804535,-0.12082122266292572,-0.023630797863006592,0.0020756796002388,-0.02893674559891224
163,1.5348393876197504,-0.11355464473881861,2.9594217531953637,0.9929172992706299,0.11331076174974442,-0.035717662423849106,-0.4897213578224182,-0.9405378699302673,-0.7847331166267395,0.024203002452850342,0.032975248992443085,-0.0448792539536953
164,1.4206063977830317,-0.18579574664480147,2.9750026035140023,0.9717260599136353,0.18472863733768463,-0.14705081284046173,0.021189220249652863,-1.3195252418518066,-0.31897568702697754,-0.0008398294448852539,-0.0016842037439346313,-0.03768736124038696
165,1.278807121937814,-0.17830849651514244,2.963386876072342,0.9424893260002136,0.17736513912677765,-0.28329384326934814,0.2510610520839691,-1.682748794555664,0.3766115605831146,0.0462954044342041,-0.10664065182209015,-0.016281962394714355
166,1.1116995150150946,-0.14253748866312863,2.9638477290599634,0.8873618841171265,0.14205531775951385,-0.4386446177959442,-0.5577467679977417,-2.071704626083374,0.3126368224620819,0.05062633752822876,0.013248622417449951,-0.03234836459159851
167,0.8612801639545813,-0.10468419205915279,3.1388924014604127,0.7545238733291626,0.10449309647083282,-0.647900402545929,-1.7607704401016235,-3.4724955558776855,2.1042726039886475,-0.0573192834854126,0.09866242110729218,0.19860535860061646
168,0.4964465902567927,-0.06638167769312343,-2.874541838461634,0.4752550721168518,0.06633293628692627,-0.877344012260437,-1.398146152496338,-4.236260414123535,1.2163690328598022,-0.007710516452789307,0.26577460765838623,0.247613787651062
169,0.15552674110167183,-0.19664017064378478,-2.7497047332157796,0.15191534161567688,0.19537535309791565,-0.9688912034034729,-1.2004668712615967,-2.1661901473999023,0.6400558352470398,-0.045683667063713074,-0.09620851278305054,0.07565701007843018
170,0.04517112252017715,-0.28703640706239925,-2.631036028470176,0.0433083102107048,0.2831111252307892,-0.9581087827682495,-0.45433083176612854,-0.9736462831497192,1.1190356016159058,0.0687064602971077,-0.20645099878311157,-0.678838849067688
171,0.06382724235101996,-0.15209947067380075,-2.6033920185010238,0.06304753571748734,0.1515136957168579,-0.9864423871040344,2.0422542095184326,1.3267866373062134,0.26250186562538147,0.029512278735637665,-0.1056000143289566,0.19937878847122192
172,0.024100466184493352,-0.11134398990532221,-2.500347148369599,0.023948909714818,0.11111406981945038,-0.9935190677642822,0.14150157570838928,-0.5062572360038757,1.1163194179534912,-0.02817559242248535,-0.02662615478038788,-0.05080771446228027
173,-0.008589592113064301,-0.036011244306239025,-2.360893565703771,-0.008583917282521725,0.036003462970256805,-0.9993147850036621,1.4226963520050049,0.2026677280664444,1.9231314659118652,0.008141412399709225,0.0732189491391182,0.06503438949584961
174,0.021542568622883684,0.04686367167029264,-2.1661330145986417,0.021517252549529076,-0.04684652015566826,-0.9986703395843506,-0.5040479302406311,-0.19782666862010956,1.0231950283050537,-0.09805534034967422,0.013536583632230759,0.08546233177185059
175,-0.0005990897694706338,-0.03538171098513385,-2.1557138903562802,-0.0005987148033455014,0.03537432849407196,-0.9993739724159241,-1.1474705934524536,-0.20136575400829315,-0.0008893650956451893,-0.036403849720954895,0.03287823498249054,-0.031052052974700928
176,-0.026875820661033695,-0.06860046040621436,-2.1617795301161173,-0.02680937945842743,0.06854666769504547,-0.9972876310348511,0.017291102558374405,-0.6125370264053345,-0.534925103187561,-0.13401825726032257,0.06849251687526703,-0.06675350666046143
177,-0.029964204529244608,-0.045602871092081346,-2.1602430421641934,-0.029928574338555336,0.04558706656098366,-0.9985119700431824,-0.08406471461057663,-0.006395690143108368,-0.4062521457672119,0.018484484404325485,0.012106414884328842,-0.025200188159942627
178,-0.056154404291159,-0.07851210804547651,-2.2331489547764836,-0.055952005088329315,0.07843147218227386,-0.9953480958938599,-0.11206772923469543,-0.8815871477127075,-1.0541211366653442,0.06742662191390991,0.07368338853120804,-0.16709691286087036
179,-0.1942572510888505,0.05412766104461893,-2.327191732623786,-0.1927551031112671,-0.054101236164569855,-0.9797543287277222,1.6280150413513184,-1.2346711158752441,-1.219236135482788,-0.02564394474029541,0.13614773750305176,0.13852202892303467
180,-0.22275079275544687,0.11129543375172456,-2.4639256750071903,-0.21954651176929474,-0.1110658124089241,-0.9692593812942505,0.0661490187048912,-0.5439289212226868,-1.8954424858093262,0.06650085747241974,-0.023165754973888397,-0.1273287534713745
181,-0.25300943222362265,0.20630292291763105,-2.56813293448131,-0.24501068890094757,-0.20484262704849243,-0.9476335048675537,0.607713520526886,-0.001512034796178341,-0.6437492370605469,0.04762297868728638,0.006676733493804932,0.1272294521331787
182,-0.29117424175045403,0.26554756973414495,-2.6063804757509135,-0.2770148813724518,-0.2624376714229584,-0.924331784248352,0.6762019991874695,-1.6135144233703613,-1.0893582105636597,-0.017662853002548218,0.3217180669307709,-0.20959460735321045
183,-0.39094010179935546,0.3153382957616297,-2.755749548543334,-0.3622683882713318,-0.31013810634613037,-0.8789629936218262,-0.35108330845832825,-1.119174838066101,-1.5916781425476074,0.03379243612289429,0.08925190567970276,0.05752140283584595
184,-0.3324539768705812,0.3478790204173415,-2.9375989216554346,-0.3068137466907501,-0.3409046530723572,-0.8886221647262573,0.08461559563875198,0.6740986704826355,-1.2176059484481812,0.11800149083137512,-0.11904102563858032,-0.09869778156280518
185,-0.3264088435650923,0.40330689669957936,-2.9927128109955032,-0.2949177622795105,-0.3924620747566223,-0.8712043762207031,0.3271803557872772,-0.36542072892189026,-0.31468620896339417,-0.0037272870540618896,-0.12294933199882507,-0.034572601318359375
186,-0.31343049866768147,0.4495754269582757,-3.010388197956591,-0.277686208486557,-0.4345831871032715,-0.8567542433738708,0.05397186055779457,0.3761013448238373,-0.5173352956771851,-0.03612607717514038,0.016507625579833984,0.08851999044418335
187,-0.28659157450237693,0.4152565086619786,-3.0525972224388878,-0.2586599290370941,-0.4034246504306793,-0.8776922225952148,-0.8209710121154785,-0.15740710496902466,-0.12589219212532043,0.06606349349021912,-0.04928836226463318,-0.006051063537597656
188,-0.2760889528216402,0.3432142561800594,-3.056373531440234,-0.256696492433548,-0.3365156054496765,-0.9060155153274536,-0.4667971432209015,0.2840375304222107,0.5369167327880859,0.015088826417922974,-0.0344865620136261,0.03324329853057861
189,-0.2647129275051135,0.29039216488671576,-3.020527706100075,-0.25067809224128723,-0.286327987909317,-0.9247576594352722,-0.3750915825366974,0.18509386479854584,0.4411729872226715,-0.04415220022201538,-0.03819593787193298,-0.08158993721008301
190,-0.24579859167215354,0.27125614206270565,-2.9742268686206446,-0.2344336062669754,-0.2679418623447418,-0.9344773888587952,0.33188343048095703,0.5822087526321411,0.4074663519859314,-0.0558648407459259,0.005002409219741821,-0.02523934841156006
191,-0.18732072141904843,0.3167875091203305,-2.9197323686083365,-0.17696069180965424,-0.31151553988456726,-0.9336182475090027,0.5743656158447266,0.8022060990333557,0.32928547263145447,-0.03535011410713196,0.06366702914237976,0.019250571727752686
192,-0.15712934518492266,0.31916009082566427,-2.8829086522488994,-0.14858102798461914,-0.3137691915035248,-0.9378020167350769,-0.42090633511543274,0.10917249321937561,0.47099030017852783,0.04781198501586914,-0.016125857830047607,0.028042495250701904
193,-0.1475716737886596,0.26258002485978477,-2.837529563880901,-0.14199672639369965,-0.2595730125904083,-0.9552270770072937,-0.40731003880500793,0.28427430987358093,0.5094714164733887,0.01922452449798584,-0.050760239362716675,-0.0239904522895813
194,-0.14600476757140227,0.24918259146947147,-2.8098398313423933,-0.140993133187294,-0.24661187827587128,-0.9588031768798828,0.5221272706985474,-0.4070644676685333,-0.2579788565635681,-0.034864410758018494,0.08496025204658508,-0.1477642059326172
195,-0.15894680106239956,0.2794680272040267,-2.829200564838531,-0.15213753283023834,-0.27584436535835266,-0.9490858912467957,-0.2738083600997925,-0.17613093554973602,0.025059236213564873,0.04882027208805084,-0.020237207412719727,-0.038981735706329346
196,-0.1656827042270812,0.2429963045012085,-2.8533908541900037,-0.1600804328918457,-0.2406119853258133,-0.9573296904563904,-0.15803855657577515,-0.08905453979969025,-0.0007056042086333036,-0.005568981170654297,-0.03206257522106171,-0.002570211887359619
197,-0.17185071677022054,0.23107225219270688,-2.8231926548184725,-0.16646099090576172,-0.22902141511440277,-0.959082841873169,-0.06351306289434433,0.07505816966295242,0.307752788066864,-0.02467060089111328,0.015428885817527771,0.0033485889434814453
198,-0.1684305903232128,0.21488376073208967,-2.8248013439608592,-0.16377994418144226,-0.2132338583469391,-0.9631757140159607,-0.06313636898994446,0.001202060841023922,-0.12616929411888123,-0.01897457242012024,0.03525535762310028,-0.0023241639137268066
199,-0.15950520090854475,0.222741596869171,-2.8263279830313146,-0.15490590035915375,-0.22090432047843933,-0.9629150629043579,0.09670495986938477,0.11862615495920181,0.04249322786927223,0.007246583700180054,-0.012875586748123169,-0.02499997615814209
200,-0.1551798925924009,0.2264172181065698,-2.828956072373144,-0.15061303973197937,-0.22448763251304626,-0.9627673625946045,-0.07369740307331085,0.1120779812335968,-0.009695678018033504,-0.00868871808052063,-0.015823036432266235,0.025252103805541992
201,-0.14040836836947315,0.21825901449136528,-2.8286729211961674,-0.13662734627723694,-0.21653026342391968,-0.9666683077812195,0.02176169492304325,0.15800312161445618,0.012287948280572891,0.0066834986209869385,0.010139882564544678,-0.03429299592971802
202,-0.13741831994464643,0.23452464041498977,-2.830926508961481,-0.13323621451854706,-0.23238065838813782,-0.9634559154510498,0.1365620493888855,0.024493908509612083,-0.18609927594661713,-0.003070533275604248,0.012882992625236511,0.02586442232131958
203,-0.13149133572723612,0.2302035012636102,-2.8406606079096397,-0.12765398621559143,-0.22817565500736237,-0.9652151465415955,-0.16746993362903595,0.058857161551713943,0.06619290262460709,0.01887410879135132,-0.05705687403678894,0.010076045989990234
204,-0.12916473180069726,0.21810798849012755,-2.832730764387147,-0.12575428187847137,-0.21638283133506775,-0.9681757688522339,-0.15347176790237427,0.000460662879049778,0.05894697085022926,-0.014107778668403625,0.014921024441719055,-0.006387829780578613
205,-0.1304331338214572,0.21188780765892137,-2.8290274392337214,-0.12715482711791992,-0.210305854678154,-0.9693312644958496,0.03994623199105263,0.017977865412831306,0.035187944769859314,0.0010256767272949219,0.01867072284221649,0.003938198089599609
206,-0.13014719950941203,0.21219289781620368,-2.8286276780416686,-0.1268693208694458,-0.21060411632061005,-0.9693039059638977,0.0030204099602997303,-0.046672746539115906,-0.038908518850803375,0.010719433426856995,-0.0019202828407287598,-0.0036422014236450195
207,-0.12827068104464248,0.20927906100245752,-2.8265669353334415,-0.1251281499862671,-0.20775474607944489,-0.9701448082923889,-0.009216682985424995,0.026701830327510834,0.028795255348086357,0.0006469488143920898,0.0026003271341323853,-0.012826383113861084
208,-0.12732692665060652,0.21077065736020215,-2.825064788443597,-0.12417302280664444,-0.20921356976032257,-0.9699540138244629,0.02931608445942402,0.008756018243730068,-0.021087076514959335,-0.008883610367774963,0.012924492359161377,-0.004655361175537109
209,-0.12449248525062527,0.2159164740908871,-2.8265080626148382,-0.12128796428442001,-0.21424271166324615,-0.9692209959030151,0.05786370858550072,0.05143045634031296,-0.030606709420681,-4.1425228118896484e-06,0.005075231194496155,0.0005930662155151367
210,-0.12286928960956388,0.21832872944442092,-2.826940413391738,-0.11965087801218033,-0.21659833192825317,-0.9689008593559265,0.022876568138599396,0.023114880546927452,0.020807577297091484,-0.0015649348497390747,-0.012100398540496826,0.0023023486137390137
211,-0.11746224653351581,0.22701753543897074,-2.828240552622114,-0.1141854003071785,-0.22507259249687195,-0.9676280617713928,0.21254917979240417,0.04934118315577507,-0.12752459943294525,-0.0033377930521965027,0.04407283663749695,-0.023018300533294678
212,-0.10744759747132797,0.24573968955728853,-2.825389712205789,-0.10401919484138489,-0.24327385425567627,-0.9643639326095581,0.14279983937740326,0.03442049399018288,0.15337014198303223,0.03385928273200989,-0.04346929490566254,-0.0065833330154418945
213,-0.1127237484581988,0.2377751737189205,-2.814806525275474,-0.10932034254074097,-0.2355409860610962,-0.965696394443512,-0.21065421402454376,-0.013497473672032356,0.11868836730718613,-0.003167450428009033,0.0026002973318099976,0.015623152256011963
214,-0.11387033291379939,0.23423877399532061,-2.811156942065452,-0.11052147299051285,-0.23210261762142181,-0.966391921043396,0.10031789541244507,-0.026960574090480804,-0.013262778520584106,-0.013212032616138458,0.010545000433921814,-0.02428489923477173
215,-0.1088098431992411,0.23059157329803717,-2.8068492441210666,-0.1057208925485611,-0.22855347394943237,-0.9677739143371582,-0.15672381222248077,0.18424811959266663,0.11538894474506378,0.008995436131954193,-0.028007790446281433,-0.0007318854331970215
216,-0.10344637037205488,0.22078618563545574,-2.8054799294637496,-0.10075534880161285,-0.2189967930316925,-0.9705095291137695,-0.06387414783239365,-0.0278548002243042,-0.048900894820690155,0.009217873215675354,0.012850552797317505,-0.013590812683105469
217,-0.10550780766980608,0.21830082544814589,-2.8053708656696466,-0.10281277447938919,-0.21657109260559082,-0.9708380699157715,-0.027896437793970108,-0.0502605065703392,0.06380727887153625,0.005980506539344788,-0.01482844352722168,-0.006548404693603516
218,-0.10843310882199224,0.21388868178047854,-2.8007089041139936,-0.10575471073389053,-0.21226157248020172,-0.9714736342430115,-0.03024875372648239,0.025011667981743813,0.019483022391796112,-0.0076180994510650635,0.017269492149353027,-0.0010910630226135254
219,-0.10950590009444303,0.21149577513232284,-2.8010999126967855,-0.10685203969478607,-0.20992258191108704,-0.971861720085144,-0.05217596888542175,-0.0035058539360761642,-0.012217920273542404,-0.0020041614770889282,-0.006263941526412964,0.000807642936706543
220,-0.11467374945033988,0.20594082185676763,-2.7973786770040623,-0.11200472712516785,-0.20448818802833557,-0.9724400043487549,-0.032264344394207,-0.12026334553956985,0.11674153059720993,0.021901577711105347,-0.025171831250190735,-0.023409605026245117
221,-0.12447429422629046,0.203773943272559,-2.7848351860303553,-0.12158436328172684,-0.20236662030220032,-0.9717329740524292,-0.09614823758602142,0.01890949159860611,0.06576526910066605,-0.021405741572380066,0.02238921821117401,0.026893556118011475
222,-0.12419418716340952,0.1994386409654599,-2.783717485670705,-0.12141970545053482,-0.1981191337108612,-0.9726284146308899,0.04497160390019417,-0.044753219932317734,-0.009382856078445911,0.0069635361433029175,0.013243645429611206,-0.014920413494110107
223,-0.1296531796548429,0.20877169338373092,-2.7717715180815623,-0.12648285925388336,-0.2072584182024002,-0.970075249671936,0.308808296918869,-0.07713046669960022,0.28885069489479065,0.038012415170669556,-0.0306718647480011,-0.05676490068435669
224,-0.1324891851407355,0.24934107293148158,-2.731071260138713,-0.12801669538021088,-0.24676546454429626,-0.9605823755264282,0.5747940540313721,0.3717646300792694,0.3712592124938965,-0.013462796807289124,-0.0005031973123550415,-0.04085195064544678
225,-0.1657277925021455,0.26308166323875637,-2.6367229775532026,-0.15929408371448517,-0.2600574195384979,-0.952363133430481,-0.2558336555957794,-0.3817092180252075,0.8493136167526245,0.007804840803146362,-0.009061872959136963,-0.12174880504608154
226,-0.16368899055866784,0.2381657347411558,-2.6070585385582143,-0.15835903584957123,-0.23592053353786469,-0.9587825536727905,0.08776899427175522,0.21109619736671448,0.567808985710144,0.13840055465698242,-0.06450974941253662,0.09002339839935303
227,-0.20097878967335062,0.18420543680134785,-2.445474541868862,-0.19625121355056763,-0.18316547572612762,-0.963294267654419,-0.49976199865341187,1.014936923980713,1.4417723417282104,0.022239983081817627,0.13085834681987762,0.38680195808410645
228,-0.13770428522602393,0.14877938927455028,-2.308064831877594,-0.13575305044651031,-0.1482311189174652,-0.9795910716056824,-0.020671237260103226,1.0241878032684326,1.5602909326553345,-0.017475709319114685,-0.01308479905128479,0.20085877180099487
229,-0.07007939812301466,0.14786663598218105,-2.139542737907438,-0.0692579448223114,-0.14732839167118073,-0.9866598844528198,0.006668562069535255,0.2132905274629593,1.4823919534683228,-0.0345628559589386,0.03352832794189453,-0.13751614093780518
230,-0.06412782380431939,0.10189890670435843,-2.0739429894707864,-0.0637514665722847,-0.10172265768051147,-0.9927679896354675,-0.44093582034111023,0.49135786294937134,0.15490002930164337,-0.0614011287689209,-0.042778074741363525,-0.01026850938796997
231,-0.03174012222451476,0.08995846637564656,-2.0333772200905416,-0.03160647302865982,-0.08983718603849411,-0.9954548478126526,0.09096527844667435,0.2831214666366577,0.5342322587966919,-0.03449460119009018,-0.01572311669588089,-0.024183213710784912
232,-0.028644961475953273,0.0885785079593629,-1.9835237166621122,-0.028528757393360138,-0.0884627178311348,-0.9956708550453186,-0.2581976652145386,0.054809749126434326,0.42553356289863586,-0.07616179436445236,0.003257647156715393,0.02202284336090088
233,-0.056681724337464795,0.04986470913547556,-1.9553437085961887,-0.056580960750579834,-0.04984404519200325,-0.9971530437469482,-0.3335035443305969,-0.009244319051504135,0.027450334280729294,-0.08257919549942017,-0.01882050186395645,0.04543185234069824
234,-0.06412317727363769,0.06874644831927776,-1.9340278613516906,-0.06392788141965866,-0.06869231164455414,-0.9955875873565674,0.45079168677330017,-0.2960965931415558,0.1179221123456955,-0.02898288518190384,0.008832082152366638,-0.03297686576843262
235,-0.07899850610032123,0.08210451905092973,-1.9246008693083239,-0.07865051925182343,-0.08201230317354202,-0.9935230612754822,-0.14300106465816498,-0.14484409987926483,0.22178462147712708,0.0032568424940109253,-0.006137721240520477,-0.030356943607330322
236,-0.09035062803385002,0.06531615013485724,-1.9050769702204833,-0.09003535658121109,-0.06526971608400345,-0.9937975406646729,0.0034551615826785564,-0.26730725169181824,0.19912612438201904,0.09871760755777359,0.06313349306583405,-0.07035040855407715
237,-0.1200298478129416,0.07183470603548282,-1.9002502045646963,-0.11943302303552628,-0.07177294045686722,-0.9902446269989014,-0.11228936910629272,-0.29997608065605164,-0.06248344108462334,0.07516727596521378,0.012553580105304718,-0.015202760696411133
238,-0.1363377446773002,0.04640525770570034,-1.9120094003290953,-0.13576944172382355,-0.04638860374689102,-0.9896538853645325,-0.12131887674331665,-0.1255124807357788,0.061940453946590424,0.10561808943748474,-0.05094721168279648,-0.03299015760421753
239,-0.1349219163987769,0.06459751719107792,-1.8885486827171305,-0.13423238694667816,-0.06455259770154953,-0.9888451099395752,0.3753545582294464,0.2772977650165558,0.32392483949661255,-0.02241434156894684,-0.006461799144744873,0.021468400955200195
240,-0.12928829877116169,0.11822870171829143,-1.8539487556314154,-0.12802837789058685,-0.11795345693826675,-0.9847313165664673,0.5636855959892273,0.10349509865045547,0.25485759973526,-0.04013873636722565,-0.006131008267402649,0.045049309730529785
241,-0.13499093669365453,0.1325962766792279,-1.830651589521925,-0.13339997828006744,-0.13220807909965515,-0.9822043776512146,-0.15640534460544586,-0.009901607409119606,-0.029700536280870438,-0.0021743476390838623,-0.0011994987726211548,-0.002887725830078125
242,-0.12750613058314353,0.11801313851157273,-1.8271161460266967,-0.12627644836902618,-0.11773940175771713,-0.9849830865859985,-0.05170273780822754,0.16703572869300842,0.19717937707901,0.08677145838737488,-0.03095749020576477,-0.01205664873123169
243,-0.10179962289272732,0.1415059414242826,-1.7953743642833158,-0.10060812532901764,-0.14103415608406067,-0.9848793745040894,0.3462279140949249,-0.013149444013834,0.5906698703765869,0.016471169888973236,-0.013049080967903137,-0.060362935066223145
244,-0.11456915697029316,0.15828008173213992,-1.7331670105965078,-0.11288967728614807,-0.15762002766132355,-0.9810259342193604,0.3304576873779297,0.008513997308909893,0.5952966809272766,-0.08399447798728943,0.11228615045547485,-0.013252019882202148
245,-0.13406528309152882,0.1848816767884151,-1.6840522647007383,-0.1313861459493637,-0.18383023142814636,-0.9741376638412476,0.22741882503032684,-0.3757420778274536,0.37558144330978394,-0.06717647612094879,0.10678860545158386,-0.05993521213531494
246,-0.1807860365025407,0.18847138854561563,-1.661961354614371,-0.17661885917186737,-0.1873575747013092,-0.9662830233573914,0.03546527773141861,-0.3700515627861023,0.2253553718328476,-0.058915793895721436,0.037256866693496704,0.008122622966766357
247,-0.21279487398360822,0.1979643337392497,-1.632782360041953,-0.20706774294376373,-0.19667382538318634,-0.9583539962768555,0.24639226496219635,-0.12811510264873505,0.3664174973964691,0.05112291872501373,0.01074548065662384,0.03007030487060547
248,-0.2279004207791717,0.21103902393957555,-1.583024547961019,-0.2209201455116272,-0.20947597920894623,-0.9525303840637207,0.10182751715183258,0.07258489727973938,0.5446522831916809,0.031161844730377197,-0.001507297158241272,0.0320591926574707
249,-0.22335914714358307,0.195825562326726,-1.5387032127366977,-0.21727299690246582,-0.19457638263702393,-0.9565210342407227,-0.17795465886592865,0.08559701591730118,0.2572398781776428,-0.04169917106628418,0.036815762519836426,-0.005438804626464844
250,-0.24050040878324605,0.16867075636968248,-1.537782468095383,-0.23480847477912903,-0.1678721159696579,-0.9574361443519592,-0.3420531153678894,-0.34903255105018616,0.038100551813840866,-0.07637926936149597,-0.0324757844209671,-0.008643567562103271
251,-0.2574905643580643,0.13557203026490944,-1.5489138010952237,-0.25231799483299255,-0.13515710830688477,-0.9581587314605713,-0.1511944830417633,-0.020542126148939133,-0.1423967033624649,-0.07182446122169495,0.040537357330322266,0.004926919937133789
252,-0.27531961045132675,0.14080242430877446,-1.560685521708419,-0.26916417479515076,-0.14033764600753784,-0.9528147578239441,0.14650876820087433,-0.2829183340072632,-0.16173002123832703,0.012007802724838257,0.03267163038253784,0.003763854503631592
253,-0.27797341616989046,0.14717884330934894,-1.5687383336959018,-0.2714407444000244,-0.14664806425571442,-0.9512172341346741,-0.13059718906879425,0.3670709729194641,0.007667609490454197,-0.036069631576538086,0.013133645057678223,0.04002338647842407
254,-0.23485474642225637,0.1328886942567693,-1.5830789956267963,-0.23065005242824554,-0.13249792158603668,-0.9639734625816345,-0.2649953365325928,0.47299832105636597,-0.14678238332271576,-0.02372920513153076,-0.0008486360311508179,-0.0546269416809082
255,-0.20370375674508337,0.1346685434598418,-1.5902305535919354,-0.20046626031398773,-0.1342618614435196,-0.970457136631012,0.04650481045246124,0.33368587493896484,0.022616364061832428,0.002773389220237732,-0.03407309949398041,0.014463484287261963
256,-0.17315893295202875,0.12158216843135818,-1.5785185346786612,-0.17102301120758057,-0.12128284573554993,-0.9777737855911255,-0.014780767261981964,0.3439083695411682,0.14481304585933685,-0.039059996604919434,0.049810685217380524,0.0015469789505004883
257,-0.13156683048444875,0.14230349779940973,-1.592901745613098,-0.12986153364181519,-0.14182370901107788,-0.9813368320465088,0.39984452724456787,0.40668776631355286,-0.26170462369918823,-0.041998207569122314,0.004158914089202881,-0.01805281639099121
258,-0.11588162402429616,0.16147361278715303,-1.615306144450607,-0.11411835998296738,-0.16077283024787903,-0.98037189245224,-0.20642466843128204,0.21622778475284576,-0.4070734977722168,-0.04522917419672012,-0.01650378108024597,-0.02972942590713501
259,-0.11120247192327089,0.17326472931540626,-1.652287651311705,-0.10931184142827988,-0.17239910364151,-0.9789430499076843,0.4404260218143463,-0.4633322060108185,-0.18413574993610382,0.08202912658452988,-0.09284442663192749,-0.07893353700637817
260,-0.11985600968891987,0.21480228522850942,-1.6507000711498179,-0.11682137846946716,-0.21315425634384155,-0.9700092673301697,0.4011434316635132,0.5805642604827881,0.0868612751364708,-0.05644216388463974,0.06187863647937775,0.18431901931762695
261,-0.08726255915203186,0.22899078017248178,-1.642013968206086,-0.08487684279680252,-0.22699476778507233,-0.9701903462409973,-0.13984501361846924,0.35120654106140137,-0.11801095306873322,-0.15117663145065308,0.13300062716007233,-0.018060386180877686
262,-0.078185483965513,0.2314773795526873,-1.686167235119255,-0.07602265477180481,-0.22941574454307556,-0.9703550934791565,0.006226097699254751,-0.1740894615650177,-0.6965665817260742,-0.07912871241569519,0.04658493399620056,0.017855703830718994
263,-0.10414226025755573,0.24078279465134567,-1.7653868374909405,-0.10095520317554474,-0.2384629100561142,-0.9658899903297424,-0.24198175966739655,-0.8176102638244629,-0.9173735976219177,0.11462707817554474,-0.0592055469751358,0.05416208505630493
264,-0.07143734925109536,0.20097965742923657,-1.828462511115877,-0.06993989646434784,-0.19962936639785767,-0.9773722290992737,-0.36486634612083435,0.02088242769241333,-0.14163243770599365,0.06838350743055344,0.04878099262714386,-0.09178054332733154
265,-0.059695073536456644,0.16951071739757767,-1.8548125107559996,-0.058804549276828766,-0.16870009899139404,-0.9839117527008057,-0.0482582226395607,0.04045102745294571,-0.6323196291923523,-0.11397071182727814,0.16300857067108154,-0.09726500511169434
266,-0.0308336516063975,0.21929744991618758,-1.9611190305590978,-0.03009043261408806,-0.21754395961761475,-0.9755865931510925,0.7707807421684265,-0.027494382113218307,-0.8741889595985413,-0.02325429767370224,-0.044479966163635254,-0.01809626817703247
267,-0.03463898472261938,0.2866063139392999,-2.0403998741926044,-0.03321937471628189,-0.2826986014842987,-0.9586333632469177,0.33598846197128296,-0.38552600145339966,-0.882887065410614,-0.04228110611438751,-0.058381110429763794,0.0496978759765625
268,-0.004512033849814191,0.29543225707206594,-2.121677909004799,-0.004316541366279125,-0.2911534011363983,-0.9566666483879089,0.09976159781217575,0.4735441505908966,-0.7253209352493286,-0.013337880373001099,-0.056396037340164185,0.055467307567596436
269,0.0205355410671705,0.2864731357411006,-2.173479625097902,0.01969726011157036,-0.28257086873054504,-0.9590441584587097,-0.17428572475910187,-0.16150134801864624,-0.43833667039871216,0.11059754341840744,0.016793251037597656,0.06129330396652222
270,0.05488284541123842,0.28576586810845156,-2.1865977311291247,0.052630696445703506,-0.281892329454422,-0.958001434803009,0.11624117195606232,0.46877387166023254,-0.20928697288036346,0.07423087954521179,0.1216292679309845,0.009454071521759033
271,0.14311991920100353,0.32209232644040486,-2.2161200579710214,0.1352970004081726,-0.31655198335647583,-0.938876748085022,0.5768201947212219,0.9553881287574768,0.4953385889530182,0.1407039761543274,-0.01674574613571167,-0.029140830039978027
272,0.1694581837958614,0.3552880214293107,-2.1641747536333176,0.15811561048030853,-0.3478604257106781,-0.9241172075271606,-0.4217505156993866,-0.2783719003200531,0.23186887800693512,0.024593114852905273,0.05171781778335571,-0.027527689933776855
273,0.18296993843601406,0.23493666261370139,-2.1255234452000136,0.17695237696170807,-0.23278139531612396,-0.9562953114509583,-1.5173144340515137,0.4167190194129944,0.1081184670329094,-0.03866197168827057,0.008660286664962769,0.08950453996658325
274,0.21304062884159544,0.13639187798440913,-2.117419092001976,0.20946919918060303,-0.1359694004058838,-0.9683155417442322,-0.14240723848342896,0.4160088300704956,-0.3900601267814636,-0.12264667451381683,0.005674600601196289,-0.10599476099014282
275,0.23328231575669797,0.1292828278891039,-2.156403711365463,0.2292429506778717,-0.1289229840040207,-0.9647935032844543,0.28857359290122986,-0.1483057141304016,-0.2205023467540741,0.004262298345565796,0.13629300892353058,-0.001865983009338379
276,0.1981120442902301,0.13590936497771677,-2.172900257508498,0.1950037032365799,-0.13549134135246277,-0.9713988304138184,0.44478368759155273,-0.41089266538619995,-0.2875016927719116,-0.0857202410697937,0.04546448588371277,-0.04659128189086914
277,0.18566926379421245,0.20953803897599751,-2.2174720329299094,0.18056650459766388,-0.2080080658197403,-0.9613159894943237,0.874164879322052,0.0785088986158371,-0.127110093832016,0.01662282645702362,-0.023772940039634705,0.03747260570526123
278,0.171868797551358,0.2318698805158369,-2.2179914148914133,0.16644704341888428,-0.22979776561260223,-0.9588995575904846,-0.4996177554130554,-0.6596779227256775,0.1565435528755188,0.030604958534240723,-0.01814231276512146,0.01578432321548462
279,0.09666337592353076,0.18983864051806124,-2.181433830213243,0.09477902948856354,-0.18870043754577637,-0.9774503111839294,-0.12509511411190033,-0.7165506482124329,0.17520825564861298,0.04364870488643646,-0.004674196243286133,-0.06690698862075806
280,0.0021973730477788172,0.17134639914748798,-2.112439067204172,0.0021651932038366795,-0.1705091893672943,-0.9853537082672119,-0.5083630681037903,-0.746819794178009,0.6548903584480286,-0.03530728816986084,0.0070265233516693115,0.11046051979064941
281,-0.06170323137328071,0.10523099863012225,-2.050160020127595,-0.061322979629039764,-0.1050368919968605,-0.9925758242607117,-0.39289629459381104,-0.22465695440769196,0.5135127902030945,0.004941754043102264,-0.022999607026576996,0.00261610746383667
282,-0.07755763571248535,0.10171401764879255,-1.9847272172153223,-0.07707946002483368,-0.10153872519731522,-0.9918410181999207,0.09938044846057892,-0.110948346555233,0.6216537356376648,-0.01520569622516632,0.039801664650440216,0.014210402965545654
283,-0.07101604849772199,0.09636947097311307,-1.944327971182319,-0.0706271380186081,-0.09622037410736084,-0.992851197719574,-0.08760189265012741,0.04659958928823471,-0.07320822030305862,-0.0848599225282669,0.07424771785736084,0.019752442836761475
284,-0.0568268042646302,0.0675915055958058,-1.9672130253702609,-0.0566665343940258,-0.06754004955291748,-0.9961060285568237,-0.38608992099761963,0.2065722942352295,-0.5641290545463562,-0.0415390320122242,0.017384417355060577,-0.011218130588531494
285,-0.033436704815136095,0.058363168484740574,-2.0018007408384735,-0.033373553305864334,-0.05833004042506218,-0.9977393746376038,0.09163947403430939,0.18610459566116333,-0.20444245636463165,0.041552264243364334,-0.02377750352025032,-0.06318897008895874
286,-0.017891509984244266,0.09370642093886425,-2.0123656739984317,-0.01781206578016281,-0.09356934577226639,-0.995453417301178,0.6094656586647034,0.16581588983535767,-0.24081572890281677,-0.011164374649524689,0.013582766056060791,-0.02865546941757202
287,-0.0025284197654362166,0.15397564095465532,-2.0284619329839035,-0.0024985037744045258,-0.15336793661117554,-0.9881659746170044,0.5422772169113159,0.12415696680545807,-0.24006858468055725,-0.030002720654010773,0.03854554891586304,0.018134236335754395
288,0.02407155892257192,0.21927209582552248,-2.058920715929093,0.023492921143770218,-0.21751920878887177,-0.975773274898529,0.7479435205459595,0.2849101722240448,-0.3734973073005676,-0.03051196038722992,0.031865522265434265,6.526708602905273e-05
289,0.04241175145589096,0.2806198599300836,-2.0907670669308516,0.04074055328965187,-0.27695131301879883,-0.9600198864936829,0.30268657207489014,-0.14850667119026184,-0.2579799294471741,0.007980763912200928,-0.026347637176513672,0.0025308728218078613
290,0.029012709286685753,0.27165027357768656,-2.104330220572593,0.02794487588107586,-0.26832154393196106,-0.9629240036010742,-0.48321449756622314,-0.18028929829597473,0.012373281642794609,0.02196662127971649,-0.06953853368759155,0.08063030242919922
291,0.011626306260259876,0.21224889181963852,-2.09009356576726,0.011365151964128017,-0.21065886318683624,-0.9774935841560364,-0.38831156492233276,0.028032556176185608,0.2515033781528473,-0.003293246030807495,-0.012287318706512451,-0.012237250804901123
292,0.0023511449707966678,0.17295807613687966,-2.0747177440569056,0.0023160637356340885,-0.17209704220294952,-0.9850772619247437,-0.4181274175643921,-0.09400375187397003,0.12334935367107391,-0.02297646552324295,0.022667735815048218,-0.006652414798736572
293,0.006940661961447271,0.16431596554078162,-2.0687353577889707,0.006847119424492121,-0.16357754170894623,-0.9865067005157471,0.0666826069355011,0.011643488891422749,0.006699723657220602,-0.004161573946475983,0.020633220672607422,-0.04420924186706543
294,0.004596774357564034,0.17028895474498776,-2.070660203002424,0.004530270118266344,-0.16946713626384735,-0.9855254292488098,0.16185319423675537,0.007083402946591377,0.0068108937703073025,0.0036484450101852417,-0.006680339574813843,-0.0063111186027526855
295,0.008945918097745732,0.18883921920230046,-2.0668258511030273,0.008786767721176147,-0.18771888315677643,-0.9821835160255432,0.12749335169792175,0.007663607597351074,0.015252728946506977,-0.008802026510238647,0.0034537315368652344,-0.007013261318206787
296,0.00775430370275342,0.1892624679314036,-2.072540370026421,0.007615760900080204,-0.1881345808506012,-0.9821137189865112,-0.08155908435583115,0.016344301402568817,-0.051386572420597076,0.0024855579249560833,-0.017950594425201416,0.029599130153656006
297,0.009998036804797064,0.18260396984027974,-2.0724225785389963,0.009831647388637066,-0.18159087002277374,-0.9833250045776367,-0.07767118513584137,0.002162111923098564,-0.05076127499341965,-0.009907939471304417,-0.0002938956022262573,-0.022503793239593506
298,0.010379549643607554,0.1755891296155293,-2.073138189378444,0.010219767689704895,-0.17468823492527008,-0.9845707416534424,-0.1248566061258316,0.001082349568605423,-0.03565549850463867,-0.012218669056892395,0.0029200613498687744,0.004834413528442383
299,0.010127192491115827,0.16478949154340425,-2.0757162990276647,0.009989827871322632,-0.16404467821121216,-0.9864023327827454,-0.036447539925575256,0.012980235740542412,-0.058355771005153656,-0.016184896230697632,0.012051880359649658,-0.015581309795379639
300,0.012867042465414289,0.16632780654497475,-2.078740504950317,0.012689119204878807,-0.1655619591474533,-0.9861177802085876,-0.03130444511771202,-0.02476181648671627,0.049065761268138885,0.009497158229351044,-0.017390921711921692,-0.014614641666412354
301,0.011029799636685727,0.16247304619542896,-2.079056930093082,0.010884319432079792,-0.1617591828107834,-0.9867702126502991,0.011336950585246086,0.023434486240148544,-0.00045901560224592686,-0.0050402069464325905,-0.00582808256149292,0.0015865564346313477
302,0.012369798448698734,0.1642364351026252,-2.078591606723678,0.012203033082187176,-0.16349908709526062,-0.9864680171012878,-0.03704553842544556,-0.013634949922561646,-0.0004888852126896381,-0.010463528335094452,0.00444146990776062,0.006609618663787842
303,0.012483483813711439,0.1628067908121196,-2.0773190204835847,0.012318084947764874,-0.1620885133743286,-0.9866993427276611,-0.01265630405396223,0.02206219919025898,-0.012729674577713013,-0.004703953862190247,0.0004216432571411133,-5.602836608886719e-05
304,0.013845962333072859,0.163259236099918,-2.0735717067209243,0.013661413453519344,-0.16253496706485748,-0.9866082072257996,0.032411955296993256,-0.018513359129428864,0.03545024245977402,-0.004292517900466919,0.006971612572669983,-0.02384406328201294
305,0.015182844843416225,0.1722629508129668,-2.07393816669228,0.014957554638385773,-0.17141224443912506,-0.9850858449935913,0.06714698672294617,0.015762943774461746,-0.0032181735150516033,-0.010517247021198273,0.001154676079750061,0.01596963405609131
306,0.016418616607589434,0.16950813414208643,-2.0769599728147012,0.01618257537484169,-0.1686975508928299,-0.9855350255966187,-0.03919738158583641,0.04225727915763855,-0.03396889939904213,-0.0026785433292388916,-0.005481526255607605,0.005981802940368652
307,0.016171988251298085,0.16635710616283772,-2.0767123559665377,0.015948031097650528,-0.16559085249900818,-0.9860655665397644,0.00048061553388834,0.007485796697437763,0.04549127817153931,0.004590295255184174,-0.010205656290054321,-0.013354599475860596
308,0.016393810175235626,0.17290111253463375,-2.0751650805210526,0.016148651018738747,-0.1720409244298935,-0.9849574565887451,0.09691478312015533,0.0073382118716835976,0.038942981511354446,0.0006665363907814026,0.008695587515830994,0.003084897994995117
309,0.01750627328618971,0.17316893040011921,-2.077442744391199,0.017243564128875732,-0.17230474948883057,-0.984892725944519,-0.046809859573841095,0.015101016499102116,-0.03679957240819931,0.0022266488522291183,-0.00506339967250824,0.009459435939788818
310,0.018315071958901127,0.17498307343347688,-2.077979059687034,0.01803438365459442,-0.17409147322177887,-0.9845643043518066,0.05136772617697716,0.014186466112732887,0.015329614281654358,0.00821073167026043,-0.014140933752059937,-0.003442227840423584
311,0.01786132150140807,0.17788355196741615,-2.0735703149217577,0.017578542232513428,-0.17694692313671112,-0.9840633869171143,0.021179918199777603,-0.029725853353738785,0.03615836054086685,-0.003464164212346077,0.012426674365997314,-0.011526763439178467
312,0.015777662111669703,0.17800607273111177,-2.0754887968911686,0.015527710318565369,-0.17706750333309174,-0.984076201915741,0.04870372638106346,0.018245890736579895,-0.05894111096858978,-0.010904297232627869,0.002735838294029236,0.010504424571990967
313,0.0146917496491934,0.180106724974584,-2.078186337906845,0.0144535843282938,-0.1791345775127411,-0.9837183952331543,-0.039698950946331024,-0.008949300274252892,0.07772396504878998,0.011944121681153774,-0.02792719006538391,0.005797922611236572
314,0.015871862772592504,0.1848182452456102,-2.0754691655506092,0.015600904822349548,-0.1837678700685501,-0.9828458428382874,0.06168020889163017,0.02795802429318428,-0.029810991138219833,-0.02289460599422455,0.01940019428730011,0.0061612725257873535
315,0.01750363924394213,0.18621266446741044,-2.079595343942747,0.0172001663595438,-0.18513837456703186,-0.9825619459152222,0.04283800348639488,0.033516667783260345,-0.09930088371038437,-0.004977874457836151,0.0037113726139068604,-0.007031559944152832
316,0.017344032345115137,0.18824531068059128,-2.0837252014867707,0.01703678071498871,-0.1871354877948761,-0.9821863770484924,-0.031138716265559196,0.012825989164412022,-0.02870885282754898,0.0001446157693862915,-0.015302866697311401,0.02628427743911743
317,0.02101422600071197,0.18101867605391284,-2.0851533084210248,0.020669348537921906,-0.1800317019224167,-0.9834436178207397,-0.0372210331261158,0.053690169006586075,-0.03520435839891434,-0.008172400295734406,0.010064050555229187,-0.019135117530822754
318,0.021911756843259675,0.1832403520720481,-2.0879192035148515,0.021543195471167564,-0.18221662938594818,-0.9830223917961121,0.05374372377991676,0.0012301718816161156,-0.008430982939898968,-0.00022666901350021362,-0.002735152840614319,-0.0016730427742004395
319,0.023506291605940324,0.18324855062870468,-2.0904905480934715,0.02311059460043907,-0.18222469091415405,-0.982985258102417,0.01377941481769085,0.028561370447278023,0.0029963161796331406,0.01315954141318798,-0.004939600825309753,0.0008533596992492676
320,0.02382778367795369,0.1867424738682236,-2.0894967089655108,0.023411303758621216,-0.1856589913368225,-0.9823353290557861,0.04826267063617706,-0.009434619918465614,0.01966388337314129,0.003077954053878784,-0.00014728307723999023,-0.006052732467651367
321,0.024283132671899396,0.19036572543618105,-2.0893030316295405,0.023842116817831993,-0.18921802937984467,-0.9816455841064453,-0.005120772868394852,-0.020505506545305252,-0.03499101102352142,-0.009590411558747292,0.006585597991943359,0.003755629062652588
322,0.022121234845556382,0.1911785401105236,-2.091023170694177,0.021716436371207237,-0.19001609086990356,-0.9815407991409302,0.013416577130556107,-0.05927252769470215,-0.015211394988000393,0.0070768967270851135,-0.0064255595207214355,-0.008983492851257324
323,0.01982749180371722,0.19404004611594933,-2.0881972375724054,0.019454119727015495,-0.19282469153404236,-0.981040358543396,0.009310251101851463,-0.006985011510550976,-0.02767970599234104,-0.017348408699035645,0.013488143682479858,0.013297438621520996
324,0.021204092228108647,0.19675249220590035,-2.0904468414086774,0.020793434232473373,-0.19548551738262177,-0.9804861545562744,0.004743347875773907,0.02500547096133232,-0.03550352528691292,-0.006434917449951172,-0.0011545121669769287,0.003755807876586914
325,0.02193234245188576,0.19570472813217107,-2.0936604831555874,0.021511947736144066,-0.19445785880088806,-0.9806749820709229,0.01593315228819847,0.020616132766008377,-0.015814967453479767,0.0009642466902732849,-0.009414821863174438,-0.0045392513275146484
326,0.022035577778763225,0.19557567234440873,-2.0923055657234673,0.021613741293549538,-0.19433125853538513,-0.9806978106498718,-0.01739669218659401,-0.020882422104477882,0.0347239226102829,-0.0014263615012168884,-0.0019272863864898682,-0.011092960834503174
327,0.02241099308142533,0.19708283029688947,-2.0904678534370627,0.0219753198325634,-0.195809468626976,-0.9803957343101501,0.005486637353897095,-0.011687212623655796,0.01936725527048111,0.002270890399813652,0.002633228898048401,-0.008358538150787354
328,0.020464373066253122,0.1969384212508736,-2.0901085485112727,0.020067401230335236,-0.19566784799098969,-0.9804648756980896,0.0192478746175766,-0.020931418985128403,0.011442619375884533,-0.005312152206897736,-0.003169417381286621,-0.0078774094581604
329,0.021080358407451132,0.19706511758912568,-2.0908186263777058,0.020670825615525246,-0.195792093873024,-0.9804275631904602,-0.04309512674808502,0.043370336294174194,0.006363438908010721,-0.0056256577372550964,-0.009698018431663513,0.019886791706085205
330,0.022369195044830453,0.1941024844512616,-2.0923589666734186,0.02194729819893837,-0.19288595020771027,-0.9809756875038147,0.0002713678404688835,0.013088890351355076,-0.028367316350340843,0.0054117124527692795,0.00172385573387146,-0.010891318321228027
331,0.022890486613120514,0.1931239025660619,-2.094698592702121,0.022462978959083557,-0.19192565977573395,-0.981152355670929,-0.02915325202047825,0.0032583046704530716,0.004308321047574282,0.006559237837791443,-0.008925780653953552,0.007916271686553955
332,0.02459367136794395,0.1920953910906064,-2.0949108461208428,0.02413886971771717,-0.19091616570949554,-0.9813094735145569,0.001973469741642475,0.016549207270145416,8.980080019682646e-05,0.0008702855557203293,-0.0003985166549682617,-0.00555264949798584
333,0.023790559443714387,0.19204140318553511,-2.0943781352306616,0.02335100620985031,-0.19086316227912903,-0.9813388586044312,0.02422322705388069,-0.012196040712296963,0.002617004793137312,-0.0062916819006204605,0.004736468195915222,-0.0024257302284240723
334,0.02232470196344512,0.19343514635674766,-2.0947307027596582,0.021906519308686256,-0.19223110377788544,-0.9811051487922668,0.0023624016903340816,-0.027067307382822037,-0.0039156596176326275,0.002278663218021393,-0.006163671612739563,-0.005604445934295654
335,0.021331854936479596,0.19749074467235905,-2.0925266719944404,0.020915620028972626,-0.19620947539806366,-0.9803389310836792,0.029177356511354446,-0.007673077285289764,0.014641357585787773,-0.008708588778972626,0.006710559129714966,0.006095767021179199
336,0.022167412528147485,0.19692588271648867,-2.09358008083047,0.021737195551395416,-0.19565555453300476,-0.9804317355155945,-0.00046317558735609055,0.023997783660888672,-0.01101196464151144,-0.004525281488895416,-0.005836755037307739,0.0035182833671569824
337,0.021606184269721475,0.19642494759014578,-2.094441342285811,0.02118906006217003,-0.1951642781496048,-0.9805416464805603,0.05126294493675232,0.024653971195220947,-0.01620422676205635,-0.0014136731624603271,0.006458833813667297,0.004894673824310303
338,0.022064339871145505,0.19633115670092569,-2.094627516494949,0.02163870260119438,-0.19507229328155518,-0.9805501103401184,-0.038457274436950684,-0.004913522861897945,0.0073645878583192825,-0.0043199751526117325,-0.0030935853719711304,0.0026448965072631836
339,0.02315696011596417,0.19713660400049565,-2.094377626340941,0.022706413641572,-0.19586220383644104,-0.9803684949874878,-0.011141534894704819,-0.0009663156233727932,-0.0064356704242527485,0.005491830408573151,0.00418129563331604,-0.004754185676574707
340,0.023587897801157526,0.1980035878314053,-2.0959013273447327,0.023124875500798225,-0.19671231508255005,-0.9801884889602661,-0.001244163140654564,-0.02166600152850151,-0.016032371670007706,0.004737667739391327,-0.003925487399101257,-0.009023547172546387
341,0.023944215343274764,0.19844779689671724,-2.09723110975988,0.02347203716635704,-0.19714783132076263,-0.9800927639007568,-0.022913997992873192,-0.0006355028599500656,0.0029940512031316757,0.0005452930927276611,-0.008281245827674866,0.002935171127319336
342,0.02422528313191281,0.19816226894695435,-2.097326063104534,0.02374887280166149,-0.196867898106575,-0.98014235496521,-0.01006158534437418,0.004513177089393139,0.001928207348100841,0.0019927024841308594,0.0013112574815750122,0.005197286605834961
343,0.024602835070862306,0.1979866165681067,-2.097166978638823,0.024119775742292404,-0.19669568538665771,-0.9801678657531738,0.018052224069833755,0.0067790597677230835,-0.00898701325058937,-0.008403219282627106,0.0018104314804077148,-0.0009722709655761719
344,0.02323752957383912,0.19692909771179423,-2.0973555432469873,0.022786345332860947,-0.19565871357917786,-0.9804072976112366,-0.021709639579057693,-0.015387482941150665,-0.006116766948252916,-0.0010578334331512451,0.0034284889698028564,-0.0020603537559509277
345,0.022272833566207732,0.19468763077841267,-2.0972981127335766,0.021850252524018288,-0.19346007704734802,-0.9808648228645325,-0.029981259256601334,-0.0038097663782536983,0.01792503520846367,0.0009463801980018616,-0.0048431456089019775,0.0036309361457824707
346,0.021692006895216727,0.19188857741419277,-2.096881455115067,0.021292198449373245,-0.19071315228939056,-0.9814148545265198,-0.004800779744982719,0.004195371642708778,-0.0057821450755000114,-0.004354938864707947,0.006722673773765564,-0.009506165981292725
347,0.022127814818573205,0.19308832114724298,-2.09759356648417,0.021714825183153152,-0.19189073145389557,-0.9811760187149048,0.006881400942802429,-0.0021314029581844807,-0.014478861354291439,-0.002534523606300354,0.0035057365894317627,0.0011650323867797852
348,0.02310364759281968,0.19347168306838544,-2.0991633792918996,0.022670578211545944,-0.19226695597171783,-0.9810807704925537,-0.00034576281905174255,0.0021676281467080116,0.0026958610396832228,0.005710765719413757,-0.0073332637548446655,-0.001814126968383789
349,0.023507833550306695,0.194204643736271,-2.098944810252754,0.023063795641064644,-0.19298619031906128,-0.9809303879737854,-0.001482747495174408,-0.0033158077858388424,0.0023894980549812317,-0.0030290037393569946,-0.0009835362434387207,-0.0033072829246520996
350,0.024339010909814357,0.19490875394909146,-2.0986751831764643,0.023875802755355835,-0.19367702305316925,-0.9807747602462769,0.03037586808204651,0.029261533170938492,-0.0026723667979240417,-0.010432811453938484,0.0075808316469192505,0.005509316921234131
351,0.03468566301994635,0.22798502556014721,-2.0961370869289166,0.03378135338425636,-0.2260151505470276,-0.9735378623008728,0.7462521195411682,0.3855859935283661,-0.0279488954693079,-0.013990707695484161,0.05119520425796509,0.016537129878997803
352,0.04820490803672524,0.26395317824070497,-2.105254867008404,0.04651736468076706,-0.2608988583087921,-0.9642447233200073,0.03669000044465065,0.026830323040485382,-0.0768604502081871,-0.004891380667686462,-0.010951757431030273,0.027782320976257324
353,0.04957481910904178,0.25783747831123743,-2.1123450033693176,0.04791642352938652,-0.2549901008605957,-0.9657557010650635,0.041206225752830505,0.03356633707880974,0.0367286317050457,0.015453331172466278,-0.0376124382019043,-0.022083044052124023
354,0.052845470941859804,0.2694972436914776,-2.111031748191411,0.050914302468299866,-0.26624685525894165,-0.9625592827796936,-0.05990400165319443,-0.07508207857608795,-0.006285110954195261,-0.002910144627094269,0.00878530740737915,0.012821733951568604
355,0.04715970286505994,0.25025591340372827,-2.1139824240576086,0.04567370191216469,-0.24765190482139587,-0.9677718877792358,-0.26831749081611633,-0.07511592656373978,-0.053937919437885284,0.0029713213443756104,-0.005735546350479126,0.00784146785736084
356,0.04149799657079806,0.23446162442951735,-2.1125277024135816,0.040351010859012604,-0.23231936991214752,-0.9718021750450134,-0.07766804099082947,-0.03262465447187424,0.03930780291557312,0.007408991456031799,0.006489291787147522,-0.016372263431549072
357,0.03865468856519148,0.23153287073332127,-2.113441908350029,0.037613850086927414,-0.22946976125240326,-0.9725887179374695,-0.035437971353530884,-0.02551868185400963,0.00505146523937583,-7.72327184677124e-05,0.004601001739501953,0.0035030245780944824
358,0.03655586615692601,0.22525123528269178,-2.1172058344174167,0.03562445566058159,-0.22335125505924225,-0.9740868210792542,-0.033056244254112244,-0.033515144139528275,-0.031343162059783936,0.004918143153190613,0.0062339454889297485,-0.01198190450668335
359,0.032716181532895024,0.2244171363269412,-2.123756611976816,0.03189010173082352,-0.22253815829753876,-0.9744022488594055,0.026990171521902084,0.002393924631178379,-0.018012141808867455,-0.0009300224483013153,-0.005275547504425049,0.012595057487487793
360,0.03132179548920461,0.22388091701620716,-2.126637683955542,0.030535109341144562,-0.2220153510570526,-0.9745649099349976,-0.013647903688251972,0.0021255360916256905,-0.035236772149801254,-0.005129225552082062,-0.0016937553882598877,0.010423064231872559
361,0.029809984006319876,0.2225599179128329,-2.1284465490617976,0.029070433229207993,-0.2207271158695221,-0.9749022722244263,0.026904519647359848,-0.049822647124528885,-0.002116731833666563,0.008237309753894806,0.0018855631351470947,-0.01749885082244873
362,0.026372679878978327,0.22359173637886082,-2.127685367753647,0.02571321278810501,-0.22173337638378143,-0.9747682213783264,-0.03524141013622284,-0.018400806933641434,0.011634767055511475,-0.006426103413105011,0.001503273844718933,0.02155172824859619
363,0.026827573319434105,0.22137568923312062,-2.125125015053411,0.02616974152624607,-0.21957194805145264,-0.9752452373504639,-0.014586159028112888,0.01003252249211073,0.017114153131842613,-0.0013742167502641678,0.0017069727182388306,-0.014043033123016357
364,0.02822254555312329,0.22708740590557788,-2.1224508432886737,0.027494316920638084,-0.22514066100120544,-0.9739382863044739,0.06966732442378998,0.04091354459524155,0.0331307016313076,-0.0014475658535957336,-0.0014370977878570557,0.011490166187286377
365,0.030014757415638152,0.23008078597879716,-2.1214627668832238,0.02921942062675953,-0.2280561774969101,-0.9732094407081604,-0.010246272198855877,0.020871322602033615,-0.0019753840751945972,-0.00245550274848938,0.003797754645347595,0.0150185227394104
366,0.03309506502250658,0.22637250264175252,-2.1235628889586318,0.03224482387304306,-0.22444406151771545,-0.973953366279602,0.032182928174734116,0.06698638945817947,-0.03857281431555748,-0.0004455074667930603,0.008135467767715454,-0.01933276653289795
367,0.03269654939994859,0.23301547495484767,-2.121819061392048,0.03180724009871483,-0.23091255128383636,-0.9724544882774353,0.07965797185897827,-0.0347076952457428,0.07567639648914337,0.012244880199432373,-0.011091843247413635,-0.006244242191314697
368,0.030716404316029292,0.23649556918981446,-2.1169171155667956,0.029856719076633453,-0.23429718613624573,-0.9717064499855042,0.008927728049457073,-0.008597531355917454,0.02090669423341751,-0.014201201498508453,0.012281805276870728,0.02402883768081665
369,0.027193742327223807,0.2358326184941822,-2.120358628051941,0.02643776498734951,-0.23365263640880585,-0.9719606637954712,0.03069167584180832,-0.18281811475753784,-0.13700450956821442,0.0014705583453178406,0.022379443049430847,-0.03257119655609131
370,0.028105919504039775,0.23942884076158932,-2.124798967732004,0.02730056270956993,-0.23714779317378998,-0.9710898995399475,-0.031001616269350052,0.07210308313369751,-0.037208206951618195,-0.0008723437786102295,0.013988018035888672,0.00011211633682250977
371,0.029058352329347236,0.23800923194369483,-2.126111407940722,0.02823520265519619,-0.23576845228672028,-0.9713990092277527,0.12999939918518066,-0.014397528022527695,0.017777780070900917,-0.004629850387573242,0.008107319474220276,-0.050863564014434814
372,0.034184941156136905,0.25844032324528166,-2.129987235228775,0.033043213188648224,-0.25557297468185425,-0.9662249088287354,0.10235996544361115,0.08366433531045914,-0.046152301132678986,-0.013817131519317627,0.002383887767791748,0.05631279945373535
373,0.03111449349364376,0.25159083509050606,-2.1340918823446247,0.03013007342815399,-0.24894502758979797,-0.9680488705635071,0.12155213207006454,0.028210360556840897,0.0015535354614257812,0.012930227443575859,-0.0026723891496658325,-0.02879256010055542
374,0.03528959411576463,0.2691425817269223,-2.1295932110335474,0.0340120829641819,-0.2659049928188324,-0.9633990526199341,0.182942733168602,0.1130807101726532,0.1530137062072754,0.008620969951152802,-0.02277606725692749,0.013569951057434082
375,0.036057879281459704,0.287372649173319,-2.1062928821443325,0.03457172214984894,-0.28343358635902405,-0.9583685398101807,0.35568180680274963,0.2509823739528656,0.2048717886209488,0.006886407732963562,-0.0011122822761535645,0.021600961685180664
376,0.041869252833695594,0.29269277705284497,-2.09493181907712,0.040076859295368195,-0.28853151202201843,-0.9566313028335571,-0.8053824305534363,-0.3614959716796875,0.027255238965153694,-0.01764644682407379,-0.05205991864204407,0.05650007724761963
377,-0.016669608840462376,0.16796506210437598,-2.0709352885143892,-0.016434255987405777,-0.16717639565467834,-0.9857900142669678,-1.0315221548080444,-0.029253212735056877,0.6496410965919495,0.035614557564258575,-0.023131221532821655,0.04217123985290527
378,0.031826153352788204,0.14779962215039177,-1.9935440035605085,0.031473856419324875,-0.1472620964050293,-0.9885966181755066,0.036284685134887695,1.1659138202667236,1.1856027841567993,0.012959737330675125,0.0459742546081543,-0.07938128709793091
379,0.19200642140574728,0.2172890402776204,-1.8906904411546632,0.18634158372879028,-0.2155832052230835,-0.9585409164428711,1.2406492233276367,1.960633635520935,0.779807984828949,-0.13188296556472778,0.1336435079574585,0.059645652770996094
380,0.3198500781216373,0.36416816274564395,-1.8217754525699486,0.293804407119751,-0.3561721444129944,-0.8870289325714111,0.7723623514175415,2.677590847015381,-0.1128094270825386,-0.37163951992988586,0.2960067391395569,0.2008565068244934
381,0.5123828494132309,0.28205220332923747,-1.90645039096565,0.47088363766670227,-0.2783273458480835,-0.8371394276618958,-0.08581055700778961,1.4193583726882935,-0.9045975804328918,0.11966198682785034,-0.053413987159729004,0.13106948137283325
382,0.5329569410154487,0.36482433990982266,-1.9314626739914715,0.47464367747306824,-0.35678520798683167,-0.8046227097511292,0.05226968228816986,-1.0030426979064941,0.43984416127204895,-0.002689361572265625,-0.0018268227577209473,-0.07937997579574585
383,0.3392812801949676,0.3528719561131105,-1.924475936863199,0.3123030662536621,-0.34559422731399536,-0.884890615940094,-0.08407968282699585,-3.6953132152557373,-0.4467971622943878,-0.3989882469177246,0.06597691774368286,-0.1533936858177185
384,0.051115375553975766,0.2360342422886231,-1.9748391899323092,0.04967645928263664,-0.2338486760854721,-0.9710031151771545,-1.4263575077056885,-1.4187151193618774,-1.1239434480667114,0.16797491908073425,0.0273514986038208,0.09954315423965454
385,-0.11747420530149637,0.130458827992835,-2.0042541948655814,-0.11620823293924332,-0.13008908927440643,-0.9846687316894531,-1.0899035930633545,-1.1797003746032715,0.0629713237285614,0.2891971170902252,-0.08307619392871857,0.11464309692382812
386,-0.10658711613314009,0.021213395486471102,-2.0415725545524945,-0.10636147856712341,-0.021211804822087288,-0.9941012263298035,-1.0020452737808228,-0.22983881831169128,0.16186025738716125,0.1513291299343109,-0.055188946425914764,-0.05715298652648926
387,-0.15707993839361814,-0.0810321090043044,-2.0244252359469592,-0.15592145919799805,0.08094345778226852,-0.9844473600387573,-0.5547980666160583,0.14784018695354462,0.06619185209274292,0.05011703073978424,0.05931531637907028,-0.0065498948097229
388,-0.14067620460169336,-0.15348173268362378,-2.027342261863019,-0.13856443762779236,0.15287984907627106,-0.9784823060035706,-1.1289269924163818,-0.3095966875553131,0.466918021440506,-0.03936830163002014,-0.07882896065711975,-0.03683751821517944
389,-0.11952795317023927,-0.2063670670703423,-2.009260300497243,-0.11671340465545654,0.2049054056406021,-0.9717981815338135,0.5616196393966675,0.46352654695510864,0.19898883998394012,0.04284560680389404,0.040242284536361694,0.05971932411193848
390,-0.07278392840351555,-0.1333224273025362,-1.9704957962719483,-0.07207434624433517,0.1329278200864792,-0.9885016083717346,0.4188207983970642,0.20523911714553833,0.12125683575868607,-0.07723290473222733,0.014258459210395813,0.048880696296691895
391,0.045909387828105684,-0.04250923042785091,-1.9571541253269455,0.045851804316043854,0.04249642789363861,-0.9980438947677612,0.7713910937309265,0.7496106028556824,0.35161545872688293,0.024063963443040848,-0.01123117282986641,-0.0659056305885315
392,0.0030150491808410606,-0.039589863374693446,-1.924289202106824,0.0030126820784062147,0.039579521864652634,-0.9992119073867798,0.03360811248421669,-0.3914022445678711,0.08034618198871613,0.021691298112273216,0.0007952339947223663,0.08104479312896729
393,-0.015633043354445417,-0.02678030453463992,-1.9349478828810103,-0.015626801177859306,0.026777103543281555,-0.9995192885398865,0.14086312055587769,-0.023393850773572922,-0.0792694166302681,0.08612240850925446,0.003801509737968445,-0.0001450181007385254
394,-0.0008075131590877199,0.0027719327988838883,-1.925427492588999,-0.0008075099904090166,-0.0027719291392713785,-0.9999958276748657,0.04475199058651924,0.09532924741506577,-0.029485274106264114,-0.0338452011346817,-0.059422895312309265,0.04308664798736572
395,-0.0020048920010312062,0.002114640002497489,-1.926364022749948,-0.0020048862788826227,-0.002114638453349471,-0.999995768070221,-0.165487140417099,-0.34669995307922363,0.003123536938801408,0.006048465147614479,-0.004858627915382385,-0.016666829586029053
396,-0.0010169738035995023,0.00043411203903185095,-1.9263789637990094,-0.0010169735178351402,-0.00043411203660070896,-0.9999994039535522,-0.03527499735355377,-0.07334386557340622,0.0016083274967968464,-0.00470507238060236,-0.008019257336854935,0.001235365867614746
397,-0.0012449214583379164,0.0012333708099063478,-1.9263600484547436,-0.0012449201894924045,-0.0012333705089986324,-0.9999984502792358,0.002978636883199215,0.0005883630365133286,0.0011867736466228962,-0.005529982037842274,-0.004076688084751368,-0.02598726749420166
398,-0.0017183624372977156,0.001770712712637843,-1.9263980011047261,-0.0017183589516207576,-0.001770711736753583,-0.9999969601631165,-0.002652440220117569,0.0021218331530690193,-0.0014138934202492237,-0.0019590093288570642,-0.005477213300764561,0.00010377168655395508
399,-0.0019149787671778372,0.002452658932592442,-1.926399007022231,-0.0019149718573316932,-0.0024526563938707113,-0.9999951720237732,-0.0028382204473018646,0.0003858134150505066,-0.0005304861115291715,-0.003044134471565485,-0.007389262318611145,0.029383599758148193
400,-0.0023081276094049107,0.002956733459775644,-1.926414110569658,-0.0023081153631210327,-0.0029567291494458914,-0.9999929666519165,0.0020540254190564156,-0.0031505529768764973,-0.0012825967278331518,-0.007442250847816467,-0.0003086517099291086,-0.025412917137145996
401,-0.002753953937884686,0.003156198504470189,-1.9263499592461264,-0.0027539366856217384,-0.0031561932992190123,-0.999991238117218,0.014996334910392761,-0.010903958231210709,0.0012719569494947791,0.0004040834028273821,-0.006716242991387844,-0.03399008512496948
402,-0.0029894171323668946,0.003782397772862362,-1.9263462561414173,-0.002989391330629587,-0.0037823887541890144,-0.9999883770942688,-0.04813968017697334,0.00019714981317520142,0.002028148155659437,-0.0087598767131567,-0.0065935878083109856,0.008716404438018799
403,-0.0031394950082156764,0.004141810000174984,-1.9263760920463187,-0.00313946302048862,-0.004141798242926598,-0.999986469745636,0.009716978296637535,-0.0014118836261332035,-0.0007423690985888243,0.0028190286830067635,0.002707472536712885,0.07663142681121826
404,-0.00349870860507203,0.00432990449135965,-1.9263947848724878,-0.003498668782413006,-0.0043298909440636635,-0.9999845027923584,-0.003397071734070778,-0.001691334880888462,-0.0021429636981338263,0.002445812337100506,-0.0051458170637488365,-0.0313570499420166
405,-0.0036348220877788417,0.004561861693957816,-1.9263993727947741,-0.003634776221588254,-0.004561845678836107,-0.999983012676239,-0.00355534628033638,-0.0007501579821109772,0.0003912022802978754,-0.01174608338624239,0.0018610400147736073,-0.017320454120635986
406,-0.004015221128878314,0.004889810598392862,-1.9264101525831796,-0.004015162121504545,-0.004889790900051594,-0.9999799728393555,-0.0032668309286236763,0.0005939770489931107,-0.001395701663568616,0.006044581066817045,-0.007713968399912119,-0.01884937286376953
407,-0.0036940350914168875,0.005425086246278465,-1.926414902469029,-0.003693972248584032,-0.005425059702247381,-0.9999784827232361,-0.0008628601208329201,-0.002131971064954996,0.0021030253265053034,-0.004179562442004681,-0.0007242322899401188,0.027429044246673584
408,-0.004304744153715193,0.005258514231408855,-1.9263269049261034,-0.004304671194404364,-0.005258489865809679,-0.9999769330024719,0.004318804480135441,0.004159329459071159,-0.0028207991272211075,-0.005659318063408136,0.0029238956049084663,-0.018089473247528076
409,-0.004251227760626572,0.005514419811637399,-1.9263253060878063,-0.004251150414347649,-0.005514391697943211,-0.9999757409095764,-0.0009879469871520996,-0.0002485993318259716,0.0006748641608282924,0.006341604981571436,-0.009744396433234215,0.009222626686096191
410,-0.00426745796476252,0.005892740617453957,-1.9262818066297827,-0.004267370793968439,-0.005892706569284201,-0.9999735355377197,0.001923669595271349,-0.0020680157467722893,0.0025289810728281736,-0.010442102327942848,-0.0006227968260645866,-0.014674901962280273
411,-0.004742737255988842,0.005812993462112049,-1.9262933039263475,-0.004742639139294624,-0.005812960676848888,-0.999971866607666,-0.002047174610197544,0.0013999752700328827,-0.0006349749164655805,0.004391687456518412,0.0001519499346613884,0.0004143714904785156
412,-0.004357750822392264,0.006043698373277065,-1.926278394838164,-0.004357657395303249,-0.006043661385774612,-0.9999722242355347,0.0016633346676826477,0.001560538075864315,-0.003202187828719616,-0.0030581136234104633,-0.0036151516251266003,0.0021848082542419434
413,-0.004802685114241145,0.0061642966675904244,-1.926272938997991,-0.004802575334906578,-0.006164257414638996,-0.999969482421875,0.0018344144336879253,1.955125480890274e-05,-0.0002146763727068901,-0.005634436383843422,0.0012509273365139961,-0.0068817138671875
414,-0.0046798224489073125,0.006236542667391715,-1.9263001632751755,-0.0046797143295407295,-0.006236502435058355,-0.9999696016311646,-0.0013784859329462051,0.0006828447803854942,0.0016212763730436563,0.009409939870238304,-0.0016675502993166447,-0.0019224882125854492
415,-0.004518004174178694,0.006381923964853458,-1.9263121294735859,-0.004517896566540003,-0.00638188049197197,-0.9999694228172302,-0.0010109860450029373,-0.0026012654416263103,-0.0009886431507766247,-0.00880302581936121,-0.0006066444329917431,-0.004821836948394775
416,-0.00501195244929962,0.006526183291141498,-1.9262960743066593,-0.005011824890971184,-0.0065261367708444595,-0.9999661445617676,0.0018949424847960472,0.0006083985790610313,-0.0006720549426972866,0.0013649743050336838,-0.0030258651822805405,-0.0008730888366699219
417,-0.00466900828143038,0.006729513360000975,-1.9263530999100162,-0.004668885376304388,-0.0067294626496732235,-0.9999664425849915,0.0010796431452035904,0.0014904681593179703,-0.001263163983821869,0.004226381424814463,0.0004886183887720108,-0.0013152360916137695
418,-0.004936040489956044,0.006761055375992617,-1.9263615336934183,-0.004935907665640116,-0.006761003751307726,-0.9999649524688721,0.002040633000433445,0.0016322238370776176,0.002138463081791997,-0.009025884792208672,-0.0003801090642809868,-0.00508570671081543
419,-0.00516306832757292,0.007001012927149172,-1.9264030029888999,-0.0051629189401865005,-0.007000955753028393,-0.9999621510505676,0.00033800676465034485,0.0008534779772162437,0.001293718465603888,0.005910599138587713,-0.003817525692284107,-0.002265632152557373
420,-0.004912282766729751,0.007153233716986654,-1.926370856749785,-0.004912137519568205,-0.0071531725116074085,-0.999962329864502,0.0008110757917165756,-0.00035205017775297165,0.001755331875756383,-0.0017254352569580078,0.0013243160210549831,-0.0031198859214782715
421,-0.005256671365734265,0.007174928039361233,-1.926409795295129,-0.005256511736661196,-0.007174866273999214,-0.9999604225158691,0.0028339182026684284,3.512762486934662e-05,0.0011366966646164656,-0.00438704201951623,0.0013765268959105015,-0.000756680965423584
422,-0.005144323722780356,0.007337266739794022,-1.926373481924399,-0.005144162569195032,-0.0073372009210288525,-0.9999598264694214,0.003452765289694071,0.0019481154158711433,-0.00029465160332620144,0.007432981394231319,-0.00474775955080986,-0.003198683261871338
423,-0.004996406084649835,0.007431643025214972,-1.926414821590323,-0.004996247123926878,-0.007431574631482363,-0.9999598860740662,-0.001550605520606041,-0.0017057284712791443,0.0008141136495396495,-0.008446745574474335,0.00361687783151865,-0.0019168853759765625
424,-0.005410712208152619,0.0073836180488031245,-1.9264339676372833,-0.005410538520663977,-0.007383550982922316,-0.9999580979347229,-0.002208142541348934,0.002098062075674534,0.00045871862675994635,0.0033658607862889767,-0.0028550964780151844,-0.0021628737449645996
425,-0.005036292986921841,0.007603901016511934,-1.926430821496716,-0.0050361258909106255,-0.007603827863931656,-0.9999583959579468,0.0004899827763438225,0.0014226865023374557,0.001711288932710886,0.00026012491434812546,-0.002268608659505844,-0.0025745630264282227
426,-0.005233700576548494,0.007565623870351516,-1.9264195866862384,-0.005233526695519686,-0.007565551903098822,-0.9999576807022095,-0.0014789225533604622,0.0011441418901085854,-0.0017646615160629153,-0.005325555335730314,0.0010958248749375343,-0.0038570165634155273
427,-0.005211509457709535,0.007518521801929414,-1.9264385112470859,-0.005211338400840759,-0.007518451195210218,-0.9999581575393677,-0.0022564390674233437,0.0018170364201068878,-0.0008415058255195618,0.004631504416465759,-0.0007365536876022816,-0.0022543668746948242
428,-0.0050723592352092586,0.007589818691094162,-1.9264496025429017,-0.00507219135761261,-0.0075897458009421825,-0.999958336353302,0.00013586878776550293,0.0031424639746546745,0.000550396740436554,-0.00330488383769989,-0.00032956572249531746,-0.002711951732635498
429,-0.005315951419710196,0.007599200129188128,-1.926438948301204,-0.005315772723406553,-0.007599127013236284,-0.9999570250511169,-0.000988490879535675,-0.0030943378806114197,0.0005792168667539954,-0.00020790891721844673,-0.0009305360727012157,-0.007672369480133057
430,-0.005157997919532936,0.007601591163050092,-1.9264659128328971,-0.005157826002687216,-0.0076015181839466095,-0.999957799911499,4.54392284154892e-06,0.0032282350584864616,0.0008987045148387551,0.002701160963624716,0.00010945228859782219,-0.0018274784088134766
431,-0.005292657531645652,0.007565532966021374,-1.9264592444500759,-0.005292481277137995,-0.007565460633486509,-0.9999573826789856,0.0003217943012714386,0.00023176055401563644,-0.001257699797861278,-0.003908568527549505,0.00036331266164779663,-0.0022398829460144043
432,-0.005366202774536302,0.007698118398771573,-1.9264759255672825,-0.005366018041968346,-0.007698042318224907,-0.999955952167511,0.0012612706050276756,0.001096826046705246,-0.0018544811755418777,0.003153494093567133,-0.0018844762817025185,-0.004194378852844238
433,-0.005236507718889989,0.007689630587597079,-1.9265140984444367,-0.005236329045146704,-0.007689554709941149,-0.9999567270278931,-0.0029379678890109062,-0.0003689476288855076,-0.0017120307311415672,-0.0024235835298895836,0.0023032021708786488,-0.0023626089096069336
434,-0.005417714149446359,0.0075829602830669056,-1.9265303400799834,-0.005417531821876764,-0.007582887541502714,-0.9999565482139587,0.004652104806154966,-0.0004739840514957905,-0.0003622504882514477,-0.0007927948608994484,-0.0018470436334609985,-0.006391048431396484
435,-0.00533958698090972,0.007725399748684225,-1.926505666819358,-0.005339402239769697,-0.007725323084741831,-0.9999558925628662,0.002343968953937292,-0.000728838611394167,-0.0009349697502329946,0.0016467752866446972,-0.002101337071508169,-0.004545450210571289
436,-0.005341866033422748,0.00767135483551516,-1.9265143018981643,-0.005341683514416218,-0.007671279367059469,-0.9999563097953796,0.00027111824601888657,0.0010383948683738708,-0.002501607174053788,-0.003294791094958782,0.0023764795623719692,-0.007749378681182861
437,-0.005416131436304173,0.0077106228549094,-1.9265357209281115,-0.005415943916887045,-0.007710546255111694,-0.9999555945396423,0.0016076243482530117,-0.0018055662512779236,0.00027649407275021076,0.002272633370012045,-0.0016430909745395184,0.000642240047454834
438,-0.005353517725457011,0.007754061723814088,-1.9265180010450864,-0.005353331100195646,-0.007753984071314335,-0.9999555945396423,0.002651205752044916,-0.0011113421060144901,0.0007670598570257425,-0.0009943251498043537,0.00036873016506433487,-0.003340303897857666
439,-0.005469771849118652,0.00768689836131924,-1.9265638172646646,-0.005469582974910736,-0.007686822675168514,-0.9999554753303528,0.0026569664478302,0.0004360424354672432,0.001561953453347087,-0.0002829800359904766,0.0010187323205173016,-0.0028520822525024414
440,-0.0053845527110618786,0.007743346191470457,-1.926552269809153,-0.005384365096688271,-0.0077432687394320965,-0.9999555349349976,-0.001036372035741806,0.0003954777494072914,9.435112588107586e-05,0.00028792954981327057,-0.0019308035261929035,-0.0034776926040649414
441,-0.005364624224568269,0.007731283357651862,-1.92654054098288,-0.0053644380532205105,-0.007731206249445677,-0.9999557137489319,-0.000896744430065155,-0.0011270642280578613,-3.6555808037519455e-05,-0.0009069237858057022,0.002222783397883177,-0.0032638907432556152
442,-0.005439916996477694,0.007690497206775496,-1.92655192050946,-0.005439729429781437,-0.0076904213055968285,-0.9999556541442871,0.0007800431922078133,-0.0001356806606054306,0.00013454828877002,-0.0004043867811560631,-0.0008850176818668842,-0.0021500587463378906
443,-0.005457793192539083,0.007708639992610577,-1.926593498689531,-0.0054576038382947445,-0.007708563469350338,-0.999955415725708,-0.0028357598930597305,0.0008095148950815201,-0.0009649140993133187,0.0006968616507947445,-0.0003480766899883747,-0.003859281539916992
444,-0.0049891144479254,0.007281963894738158,-1.92663410516306,-0.004988961387425661,-0.007281899452209473,-0.9999610185623169,0.00022788159549236298,-0.0040800427086651325,-6.497034337371588e-05,-0.0004584258422255516,-0.00219380808994174,-0.00693589448928833
445,-0.005133157141239527,0.007341684437270937,-1.9265721011691002,-0.00513299647718668,-0.007341618649661541,-0.9999598860740662,-0.0011578435078263283,0.0008550779893994331,3.091827966272831e-05,0.0017302865162491798,-0.004392390605062246,0.007955491542816162
446,-0.005150147542698557,0.007426556426597262,-1.9265698281919095,-0.0051499828696250916,-0.0074264882132411,-0.9999591708183289,0.004138484597206116,-0.0032397634349763393,-0.0009244175744242966,0.01586165279150009,-0.014912379905581474,-0.0003765225410461426
447,-0.00456950978504852,0.007452792413114243,-1.9266422821282865,-0.004569367039948702,-0.007452723570168018,-0.999961793422699,-0.018587786704301834,0.0036285342648625374,-0.0005870593013241887,-0.011757537722587585,0.005957362242043018,0.0028151869773864746
448,-0.00521309955259281,0.006786975315790243,-1.9266436108911023,-0.005212956108152866,-0.006786923389881849,-0.9999634027481079,0.0002560773864388466,0.0022267522290349007,-1.6461126506328583e-07,0.002954654861241579,0.0024381685070693493,-0.00510251522064209
449,-0.004627114191042685,0.007265631388841318,-1.92663709952486,-0.004626975394785404,-0.007265567313879728,-0.9999629259109497,-0.0006115967407822609,0.00014598388224840164,0.0008393734460696578,-0.004894508980214596,-0.007474422920495272,-0.008810877799987793
450,-0.0051911726014729105,0.007192315948477679,-1.9266455591099039,-0.0051910150796175,-0.007192254066467285,-0.9999606609344482,-2.019200474023819e-05,-0.0008479021489620209,-0.0011660109739750624,-0.0062225591391325,0.004232048988342285,-0.009957551956176758
451,-0.004977559135930303,0.0070484100189339375,-1.9266300987423715,-0.004977414850145578,-0.007048351690173149,-0.9999627470970154,-0.001450863666832447,0.0002551637589931488,-0.0009723754483275115,0.009570310823619366,-0.0020001097582280636,-0.0017919540405273438
452,-0.004887798698886619,0.0073004511716245335,-1.9266631872848379,-0.004887648858129978,-0.00730038620531559,-0.9999614357948303,-0.00038268137723207474,-0.0010754289105534554,-0.002300569321960211,-0.006800583563745022,-0.00591372512280941,0.005164682865142822
453,-0.005289673559937778,0.007358518994374382,-1.9266974339119967,-0.005289505701512098,-0.007358452770859003,-0.9999589323997498,0.002255896106362343,-0.0002988344058394432,0.0005940509727224708,0.0010933387093245983,0.004321953281760216,-0.006419241428375244
454,-0.005031052611895444,0.007082946119944477,-1.9267006249155116,-0.005030905362218618,-0.00708288699388504,-0.9999622702598572,-0.001371988095343113,0.0008454769849777222,-0.0006948438240215182,0.004832540638744831,0.002718872856348753,-0.00043445825576782227
455,-0.005207838437937798,0.007302176827796066,-1.9266544292519086,-0.005207675974816084,-0.007302111946046352,-0.9999597668647766,-0.0012453552335500717,0.0018429001793265343,0.0016782821621745825,-0.007640223950147629,-0.005835705436766148,-0.0036260485649108887
456,-0.005415517933242929,0.007490502108386718,-1.9266741476032379,-0.0054153394885361195,-0.0074904318898916245,-0.999957263469696,0.002268731128424406,-0.0030407020822167397,0.0004841146292164922,0.006651301868259907,4.4143758714199066e-05,-0.00654292106628418
457,-0.0051516219740313654,0.00735512876499337,-1.9266319997800774,-0.005151459947228432,-0.007355062291026115,-0.9999597072601318,-0.003101908601820469,0.005236458964645863,0.0015293870819732547,-0.0022490527480840683,0.010010091587901115,0.010289907455444336
458,-0.005485736197817607,0.007200177048093224,-1.9266444534823817,-0.005485566332936287,-0.007200114894658327,-0.9999590516090393,0.0013707363978028297,-0.0013904240913689137,-0.0016525377286598086,-0.005622832104563713,-0.00479329377412796,0.06049066781997681
459,-0.005363232603512827,0.007313450443272086,-1.9266070692221366,-0.005363063421100378,-0.0073133851401507854,-0.999958872795105,-0.008865589275956154,-0.008808714337646961,0.0008352401200681925,0.002601222600787878,-0.0013841246254742146,-0.05573570728302002
460,-0.005283330235536231,0.007179018287149904,-1.9266173585140185,-0.005283169448375702,-0.007178956642746925,-0.9999603033065796,-0.005581711418926716,-0.004066368564963341,0.0016378038562834263,-0.004162020515650511,0.006324464455246925,-0.01827394962310791
461,-0.005566404919327711,0.007142203013204767,-1.9266361626618302,-0.0055662342347204685,-0.00714214239269495,-0.9999589920043945,-0.028848815709352493,-0.014885321259498596,-0.002020052168518305,0.0010191150940954685,-0.0004872521385550499,0.05196094512939453
462,-0.005443641894114066,0.007399871990014214,-1.9265997544454194,-0.005443465895950794,-0.007399804424494505,-0.999957799911499,0.02263224869966507,0.011766621842980385,-0.0010318085551261902,-0.0022469637915492058,-0.011276952922344208,-0.016262292861938477
463,-0.0055684376673970715,0.007514801659407448,-1.9265504810540295,-0.005568251479417086,-0.007514731027185917,-0.9999562501907349,0.008641066960990429,-0.0040751914493739605,0.0002819262444972992,-0.0016644145362079144,0.003547445870935917,0.013826489448547363
464,-0.0055757164214218944,0.007040593659958969,-1.9265805568778391,-0.0055755493231117725,-0.007040535565465689,-0.9999596476554871,-0.00834380928426981,-0.004326686263084412,0.0036916243843734264,0.00562132615596056,-0.0014280923642218113,-0.030130624771118164
465,-0.005508825052267693,0.007392815511401676,-1.9265557634408212,-0.005508646834641695,-0.007392748259007931,-0.9999575018882751,-0.0025530848652124405,-0.0012609944678843021,0.0015614483272656798,-0.004730000626295805,-0.00872053299099207,-0.027569353580474854
466,-0.005737992463258082,0.00736727537724116,-1.9265655728851008,-0.005737805273383856,-0.0073672086000442505,-0.9999564290046692,0.0015037618577480316,-0.00022488506510853767,-0.0023718716111034155,7.679453119635582e-05,0.0068026334047317505,0.01063758134841919
467,-0.005516775916375978,0.00704346006183265,-1.9265591073943846,-0.005516611039638519,-0.007043401710689068,-0.9999600052833557,0.002325446344912052,0.0008244235068559647,0.00012225250247865915,0.005638681352138519,0.0006041927263140678,-0.005487382411956787
468,-0.005630704980682958,0.007340510334807669,-1.9265463270792162,-0.005630523432046175,-0.007340444251894951,-0.9999572038650513,-0.0015244027599692345,-0.00015741679817438126,-0.0011321587953716516,-0.005935638211667538,-0.002974497154355049,-0.01102912425994873
469,-0.005623218123449595,0.0071922444670596735,-1.9265293269620138,-0.0056230430491268635,-0.00719218235462904,-0.999958336353302,-0.0003174757584929466,0.003002636134624481,-0.0008919208776205778,0.0057603721506893635,0.00510172825306654,-0.006541907787322998
470,-0.0054282931258290935,0.007209580338123168,-1.9265745178693743,-0.005428125616163015,-0.007209517993032932,-0.9999592900276184,-0.0016417652368545532,0.0004399539902806282,0.00011133833322674036,-0.001743505708873272,-0.0017779087647795677,-0.005091369152069092
471,-0.005681450848325699,0.007433250188607682,-1.926562102324068,-0.005681263282895088,-0.007433181628584862,-0.9999562501907349,0.0015841214917600155,0.0009419592097401619,0.0007491456344723701,-0.002070201560854912,-0.0016000214964151382,-0.00019633769989013672
472,-0.005490367964581068,0.007362760747930487,-1.9265255921221185,-0.005490191746503115,-0.007362694013863802,-0.999957799911499,-0.0013456465676426888,-0.0027526794001460075,0.0002036134246736765,0.0036591370590031147,0.0015796138904988766,-0.003078639507293701
473,-0.005366092335266792,0.007329017941753867,-1.9265561191195772,-0.0053659225814044476,-0.007328952196985483,-0.9999587535858154,-0.000492878258228302,-0.0016141249798238277,0.0005510863848030567,-0.0038046096451580524,0.0018052705563604832,-0.0002548694610595703
474,-0.005624619937023862,0.007361638265100855,-1.9265629832687234,-0.00562443770468235,-0.00736157177016139,-0.9999570846557617,0.0005017947405576706,0.00048740021884441376,-0.0005262213526293635,0.0014130119234323502,-0.0035026860423386097,-0.0007143020629882812
475,-0.005443006565990213,0.007418316725448567,-1.9266426891176311,-0.005442829802632332,-0.007418248802423477,-0.9999576807022095,-0.0005301386117935181,-0.001962798647582531,-1.5684403479099274e-05,0.0011703688651323318,0.003084752708673477,-0.0034145116806030273
