,attitude.roll,attitude.pitch,attitude.yaw,gravity.x,gravity.y,gravity.z,rotationRate.x,rotationRate.y,rotationRate.z,userAcceleration.x,userAcceleration.y,userAcceleration.z
0,-2.113730142036731,0.8724384069572839,1.9219813445088818,-0.5505011677742004,-0.7658990025520325,0.3321859538555145,0.8947776556015015,-0.6250700950622559,-0.30426883697509766,-0.015783071517944336,-0.02212601900100708,-0.16742154955863953
1,-2.2292027261199903,0.8549772767781613,2.03063023836612,-0.5190616846084595,-0.7545560002326965,0.40152254700660706,-0.30013108253479004,0.6255992650985718,-0.6675707101821899,-0.1690639853477478,-0.08145791292190552,0.12093836069107056
2,-2.3898615811834905,0.844736848545325,2.1338965457604777,-0.45339956879615784,-0.7477964162826538,0.48500487208366394,0.3783235251903534,-0.835103452205658,-0.467148095369339,-0.09024059772491455,-0.007437407970428467,-0.023762166500091553
3,-2.529576748546446,0.8168481485740776,2.2384612452507433,-0.3932707905769348,-0.7289919257164001,0.560275673866272,1.014914631843567,-0.6042768359184265,0.05147668719291687,0.031164467334747314,0.06900352239608765,-0.11815226078033447
4,-2.5879947929565614,0.7716621843999413,2.3205855252977066,-0.3768334984779358,-0.6973275542259216,0.6096974015235901,1.1820342540740967,-0.31896913051605225,0.46453389525413513,0.1706567406654358,0.06860440969467163,-0.1373462677001953
5,-2.683455728795374,0.6940182901504679,2.371960597130806,-0.3399710953235626,-0.6396311521530151,0.6894140839576721,0.319841206073761,-0.23915919661521912,0.19503545761108398,0.030660182237625122,0.04015910625457764,-0.11839962005615234
6,-2.6997908900648024,0.6394340592644397,2.4189944593443347,-0.3430958092212677,-0.5967413783073425,0.7253864407539368,-0.14603401720523834,-0.02307780086994171,0.02408728003501892,0.09660521149635315,-0.0006250143051147461,0.17253249883651733
7,-2.6810678410454973,0.6332510950500572,2.441581596584989,-0.3582491874694824,-0.5917686223983765,0.7221271991729736,-0.4154781699180603,0.6802226305007935,-0.015514262020587921,0.10066553950309753,0.06790381669998169,0.07378655672073364
8,-2.6773124027033335,0.6098055314897288,2.470349383975129,-0.3670712113380432,-0.5727080702781677,0.7329827547073364,-0.18181850016117096,0.18452699482440948,-0.37710028886795044,-0.018014758825302124,-0.038040101528167725,0.08958786725997925
9,-2.681636040277181,0.5954868242404177,2.4964434570578495,-0.3675016462802887,-0.5609118342399597,0.7418360114097595,-0.14299756288528442,0.5581979155540466,-0.2650730311870575,-0.0785280168056488,-0.04541140794754028,0.029602646827697754
10,-2.6529777706848314,0.5943754599091159,2.542024742854853,-0.3888998329639435,-0.5599914193153381,0.7315506339073181,0.1020212322473526,0.17563262581825256,0.038542091846466064,0.13929662108421326,0.02155458927154541,0.046479642391204834
11,-2.618973537930093,0.6062481609919168,2.569907649563809,-0.41019847989082336,-0.5697882771492004,0.7120947241783142,-0.2986573278903961,0.7319080829620361,-0.19920967519283295,0.0802270770072937,-0.0002955198287963867,0.012545287609100342
12,-2.599600107128009,0.6091948195186517,2.5878108765211634,-0.4230484068393707,-0.5722073316574097,0.7025732398033142,-0.3838064968585968,0.9162004590034485,-0.2946484684944153,-0.07084813714027405,-0.016400635242462158,0.017489135265350342
13,-2.576443136574878,0.6309802899553892,2.602632760237244,-0.4324232041835785,-0.5899365544319153,0.6818979978561401,-0.12541407346725464,0.09852983057498932,-0.17552368342876434,-0.03185594081878662,-0.008635103702545166,0.03462415933609009
14,-2.5819261776957165,0.6546445733344294,2.6220901778235164,-0.42114678025245667,-0.6088773608207703,0.6722375750541687,-0.10388210415840149,0.13109056651592255,-0.33461305499076843,0.0023998916149139404,-0.009469747543334961,0.009601294994354248
15,-2.5982559088709998,0.6706653831304141,2.6369804064666025,-0.4050183594226837,-0.6215074062347412,0.6705886125564575,0.10796031355857849,0.031041281297802925,-0.1419064849615097,-0.013316720724105835,0.02928316593170166,-0.0769757628440857
16,-2.5952183363761363,0.6832967828871684,2.6441616635466816,-0.40294188261032104,-0.6313530802726746,0.662594199180603,-0.0009296415373682976,-0.10010594874620438,-0.031190751120448112,0.04977723956108093,0.035192251205444336,-0.0617641806602478
17,-2.583162204717527,0.6855966802192487,2.6410814824997355,-0.4101303815841675,-0.6331349611282349,0.6564552187919617,-0.2531358301639557,-0.10312412679195404,-0.016843058168888092,0.002079784870147705,-0.019910752773284912,0.01929551362991333
18,-2.585806402968131,0.6919782859357178,2.619338883481022,-0.40625303983688354,-0.6380617022514343,0.6540916562080383,-0.19022230803966522,0.1460954248905182,0.05309143662452698,-0.020413219928741455,-0.0013884305953979492,-0.0069206953048706055
19,-2.5501502492438646,0.713740050023427,2.5950262504238295,-0.4214693605899811,-0.6546655297279358,0.6275164484977722,0.05267166718840599,-0.4445454478263855,0.41433948278427124,0.015921205282211304,0.062197208404541016,-0.04722470045089722
20,-2.506398525506501,0.7529978211041495,2.556107930751008,-0.4329213798046112,-0.6838291883468628,0.5873302817344666,-0.7999151945114136,0.30644741654396057,0.2617754638195038,0.12466326355934143,0.09734231233596802,-0.04398006200790405
21,-2.47230875409827,0.7768354052693315,2.485153325011103,-0.4424469769001007,-0.7010261416435242,0.5592883229255676,-0.8511224389076233,0.8006395697593689,-0.005350422114133835,0.016253679990768433,0.044623494148254395,0.024345219135284424
22,-2.408536640040956,0.8048476247052372,2.393698916043045,-0.46386483311653137,-0.7207249999046326,0.5151557326316833,-0.29496827721595764,-0.38983070850372314,0.5686671733856201,-0.02261599898338318,-0.030816256999969482,-0.08819937705993652
23,-2.341948803762195,0.8307167381595392,2.3180080656126676,-0.4835793673992157,-0.7384148836135864,0.46999412775039673,-0.6778711676597595,-0.47124984860420227,0.2568700909614563,0.0032479166984558105,0.009655117988586426,0.03304243087768555
24,-2.3506243717150133,0.8195396901727514,2.2616371509881215,-0.48532208800315857,-0.7308317422866821,0.4799453914165497,-0.26481369137763977,-0.15779300034046173,0.027221739292144775,-0.05929461121559143,-0.08879417181015015,0.01025843620300293
25,-2.429239036730984,0.7811915224139662,2.2764552810524403,-0.4641169309616089,-0.7041260004043579,0.537402868270874,0.9866381287574768,-0.9854152202606201,0.1555061638355255,-0.04783064126968384,-0.09013968706130981,-0.0536077618598938
26,-2.5635462317485476,0.7285628875330034,2.3231615730545156,-0.4076780378818512,-0.6657980680465698,0.624908983707428,0.5969645977020264,-0.7130244374275208,-0.2957809865474701,-0.12360242009162903,-0.039447784423828125,-0.06715452671051025
27,-2.5788162241840844,0.7614616156036752,2.3612209288060892,-0.38618865609169006,-0.689980149269104,0.6121971607208252,0.007494777906686068,-0.42457014322280884,-0.17799007892608643,0.008564263582229614,0.04518967866897583,-0.060363054275512695
28,-2.6258831303911685,0.7539481902977264,2.415518123916157,-0.35950401425361633,-0.684522271156311,0.6341814994812012,-0.0637279748916626,0.14084377884864807,-0.15108773112297058,0.02066737413406372,0.010373711585998535,0.10794496536254883
29,-2.632190316696108,0.7588203534365554,2.441103700395539,-0.3538663983345032,-0.6880658864974976,0.6335171461105347,-0.22398662567138672,0.601291835308075,-0.1726299524307251,0.06422406435012817,0.03921639919281006,0.10302460193634033
30,-2.631178245665324,0.7651152160788819,2.448884567247689,-0.352384477853775,-0.6926200985908508,0.6293671131134033,-0.05180659890174866,0.14326226711273193,0.030978642404079437,0.012067675590515137,-0.005698442459106445,0.039044201374053955
31,-2.645399799607885,0.7722476316841573,2.469790695045752,-0.341037780046463,-0.6977470517158508,0.6299540400505066,-0.4179530739784241,0.5299063920974731,-0.23173142969608307,0.015857785940170288,0.023964762687683105,0.09325140714645386
32,-2.6765153867128513,0.7529671185731011,2.490658361175231,-0.3272479176521301,-0.6838067770004272,0.6521632671356201,0.12646770477294922,-0.053328633308410645,0.0024868855252861977,0.040443748235702515,-0.008484423160552979,0.1340305209159851
33,-2.6904859592042643,0.7372866609094112,2.484873289285436,-0.3227404057979584,-0.6722817420959473,0.666239857673645,0.03318476304411888,-0.33000829815864563,0.20155969262123108,0.01719844341278076,0.023600101470947266,0.08624714612960815
34,-2.695374684918404,0.7074489651278516,2.460853021731793,-0.3279927372932434,-0.649897038936615,0.685604989528656,0.23292852938175201,-0.3281868100166321,0.3603785037994385,0.009587675333023071,-0.034673094749450684,0.07281774282455444
35,-2.7042305627607726,0.6773898929261384,2.4293497938519573,-0.33003586530685425,-0.6267613172531128,0.7058655619621277,0.400967001914978,-0.41000252962112427,0.5135067105293274,0.052936285734176636,-0.014718115329742432,-0.059167683124542236
36,-2.7404741657850233,0.640109271914854,2.3985394039238828,-0.3131513297557831,-0.5972830653190613,0.7383689284324646,0.2302999496459961,-0.2942688763141632,0.3720356225967407,0.008479148149490356,0.056450724601745605,-0.07738888263702393
37,-2.791303519542738,0.593275740872042,2.3648213360776555,-0.28452643752098083,-0.5590800046920776,0.7787644863128662,0.06768511235713959,-0.28982940316200256,0.4985983669757843,-0.04666554927825928,0.03863328695297241,0.09213083982467651
38,-2.8369266841626835,0.5532620807334327,2.3381163472856814,-0.25522279739379883,-0.5254654288291931,0.8116324543952942,-0.07055280357599258,0.011559845879673958,0.16906900703907013,0.014439135789871216,-0.006165981292724609,0.06503063440322876
39,-2.8744696860595957,0.5143777485815281,2.3158056302266896,-0.2298012375831604,-0.4919932186603546,0.8397228717803955,0.40005555748939514,-0.3642829358577728,0.24148835241794586,-0.008907318115234375,0.043415188789367676,0.06043905019760132
40,-2.8958771783579365,0.48179445116442343,2.2961492980677316,-0.21555998921394348,-0.46337011456489563,0.8595478534698486,0.1624060869216919,-0.2969260811805725,0.4052831828594208,0.0446615070104599,0.05509054660797119,0.009943902492523193
41,-2.880216188048729,0.45236857414350323,2.262687377136738,-0.23241809010505676,-0.43709710240364075,0.8688657879829407,0.4328533411026001,-0.11811745911836624,0.4875010550022125,-0.0051002055406570435,0.06356194615364075,-0.037414491176605225
42,-2.8749740160104142,0.4132355639408512,2.2420917548393415,-0.2412937581539154,-0.40157464146614075,0.8834677934646606,-0.047638263553380966,0.2602452337741852,0.26649612188339233,0.1074741780757904,0.03199151158332825,0.053406715393066406
43,-2.8718785000349536,0.3786991795462139,2.197232690054391,-0.247576504945755,-0.36971214413642883,0.895554780960083,-0.21233899891376495,0.35265931487083435,0.34403932094573975,-0.01427951455116272,-0.013298630714416504,0.04968118667602539
44,-2.8501643815003663,0.37393783636292965,2.153944416463099,-0.2674655616283417,-0.3652839660644531,0.891644299030304,-0.295128732919693,0.26893067359924316,0.365610808134079,0.09667399525642395,-0.0019797682762145996,-0.035489022731781006
45,-2.8309140273924913,0.3246533348141302,2.112890542544115,-0.2897353172302246,-0.31898024678230286,0.9023887515068054,-0.022844014689326286,0.42151522636413574,0.3990550637245178,-0.013075411319732666,0.03522771596908569,0.1504831314086914
46,-2.7993709157814344,0.2969966790202624,2.0645630303780136,-0.3208889663219452,-0.29264968633651733,0.9007697701454163,0.10034280270338058,0.2902770936489105,0.559654712677002,-0.05939057469367981,-0.03829813003540039,0.0005820393562316895
47,-2.7478878977284706,0.26746967691915996,2.049134805744054,-0.36997222900390625,-0.2642919421195984,0.8906574249267578,0.34653154015541077,0.04864642024040222,0.09660125523805618,-0.026039153337478638,-0.035665363073349,0.014051556587219238
48,-2.7117824403205915,0.24596759394886597,2.0475610756752745,-0.40415653586387634,-0.243494912981987,0.8816844820976257,0.7055352926254272,-0.1580825299024582,0.14352695643901825,-0.08679497241973877,-0.009587347507476807,-0.030366241931915283
49,-2.6939665211585626,0.23373915063703618,2.054839886160781,-0.42105698585510254,-0.23161660134792328,0.8769634366035461,-0.24063286185264587,0.24375420808792114,0.09175162017345428,0.06841111183166504,0.013537973165512085,0.08478283882141113
50,-2.6928012354528805,0.23634460903166704,2.0600463876071347,-0.4218152165412903,-0.23415042459964752,0.8759252429008484,-0.361909955739975,0.28182825446128845,-0.2947998642921448,-0.017103731632232666,0.004353150725364685,0.11836779117584229
51,-2.6837174838097546,0.2704007804935161,2.0536537687692693,-0.42598098516464233,-0.2671176791191101,0.8644004464149475,-0.2409677654504776,0.16371800005435944,-0.004954035393893719,-0.004805117845535278,0.021298617124557495,-0.06187981367111206
52,-2.666731827550321,0.2806426966234723,2.0586906126464157,-0.4393274486064911,-0.27697324752807617,0.8545628190040588,-0.5141335725784302,0.5527863502502441,-0.03217402845621109,0.028957515954971313,0.028911083936691284,0.11362278461456299
53,-2.6006104266937244,0.33142090560265425,2.034949119011404,-0.4869535565376282,-0.3253869414329529,0.8105550408363342,-0.5304151177406311,0.42745909094810486,0.20661863684654236,0.06748944520950317,0.05533689260482788,0.023520827293395996
54,-2.554790328429252,0.37397346699404965,2.019757427298765,-0.5154309272766113,-0.36531713604927063,0.7751606702804565,-0.505172848701477,0.3258369266986847,-0.19333384931087494,0.053059160709381104,0.02771642804145813,0.006241738796234131
55,-2.5523290162047116,0.37773452347287934,2.018058675694461,-0.5165701508522034,-0.36881566047668457,0.7727421522140503,0.32899072766304016,0.14438502490520477,0.1665252447128296,0.015380024909973145,-0.003132551908493042,-0.06140786409378052
56,-2.54391711130742,0.3855476350234786,2.0252156882042054,-0.521414577960968,-0.3760666251182556,0.7659640312194824,-0.48774006962776184,0.33357855677604675,-0.15949705243110657,0.04590487480163574,0.03333893418312073,0.03925764560699463
57,-2.535772124157934,0.3853453684903168,2.016477863288087,-0.5276793837547302,-0.3758791983127594,0.7617544531822205,-0.03224030137062073,0.18657276034355164,0.1281692534685135,-0.0037386417388916016,0.007470846176147461,0.020487606525421143
58,-2.52341880332515,0.38868931013421787,2.009379265393716,-0.5363175272941589,-0.3789758086204529,0.7541492581367493,-0.22784844040870667,0.22383277118206024,0.08131254464387894,0.04463350772857666,0.03254023194313049,-0.015852630138397217
59,-2.4934821331466406,0.39394346290977467,1.9968603135917933,-0.5574408769607544,-0.38383278250694275,0.7361605763435364,0.027737101539969444,0.32520583271980286,0.017578136175870895,-0.007348060607910156,-0.019121378660202026,-0.017624080181121826
60,-2.4451333466716,0.41838253376397877,1.979739525100299,-0.586173951625824,-0.40628302097320557,0.7009522914886475,-0.1576598435640335,0.2913095951080322,-0.09796839207410812,-0.04549407958984375,-0.013104766607284546,-0.06455403566360474
61,-2.3966393751465516,0.4480693109512289,1.9654144690547959,-0.6110149621963501,-0.43322622776031494,0.6625522971153259,-0.9276241660118103,1.0384316444396973,-0.3406948745250702,-0.12830382585525513,-0.029908448457717896,0.13331562280654907
62,-2.2234783823027184,0.5535057151412954,1.9128151903133739,-0.6758346557617188,-0.5256727337837219,0.5166385173797607,-1.3660495281219482,1.5774421691894531,-0.5127748847007751,0.054847896099090576,-0.0276566743850708,0.09322464466094971
63,-1.8772035775310683,0.6891050508934592,1.7684843516814501,-0.7358669638633728,-0.6358466744422913,0.2328067123889923,-1.9407111406326294,3.112074136734009,-0.6847824454307556,-0.030047953128814697,-0.06242603063583374,0.08002901077270508
64,-1.3909167164937133,0.781805988456455,1.5290153070565695,-0.6981923580169678,-0.7045621871948242,-0.12696290016174316,-1.121036171913147,2.60219669342041,-0.6260048151016235,-0.0062448978424072266,-0.01885700225830078,-0.12738585472106934
65,-0.938975145765675,0.7726976971469834,1.3220840735444312,-0.5778027772903442,-0.6980693936347961,-0.4228983521461487,-1.6714465618133545,2.658886671066284,-0.1933373361825943,0.040098369121551514,-0.028325140476226807,0.0900278389453888
66,-0.6724511218550421,0.7217770604320265,1.206844689100688,-0.4675731956958771,-0.660719633102417,-0.5872179269790649,-0.7359659075737,2.0471301078796387,-0.3257857859134674,-0.13929936289787292,-0.007279634475708008,0.03457510471343994
67,-0.3916398862564924,0.6504313554110317,1.0875702127899936,-0.30376923084259033,-0.6055297255516052,-0.7355664968490601,-0.34394535422325134,0.2560652494430542,-0.25485509634017944,0.026333928108215332,0.043823182582855225,-0.010466217994689941
68,-0.23278226260918142,0.571136974720746,1.0154955669345498,-0.19407279789447784,-0.540588915348053,-0.8185960054397583,-0.7533910870552063,0.5726436972618103,-0.31668636202812195,0.03182607889175415,0.01913505792617798,-0.0324934720993042
69,-0.1702981093833698,0.5041476718010481,0.9636373563931977,-0.14839103817939758,-0.4830613434314728,-0.8629205226898193,-0.8815344572067261,0.8986695408821106,-0.07185536623001099,-0.027802199125289917,-0.02241659164428711,-0.08861756324768066
70,-0.17068046024574662,0.49841747453996454,0.9395843799291942,-0.14918868243694305,-0.47803613543510437,-0.8655773997306824,-0.7509185075759888,0.3883621096611023,-0.24855676293373108,-0.06957657635211945,-0.011297941207885742,0.12400025129318237
71,-0.12098753654389897,0.500673994768018,0.9101048124768518,-0.10587868094444275,-0.48001691699028015,-0.8708463907241821,-0.2043103277683258,0.21756680309772491,-0.24493369460105896,-0.033510349690914154,-0.0005586445331573486,0.14605391025543213
72,-0.04965321425503258,0.4901593284638322,0.8795161963088558,-0.04378893971443176,-0.47076645493507385,-0.8811705112457275,0.3273138701915741,0.6515376567840576,-0.012410584837198257,0.014751479029655457,-0.010556787252426147,0.10858750343322754
73,0.028133973684776693,0.45510319081367734,0.8538790003968019,0.025267042219638824,-0.43955498933792114,-0.8978602290153503,0.002462181728333235,1.3623814582824707,0.04290705546736717,0.006440714001655579,0.024424374103546143,-0.021100342273712158
74,0.10412910603041098,0.42878433157232315,0.8585706006454492,0.09453143924474716,-0.4157654941082001,-0.9045456647872925,0.27762261033058167,-0.02892051637172699,-0.15346431732177734,0.00010356307029724121,0.012551963329315186,-0.11869347095489502
75,0.12125449420895894,0.45941026492451853,0.8685798333169663,0.10841599851846695,-0.44341960549354553,-0.8897331357002258,0.07452701032161713,-0.10448992252349854,-0.16584746539592743,-0.061952993273735046,0.0045462846755981445,0.03321152925491333
76,0.1396299444495241,0.4713775973845172,0.8760853045466034,0.12399855256080627,-0.45411407947540283,-0.882272481918335,-0.4257989823818207,0.8480230569839478,-0.2249704897403717,-0.15108290314674377,-0.01727566123008728,0.08191853761672974
77,0.17060174645595186,0.4846727447374073,0.8621169401391007,0.15022192895412445,-0.46591880917549133,-0.8719822764396667,-0.1316295862197876,0.815004289150238,-0.09551837295293808,-0.09794533252716064,0.02104884386062622,0.08496439456939697
78,0.2638019497352718,0.5075218813568051,0.8482881104902024,0.22788536548614502,-0.4860129952430725,-0.8437177538871765,0.5443415641784668,1.141589641571045,0.1676044911146164,-0.027598515152931213,0.030110865831375122,-0.055253803730010986
79,0.4086519079938018,0.551351134938598,0.8092362010048251,0.33848893642425537,-0.5238386392593384,-0.7816765904426575,1.0090304613113403,0.809614896774292,0.2393854409456253,0.08424055576324463,0.01652967929840088,-0.13176029920578003
80,0.5757213106384238,0.6173184427770236,0.7675245185240929,0.4439546465873718,-0.5788506269454956,-0.6839855313301086,0.5865757465362549,1.379301905632019,-0.04319588467478752,-0.01660171151161194,0.01914304494857788,0.09722411632537842
81,0.7458660514670087,0.6403229298180313,0.7544646541754197,0.5441778302192688,-0.5974544286727905,-0.588998019695282,0.39047038555145264,1.4671950340270996,0.28079134225845337,-0.037296175956726074,0.016338706016540527,-0.05686068534851074
82,0.9202359926115985,0.6228046734581407,0.7599698343973854,0.6463400721549988,-0.5833155512809753,-0.4919222891330719,-0.3597796857357025,0.7470484972000122,-0.3744128346443176,-0.03955906629562378,0.010088622570037842,0.02613246440887451
83,1.0356910690585546,0.5970570548257136,0.7869379390949173,0.7113924026489258,-0.5622110962867737,-0.4217102527618408,-0.6352503895759583,1.3843539953231812,-0.32883501052856445,-0.05196857452392578,0.06579697132110596,-0.025982677936553955
84,1.103426238563326,0.5853247929075407,0.7977989810955302,0.7441414594650269,-0.5524701476097107,-0.37553974986076355,-0.7633388042449951,0.7090118527412415,-0.12259901314973831,-0.05909818410873413,0.0012617111206054688,0.15184596180915833
85,1.1009956625595276,0.5541433101423964,0.8356333971235429,0.7582233548164368,-0.5262150168418884,-0.38496148586273193,-0.33905237913131714,-0.0437968447804451,0.11084703356027603,0.04164248704910278,-0.03503382205963135,0.010281860828399658
86,1.128099156068628,0.5801729956545079,0.8491306732309072,0.755741536617279,-0.5481686592102051,-0.3582817018032074,0.3508659601211548,-0.9233593344688416,0.8777155876159668,0.029765665531158447,-0.015948772430419922,-0.041178107261657715
87,1.1095225171625138,0.6156197261508602,0.8523610459973802,0.7310891151428223,-0.5774645805358887,-0.36337780952453613,0.3327634036540985,-0.14107133448123932,0.8796206116676331,0.08847570419311523,0.006038188934326172,-0.18247485160827637
88,1.065465498421113,0.6588503052968614,0.83283728615456,0.691870927810669,-0.6122081875801086,-0.38277381658554077,0.2326824963092804,-0.1462450921535492,0.16278859972953796,-0.011603593826293945,-0.005650699138641357,-0.04734092950820923
89,1.05401161780264,0.6420489814264287,0.850054727385608,0.6962865591049194,-0.598837673664093,-0.3956998884677887,-0.06210627779364586,-1.3145546913146973,0.31836995482444763,0.01756531000137329,-0.004876255989074707,-0.1263032853603363
90,1.0231364227759738,0.6283026068686632,0.8583281466060494,0.690702497959137,-0.5877723693847656,-0.42125260829925537,-0.7299025058746338,-0.1042477935552597,-0.300542414188385,0.03145021200180054,-0.06899642944335938,-0.11118757724761963
91,1.0325467299618776,0.6191039042898054,0.8704966673553377,0.6992487907409668,-0.5803056359291077,-0.4174884259700775,-0.8358311057090759,-0.4160335958003998,0.17257356643676758,0.0684819221496582,-0.11828750371932983,-0.0423046350479126
92,1.04618082175902,0.5987320704310876,0.8675909252563898,0.7149606943130493,-0.5635955333709717,-0.41375255584716797,-1.0126065015792847,0.2253478765487671,-0.12481604516506195,0.09935504198074341,-0.019824206829071045,0.14925676584243774
93,0.9681802787906226,0.5704194416530066,0.8860125753106839,0.6934183239936829,-0.5399851202964783,-0.47706082463264465,-0.6272228360176086,-0.0991341844201088,0.06721052527427673,0.028902173042297363,-0.06833696365356445,0.15125516057014465
94,0.9346848481031347,0.5081374880936393,0.8898816440290599,0.702776312828064,-0.486550897359848,-0.5190123319625854,-1.0091453790664673,-0.3722730278968811,0.1916542798280716,0.14701616764068604,-0.00223386287689209,0.08891284465789795
95,0.8768159427811449,0.47556205067614066,0.8876915180610505,0.6834071278572083,-0.4578382074832916,-0.5686288475990295,-0.5681277513504028,-0.25315722823143005,-0.42081987857818604,0.015872597694396973,0.026670634746551514,0.057306885719299316
96,0.864918703266549,0.4420375775953292,0.8747114799745208,0.6878925561904907,-0.4277820885181427,-0.5863499641418457,-0.4333372116088867,0.21350796520709991,-0.2839454710483551,0.1097453236579895,-0.023908555507659912,0.04855400323867798
97,0.8707098709338245,0.45782553420831906,0.8577706168927066,0.6860255002975464,-0.4419986307621002,-0.5779327154159546,-0.6423468589782715,0.43196848034858704,-0.3821481466293335,-0.030752062797546387,-0.012972652912139893,0.23226016759872437
98,0.872342830568291,0.4532263049339706,0.8618044079392744,0.6885178685188293,-0.4378683865070343,-0.5781127214431763,-0.6424046754837036,0.04296046122908592,-0.2742559015750885,-0.03840196132659912,-0.0011727213859558105,0.25151365995407104
99,0.9057615682369279,0.43258412819658953,0.8853483392569462,0.7144108414649963,-0.4192183017730713,-0.5602438449859619,-0.06887982040643692,0.0571756437420845,0.2127579003572464,0.007116258144378662,-0.012193441390991211,0.1266959309577942
100,0.9042271445583996,0.4244549605649225,0.8835362233309363,0.7162052392959595,-0.41182416677474976,-0.5634279251098633,-0.08259935677051544,0.16270026564598083,-0.18687783181667328,-0.10313761234283447,0.032063424587249756,0.12656879425048828
101,0.9062787321198914,0.4117855580903032,0.8868114977887125,0.721409261226654,-0.400246262550354,-0.5651297569274902,0.16575507819652557,-0.19275689125061035,0.2990086078643799,0.019282877445220947,-0.044318556785583496,-0.0006356239318847656
102,0.9514440916862973,0.4553642531314155,0.8790748836373371,0.7312828302383423,-0.43978947401046753,-0.521354615688324,0.8012951016426086,0.133839949965477,1.062057375907898,0.12690198421478271,0.07333439588546753,-0.12253576517105103
103,0.9136433461879266,0.568329571808733,0.8336045776198048,0.6672748327255249,-0.5382249355316162,-0.5148379802703857,0.6832229495048523,-0.11506330966949463,0.35632023215293884,-0.03359264135360718,-0.0009900927543640137,0.04714089632034302
104,0.9162215589585647,0.5937172663671876,0.8005799173183225,0.6575457453727722,-0.5594459772109985,-0.5046323537826538,0.037463244050741196,0.12065085023641586,-0.239508256316185,0.002839386463165283,-0.0052207112312316895,0.013268828392028809
105,0.9450537236541138,0.6201116134993779,0.8109030879074549,0.6596190333366394,-0.5811259746551514,-0.47665005922317505,0.2767949402332306,0.4545299708843231,0.2660220265388489,-0.0714232325553894,0.04378777742385864,0.0069845616817474365
106,0.95889628803728,0.6200531161088773,0.8344549237534756,0.6661815643310547,-0.5810784101486206,-0.4674934446811676,-0.21406327188014984,-0.05626242235302925,-0.07857681065797806,-0.10311692953109741,-0.0046759843826293945,0.01441425085067749
107,0.93040875965397,0.6183235212339737,0.8457495484658478,0.653400182723999,-0.5796698927879333,-0.48687878251075745,0.14524394273757935,-0.42085209488868713,-0.06905435770750046,-0.0466497540473938,-0.038539886474609375,-0.053083986043930054
108,0.8693956419322866,0.6625226309953639,0.8208929827138127,0.602322518825531,-0.6151077747344971,-0.508773148059845,0.8971086144447327,-0.996455192565918,0.24494129419326782,-0.03747260570526123,-0.01187586784362793,-0.06448429822921753
109,0.8299608535575527,0.6615259821681969,0.8197528805595778,0.5822481513023376,-0.6143216490745544,-0.5325374007225037,-0.18949194252490997,-0.6434059739112854,-0.18829652667045593,-0.02803361415863037,0.03427404165267944,-0.005334913730621338
110,0.7920664860318335,0.623718918432162,0.8302929665141604,0.5777817368507385,-0.5840578675270081,-0.5701269507408142,-0.5250064730644226,-0.37082841992378235,-0.3358813524246216,-0.042716920375823975,0.007519781589508057,0.02378600835800171
111,0.712307323063006,0.5831603122336417,0.8638771622252899,0.5455620288848877,-0.5506646633148193,-0.6317676305770874,-0.5628175735473633,-1.0868598222732544,-0.045773204416036606,-0.05180293321609497,-0.00022333860397338867,0.08385509252548218
112,0.5303875586300829,0.5122520677409508,0.9275667325101514,0.44093596935272217,-0.49014148116111755,-0.7518888115882874,-1.1043248176574707,-1.8160048723220825,0.14212453365325928,-0.005236506462097168,-0.03096139430999756,0.051159441471099854
113,0.4300512239188459,0.4436992732933489,0.9310877636915664,0.3765471577644348,-0.42928346991539,-0.8209311366081238,-1.346484661102295,-0.5279824137687683,-0.07124599814414978,0.11152046918869019,-0.019843727350234985,0.13289707899093628
114,0.2881620015285396,0.45205986336070575,0.9584911026382162,0.2556433379650116,-0.4368194043636322,-0.8624588251113892,0.03937702625989914,-1.4552018642425537,0.2369288206100464,0.039324283599853516,-0.017373651266098022,0.059861838817596436
115,0.15076373988692743,0.5095141815209606,0.9566822649029563,0.13111594319343567,-0.4877531826496124,-0.8630790710449219,0.8671685457229614,-1.7619307041168213,0.2626425623893738,0.062029823660850525,0.027349770069122314,-0.025669097900390625
116,-0.036553634812787374,0.6183157519933209,0.961994780673594,-0.029779313132166862,-0.5796635746955872,-0.8143115639686584,1.2845138311386108,-1.9938856363296509,0.37659329175949097,0.10564601421356201,0.03922778367996216,-0.013477742671966553
117,-0.2651573115538263,0.6565232002461862,1.0132075608401896,-0.20758360624313354,-0.6103665232658386,-0.7644355893135071,0.5226576328277588,-2.157954454421997,0.1413975954055786,0.038882434368133545,0.06228607892990112,-0.028151631355285645
118,-0.426506712877491,0.6528003153800558,1.0512999205248672,-0.3286319077014923,-0.6074132919311523,-0.723222017288208,-0.8325306177139282,0.40074819326400757,-0.004701510071754456,-0.0621303915977478,0.02263551950454712,0.07586795091629028
119,-0.4199590912115858,0.6001938853306057,1.0620455450783253,-0.3364637494087219,-0.5648024678230286,-0.7535185813903809,-0.548785924911499,-0.6329288482666016,0.4583653211593628,0.0007856786251068115,-0.02934420108795166,0.0023284554481506348
120,-0.44845419704303086,0.5700665998562203,1.077403771170079,-0.36501002311706543,-0.5396881103515625,-0.7586200833320618,-0.15038204193115234,-0.08089286088943481,0.2899206876754761,-0.01986241340637207,-0.003173828125,0.029372036457061768
121,-0.531414055984325,0.5611026792978977,1.0917696395489702,-0.42905187606811523,-0.5321201086044312,-0.729905903339386,-0.2267141342163086,-0.6407338380813599,0.2110893428325653,-0.03711935877799988,0.019012868404388428,0.048707783222198486
122,-0.6358658455591841,0.5742965826271191,1.098063097968715,-0.49860185384750366,-0.5432443618774414,-0.6754863262176514,0.39956605434417725,-1.7073302268981934,-0.08336130529642105,0.019414842128753662,0.042008399963378906,0.015543699264526367
123,-0.7302985896103207,0.5819507701458725,1.0974156009140066,-0.5572834014892578,-0.5496546626091003,-0.6223463416099548,-0.16957715153694153,-0.2565736472606659,0.12165708839893341,-0.0059185028076171875,-0.009137451648712158,0.023850858211517334
124,-0.7708087350096362,0.5786654883701817,1.0868656409146344,-0.5832855701446533,-0.5469071865081787,-0.6005584001541138,-0.13728637993335724,0.03283323720097542,0.09670604765415192,0.035754501819610596,-0.008176982402801514,0.011874377727508545
125,-0.7708757008225043,0.5716770083915109,1.0817316224996367,-0.5859746336936951,-0.5410431623458862,-0.60324627161026,0.136545330286026,-0.1340492218732834,0.12071767449378967,0.056555747985839844,0.02062690258026123,0.04054790735244751
126,-0.7615887780564812,0.5412179671560157,1.0691579083623954,-0.5914483070373535,-0.5151802897453308,-0.6203048825263977,-0.22772379219532013,0.08222422748804092,0.08143585920333862,-0.07270568609237671,-0.00026160478591918945,-0.04091942310333252
127,-0.7407468186044125,0.5384978258052718,1.055085952419748,-0.5793359875679016,-0.5128470063209534,-0.6335280537605286,0.1597958654165268,-0.2555996775627136,-0.03543538600206375,0.019826769828796387,0.05677706003189087,0.0057051777839660645
128,-0.7245274247558262,0.5216679854654714,1.0484668948199056,-0.5746245384216309,-0.49832695722579956,-0.6492125391960144,-0.0718393623828888,-0.19379819929599762,0.006563263945281506,-0.02373361587524414,-0.00814276933670044,-0.044955551624298096
129,-0.727086628899622,0.536704713920229,1.0481476787780308,-0.5712384581565857,-0.5113068222999573,-0.6420685052871704,0.12814724445343018,0.3032381534576416,-0.08186139166355133,0.023478448390960693,0.022583067417144775,0.057428061962127686
130,-0.7315040129821453,0.5363842843693789,1.0479214353224866,-0.5741785168647766,-0.5110313892364502,-0.6396607756614685,0.23895256221294403,0.19334515929222107,0.07355804741382599,-0.012918651103973389,-0.018234848976135254,0.005764901638031006
131,-0.7174613986558045,0.5231955587996647,1.0326803428928595,-0.5695216655731201,-0.499650776386261,-0.6526822447776794,0.3961159288883209,-0.27797383069992065,0.05720793083310127,-0.04939001798629761,0.08781608939170837,-0.16471576690673828
132,-0.7148182370085602,0.5316396072540237,1.0483170716881671,-0.5650088787078857,-0.5069473385810852,-0.65097576379776,0.030995182693004608,0.3415798246860504,-0.06301778554916382,0.012106657028198242,-0.053431689739227295,0.03560405969619751
133,-0.7050487747610973,0.5238448077966239,1.032887457028943,-0.5611662268638611,-0.5002130270004272,-0.6594539284706116,0.023111047223210335,-0.009191012009978294,0.0198493804782629,-0.050161898136138916,0.06845033168792725,-0.0955967903137207
134,-0.6928439268364065,0.5232323779579201,1.0338402159811755,-0.5532716512680054,-0.4996826648712158,-0.6664891242980957,0.07816628366708755,-0.25089582800865173,-0.13382557034492493,0.007953047752380371,0.016543656587600708,0.019012928009033203
135,-0.673018770687045,0.5132856136373117,1.0105586628155225,-0.5430219173431396,-0.4910421073436737,-0.6811789870262146,0.06911350786685944,-0.15268875658512115,0.11018397659063339,0.058357059955596924,0.028639763593673706,-0.08877944946289062
136,-0.664019867278897,0.5108474918769902,0.995147120295458,-0.537606418132782,-0.4889167249202728,-0.6869787573814392,-0.16359785199165344,0.1714370846748352,-0.11330600082874298,-0.006796658039093018,0.004434943199157715,-0.05345398187637329
137,-0.6566256871795545,0.5090276232225597,0.977892075068683,-0.5330544114112854,-0.4873283803462982,-0.691638708114624,-0.5324083566665649,-0.021267512813210487,-0.1254350244998932,-0.0073356032371521,0.029518932104110718,0.03355765342712402
138,-0.6808036640602272,0.5073020740809503,0.9803650276175914,-0.5501478314399719,-0.48582085967063904,-0.6792020201683044,-0.22141750156879425,-0.3640734851360321,0.1572800874710083,-0.0005112886428833008,0.006023526191711426,0.09497356414794922
139,-0.7435592655521708,0.5206351637934322,0.9908693330497607,-0.5872235298156738,-0.4974312484264374,-0.6385380029678345,0.19477218389511108,-0.44396379590034485,0.050878435373306274,0.08794069290161133,-0.03235390782356262,0.007770180702209473
140,-0.7764203848870093,0.5200747132758401,0.9956785215320166,-0.6080809831619263,-0.49694496393203735,-0.6190986037254333,0.04681290313601494,-0.26998454332351685,-0.11108165979385376,-0.013607800006866455,-0.01643693447113037,-0.046443939208984375
141,-0.8341036206048404,0.5387731898159376,1.019333258744679,-0.635766863822937,-0.5130833387374878,-0.5766679644584656,-0.37206628918647766,-0.4630817770957947,-0.12943100929260254,-0.02063572406768799,-0.04135996103286743,0.13390368223190308
142,-1.0314951871067843,0.5923304259861262,1.060541216269077,-0.71188884973526,-0.5582959651947021,-0.4260512888431549,0.9580480456352234,-1.2768303155899048,0.17128883302211761,0.12454760074615479,-0.010383784770965576,0.0960952639579773
143,-1.0967851886816067,0.5724300774846484,1.0728686435032995,-0.747907817363739,-0.5416763424873352,-0.3836934268474579,0.4931153655052185,-1.1930122375488281,0.23430222272872925,0.09202402830123901,0.06712806224822998,-0.07593181729316711
144,-1.2785089252799573,0.5455499040103465,1.1483213811621333,-0.8185859322547913,-0.5188882350921631,-0.2463170737028122,0.9216643571853638,-2.2135403156280518,0.39342018961906433,0.07835155725479126,-0.016832590103149414,-0.06708323955535889
145,-1.4373528888291431,0.5147264214173944,1.2108134220367759,-0.8626890778541565,-0.4922967255115509,-0.11580841988325119,-0.13745063543319702,0.12525592744350433,0.7864100337028503,-0.014538705348968506,0.06912475824356079,0.020669937133789062
146,-1.4819565599717106,0.4741812673342573,1.2570806138911073,-0.8861584067344666,-0.45661020278930664,-0.07893387973308563,0.36569321155548096,-0.12103872001171112,0.545802891254425,0.022556662559509277,0.03586435317993164,0.04405224323272705
147,-1.6600930740137096,0.44527329241923536,1.320619427256387,-0.8988971710205078,-0.4307045340538025,0.08048262447118759,0.19237986207008362,-0.5866159200668335,0.1895601898431778,-0.06225395202636719,-0.03609234094619751,-0.008888483047485352
148,-1.6341261103802536,0.44034324944374165,1.3215386106100382,-0.9027919769287109,-0.42624998092651367,0.05725017562508583,0.15852214395999908,-0.31360676884651184,-0.15476146340370178,0.03462791442871094,0.028636455535888672,-0.055266499519348145
149,-1.5693993363123517,0.449025721656716,1.3131559323939748,-0.9008696675300598,-0.4340880513191223,-0.0012585071381181479,0.07683731615543365,0.48687344789505005,-0.1806384027004242,0.03964829444885254,0.0058348774909973145,-0.0645831823348999
150,-1.5868345339445336,0.45330121056926764,1.319565082609051,-0.8988906741142273,-0.4379357099533081,0.014417831785976887,-0.4599035382270813,0.79839026927948,-0.41153523325920105,-0.1812332272529602,-0.030631154775619507,0.02876448631286621
151,-1.5758245827452722,0.4570694760290755,1.3052157385670047,-0.8973382711410522,-0.4413203001022339,0.004512084648013115,-0.09863120317459106,-0.6377164125442505,0.08501380681991577,-0.05319267511367798,-0.018457531929016113,0.09024500846862793
152,-1.5820146795656929,0.4457177989752124,1.2967683422246676,-0.9022446274757385,-0.43110567331314087,0.010122123174369335,0.3100723326206207,-0.2955351769924164,0.01302586030215025,-0.0452955961227417,-0.005448251962661743,0.051996469497680664
153,-1.5886033375034125,0.4337692844849574,1.2862085960518936,-0.9072441458702087,-0.42029398679733276,0.016157014295458794,0.4329608082771301,-0.09463337063789368,0.024411149322986603,-0.17280346155166626,0.001089245080947876,-0.04214274883270264
154,-1.5892977302435816,0.43523983206818573,1.269797175797599,-0.906613826751709,-0.42162787914276123,0.016775542870163918,0.28233590722084045,-0.06214824318885803,0.3180709183216095,0.042401790618896484,0.02441108226776123,-0.11107492446899414
155,-1.5778018349794305,0.43245292342606384,1.247837341651708,-0.9079181551933289,-0.41909918189048767,0.006360532250255346,-0.3800728917121887,0.2132551372051239,-0.02250078320503235,0.04832959175109863,-0.013258576393127441,-0.07482671737670898
156,-1.5778661636544815,0.42472703388041533,1.2557426098911715,-0.9111284017562866,-0.412072092294693,0.006441636476665735,-0.2471368908882141,0.2270529866218567,-0.07981381565332413,0.008952617645263672,-0.02428346872329712,0.14007329940795898
157,-1.5884282474331768,0.4183585879775191,1.2624623185702295,-0.9136148691177368,-0.406261146068573,0.016110453754663467,0.3173081874847412,0.1302797496318817,-0.19970674812793732,-0.17017102241516113,-0.04927468299865723,0.08015727996826172
158,-1.572491968628696,0.4247995683100618,1.2450672180879228,-0.9111201167106628,-0.4121381640434265,0.001544934930279851,0.4560648500919342,-0.5782973170280457,0.24556982517242432,0.004763245582580566,0.05219852924346924,-0.11420059204101562
159,-1.5617149754647088,0.42924827346920835,1.2357109318860733,-0.9092413187026978,-0.4161874055862427,-0.008257366716861725,0.14173129200935364,-0.30944254994392395,0.2348678708076477,0.07438725233078003,0.060947567224502563,-0.13293218612670898
160,-1.5694069939561934,0.4165549431163926,1.253114819102206,-0.9144874215126038,-0.40461239218711853,-0.0012705281842499971,0.3083105683326721,-0.12306798249483109,0.15216103196144104,-0.06016772985458374,-0.012440770864486694,-0.05244040489196777
161,-1.5604227479944537,0.4255658561997602,1.2458082826536534,-0.9107561707496643,-0.4128362238407135,-0.009448139928281307,0.27931731939315796,-0.25193360447883606,0.271602600812912,0.09718817472457886,0.08747312426567078,-0.13285529613494873
162,-1.5650874564221489,0.42546808569017475,1.2599247233279318,-0.9108307361602783,-0.41274717450141907,-0.005199871025979519,0.0506594255566597,-0.12311743199825287,0.14381389319896698,0.1387513279914856,0.04581913352012634,0.014965534210205078
163,-1.586001122343561,0.4216391525477895,1.2732566955166837,-0.9123137593269348,-0.40925660729408264,0.013872613199055195,0.22564184665679932,0.25764068961143494,-0.14227740466594696,-0.007577478885650635,0.0021826624870300293,0.034970760345458984
164,-1.66713683548021,0.42145115503769853,1.2796949448804904,-0.9082647562026978,-0.40908506512641907,0.08777441829442978,0.7292312383651733,-1.818463683128357,-0.29471355676651,-0.1973717212677002,0.040188610553741455,-0.16216111183166504
165,-1.9347523158723343,0.43005103089624536,1.3989126758108357,-0.8494048714637756,-0.41691717505455017,0.3235604763031006,0.9994171261787415,-2.1280031204223633,-0.18716299533843994,-0.008551061153411865,-0.022581666707992554,-0.008420735597610474
166,-2.113365025190673,0.4347123062293897,1.4708198088912807,-0.7767339944839478,-0.42114949226379395,0.46831366419792175,0.3293946385383606,0.02834182418882847,-0.24674822390079498,-0.0011591911315917969,-0.015602946281433105,-0.043005406856536865
167,-2.1902061202123555,0.42124250069228963,1.5327193096940934,-0.7430431842803955,-0.4088946580886841,0.529803454875946,0.9855842590332031,-0.7383669018745422,-0.1470949798822403,-0.10533016920089722,-0.06768307089805603,-0.052325546741485596
168,-2.2551222811733767,0.4303732044699336,1.6109981520499612,-0.7041872143745422,-0.41721001267433167,0.574505090713501,0.8933591842651367,-0.6829578280448914,0.045159511268138885,0.07471644878387451,0.06020018458366394,-0.13297683000564575
169,-2.3486426953804385,0.42033875673800486,1.7362345082977229,-0.6504102945327759,-0.4080697298049927,0.6406602263450623,0.41010212898254395,0.4969589114189148,-0.4838089048862457,0.14940321445465088,0.11204928159713745,0.04667186737060547
170,-2.408190902113629,0.4144567094770594,1.8145537496707311,-0.6127261519432068,-0.4026927053928375,0.6800041198730469,0.015234559774398804,0.1719980090856552,-0.27742084860801697,0.150201678276062,-0.005739390850067139,0.0822640061378479
171,-2.4449945436288987,0.4101587481337753,1.8513437673949815,-0.5883952379226685,-0.39875492453575134,0.7034101486206055,0.11236359179019928,0.18321387469768524,-0.24174103140830994,0.03904825448989868,0.00957942008972168,0.04947382211685181
172,-2.4589578739993327,0.42642041279736753,1.865560206240636,-0.5743494033813477,-0.413614422082901,0.7064321041107178,0.025485754013061523,-0.033642034977674484,-0.21802815794944763,-0.036887288093566895,0.06321147084236145,-0.029384195804595947
173,-2.47577208460557,0.41496526610372014,1.8986969402652116,-0.5652801394462585,-0.40315815806388855,0.7196676731109619,-0.19859164953231812,0.20058375597000122,-0.383304238319397,-0.006451308727264404,0.0054378509521484375,0.13787615299224854
174,-2.496220550993618,0.4123666956924129,1.9215447862022752,-0.5510753989219666,-0.40077874064445496,0.7319102883338928,0.38375338912010193,-0.7084071040153503,-0.5919474363327026,-0.07152903079986572,-0.03040418028831482,0.010857164859771729
175,-2.505116369661362,0.40683781369543415,1.9407684449352374,-0.5458514094352722,-0.39570721983909607,0.7385541796684265,-0.006235833279788494,-0.5002552270889282,-0.22369958460330963,-0.08926522731781006,0.0021372437477111816,0.09800893068313599
176,-2.522191824528548,0.40677176768034534,1.9422657369985208,-0.5331763029098511,-0.3956465721130371,0.7477878332138062,0.6745822429656982,-0.5280901193618774,-0.08001915365457535,-0.08478933572769165,-0.074491947889328,-0.04193156957626343
177,-2.518480185136063,0.40728645240328404,1.951756756853995,-0.5358293652534485,-0.39611920714378357,0.745638370513916,-0.03859809413552284,0.16951632499694824,-0.15950742363929749,-0.1348555088043213,-0.07792559266090393,0.07195806503295898
178,-2.472002331962039,0.47181764451338665,1.9506502982998848,-0.5528531670570374,-0.4545060992240906,0.6984106302261353,-0.7707239985466003,0.7894611954689026,-0.12832438945770264,0.0730559229850769,0.10768917202949524,0.050612807273864746
179,-2.3388709974355946,0.5511471323227652,1.89733763301033,-0.6127461791038513,-0.5236648321151733,0.5918758511543274,-1.2274333238601685,1.1396207809448242,-0.28479456901550293,-0.026688575744628906,-0.025483667850494385,0.04227930307388306
180,-2.3169919769030205,0.5977241462399571,1.8812534893260602,-0.6069666147232056,-0.5627626776695251,0.561150074005127,-0.5246545672416687,0.1204340010881424,0.06621598452329636,0.22412371635437012,0.027377605438232422,-0.022163987159729004
181,-2.349425480602817,0.5558526314226738,1.8898942845234377,-0.6047046184539795,-0.527667760848999,0.596572995185852,-0.20478615164756775,-0.3827377259731293,0.35826388001441956,0.06718319654464722,-0.06544142961502075,0.18756097555160522
182,-2.3058912837854613,0.5604201591121932,1.8486433828603723,-0.6283002495765686,-0.5315421223640442,0.568068265914917,0.059479519724845886,-0.11595471203327179,0.33230987191200256,0.0013777613639831543,0.07710492610931396,-0.018843472003936768
183,-2.187033439526708,0.5981722498653002,1.7958997193799262,-0.6743636131286621,-0.5631330013275146,0.477613627910614,-1.0431931018829346,1.3375208377838135,-0.27781158685684204,0.16003566980361938,-0.007042109966278076,0.021455585956573486
184,-2.159880969044887,0.6037746865498784,1.7705335262921411,-0.6844480037689209,-0.5677538514137268,0.4573691785335541,-0.3328714668750763,1.3534796237945557,-0.35143622756004333,-0.1536409854888916,-0.06022167205810547,0.16599810123443604
185,-2.107377061590002,0.6267975263412487,1.736989139207374,-0.6960867643356323,-0.5865540504455566,0.41402631998062134,0.62266606092453,-1.1383155584335327,0.3524341285228729,-0.11998385190963745,0.027441442012786865,-0.07357209920883179
186,-2.0260783124181225,0.6549514929598272,1.7096803289212401,-0.7122923731803894,-0.609120786190033,0.34872859716415405,-0.19582431018352509,-0.7541460990905762,0.33183327317237854,0.2003752589225769,0.022069334983825684,-0.08368346095085144
187,-1.973054332890917,0.675863001952487,1.684700287206284,-0.7178940176963806,-0.6255708336830139,0.3054333031177521,-1.2785956859588623,1.8085436820983887,-0.6703659296035767,0.04986417293548584,-0.007928311824798584,0.11546516418457031
188,-1.8222138116477509,0.7222189050240704,1.5959224559117526,-0.7267506718635559,-0.6610512137413025,0.18666763603687286,-1.5748860836029053,2.5988926887512207,-0.49633195996284485,-0.21894335746765137,0.007273197174072266,0.21306681632995605
189,-1.5795122298312858,0.7697636843469423,1.4645428979281634,-0.7180479764938354,-0.695965588092804,0.006258594803512096,0.7206451892852783,-1.1104286909103394,0.11579867452383041,0.15991199016571045,0.04154658317565918,-0.22764837741851807
190,-1.5399632470173457,0.764480211681627,1.424159651778727,-0.7213990092277527,-0.6921619176864624,-0.02225000597536564,-0.1654011458158493,0.4099504351615906,-0.13602027297019958,-0.06374192237854004,-0.03989368677139282,-0.1361057162284851
191,-1.454890545394479,0.7769256746186359,1.3737642000223051,-0.7082878947257996,-0.7010905146598816,-0.08246427029371262,-0.915165364742279,1.6784312725067139,-0.15643887221813202,-0.15246039628982544,0.05492663383483887,0.07571990042924881
192,-1.3186336004947492,0.7784170077938286,1.2976792180994405,-0.6895082592964172,-0.7021531462669373,-0.17764967679977417,-0.9037505984306335,0.3231164216995239,0.39612728357315063,0.11736470460891724,0.011631906032562256,0.06439894437789917
193,-1.1090505118859035,0.7643503438715044,1.1807385816704732,-0.6462391018867493,-0.6920682191848755,-0.3215847313404083,0.07318402826786041,0.027754981070756912,-0.01684574782848358,0.17086678743362427,0.05679899454116821,-0.0014133155345916748
194,-0.9296426662850801,0.7236454799252764,1.065440038056638,-0.60057133436203,-0.6621209979057312,-0.4482295513153076,0.2872525453567505,-0.37814411520957947,-0.14637504518032074,0.01852494478225708,0.0182611346244812,-0.2209751307964325
195,-0.7808595014055617,0.7005415124934576,0.9865252148029142,-0.5381192564964294,-0.6446317434310913,-0.5430262684822083,-0.9576053619384766,1.9999440908432007,-0.2939620614051819,0.03636455535888672,0.046899259090423584,0.027065634727478027
196,-0.6014193620709547,0.6226001091400044,0.8758738865855704,-0.45964697003364563,-0.5831493735313416,-0.6698220372200012,-1.5169060230255127,2.0223541259765625,0.16331541538238525,0.01901891827583313,0.030262410640716553,0.02936488389968872
197,-0.46632919078765867,0.5294610049648948,0.8208936695349728,-0.38804957270622253,-0.5050682425498962,-0.770923912525177,-0.8775194883346558,0.8243662714958191,0.2906511425971985,0.047564923763275146,-0.02190929651260376,-0.010188758373260498
198,-0.3078962634126799,0.42834903987666495,0.7721657016100559,-0.27567437291145325,-0.41536957025527954,-0.8668746948242188,-0.9547964930534363,0.5613709688186646,-0.3558603525161743,-0.10152292251586914,0.01917511224746704,0.01058197021484375
199,-0.1959372473876336,0.3210988136751986,0.7244192022962264,-0.18473538756370544,-0.3156093955039978,-0.930732786655426,-0.4953351616859436,-0.584428071975708,0.05482867732644081,0.017087072134017944,0.03425261378288269,-0.07424157857894897
200,-0.1261573886151182,0.3019526136665343,0.6892297811710367,-0.12013047933578491,-0.297385036945343,-0.9471698999404907,0.008720087818801403,0.37132561206817627,0.13577574491500854,0.1258677840232849,0.04390603303909302,0.009532570838928223
201,-0.046609055946420945,0.24535468909801797,0.7054193492462253,-0.04519680514931679,-0.24290040135383606,-0.9689977169036865,-0.38474807143211365,0.9502221941947937,-0.09348282963037491,-0.011153902858495712,0.028255045413970947,-0.0549737811088562
202,-0.05521016015113631,0.22837940126563874,0.7055547139117162,-0.053749289363622665,-0.22639930248260498,-0.9725504517555237,-1.3010698556900024,1.4139325618743896,0.021740645170211792,-0.015250958502292633,-0.01697838306427002,0.08204752206802368
203,-0.04893570940930832,0.20239068118595543,0.7281966068959723,-0.047917742282152176,-0.2010117918252945,-0.9784161448478699,-1.0403947830200195,0.5523796081542969,-0.039196714758872986,-0.08111058175563812,-0.045844897627830505,0.09716004133224487
204,-0.050454630384429794,0.21698396337926598,0.7573058264170042,-0.04925062879920006,-0.2152852863073349,-0.9753084778785706,0.050776638090610504,-0.293926477432251,0.3984871506690979,-0.07155320793390274,0.050841331481933594,0.13035303354263306
205,-0.032774320175594736,0.24788169633271998,0.7645937483013276,-0.0317668616771698,-0.24535095691680908,-0.968913733959198,0.6691144704818726,-0.40911945700645447,0.14795255661010742,0.0754069983959198,0.001423954963684082,0.193248450756073
206,-0.032705941367340195,0.22958531845251468,0.7811730663379619,-0.03184208646416664,-0.22757373750209808,-0.973240077495575,0.6405462622642517,-1.0439910888671875,-0.0598905012011528,-0.01417841762304306,-0.020305275917053223,-0.02106839418411255
207,-0.028611471780089392,0.2147972451049686,0.7756521343549679,-0.02795015648007393,-0.21314933896064758,-0.9766197800636292,0.7587321996688843,-0.5429672598838806,0.08364110440015793,0.01716219261288643,0.05033805966377258,-0.13917917013168335
208,-0.042757073839425945,0.22660155615549735,0.7692507719496137,-0.041651319712400436,-0.2246672660112381,-0.9735449552536011,-0.26610442996025085,0.28453001379966736,-0.03816407918930054,0.05758149176836014,0.007519438862800598,0.042026400566101074
209,-0.04236611907827044,0.20694909974145523,0.7740965390233202,-0.04144972190260887,-0.2054750621318817,-0.9777842164039612,0.4678792655467987,-0.0030170646496117115,0.23604750633239746,0.03220289945602417,-0.020095616579055786,-0.15034383535385132
210,-0.03529412029004531,0.22539727651836297,0.772410119801327,-0.03439422696828842,-0.22349360585212708,-0.9740983843803406,-0.14752839505672455,0.33481860160827637,-0.3526650071144104,-0.007552184164524078,0.029645949602127075,-0.059165775775909424
211,-0.0074999659706260595,0.2324226288830227,0.7728583761909681,-0.007298232521861792,-0.23033568263053894,-0.9730838537216187,-0.2695753276348114,0.36477750539779663,-0.030100349336862564,0.02116847038269043,-0.03480103611946106,-0.024001717567443848
212,0.0217473762306443,0.23395556699956585,0.7756351700499373,0.021153245121240616,-0.23182713985443115,-0.9725269675254822,-0.6261069178581238,1.114720344543457,0.10658414661884308,0.014979571104049683,-0.007384896278381348,0.05826610326766968
213,0.055511685928022435,0.2419417858056617,0.7862201621671604,0.05386720970273018,-0.23958830535411835,-0.9693790674209595,-0.23376965522766113,0.689990758895874,-0.07512908428907394,-0.04535279422998428,-0.06355804204940796,0.09807169437408447
214,0.10085629316235863,0.23321141508565624,0.789714787506913,0.09795976430177689,-0.23110319674015045,-0.9679850935935974,-0.08166418969631195,0.311496376991272,0.05721601843833923,-0.04183794558048248,0.013039842247962952,0.03542900085449219
215,0.19254959066346866,0.21747720748753147,0.7902666531532497,0.18685443699359894,-0.21576695144176483,-0.9583997130393982,0.0048911417834460735,0.3188542425632477,0.1417480707168579,0.04662027955055237,0.05092625319957733,0.0024061203002929688
216,0.31372133160668125,0.19364776415295995,0.8146451660713144,0.30283233523368835,-0.1924397498369217,-0.9334128499031067,-0.12129766494035721,0.7880657911300659,0.027845177799463272,-0.039816588163375854,-0.009464547038078308,-0.05497521162033081
217,0.410481373005166,0.20056556928721675,0.8239716764981009,0.39105141162872314,-0.199223592877388,-0.8985481262207031,-0.03943977504968643,1.2978893518447876,0.17357538640499115,-0.013091206550598145,0.0023546963930130005,0.004062652587890625
218,0.5361165606367617,0.23184540025800243,0.8276822102383422,0.497134268283844,-0.22977393865585327,-0.8366967439651489,0.4727179706096649,1.0302327871322632,0.26830923557281494,0.020474374294281006,0.0025705695152282715,0.017223477363586426
219,0.6799885812459792,0.3032113779703424,0.7939633750515567,0.600100576877594,-0.2985866367816925,-0.7421086430549622,0.2861469089984894,2.238659620285034,0.004707970656454563,-0.023013174533843994,-0.0004246234893798828,0.11062371730804443
220,0.8129146746175034,0.3680892813812132,0.7586012302933176,0.6776441335678101,-0.35983335971832275,-0.6413410902023315,0.7484673261642456,1.3592782020568848,0.16129367053508759,-0.06192147731781006,0.024048447608947754,0.014860987663269043
221,0.986266444035949,0.4084944461002794,0.7277182940104931,0.7653522491455078,-0.39722809195518494,-0.5064045786857605,0.3396274447441101,1.4060953855514526,0.07486727088689804,0.008191943168640137,0.0604972243309021,-0.020588159561157227
222,1.1522867172018822,0.42809806930439614,0.7120629934333944,0.8312410116195679,-0.4151412546634674,-0.36972445249557495,0.2312982827425003,0.9861987233161926,0.11546136438846588,0.03506147861480713,0.023448169231414795,-0.07345181703567505
223,1.254380781340566,0.4247091114014711,0.7178075415522107,0.8659258484840393,-0.41205576062202454,-0.283517986536026,-0.5049732327461243,1.4571058750152588,-0.38601154088974,-0.05098444223403931,-0.010719507932662964,0.06965082883834839
224,1.3167483566791367,0.3981722555167781,0.7372279183717726,0.8921852707862854,-0.38773423433303833,-0.231663316488266,-0.4309591054916382,1.148525595664978,-0.6213133931159973,-0.12498849630355835,-0.015586137771606445,0.009998887777328491
225,1.3620616151724674,0.35272207827297664,0.7600011729600116,0.9180660247802734,-0.3454535901546478,-0.194464772939682,-0.4184611141681671,0.6594312191009521,-0.38619232177734375,-0.03348356485366821,0.015161842107772827,0.01978220045566559
226,1.399072386676303,0.3683479184237504,0.7844939735867296,0.919201672077179,-0.3600746691226959,-0.15941907465457916,-0.3094821870326996,0.3722386956214905,0.23283229768276215,-0.07076722383499146,-0.04123145341873169,0.05634593963623047
227,1.3984566047073752,0.3931671650029296,0.8042846589721631,0.9100168347358704,-0.38311585783958435,-0.1584034115076065,-0.1891953945159912,-0.3732925355434418,0.045770131051540375,-0.11904698610305786,-0.02908506989479065,0.011171400547027588
228,1.2778005515452218,0.3598080067605585,0.8270127548389808,0.8960763216018677,-0.35209453105926514,-0.27032676339149475,0.045466888695955276,-0.7196217179298401,-0.6026520133018494,-0.14615267515182495,-0.005098432302474976,-0.23298433423042297
229,1.2484137168787377,0.3129393898067115,0.8295649049960149,0.9024179577827454,-0.30785658955574036,-0.30143988132476807,-0.02042323909699917,-0.016477644443511963,-0.19736804068088531,0.030626416206359863,0.03823384642601013,-0.13711294531822205
230,1.2475870819593764,0.3116468964695282,0.8267891756675959,0.9025450944900513,-0.3066266179084778,-0.30231189727783203,0.09458878636360168,0.25939929485321045,-0.0007760757580399513,0.00048530101776123047,-0.016020476818084717,-0.02669811248779297
231,1.2100621285660065,0.3136149594374018,0.8283726779214868,0.8900018334388733,-0.308499276638031,-0.3357454538345337,-0.19291037321090698,-0.985883891582489,-0.07374376058578491,-0.010531008243560791,0.035168588161468506,0.04601156711578369
232,1.054104746810845,0.3069639966511781,0.8594081563439989,0.8288158178329468,-0.3021659553050995,-0.47091418504714966,-0.036280758678913116,-1.218098521232605,-0.16597498953342438,-0.08137929439544678,-6.490945816040039e-05,-0.07588458061218262
233,0.8724545087329496,0.2740790294449415,0.8865247930188584,0.737321674823761,-0.2706604599952698,-0.618950366973877,-0.1094072163105011,-2.357034921646118,-0.08452558517456055,0.012418866157531738,0.024475187063217163,-0.01805824041366577
234,0.7485170293115403,0.2553074118614141,0.906327040883714,0.6584932804107666,-0.2525428533554077,-0.7089489698410034,-0.21905964612960815,-0.1457488238811493,-0.27153944969177246,-0.06269866228103638,0.0440773069858551,-0.09874451160430908
235,0.7223132783024483,0.24429016092105166,0.9151742120602973,0.6414928436279297,-0.24186761677265167,-0.7280020713806152,0.09334531426429749,-0.0853918269276619,0.11621449887752533,-0.021268844604492188,-0.012404829263687134,-0.042475223541259766
236,0.7097421983202917,0.24747410201179126,0.913538196583887,0.6317855715751648,-0.24495579302310944,-0.7354207038879395,-0.035834260284900665,-0.1962118297815323,0.026913974434137344,-0.02297520637512207,-0.00548669695854187,0.05960899591445923
237,0.7023531122486631,0.23457317514476855,0.91589397924387,0.6283236742019653,-0.23242786526679993,-0.7424194812774658,0.1461779773235321,-0.3431059718132019,-0.014023804105818272,-0.011136174201965332,0.01965932548046112,-0.02840876579284668
238,0.684839116284449,0.22345852988928536,0.9167257194297711,0.6168212890625,-0.22160348296165466,-0.7552638053894043,0.09468840062618256,-0.07161056995391846,-0.029877295717597008,-0.0081787109375,0.02566535770893097,-0.0602879524230957
239,0.67114752005142,0.22012949816765232,0.9154592722911115,0.6068784594535828,-0.21835599839687347,-0.7642115354537964,-0.002156567759811878,-0.23569411039352417,0.045347753912210464,-0.007375836372375488,0.017367243766784668,-0.004846692085266113
240,0.6546510294887402,0.21286290034811114,0.921980679597549,0.5951400399208069,-0.21125905215740204,-0.775356650352478,-0.005522014573216438,-0.3225472569465637,0.10845192521810532,0.023191869258880615,0.04078787565231323,-0.03192484378814697
241,0.6578716167110882,0.2082249266606519,0.9275007039007115,0.5982267260551453,-0.20672349631786346,-0.7742029428482056,-0.006058055907487869,-0.16069504618644714,-0.05708971247076988,0.050226032733917236,-0.010485351085662842,0.007280945777893066
242,0.6590935498346041,0.20629769962457742,0.931091758526545,0.5994151830673218,-0.20483751595020294,-0.773784875869751,-0.0025146333500742912,-0.015092894434928894,0.045544303953647614,0.023692727088928223,-0.006328880786895752,-0.008517980575561523
243,0.6591719500705934,0.21028400044183881,0.9379787260652102,0.5989710092544556,-0.20873765647411346,-0.7730863094329834,0.2108454555273056,-0.10910899937152863,0.19167247414588928,0.004315733909606934,-0.0015894919633865356,0.010116338729858398
244,0.6527393773496629,0.20252669855938218,0.9351265930418406,0.5949512720108032,-0.2011450231075287,-0.7781861424446106,-0.04499524086713791,-0.02728377655148506,-0.12903152406215668,0.0038341283798217773,0.02542482316493988,0.0014985203742980957
245,0.6399259304550358,0.18444411699448948,0.9327403375466381,0.5870076417922974,-0.18340010941028595,-0.78853440284729,0.09848775714635849,0.04899647831916809,0.12441163510084152,0.10421550273895264,0.055745065212249756,-0.08126235008239746
246,0.6297906854828265,0.1834525100444382,0.9358716794528205,0.5790924429893494,-0.18242523074150085,-0.7945898175239563,0.11812751740217209,-0.10967013239860535,0.07738497108221054,0.035470545291900635,0.0013339221477508545,-0.0535547137260437
247,0.5866256652179965,0.17239199047319761,0.9346325296455154,0.5453488230705261,-0.17153936624526978,-0.8204687237739563,0.05606941133737564,-0.6476110219955444,-0.2180873155593872,0.024200737476348877,0.04425057768821716,-0.1243097186088562
248,0.5111309808802497,0.15876428257031852,0.928555654854403,0.48301196098327637,-0.15809814631938934,-0.8612226247787476,-0.2742067873477936,-1.2391890287399292,-0.3198005259037018,0.013798952102661133,0.004075944423675537,0.010423064231872559
249,0.4400411194192181,0.1306656097585533,0.9250422871199887,0.422345370054245,-0.13029411435127258,-0.8970216512680054,-0.8519492745399475,-0.7815418243408203,-0.3295639157295227,-0.025357455015182495,-0.008042067289352417,0.10888993740081787
250,0.3577642887931576,0.09775846275247489,0.9248709227441612,0.3485090136528015,-0.09760282933712006,-0.932209849357605,-0.6518576145172119,-0.6124525666236877,-0.10658171772956848,-0.057630687952041626,-0.04308319836854935,0.19348609447479248
251,0.2935710308751761,0.07497039982406828,0.9221473975544456,0.2885594666004181,-0.07490018755197525,-0.9545278549194336,-0.6675097942352295,-0.13953427970409393,-0.02738569676876068,-0.03401237726211548,0.005991488695144653,0.0842885971069336
252,0.24088525248397438,0.06414676410671423,0.9132686335074162,0.2380717694759369,-0.06410278379917145,-0.9691298604011536,-0.28300172090530396,-0.6939432621002197,-0.1373024731874466,-0.036136940121650696,0.009125366806983948,0.10780173540115356
253,0.17614529888641908,0.020179174425581786,0.8998370873212812,0.17520014941692352,-0.020177805796265602,-0.9843260645866394,-0.4548954665660858,-0.7102732062339783,-0.32653260231018066,-0.06478756666183472,-0.05964091792702675,0.1765105128288269
254,0.11528107469086017,-0.12040066378717758,0.8512227732366631,0.11419318616390228,0.12010998278856277,-0.9861711263656616,-2.0860605239868164,-0.6906102895736694,-0.9776006937026978,-0.05369209498167038,0.0029368922114372253,0.1696886420249939
255,0.012189516652965708,-0.2944945955562283,0.7533507200614071,0.011664456687867641,0.29025623202323914,-0.9568778872489929,-1.3933759927749634,-0.4064277112483978,-0.6705102324485779,0.03548520803451538,0.035320550203323364,-0.02711564302444458
256,-0.0691475008823955,-0.3781557031724613,0.6860099789071192,-0.06421083211898804,0.36920711398124695,-0.9271262288093567,-0.06254550814628601,-0.425991415977478,-0.2858046293258667,0.07351868599653244,0.027918130159378052,-0.11831444501876831
257,-0.09796309245429886,-0.4285232706878396,0.6635175541737157,-0.0889628529548645,0.4155280590057373,-0.905219316482544,-0.19377869367599487,-0.4876115620136261,-0.28253358602523804,0.014652542769908905,-0.034226179122924805,-0.06638407707214355
258,-0.17188376657885918,-0.5019021706025588,0.6053698138267217,-0.14994429051876068,0.48109397292137146,-0.863750696182251,-0.8213674426078796,-0.24712128937244415,-0.3337109386920929,0.046840667724609375,0.03645363450050354,-0.16154837608337402
259,-0.1974322470129349,-0.5764534698558914,0.5831093807184532,-0.1644541174173355,0.5450539588928223,-0.8221137523651123,-0.39234158396720886,-0.23622967302799225,-0.00102922972291708,-0.02196250855922699,0.054982662200927734,-0.1461174488067627
260,-0.22612957824243257,-0.6482246639861711,0.5442722358905351,-0.17872843146324158,0.6037721633911133,-0.7768625020980835,-0.7613164186477661,-0.2703322470188141,-0.11433205753564835,0.10443341732025146,0.012545585632324219,-0.15068870782852173
261,-0.26143082222477915,-0.7367187971323391,0.5066674215981515,-0.19143764674663544,0.6718612313270569,-0.7155097723007202,-0.20340628921985626,0.22169794142246246,-0.04881225898861885,0.06411832571029663,0.047453343868255615,-0.3872734308242798
262,-0.24296214227205515,-0.7386750884844384,0.5297491193419734,-0.17787466943264008,0.6733089089393616,-0.7176460027694702,-0.5985429286956787,0.32588133215904236,-0.10871662944555283,-0.01044929027557373,0.021332204341888428,-0.07405626773834229
263,-0.24351344168314984,-0.7392538861323499,0.5457288690475081,-0.17817626893520355,0.6737367510795593,-0.7171694040298462,-0.9251025915145874,0.07592655718326569,0.1082874983549118,-0.07049620151519775,0.0791928768157959,-0.023202240467071533
264,-0.21163264541462576,-0.7520541376317567,0.5691472319513088,-0.15340149402618408,0.6831403374671936,-0.7139939069747925,-0.3668473958969116,0.15599030256271362,0.12524372339248657,0.026036381721496582,-0.027973711490631104,0.03554236888885498
265,-0.22667066736164282,-0.7955292719322212,0.5560411582378034,-0.15729328989982605,0.7142341732978821,-0.6820032596588135,-0.7780887484550476,0.19960175454616547,-0.03367823734879494,0.07271383702754974,-0.0002601146697998047,-0.21744132041931152
266,-0.24288954981746297,-0.8006933322157589,0.5579284673379772,-0.1674441248178482,0.7178389430046082,-0.6757733821868896,-0.840316653251648,0.13058580458164215,-0.19620637595653534,-0.019872769713401794,0.05935215950012207,-0.09380364418029785
267,-0.2323673599536482,-0.8024105054751413,0.5694961644846154,-0.16004028916358948,0.719033420085907,-0.6762973666191101,0.2997937798500061,0.12182909995317459,0.044889893382787704,0.02025453746318817,-0.06928366422653198,-0.08636742830276489
268,-0.21083398146356863,-0.7944505211134812,0.5738277269738987,-0.1466345191001892,0.713478684425354,-0.6851617097854614,0.27495554089546204,0.05497417598962784,0.040495146065950394,0.05050414800643921,-0.012840867042541504,0.005657315254211426
269,-0.20463873728291845,-0.8052238150201542,0.5773677010815668,-0.14081674814224243,0.7209857702255249,-0.6784911751747131,-0.011144880205392838,-0.17447210848331451,-0.15111057460308075,-0.014609277248382568,0.0471721887588501,-0.03986215591430664
270,-0.19824734984514342,-0.8183314217861514,0.5780561459861927,-0.13460445404052734,0.7300064563751221,-0.6700538992881775,-0.5835270881652832,0.11956313997507095,-0.01797086000442505,-0.04209233820438385,0.07463520765304565,0.022455573081970215
271,-0.19034818590668728,-0.8343032819259132,0.5655261515364167,-0.12708504498004913,0.7408286929130554,-0.6595621705055237,-0.1500900834798813,0.30370014905929565,-0.20093128085136414,-0.008229881525039673,-0.05619734525680542,0.09564310312271118
272,-0.2091404854001189,-0.8447029182292444,0.5345613811594656,-0.13784947991371155,0.7477738857269287,-0.6494857668876648,-0.09861653298139572,0.1785758137702942,-0.07228506356477737,0.06147925555706024,0.013944864273071289,0.036692798137664795
273,-0.20465338944036263,-0.857604528988634,0.5282335778931291,-0.13296198844909668,0.7562775015830994,-0.6405977010726929,0.19310376048088074,-0.023607162758708,-0.0417427197098732,0.02871394157409668,0.0012602806091308594,-0.021755754947662354
274,-0.1959307517319071,-0.8718387900453947,0.5290111117542042,-0.12526074051856995,0.7655133605003357,-0.6311094760894775,0.3927677869796753,-0.02341959811747074,0.021020686253905296,0.047288328409194946,-0.022852838039398193,-0.13005995750427246
275,-0.1732302799182459,-0.8682358158881681,0.5340440763250169,-0.11137789487838745,0.7631901502609253,-0.6365028023719788,-0.04378555342555046,0.06458854675292969,-0.10782813280820847,0.014972850680351257,-0.026099085807800293,0.03577953577041626
276,-0.16636170636987402,-0.8632906483109987,0.541438381401061,-0.10762709379196167,0.7599853873252869,-0.6409669518470764,0.3977738916873932,0.017959920689463615,0.0714193806052208,-0.00209885835647583,-0.08273929357528687,0.060110628604888916
277,-0.16828150905799066,-0.8649299953126284,0.5439953145555526,-0.10864860564470291,0.7610498666763306,-0.6395300030708313,0.15237969160079956,-0.028909996151924133,0.10120174288749695,-0.04302375018596649,0.0010656118392944336,0.011951267719268799
278,-0.15663573593798816,-0.8545381912495474,0.5566514725116494,-0.1024218201637268,0.7542678117752075,-0.6485289931297302,0.13897953927516937,0.22067740559577942,0.2658292055130005,-0.014796197414398193,-0.07908159494400024,0.07879638671875
279,-0.169567040778544,-0.8538450432743828,0.539325969328698,-0.1108875498175621,0.7538124918937683,-0.6476655006408691,0.12520113587379456,0.06632406264543533,0.18242646753787994,0.048753753304481506,0.027055978775024414,0.02928781509399414
280,-0.14743770043601417,-0.8466199049416955,0.5552971240505573,-0.09732673317193985,0.7490453124046326,-0.6553308963775635,0.7963935732841492,-0.2423221617937088,0.4070417881011963,0.19913336634635925,-0.11531728506088257,-0.04468131065368652
281,-0.14361677940523757,-0.8404437398638822,0.5690575666320169,-0.09548238664865494,0.7449392080307007,-0.6602641940116882,1.0350828170776367,-0.04509430378675461,0.14817988872528076,0.11086325347423553,-0.053517699241638184,-0.20249825716018677
282,-0.1390690524337012,-0.833856687016515,0.57258593522073,-0.09315689653158188,0.7405286431312561,-0.6655367612838745,0.03458676114678383,-0.47922950983047485,-0.39262133836746216,0.0035115033388137817,-0.02156507968902588,-0.06622898578643799
283,-0.1600804123821294,-0.8318766839959456,0.5624625536128032,-0.10735264420509338,0.7391965985298157,-0.664878785610199,0.26827454566955566,0.057617995887994766,0.024239905178546906,-0.011131852865219116,0.007934749126434326,-0.06513214111328125
284,-0.16649378410044474,-0.8147630182127087,0.5633135956030049,-0.11369455605745316,0.7275630235671997,-0.6765541434288025,-0.026151277124881744,0.03014431893825531,-0.11249205470085144,-0.08587514609098434,0.13068276643753052,-0.047704219818115234
285,-0.13101726611264083,-0.7550967500226549,0.5918413063313788,-0.09513473510742188,0.6853591203689575,-0.7219641208648682,0.6399902701377869,0.2040589153766632,0.2271718680858612,-0.008243568241596222,-0.0860244631767273,0.13097602128982544
286,-0.13343370689228182,-0.7339461198772732,0.584126562371875,-0.09878572076559067,0.6698049902915955,-0.7359365820884705,0.9517733454704285,-0.12241249531507492,0.0891355350613594,0.10191376507282257,-0.01939910650253296,-0.09470611810684204
287,-0.12284759647480242,-0.7002545192356205,0.6032191043464661,-0.0937027782201767,0.6444123387336731,-0.758915364742279,0.8945292234420776,-0.3970510959625244,0.12222826480865479,0.0333695262670517,-0.030841171741485596,-0.15043210983276367
288,-0.13692163131573679,-0.6508923618423235,0.6053941182967298,-0.10858707129955292,0.605896532535553,-0.7880978584289551,1.0239287614822388,-0.02567499317228794,0.22587348520755768,0.06575563549995422,-0.05154472589492798,-0.09862089157104492
289,-0.12320643993374149,-0.6011705634480182,0.5874962212169672,-0.10134829580783844,0.5656082034111023,-0.818422794342041,0.5553154945373535,0.0193202942609787,-0.19566233456134796,0.07545413076877594,0.0905349850654602,-0.14701604843139648
290,-0.06714318808675016,-0.4356112577296561,0.6181912185333545,-0.0608271099627018,0.4219646453857422,-0.9045694470405579,0.8246455788612366,0.7980538010597229,-0.10570678859949112,-0.053247593343257904,0.022905349731445312,0.21369725465774536
291,0.0010992438816227056,-0.27082055457838916,0.6731052194404377,0.001059178146533668,0.2675221860408783,-0.9635511040687561,1.6138683557510376,-0.2052016258239746,0.35467347502708435,-0.09471762925386429,0.0858408510684967,0.20552504062652588
292,0.007524029169710937,-0.11203477414433032,0.7112711974486965,0.007476788014173508,0.11180055141448975,-0.9937025308609009,1.300511360168457,0.45879465341567993,1.1968154907226562,0.1092071682214737,0.07098447531461716,0.13133686780929565
293,-0.001956895000124047,0.08977647793482668,0.7659042146870354,-0.001949012978002429,-0.08965592831373215,-0.9959709048271179,2.1607134342193604,-0.6945016384124756,0.35378697514533997,0.016811072826385498,0.07029253244400024,-0.02609330415725708
294,-0.06358731264869036,0.34318866027641853,0.7908679774983878,-0.05983896926045418,-0.33649152517318726,-0.9397833347320557,2.072204113006592,-0.5052810907363892,-0.25447842478752136,-0.03743581473827362,0.050877511501312256,-0.08803343772888184
295,-0.09255608383209886,0.5777289164350505,0.8474173833063562,-0.0774240493774414,-0.5461228489875793,-0.8341194987297058,1.018249750137329,0.43763017654418945,0.09389754384756088,-0.053786277770996094,-0.017887771129608154,0.2319771647453308
296,-0.036307915685350765,0.6648905267903813,0.8667527370392352,-0.0285674836486578,-0.6169729828834534,-0.7864656448364258,1.1034879684448242,0.3210547864437103,-0.0026263967156410217,0.005221530795097351,0.01324373483657837,0.04353046417236328
297,-0.07374521339829047,0.7680410039632423,0.8747066195495575,-0.052994873374700546,-0.6947275400161743,-0.717318058013916,1.204738974571228,-0.31865090131759644,0.0755336731672287,0.04457202926278114,0.07911169528961182,-0.04205077886581421
298,-0.11499073762836315,0.8445300640563906,0.9021149647785635,-0.07619518041610718,-0.7476591467857361,-0.6596969962120056,0.43877112865448,0.16412365436553955,-0.19391506910324097,-0.02297167479991913,0.02091348171234131,0.026991307735443115
299,-0.12042204009014286,0.8748016592890268,0.9156612100463013,-0.0770220085978508,-0.7674163579940796,-0.6365059018135071,0.08372589945793152,-0.13898907601833344,-0.22965916991233826,-0.058003008365631104,-0.04741823673248291,-0.04092329740524292
300,-0.12621265305216808,0.9105443993019349,0.9280087283458461,-0.07720287889242172,-0.7898377180099487,-0.6084374189376831,-0.005929620936512947,0.3699604272842407,-0.10395775735378265,-0.09056751430034637,-0.024752676486968994,0.036965250968933105
301,-0.0938763144609817,0.9339082047119888,0.9290570203095232,-0.05574595928192139,-0.8039502501487732,-0.5920780301094055,0.3338685631752014,-0.36758971214294434,0.08358995616436005,-0.03589832782745361,-0.04529291391372681,0.010168850421905518
302,-0.07545461908341297,0.9628709572784774,0.9186726005169324,-0.043056219816207886,-0.820834755897522,-0.5695406794548035,0.09331853687763214,0.3695639967918396,-0.016791462898254395,0.0033681094646453857,-0.025081992149353027,-0.005959808826446533
303,-0.093889461862064,0.9974337582506103,0.9269720395182612,-0.05085647478699684,-0.8400816917419434,-0.5400707125663757,0.4900569021701813,-0.25544777512550354,0.2146815061569214,0.013701323419809341,0.07599782943725586,0.004990756511688232
304,-0.08378448819125213,1.0145721074309313,0.9254883884544131,-0.044185083359479904,-0.8492547273635864,-0.5261313319206238,0.14582215249538422,0.007000552956014872,-0.020482689142227173,0.0013231635093688965,-0.038684725761413574,0.0015646815299987793
305,-0.07524558734985055,1.0352690206526842,0.9109662664382866,-0.038361188024282455,-0.8599996566772461,-0.508850634098053,0.34375515580177307,-0.3194721043109894,0.14209933578968048,0.028275135904550552,0.02863985300064087,0.02136284112930298
306,-0.09968964023599136,1.0665438967808805,0.9214018196278976,-0.04808562621474266,-0.8755359053611755,-0.4807543456554413,0.2960200607776642,-0.10828875005245209,0.14742650091648102,0.030812643468379974,0.01916682720184326,0.02665269374847412
307,-0.07772627804574098,1.0708315189269515,0.9012839963114124,-0.03722405061125755,-0.8775994181632996,-0.4779472351074219,-0.005827407352626324,0.2939984202384949,-0.08053111284971237,0.02278924360871315,0.055272817611694336,-0.007297486066818237
308,-0.07994012288052757,1.0803373395256712,0.8852195635033159,-0.03761417046189308,-0.8821167349815369,-0.46952658891677856,-0.3515987992286682,0.2676115334033966,-0.35591596364974976,-0.08235043287277222,0.05521249771118164,0.058897316455841064
309,0.0003109134951397385,1.0539025839019136,0.8421110108907757,0.000153647837578319,-0.8693584203720093,-0.49418193101882935,-0.27207162976264954,-0.7080223560333252,-0.23798628151416779,0.06614577770233154,-0.03718137741088867,0.05723130702972412
310,-0.00429277107508621,1.0492930906171138,0.8349974804676684,-0.0021385836880654097,-0.867071270942688,-0.49817949533462524,0.2522755563259125,-0.04763231799006462,0.3287888169288635,0.06234976649284363,0.06629002094268799,0.026698172092437744
311,-0.08600917937719198,1.0832389742521167,0.8712909162232296,-0.040243007242679596,-0.8834797739982605,-0.46673765778541565,-0.1492592692375183,0.03625097870826721,-0.28274005651474,-0.003900676965713501,-0.062122642993927,0.05436891317367554
312,-0.06663264215092518,1.0568919095067768,0.8579887011117756,-0.03273111954331398,-0.8708317875862122,-0.4904903173446655,0.320975661277771,-0.22964997589588165,0.1061154380440712,-0.012404382228851318,-0.0007807612419128418,-0.10415995121002197
313,-0.05362534587652168,1.0543552874210051,0.8423840095284889,-0.026466887444257736,-0.8695820569992065,-0.49307864904403687,-0.16756199300289154,0.16788668930530548,-0.3447785973548889,-0.03595682978630066,-0.003007054328918457,-0.013269007205963135
314,-0.05116982802990749,1.0508937964012561,0.8417260073581314,-0.025409843772649765,-0.8678675889968872,-0.4961451590061188,-0.0075317686423659325,-0.5161526799201965,-0.06423179805278778,-0.023204650729894638,-0.026526212692260742,0.003164231777191162
315,0.01172381169963031,1.04777480106442,0.8042031471200103,0.005855909548699856,-0.8663138747215271,-0.499465674161911,0.17582599818706512,0.05408976972103119,0.0050131650641560555,0.09459269046783447,0.000850677490234375,0.01277133822441101
316,-0.03822055050293993,1.0636257282809827,0.8352475593830152,-0.018559426069259644,-0.8741222620010376,-0.4853511154651642,-0.19619642198085785,0.17737320065498352,-0.11521953344345093,-0.06307509541511536,-0.01900506019592285,0.05863910913467407
317,-0.020421203445921302,1.046818498752646,0.8303780019949796,-0.010216595605015755,-0.8658357858657837,-0.5002239346504211,0.0845232605934143,-0.17117057740688324,-0.08143658936023712,-0.024512410163879395,-0.03316622972488403,0.020304560661315918
318,0.01258846166964968,1.017449633862846,0.8062251511423846,0.006615533959120512,-0.8507704734802246,-0.5254958271980286,0.19614346325397491,-0.11198896914720535,0.06802331656217575,-0.002343088388442993,0.007371425628662109,-0.13044899702072144
319,0.00654236900331579,1.0213269370777973,0.8043052958855141,0.003416628809645772,-0.8528017401695251,-0.522223711013794,-0.6136422157287598,0.24282146990299225,-0.13817961513996124,0.039079099893569946,0.010821759700775146,0.07549214363098145
320,0.0046536160071815845,1.0119623970594664,0.8098514971393381,0.0024673284497112036,-0.8478739261627197,-0.5301921367645264,-0.16488449275493622,0.33918628096580505,-0.029465600848197937,-0.004176288843154907,-0.009334325790405273,0.10761523246765137
321,0.04866566228635617,0.9582528555667117,0.781276615427178,0.027969293296337128,-0.8181883096694946,-0.5742695927619934,-0.7462888956069946,0.007159062661230564,-0.22702278196811676,0.020187435671687126,0.043621718883514404,0.05222064256668091
322,0.05613043354896764,0.8545656638543901,0.792848544684722,0.03683286905288696,-0.7542858123779297,-0.6555121541023254,-0.6124526262283325,-0.14438141882419586,-0.14135730266571045,-0.08750730752944946,0.025571882724761963,-0.059041619300842285
323,0.05154034661987744,0.7684170119850247,0.7723179923392649,0.03704170882701874,-0.6949979066848755,-0.7180569171905518,-1.033764362335205,0.01289914920926094,-0.14851002395153046,-0.008431468158960342,-0.012170612812042236,-0.007467925548553467
324,0.07951577513394698,0.7082577488783208,0.7406195148360039,0.060328323394060135,-0.6505115032196045,-0.7570965886116028,-0.6922674179077148,0.10171821713447571,-0.042535677552223206,0.039342086762189865,0.04252511262893677,-0.04553091526031494
325,0.06090333184023947,0.6683340165141662,0.755831914265493,0.047770749777555466,-0.6196792721748352,-0.7833999991416931,-0.46523362398147583,-0.26992595195770264,0.29247063398361206,0.05679774284362793,0.024281322956085205,0.11408847570419312
326,0.036444975466333344,0.5536814202597103,0.7702452776474956,0.030993033200502396,-0.5258221626281738,-0.8500296473503113,-2.280951499938965,-0.19389547407627106,0.013388491235673428,0.02157348394393921,0.05182313919067383,0.25765299797058105
327,-0.038732390312612615,0.27997854060762256,0.7511930052320156,-0.03721489757299423,-0.2763350307941437,-0.9603405594825745,-2.8818869590759277,-1.0213404893875122,-0.3595278263092041,-0.01306280866265297,0.03874042630195618,0.07952696084976196
328,-0.08389409070349339,0.04998937281377515,0.6841796593059797,-0.08369103819131851,-0.04996855556964874,-0.9952381253242493,-2.2727441787719727,0.09356030076742172,-0.5118327736854553,0.004238530993461609,0.07140715420246124,-0.11163437366485596
329,-0.09895482993905667,-0.02163885734476356,0.6940592930011903,-0.09877028316259384,0.021637167781591415,-0.9948750138282776,0.025015536695718765,-0.12687820196151733,0.23680202662944794,-0.06451401859521866,-0.005615439265966415,-0.1770762801170349
330,-0.10046415955500812,0.0033454118641762886,0.7097679722780372,-0.10029468685388565,-0.0033454056829214096,-0.9949521422386169,0.4087884724140167,-0.10349136590957642,0.2833471894264221,0.019636735320091248,-0.02428826317191124,0.04373455047607422
331,-0.10215077476690523,-0.004573498808345285,0.7148317183698855,-0.10197214782238007,0.004573483020067215,-0.994776725769043,0.05452941730618477,0.0034924133215099573,-0.11560752987861633,-0.006731465458869934,-0.004680294543504715,-0.07080554962158203
332,-0.09561439143464301,-0.006199698579201949,0.7168019147853907,-0.09546693414449692,0.00619965884834528,-0.9954133033752441,-0.14803381264209747,0.1285400539636612,0.09150462597608566,-0.008735336363315582,-0.0024002213031053543,-0.03840017318725586
333,-0.0808811206994976,0.0011158759155589547,0.7104254498766325,-0.08079291880130768,-0.0011158756678923965,-0.9967302680015564,-0.004381968639791012,0.23709137737751007,0.030549073591828346,0.04763557016849518,0.00370987132191658,0.030559062957763672
334,-0.07907554595093041,0.0011466321643314218,0.7196938536837482,-0.07899311184883118,-0.0011466318974271417,-0.9968745112419128,0.039016637951135635,-0.029825741425156593,-0.04043315723538399,-0.04040692001581192,-0.010343236848711967,-0.0016148686408996582
335,-0.07939026646387448,0.0047682998174950544,0.7213738844994847,-0.0793059915304184,-0.0047682817094028,-0.9968389272689819,0.1748979687690735,-0.023560846224427223,0.13285967707633972,0.016439780592918396,0.019462494179606438,-0.009813904762268066
336,-0.06785817077557191,0.008358141259013985,0.7267912962560141,-0.06780373305082321,-0.008358043618500233,-0.997663676738739,0.15529844164848328,0.09160926938056946,0.1183127909898758,-0.01900351792573929,0.020046276971697807,-0.026185810565948486
337,-0.05862856791246142,0.008775381349066651,0.7360317485696225,-0.05859272927045822,-0.00877526868134737,-0.9982433915138245,0.05337001383304596,-0.014739817008376122,0.03801735118031502,-0.0051584914326667786,-0.0044541023671627045,0.018095076084136963
338,-0.06113917124997708,0.00971944246011434,0.7320480827736071,-0.06109820306301117,-0.00971928983926773,-0.9980844259262085,-0.01345735415816307,-0.049485981464385986,-0.041561394929885864,0.01550494134426117,0.014190113171935081,-0.020729660987854004
339,-0.06374210356015886,0.006340769257288963,0.7338450777747357,-0.06369766592979431,-0.0063407267443835735,-0.9979491233825684,-0.021488182246685028,0.020115584135055542,0.06014171615242958,0.01578506827354431,-0.02123190462589264,-0.0035309791564941406
340,-0.06352022379838279,0.006094381069647953,0.7296913575024142,-0.06347633898258209,-0.0060943434946238995,-0.9979647397994995,-0.07191015034914017,0.004452296532690525,-0.15744903683662415,-0.0005037635564804077,0.0016692951321601868,-0.010473370552062988
341,-0.0628419537932739,0.011363809466044355,0.7285388386129125,-0.06279654800891876,-0.011363564990460873,-0.9979616403579712,-0.09707455337047577,0.05566687881946564,-0.03101407177746296,-0.0013208836317062378,-0.022465169429779053,0.03714621067047119
342,-0.059817178402969434,0.00509657803587064,0.7281390928044258,-0.05978073552250862,-0.005096556153148413,-0.9981985092163086,0.11005046963691711,0.004601709544658661,0.11725989729166031,-0.022952411323785782,0.03726208582520485,-0.04998868703842163
343,-0.05606858316620924,0.009526572945466768,0.7247921028588004,-0.05603666603565216,-0.009526428766548634,-0.9983832836151123,-0.2654658257961273,-0.09046058356761932,-0.05260692909359932,0.02872343361377716,0.002141175791621208,0.0820014476776123
344,-0.05438914671290768,0.013363281562748268,0.7265098535221038,-0.05435748025774956,-0.0133628835901618,-0.9984320998191833,0.16474734246730804,-0.007135180756449699,0.07126563787460327,-0.012689635157585144,0.0123710623010993,0.057407379150390625
345,-0.05384731186178369,0.006060010121259438,0.7211361516212438,-0.053820304572582245,-0.006059973035007715,-0.998532235622406,-0.043531499803066254,-0.0681801438331604,-0.021339714527130127,0.026110347360372543,0.03355631232261658,0.006360054016113281
346,-0.05528488953404955,0.011273501175112506,0.7330630640698147,-0.05525321885943413,-0.011273262090981007,-0.9984087347984314,0.06437891721725464,-0.16623304784297943,0.11907114833593369,0.013535693287849426,-0.08438408374786377,0.0740770697593689
347,-0.07541328843640453,-0.010936918737072395,0.7181606031135921,-0.07533732056617737,0.010936700738966465,-0.9970981478691101,-0.025396570563316345,0.05311174690723419,0.07931067049503326,0.05157938599586487,0.05345539003610611,-0.08746606111526489
348,-0.08080234979877453,-0.01886907460534313,0.7205646249789689,-0.08070008456707001,0.01886795461177826,-0.9965598583221436,-0.293472558259964,-0.12024319171905518,-0.10918932408094406,-0.0037725716829299927,-0.01758621633052826,-0.014548540115356445
349,-0.08424410964363802,-0.016983448421538656,0.7226569341703959,-0.0841323658823967,0.016982631757855415,-0.9963098764419556,-0.3152739405632019,-0.23987683653831482,-0.04788840189576149,-0.0399826243519783,0.021500032395124435,0.10553228855133057
350,-0.09157902261381644,-0.02478571960517061,0.7221843490357547,-0.09142298251390457,0.02478318102657795,-0.9955037236213684,-0.04472232982516289,0.03473246842622757,-0.005096885375678539,-0.028572142124176025,-0.0510283000767231,0.009145081043243408
351,-0.09942789672871853,-0.0316233296310096,0.7145327254626156,-0.09921452403068542,0.03161805868148804,-0.994563639163971,-0.045309294015169144,-0.02537066675722599,0.08362674713134766,0.007661797106266022,0.03758054971694946,-0.06317561864852905
352,-0.0915104053779828,-0.01804221938643432,0.7207969325795741,-0.09136786311864853,0.01804124005138874,-0.9956537485122681,0.01563122309744358,-0.039768196642398834,-0.03739996254444122,-0.012788623571395874,-0.04532395675778389,0.14985913038253784
353,-0.09572092852243784,-0.03914902131703047,0.7092878997312964,-0.09550158679485321,0.039139021188020706,-0.9946595430374146,-0.04734787717461586,-0.02542293444275856,-0.04474121704697609,0.06602160632610321,-0.005050890147686005,-0.02056872844696045
354,-0.10197008214195456,-0.0382258663942348,0.7141524249290322,-0.10171909630298615,0.03821655735373497,-0.9940788149833679,0.3165987730026245,-0.030105402693152428,0.011729282326996326,0.011020869016647339,-0.08365723490715027,-0.035767316818237305
355,-0.11290112979490667,-0.034928619555012606,0.6990105593115044,-0.11259271204471588,0.034921519458293915,-0.99302738904953,-0.025724073871970177,-0.3599141836166382,-0.05547036603093147,0.09148980677127838,0.043630726635456085,0.03749150037765503
356,-0.13513608847701836,-0.03193199205800873,0.7051756868439174,-0.13465647399425507,0.03192656487226486,-0.9903778433799744,0.05984162539243698,-0.2749055027961731,-0.07928077131509781,-0.02678149938583374,0.07746368646621704,0.11792612075805664
357,-0.17158757535255895,-0.031179328580158906,0.7153771407353621,-0.17066383361816406,0.031174277886748314,-0.9848360419273376,0.17163953185081482,-0.2983402907848358,0.05874256417155266,-0.012914657592773438,-0.035797689110040665,0.053790509700775146
358,-0.2171239150886675,-0.02847409119206761,0.703526616827694,-0.21533463895320892,0.028470244258642197,-0.9761252403259277,0.5901686549186707,-0.48975151777267456,0.3259505331516266,0.06692765653133392,0.09373739361763,-0.09598779678344727
359,-0.2681898729005033,0.0016359927550032491,0.7168037292525734,-0.2649860978126526,-0.0016359919682145119,-0.9642508625984192,0.009900831617414951,-0.6111939549446106,-0.14818236231803894,0.002092421054840088,0.0020937547087669373,0.03279334306716919
360,-0.3003271448508848,-0.01364450692108981,0.7066920246531895,-0.2958051860332489,0.0136440834030509,-0.955150842666626,-0.1276458501815796,-0.33648380637168884,0.0861547589302063,-0.005723744630813599,0.013119831681251526,-0.08110404014587402
361,-0.3496106392985265,0.004174904339562583,0.7056135867995531,-0.3425290286540985,-0.004174892324954271,-0.9394979476928711,0.12484046816825867,-0.5056700706481934,0.011243591085076332,-0.011703729629516602,0.046334922313690186,-0.005509316921234131
362,-0.3819687906832518,0.015268861100571858,0.7095268920579828,-0.3727046549320221,-0.015268268063664436,-0.9278244376182556,0.5196262001991272,-0.44860079884529114,-0.16039173305034637,-0.005865871906280518,-0.010854779742658138,0.017332494258880615
363,-0.44482886517642256,0.02974023453020394,0.6975421603041322,-0.43011313676834106,-0.029735850170254707,-0.9022851586341858,-0.07353733479976654,0.06990423798561096,0.011566853150725365,0.0074446797370910645,-0.016681388020515442,-0.03410094976425171
364,-0.5241900253052292,0.0755451600641777,0.6829949336801241,-0.4990844130516052,-0.07547332346439362,-0.8632604479789734,0.6946659684181213,-0.8410703539848328,-0.058867111802101135,0.08332818746566772,-0.035366520285606384,-0.07402598857879639
365,-0.5641656364307679,0.10839318533565535,0.6914443287248985,-0.5315728187561035,-0.10818105936050415,-0.8400757312774658,0.22730085253715515,-0.7589192986488342,-0.06883207708597183,0.048571109771728516,0.10265739262104034,0.07847905158996582
366,-0.5939097420606936,0.10982454651975293,0.6926351533615186,-0.5562341213226318,-0.10960390418767929,-0.8237661123275757,0.25005704164505005,-0.10102630406618118,-0.09286222606897354,0.045766592025756836,0.01831059157848358,0.08066308498382568
367,-0.7201627383205654,0.14993756963352667,0.7603968885542876,-0.6521075963973999,-0.14937640726566315,-0.7432646751403809,0.004630367737263441,-0.13954919576644897,0.5424996614456177,0.017189383506774902,0.04659318923950195,0.31890249252319336
368,-0.8239695766200458,0.11095059402138482,0.8105536467705855,-0.7293359637260437,-0.1107231006026268,-0.6751366257667542,0.1286904662847519,-2.550018548965454,1.6398893594741821,0.11527657508850098,0.1791435182094574,0.23002249002456665
369,-0.8781472342438159,-0.039391282359749216,0.7567113329162429,-0.7689601182937622,0.03938109427690506,-0.6380826830863953,0.09255217015743256,-0.6593713164329529,0.4972343444824219,0.10036575794219971,0.003892838954925537,-0.02785658836364746
370,-1.0285935896300664,-0.2104788931972762,0.6808631013101184,-0.8376703262329102,0.20892824232578278,-0.5046359300613403,-1.3551405668258667,-0.812099277973175,0.6424533128738403,-0.22627925872802734,0.06899534165859222,-0.19114959239959717
371,-1.2134544126817441,-0.2920672037500551,0.655224763527063,-0.89715576171875,0.28793248534202576,-0.3349721133708954,-0.9044712781906128,-2.1965811252593994,1.1561343669891357,-0.12930291891098022,0.13981708884239197,-0.014805108308792114
372,-1.3425677675275276,-0.36352353602805276,0.6285146961615249,-0.9104130268096924,0.3555697202682495,-0.2114667147397995,0.6916037797927856,-1.4958512783050537,0.7786759734153748,0.08341723680496216,0.1142178475856781,-0.1644946187734604
373,-1.476503916844653,-0.45664995698922395,0.6339195179072674,-0.893547773361206,0.44094380736351013,-0.08450537174940109,-0.5747624635696411,-0.9975942969322205,1.1061922311782837,-0.1430124044418335,0.10884565114974976,-0.2064186930656433
374,-1.5221661399637327,-0.5074464246185096,0.6288899578426357,-0.8729550838470459,0.48594704270362854,-0.04248546436429024,0.20620544254779816,-0.5074673891067505,0.17166176438331604,-0.1081697940826416,0.06214866042137146,-0.18964648246765137
375,-1.5151057444643734,-0.5236950382111959,0.6976291475185913,-0.8646346926689148,0.5000833868980408,-0.048201851546764374,1.085910677909851,-0.13826139271259308,0.04996990039944649,-0.17302393913269043,0.04373985528945923,-0.1283118724822998
376,-1.4676811899962188,-0.5223194516329833,0.7968875056838485,-0.8620609641075134,0.4988916516304016,-0.08920793235301971,0.9318703413009644,0.16719171404838562,0.3444845378398895,0.030533254146575928,0.06991022825241089,-0.015116393566131592
377,-1.441208410764676,-0.5414205641385449,0.90408838765136,-0.8497917652130127,0.5153539180755615,-0.11074335128068924,0.8962650895118713,-0.9075372815132141,0.36334869265556335,0.15647828578948975,-0.0395544171333313,0.03391541540622711
378,-1.4869719846066791,-0.5867820878965126,0.9967722161446795,-0.8298028111457825,0.5536842346191406,-0.0697210505604744,0.5934864282608032,-1.1375948190689087,0.591665506362915,-0.07270872592926025,0.0543021559715271,0.00017149001359939575
379,-1.4863615968257107,-0.6296705453752179,1.1067704886734142,-0.8053422570228577,0.5888785123825073,-0.06816091388463974,0.8070635199546814,-0.023750323802232742,0.45082709193229675,0.02758657932281494,-0.0133933424949646,0.12513720989227295
380,-1.5211999502979656,-0.6452753110339922,1.1128775276288072,-0.797951877117157,0.6014184355735779,-0.03960800543427467,-0.2531919777393341,-0.3648650050163269,-0.09294696897268295,-0.19168740510940552,0.2091437578201294,-0.11407852172851562
381,-1.4919501684279441,-0.6386660655216919,1.1534520187808948,-0.8003970980644226,0.5961249470710754,-0.06323933601379395,0.24117259681224823,-0.20093683898448944,0.017421673983335495,0.08033496141433716,-0.10578387975692749,0.11066365987062454
382,-1.5157360682387346,-0.6322007640430166,1.1298362222071983,-0.8055062890052795,0.5909215807914734,-0.044396258890628815,0.657623291015625,0.23276734352111816,0.0688008964061737,0.06611126661300659,-0.02906256914138794,-0.2174597978591919
383,-1.4728633971750462,-0.6290576911654002,1.195468060659474,-0.8047078847885132,0.5883830785751343,-0.07906031608581543,0.10936097055673599,0.007353007793426514,0.21373029053211212,-0.0016123056411743164,0.07438236474990845,0.08380580693483353
384,-1.4588940330894806,-0.6416072583462149,1.2326196160391223,-0.7961242198944092,0.5984838604927063,-0.08946185559034348,0.17545223236083984,-0.027841052040457726,0.3274496793746948,0.02129805088043213,-0.025302648544311523,0.14018207788467407
385,-1.4967718923755664,-0.654917004481607,1.2250578143745963,-0.7909266352653503,0.609093427658081,-0.05865507200360298,-0.2905384302139282,-0.315659761428833,-0.12100844830274582,-0.10845690965652466,0.18207478523254395,-0.0313260555267334
386,-1.5054516722246383,-0.6730271996915181,1.2471102907313742,-0.7802695035934448,0.6233559250831604,-0.051059138029813766,0.20594251155853271,-0.10092314332723618,0.11100775003433228,-0.09306728839874268,0.0760001540184021,0.03540360927581787
387,-1.5332137709042981,-0.6828235205667098,1.2686485051990977,-0.7752464413642883,0.6309860348701477,-0.02914946712553501,-0.05460313335061073,-0.2640029489994049,0.07943546772003174,-0.12491530179977417,0.11909031867980957,-0.03269439935684204
388,-1.515881983234659,-0.676268068132156,1.2931735858467461,-0.7787383794784546,0.6258867979049683,-0.042806945741176605,-0.1838018000125885,0.15990401804447174,-0.17994539439678192,-0.10199904441833496,-0.029222309589385986,0.08661490678787231
389,-1.52419565837199,-0.6374849422909752,1.2726361593402102,-0.8027227520942688,0.5951762199401855,-0.037434518337249756,0.20394852757453918,-0.00041390908882021904,0.008891256526112556,0.10113894939422607,0.004936695098876953,0.004857003688812256
390,-1.514450050019743,-0.631537909441601,1.2905832489373652,-0.8058395981788635,0.5903867483139038,-0.045454174280166626,-0.4151877462863922,-0.012487893924117088,0.20808538794517517,0.16242223978042603,0.08386862277984619,0.10371220111846924
391,-1.553937308822572,-0.6481943638402222,1.2742763096593108,-0.7970617413520813,0.6037479639053345,-0.013438952155411243,0.7983396053314209,-0.025592409074306488,-0.40796351432800293,-0.16415029764175415,-0.0247839093208313,-0.18457436561584473
392,-1.5282596991242232,-0.6322086293707128,1.287118309751935,-0.8059946298599243,0.5909279584884644,-0.034304987639188766,-0.19527576863765717,-0.24276062846183777,-0.03516267240047455,-0.03203326463699341,0.032515645027160645,-0.08305037021636963
393,-1.503574678059691,-0.6283882289828133,1.3105174657946341,-0.8071489334106445,0.5878416299819946,-0.054339755326509476,-0.1688525378704071,0.3923368453979492,-0.4575658440589905,-0.08956432342529297,-0.02702009677886963,0.11111772060394287
394,-1.501667924390224,-0.6043136154839356,1.2823611058555493,-0.8209269046783447,0.5681973695755005,-0.05683993548154831,0.006473531015217304,0.34464025497436523,-0.22350004315376282,0.025058984756469727,-0.007925152778625488,-0.039565086364746094
395,-1.5008530364402215,-0.5981263499900327,1.2785966784638068,-0.8243715763092041,0.5630950927734375,-0.05775346979498863,-0.23367461562156677,-0.1232207864522934,-0.027953043580055237,-0.0188138484954834,-0.08404541015625,-0.001206517219543457
396,-1.5115809064422823,-0.5874359138647814,1.2605093254701332,-0.830905556678772,0.5542286038398743,-0.049260009080171585,0.10725107789039612,-0.22297121584415436,0.2980906367301941,0.13347214460372925,-0.05418288707733154,-0.08338463306427002
397,-1.5246671829790208,-0.5649660646318119,1.2558534109051043,-0.8437083959579468,0.5353871583938599,-0.038947176188230515,-0.5863102674484253,0.3257252275943756,-0.4201284348964691,0.09756875038146973,-0.015688002109527588,0.010428544133901596
398,-1.527741315765797,-0.560465393412516,1.2572247856936274,-0.8462227582931519,0.5315804481506348,-0.03645665943622589,-0.1206897497177124,-0.06760188192129135,-0.03611228987574577,-0.018279075622558594,0.03090423345565796,0.024173323065042496
399,-1.5141343419270523,-0.5582188091355827,1.2742160209965203,-0.8468385934829712,0.5296762585639954,-0.048034973442554474,0.20068562030792236,-0.10261954367160797,0.010819775983691216,0.07283663749694824,-0.04147130250930786,0.06443817168474197
400,-1.5226162120188746,-0.5645638835786995,1.2708248485035423,-0.8438416123390198,0.5350474119186401,-0.04068787395954132,0.44628986716270447,-0.20200912654399872,0.13703478872776031,0.01795971393585205,-0.03257554769515991,-0.14748352766036987
401,-1.5241976216320932,-0.5525408815317524,1.2877358057343586,-0.850269615650177,0.5248516798019409,-0.039650168269872665,-0.3092309832572937,-0.034832023084163666,-0.26503893733024597,-0.015666604042053223,0.03923517465591431,0.042839232832193375
402,-1.5289220077660488,-0.5452646476397235,1.2987740076196361,-0.8542406558990479,0.518644392490387,-0.03579166904091835,0.3144952654838562,-0.3115154802799225,-0.23749707639217377,-0.06298041343688965,-0.06004148721694946,0.04661017656326294
403,-1.5406745639934547,-0.5255175794278998,1.2749177471709845,-0.8646721243858337,0.5016608238220215,-0.026053329929709435,0.02573956921696663,-0.1675644814968109,0.1480245739221573,0.023317694664001465,0.05650573968887329,-0.10785782337188721
404,-1.55066058059196,-0.5140325066244931,1.281840474805329,-0.8705924153327942,0.49169260263442993,-0.01753239706158638,0.013216122053563595,0.1965482532978058,0.10945233702659607,0.036394357681274414,0.04610341787338257,-0.0400390625
405,-1.5564356561587929,-0.4993275098976305,1.29120727904352,-0.8778142333030701,0.47883525490760803,-0.012606867589056492,-0.27512791752815247,0.13199597597122192,-0.19710204005241394,-0.0016717910766601562,0.0005806386470794678,0.03026127815246582
406,-1.5565513079982964,-0.503488819857442,1.3029010366327327,-0.8758158087730408,0.4824843406677246,-0.012476855888962746,0.13980475068092346,-0.3693165183067322,0.004533294588327408,-0.084389328956604,-0.04779195785522461,0.05382812023162842
407,-1.5468569809127661,-0.5052886151423208,1.3101146864944588,-0.8747841119766235,0.48406001925468445,-0.02094576135277748,0.5164066553115845,-0.39859020709991455,0.4160100519657135,0.09576189517974854,-0.02368706464767456,-0.048191845417022705
408,-1.5488681196957912,-0.5421090402791302,1.32314388617148,-0.8564165830612183,0.5159437656402588,-0.018782690167427063,-0.015361731871962547,-0.08412297815084457,0.4609444737434387,0.0031298398971557617,0.06320357322692871,-0.03184598684310913
409,-1.555633029840254,-0.5779900524124931,1.3235805232913447,-0.837466299533844,0.546341598033905,-0.012699724175035954,0.3584015965461731,-0.5168294310569763,0.12502436339855194,-0.004681587219238281,-0.07533317804336548,0.00413954071700573
410,-1.620693347689632,-0.570577373935608,1.3012348551345811,-0.8405418395996094,0.5401180386543274,0.04197537526488304,-0.3632015287876129,-0.19241443276405334,-0.12654121220111847,-0.019443511962890625,0.03423798084259033,-0.12368619441986084
411,-1.6212981953884995,-0.574486279490767,1.3198954323851395,-0.8384013772010803,0.5434036254882812,0.042376868426799774,-0.09715059399604797,0.1305510550737381,0.029239216819405556,0.05568647384643555,-0.0239180326461792,0.07665693759918213
412,-1.6440030478987668,-0.5799620506433388,1.3073073363247532,-0.8342429399490356,0.5479921698570251,0.06118152290582657,-0.09103218466043472,-0.22820590436458588,0.06561648100614548,0.05145186185836792,-0.015063762664794922,-0.011437896639108658
413,-1.7335795682400004,-0.5909717034645244,1.3283776208722171,-0.8194217681884766,0.557168185710907,0.13457894325256348,0.12515389919281006,-1.4996991157531738,-0.14138810336589813,-0.09653282165527344,-0.06163907051086426,0.06673026084899902
414,-1.9109495817197,-0.5541256597630412,1.2740309978327822,-0.801638126373291,0.526199996471405,0.2837072014808655,-0.7770280838012695,-1.5264016389846802,-0.40369629859924316,-0.06745666265487671,0.022536516189575195,-0.07513478398323059
415,-2.016146205818525,-0.5257785593353619,1.2567145321577553,-0.7805677652359009,0.5018865466117859,0.3725905120372772,0.2901967763900757,-0.7155333757400513,-0.037875834852457047,-0.027690231800079346,-0.003305673599243164,-0.128327876329422
416,-2.0250357465232707,-0.5502690647873826,1.295587605064825,-0.7659477591514587,0.5229166150093079,0.37400805950164795,0.39667657017707825,0.13950306177139282,-0.008626465685665607,-0.04380553960800171,-0.021955370903015137,-0.0035094618797302246
417,-2.0094995595002993,-0.6049643558699548,1.353645357673134,-0.7446322441101074,0.568732738494873,0.34937945008277893,0.5572388172149658,-0.4403820037841797,0.1835026741027832,-0.06075716018676758,-0.03522443771362305,0.0971231460571289
418,-2.0416724457796436,-0.6540740523214723,1.3679013994400582,-0.7072437405586243,0.6084246635437012,0.36003556847572327,0.3012823164463043,-1.0913949012756348,0.2509095072746277,-0.013993442058563232,-0.03799009323120117,0.07693028450012207
419,-2.137807413892205,-0.6643839321853101,1.3917248015823218,-0.6640927791595459,0.616574227809906,0.4228675365447998,0.1460389345884323,-1.5133674144744873,-0.05627332627773285,-0.004333674907684326,-0.036374032497406006,0.04487535357475281
420,-2.197687930141695,-0.6267452578557079,1.404154481937778,-0.6559346318244934,0.5865117311477661,0.47513583302497864,0.05686764419078827,-0.68699711561203,-0.4550197422504425,0.028569459915161133,-0.013116896152496338,-0.11554712057113647
421,-2.180879784237406,-0.6155857903625115,1.43086132471733,-0.6691504120826721,0.5774368643760681,0.4677649736404419,0.3358927071094513,0.5090473294258118,-0.09239707887172699,0.01615065336227417,0.016053617000579834,-0.048560380935668945
422,-2.1249790156814496,-0.6347985905586957,1.4569237101197792,-0.6846789717674255,0.5930153727531433,0.4237307012081146,0.49535810947418213,0.32543042302131653,0.15742842853069305,0.03714168071746826,-0.051236748695373535,-0.07378560304641724
423,-2.080246858366015,-0.6428002612004564,1.4805747345883147,-0.6987770199775696,0.5994392037391663,0.39036309719085693,-0.6934812664985657,0.7288256287574768,-0.03330259025096893,0.04235917329788208,0.00836414098739624,0.15271246433258057
424,-2.0691531949612187,-0.6388750735828925,1.4664492799837576,-0.7051257491111755,0.5962927937507629,0.3837088942527771,-0.0820782482624054,0.25989511609077454,0.023740852251648903,-0.04142570495605469,-0.004785895347595215,0.0374336838722229
425,-2.0642284725754902,-0.6243944353974693,1.4421486513289876,-0.7145370244979858,0.5846060514450073,0.3842814862728119,0.16675648093223572,-0.07449335604906082,0.005617810413241386,0.007368505001068115,0.014163970947265625,-0.12219661474227905
426,-2.0537449853723944,-0.622194360140044,1.4544449093331262,-0.7196637392044067,0.5828197002410889,0.3773660957813263,-0.32742083072662354,0.16357769072055817,-0.11763807386159897,0.02197086811065674,0.011601686477661133,0.07890212535858154
427,-2.0508449599321676,-0.6253104215219241,1.453399072160102,-0.7191408276557922,0.5853489637374878,0.37443697452545166,-0.013307247310876846,-0.12383723258972168,-0.02051715925335884,-0.06897556781768799,0.04232132434844971,0.05418241024017334
428,-2.0447069725579,-0.6218431337845872,1.4465695108097254,-0.7232270240783691,0.5825342535972595,0.37093985080718994,-0.06421296298503876,-0.010111352428793907,0.09546244144439697,0.07077652215957642,-0.015624523162841797,0.01934954524040222
429,-2.047328357551418,-0.6295740293415778,1.4262192910134759,-0.7182287573814392,0.5888004899024963,0.37075749039649963,0.014616400934755802,-0.1858697235584259,-0.09570423513650894,-0.11712878942489624,-0.014581799507141113,-0.007323771715164185
430,-2.0473048135482235,-0.6101991899945368,1.4118239890369468,-0.7282393574714661,0.5730307102203369,0.3759033679962158,-0.3548741042613983,0.14444318413734436,0.11929281800985336,0.08689725399017334,0.030637502670288086,-0.03003239631652832
431,-2.037149804665352,-0.6146321332630201,1.4037564426426763,-0.7297427654266357,0.5766580104827881,0.3673429489135742,-0.22053372859954834,0.12785935401916504,-0.034823715686798096,-0.023217380046844482,0.02670496702194214,0.0884980857372284
432,-2.0339138464895816,-0.6112785984948522,1.379322808765106,-0.7326537370681763,0.5739150047302246,0.3658415377140045,0.012373285368084908,-0.010181603953242302,0.04459094628691673,-0.023373425006866455,-0.012910425662994385,-0.012509018182754517
433,-2.0252915892897914,-0.6099518409956904,1.3679499699030495,-0.7364645004272461,0.5728279948234558,0.3598449230194092,0.022128909826278687,0.038687411695718765,0.05408627167344093,-0.0006266236305236816,0.002748847007751465,0.015841752290725708
434,-2.0227645176143305,-0.6034883449894313,1.3499274837066426,-0.7406866550445557,0.5675181150436401,0.35959210991859436,-0.09618514776229858,0.03396058827638626,0.018435532227158546,-0.0012413859367370605,-0.017057299613952637,-0.03476300835609436
435,-2.0155831835569527,-0.6025535009677928,1.355358593265699,-0.7437286376953125,0.5667481422424316,0.3544920086860657,0.08427196741104126,-0.07492849975824356,-0.14816635847091675,-0.026626646518707275,-0.036535680294036865,0.004516869783401489
436,-2.0014877753550833,-0.5944041329851834,1.3590071904031016,-0.752822995185852,0.5600152015686035,0.34589067101478577,0.002653074450790882,0.08816444128751755,0.055220697075128555,0.018463313579559326,0.014920651912689209,-0.017018109560012817
437,-1.9889023732331768,-0.5968509129460685,1.372827624012414,-0.7558621168136597,0.5620406270027161,0.3358316421508789,-0.05339214205741882,0.11882724612951279,-0.0009389864280819893,0.020586848258972168,0.0049912333488464355,0.028380393981933594
438,-1.9802904494278104,-0.5905929441288001,1.3845489115578493,-0.7619378566741943,0.5568536520004272,0.33070382475852966,-0.00031967461109161377,0.08056376129388809,-0.1518610268831253,0.020116448402404785,0.014313459396362305,0.05114737153053284
439,-1.9722580380967454,-0.5864553881494099,1.3925025294208697,-0.7666837573051453,0.5534121990203857,0.325470507144928,0.042451292276382446,0.07526636123657227,-0.1978745013475418,-0.02433192729949951,-0.027838468551635742,0.0562586784362793
440,-1.9754528193899594,-0.5739884203700437,1.384386477337902,-0.7719227075576782,0.5429856181144714,0.3306090533733368,-0.08206526935100555,0.05799568444490433,-0.19237467646598816,-0.05965089797973633,-0.06831508874893188,-0.04288932681083679
441,-1.9683698638872673,-0.5637568284129685,1.399521887621102,-0.7793264389038086,0.5343654155731201,0.32726719975471497,0.17709824442863464,-0.11937824636697769,-0.07089251279830933,0.0009909272193908691,-0.005312740802764893,0.003070324659347534
442,-1.9687173503528443,-0.556012869843998,1.395134559584237,-0.7830041646957397,0.527803897857666,0.32913169264793396,0.1220356673002243,-0.04908599704504013,0.10178454220294952,0.07551515102386475,0.0023474693298339844,-0.1237635612487793
443,-1.955236542928966,-0.5641540137866091,1.412719301291255,-0.783360481262207,0.5347011089324951,0.3169245421886444,-0.2068749964237213,0.042005084455013275,-0.027972184121608734,0.004155158996582031,0.03426861763000488,0.030243396759033203
444,-1.9535758822190301,-0.570295844732327,1.4312728679684106,-0.7808244228363037,0.5398811101913452,0.3143905997276306,0.0026508751325309277,-0.019305549561977386,0.00826313253492117,-0.021543681621551514,0.05464702844619751,0.05589434504508972
445,-1.959079471392206,-0.5715638875533352,1.4351048890323412,-0.778448224067688,0.5409480333328247,0.3184237778186798,0.03799009695649147,0.0547143891453743,0.12474433332681656,0.07394993305206299,0.017462611198425293,-0.016955852508544922
446,-1.962409062344659,-0.5812406658540424,1.4234351440300015,-0.772508978843689,0.5490612983703613,0.3190009295940399,0.4377653896808624,-0.2780064046382904,0.011688643135130405,-0.051938652992248535,-0.012424945831298828,-0.047837018966674805
447,-1.9751339824727225,-0.5852225975373255,1.4300885629592301,-0.7663711309432983,0.5523849725723267,0.32794222235679626,-0.055577073246240616,-0.13668739795684814,-0.05494252219796181,-0.018540918827056885,-0.06657570600509644,0.02853366732597351
448,-1.9896190275795962,-0.5775932946162593,1.4150962038665604,-0.7653687000274658,0.5460092425346375,0.34071245789527893,0.292773574590683,-0.06413880735635757,-0.06819844990968704,-0.04635322093963623,0.020854830741882324,-0.08096203207969666
449,-1.9995942188482279,-0.5807923831090097,1.4242227643531866,-0.7603394389152527,0.5486865639686584,0.3476020097732544,-0.04863474890589714,0.006210836581885815,-0.00841315183788538,-0.037329018115997314,0.027836322784423828,0.040886759757995605
450,-2.031294390414069,-0.5730876571087915,1.4287778431738838,-0.7527050375938416,0.5422289967536926,0.37339380383491516,-0.05780667066574097,-0.25559917092323303,-0.09626468271017075,-0.029872477054595947,0.06600159406661987,0.06836339831352234
451,-2.0625486582229438,-0.5461637891897726,1.416959926232734,-0.7532682418823242,0.5194129347801208,0.40348145365715027,0.09220613539218903,-0.4609507620334625,0.20439110696315765,0.09175395965576172,0.05924612283706665,-0.032998085021972656
452,-2.082384192355425,-0.5408789289186965,1.3985454671322717,-0.7475003600120544,0.514889657497406,0.41968053579330444,0.22093188762664795,-0.36250925064086914,0.006870764307677746,0.031207144260406494,-0.0015534758567810059,-0.035494714975357056
453,-2.101499375523082,-0.5297531178169466,1.398970386892857,-0.744236946105957,0.5053203105926514,0.4367642402648926,0.15523894131183624,-0.23151887953281403,-0.12668511271476746,0.0018357634544372559,-0.07197064161300659,0.006671488285064697
454,-2.1006663350860286,-0.5189682259269628,1.39208839535083,-0.7492594718933105,0.4959844946861267,0.4388730525970459,0.5230450630187988,-0.2781994342803955,0.1065865084528923,0.09397083520889282,-0.06861633062362671,-0.09254434704780579
455,-2.1045560138692405,-0.5251095058199717,1.3913710930330045,-0.7449106574058533,0.5013077855110168,0.4402262270450592,-0.36040955781936646,-0.11794191598892212,-0.01961630955338478,-0.023827314376831055,0.03363502025604248,0.022511959075927734
456,-2.09562724028984,-0.5401645823038891,1.400822750653544,-0.7421952486038208,0.5142771601676941,0.42972683906555176,-0.09972803294658661,0.5481390953063965,0.21462072432041168,0.06760424375534058,-0.03502917289733887,0.031897276639938354
457,-2.036016237016451,-0.5681356797628547,1.3914622991496186,-0.7533240914344788,0.5380615592002869,0.3781437873840332,-0.2679890990257263,1.16146981716156,-0.03530317172408104,-0.15814441442489624,-0.09471738338470459,0.0417628288269043
458,-1.9835081553710137,-0.5391696568966542,1.3791128538214177,-0.7860830426216125,0.5134236216545105,0.34419363737106323,-0.41934698820114136,0.7698654532432556,-0.18381550908088684,-0.0599098801612854,0.07834261655807495,0.05253475904464722
459,-1.8996065526614472,-0.4618551066632527,1.342298222213016,-0.8472674489021301,0.4456096291542053,0.2890843152999878,-0.09528374671936035,0.7569565176963806,-0.8581382632255554,-0.03996998071670532,0.01190987229347229,-0.01520434021949768
460,-1.8256396162981576,-0.34215103548528153,1.3408825808528504,-0.9116101861000061,0.33551421761512756,0.2374812215566635,-0.15562711656093597,0.5351340770721436,-1.0660090446472168,-0.08747446537017822,0.11930453777313232,-0.03612622618675232
461,-1.7030446430450834,-0.20067832694700313,1.309198123889028,-0.9713747501373291,0.19933408498764038,0.12921687960624695,-0.5187399983406067,1.7532955408096313,-1.9415274858474731,-0.22232025861740112,0.026465490460395813,-0.01775147020816803
462,-1.4670608801717355,-0.023266170162660554,1.2323122973424654,-0.9943550825119019,0.023264070972800255,-0.10352146625518799,-0.8959007263183594,2.1305348873138428,-2.092498779296875,-0.14375215768814087,-0.0043736714869737625,0.10608495026826859
463,-1.2115407259754791,0.11949776519450205,1.1254004989253734,-0.9294826984405518,-0.11921356618404388,-0.3490702211856842,-0.9042402505874634,2.794198513031006,-1.848561406135559,-0.17415499687194824,0.04957246780395508,0.14712011814117432
464,-0.922119304958491,0.213876460959232,0.9999156837631697,-0.778727114200592,-0.21224962174892426,-0.5903677940368652,-1.4331082105636597,3.4505693912506104,-1.5819224119186401,-0.18144744634628296,0.09872421622276306,0.25229406356811523
465,-0.7452888308082445,0.30536913018605416,0.9415027019592825,-0.6468086242675781,-0.30064526200294495,-0.7008930444717407,-0.7310974597930908,2.9381425380706787,-0.6535842418670654,0.003284454345703125,0.14875924587249756,0.3871265649795532
466,-0.5759667221630319,0.35228366382427,0.8898011726698717,-0.511197566986084,-0.3450421094894409,-0.7871613502502441,-0.6084529757499695,1.810088872909546,-0.07005677372217178,0.11889410018920898,0.17908751964569092,0.36292123794555664
467,-0.46634059234374314,0.3178159753344598,0.8615584743012342,-0.427103728055954,-0.3124926686286926,-0.848487377166748,-0.31103628873825073,1.0402734279632568,-0.07045828551054001,0.0009867846965789795,0.017830193042755127,0.13796186447143555
468,-0.2882352948035114,0.2417190217030834,0.8069526943900123,-0.27599671483039856,-0.23937202990055084,-0.930874228477478,-1.000408411026001,1.8099596500396729,-0.37325212359428406,-0.07991454005241394,0.08441901206970215,-0.09065592288970947
469,-0.1984593328909257,0.24894469460446447,0.7875850428211582,-0.19108130037784576,-0.24638132750988007,-0.9501495361328125,-0.5609078407287598,0.9482580423355103,-0.1175558790564537,-0.05154868960380554,0.028028056025505066,0.0991363525390625
470,-0.14948313578958408,0.26270355267833595,0.7871658812882059,-0.14381757378578186,-0.2596922814846039,-0.9549221992492676,-0.4798351526260376,1.0906862020492554,-0.05313554406166077,-0.08042559027671814,-0.06397712230682373,0.06852388381958008
471,-0.11153769800053259,0.26782132672234116,0.7840752708520555,-0.10733846575021744,-0.264631062746048,-0.9583573937416077,0.039313603192567825,0.34001049399375916,0.03437059372663498,0.03156331926584244,-0.014024943113327026,0.10865646600723267
472,-0.0646154924009399,0.25968299957832236,0.789292451759567,-0.062405578792095184,-0.2567741870880127,-0.9644545316696167,0.7005828022956848,-0.7109076380729675,0.03969927504658699,0.06187152490019798,0.036284685134887695,0.00020587444305419922
473,0.0038043288822254885,0.23538027817175305,0.8002485029826588,0.0036994183901697397,-0.23321279883384705,-0.9724186658859253,1.4142197370529175,-0.32638412714004517,0.23660486936569214,0.1288384199142456,-0.03050483763217926,-0.31173044443130493
474,0.03843345435429751,0.26524562955643693,0.8059915612775903,0.03708023577928543,-0.26214632391929626,-0.9643154740333557,0.3114444315433502,0.19757738709449768,0.13729506731033325,0.13233810663223267,-0.0016476213932037354,-0.166681170463562
475,0.06206200541164936,0.2802777822543781,0.8020754647499164,0.059601981192827225,-0.27662259340286255,-0.9591285586357117,-0.3234306573867798,0.49965858459472656,-0.5285545587539673,0.07650642096996307,0.03126126527786255,-0.09055405855178833
476,0.07250713792811099,0.28499532639632136,0.8109997157961651,0.069521464407444,-0.28115296363830566,-0.9571414589881897,-0.9596473574638367,0.7226396203041077,-0.5558010339736938,-0.043795146048069,-0.035695791244506836,-0.0842098593711853
477,0.056450255601384135,0.31740333781070196,0.825852907762967,0.053602032363414764,-0.3121006488800049,-0.9485357403755188,-0.503820538520813,0.7981114983558655,-0.37736865878105164,-0.15928441286087036,-0.13861346244812012,0.0537908673286438
478,0.08533415960510557,0.3185328161738316,0.8154347485362395,0.08094318211078644,-0.3131735324859619,-0.946240246295929,-0.5988582968711853,0.9040781259536743,-0.1917373687028885,-0.11559589952230453,-0.023099660873413086,0.07986146211624146
479,0.1020884112691263,0.35443046654737614,0.8254590169727466,0.09557681530714035,-0.3470562994480133,-0.9329614043235779,-0.04827723652124405,-0.08446970582008362,0.11047518998384476,-0.03586916625499725,-0.11220276355743408,0.15822690725326538
480,0.1373316301931912,0.36221129287805237,0.833478985594538,0.12801764905452728,-0.35434290766716003,-0.9263112545013428,0.10661574453115463,-0.1355779469013214,0.25788503885269165,-0.04655097424983978,0.04063749313354492,0.19480490684509277
481,0.15129496031008796,0.33861247878118694,0.8322987646047585,0.142160102725029,-0.33217868208885193,-0.9324418902397156,0.5420728325843811,-0.7318331003189087,0.08363296836614609,0.08676750957965851,0.008234590291976929,-0.022483646869659424
482,0.1711907102463698,0.3042148354987391,0.8132836059907174,0.1625334471464157,-0.29954415559768677,-0.9401362538337708,1.4189422130584717,-1.1409342288970947,0.21585620939731598,0.1678345799446106,0.04072457551956177,-0.41836899518966675
483,0.1754690753244128,0.2998585205924743,0.812783954749275,0.16678041219711304,-0.2953850328922272,-0.9407082200050354,0.9328618049621582,-0.5515432357788086,0.6275323033332825,0.18588072061538696,0.03934255242347717,-0.3798179030418396
484,0.21421553089273823,0.29165517991070566,0.8224214297328206,0.20360350608825684,-0.28753790259361267,-0.9358779788017273,-0.16594940423965454,-0.11675728857517242,-0.3027614653110504,0.058893442153930664,0.01728948950767517,-0.1246994137763977
485,0.24782478773806485,0.22236261475784608,0.8605696913479054,0.23925639688968658,-0.22053468227386475,-0.9455796480178833,-1.4121440649032593,1.0310858488082886,-0.32225027680397034,-0.11613321304321289,-0.08424437046051025,0.0143204927444458
486,0.2614579630150653,0.15578653301214937,0.8628751140238456,0.25535887479782104,-0.1551571488380432,-0.9543154835700989,-1.1266975402832031,1.3600620031356812,-0.15307146310806274,-0.046527087688446045,0.004293501377105713,-0.07047998905181885
487,0.300189995333606,0.13912884051211247,0.866944316089089,0.29284441471099854,-0.13868042826652527,-0.9460496306419373,-0.22244730591773987,1.272192120552063,-0.47127383947372437,-0.16537249088287354,0.02423951029777527,0.003819406032562256
488,0.3135493001334953,0.12913971524389753,0.8760939497286373,0.3058684766292572,-0.12878106534481049,-0.9433238506317139,-0.22242261469364166,0.0322989821434021,-0.7298501133918762,-0.1923125982284546,-0.03552556037902832,0.05480456352233887
