,attitude.roll,attitude.pitch,attitude.yaw,gravity.x,gravity.y,gravity.z,rotationRate.x,rotationRate.y,rotationRate.z,userAcceleration.x,userAcceleration.y,userAcceleration.z
0,2.3446872272105614,-0.04386210290669611,1.3645844407266732,0.7145088315010071,0.04384804144501686,0.6982510685920715,-0.6169319748878479,-0.7538796067237854,-0.27673429250717163,0.02633589506149292,0.04715535044670105,0.02934896945953369
1,-0.10841276373128536,0.11899518104770843,0.7758395003449127,-0.10743537545204163,-0.11871455609798431,-0.9870990514755249,0.035510290414094925,0.0042357007041573524,0.35879436135292053,-0.032060474157333374,0.031220659613609314,-0.0987468957901001
2,-0.0920207966051251,0.09383858334519343,0.800973821615409,-0.09148669987916946,-0.09370092302560806,-0.9913880825042725,-0.6171534061431885,0.5677642226219177,0.27991750836372375,-0.009343385696411133,0.007229365408420563,0.02111220359802246
3,-0.09197349308539246,0.08448262847978127,0.8271531783977571,-0.09151631593704224,-0.08438216894865036,-0.9922219514846802,0.2333221584558487,-0.44668668508529663,0.23923639953136444,-0.016470134258270264,0.01702987402677536,0.015613675117492676
4,-0.11348887993803072,0.06630968277053564,0.8453452074816826,-0.11299654096364975,-0.06626109778881073,-0.9913834929466248,-0.18903015553951263,-0.29246941208839417,0.054666414856910706,-0.03930143266916275,0.01673106849193573,-0.014216482639312744
5,-0.12674958938829936,0.0803325329443748,0.8727463800676011,-0.12600281834602356,-0.08024615794420242,-0.9887789487838745,0.7422435879707336,-0.0008824281394481659,0.38626739382743835,-0.029331639409065247,0.03857441991567612,-0.014028608798980713
6,-0.1594140150471535,0.11133980803123364,0.9205483080833791,-0.1577567756175995,-0.1111099123954773,-0.9812071323394775,0.2740965187549591,-0.8324775695800781,0.5240079760551453,0.004970520734786987,0.051097095012664795,0.02721238136291504
7,-0.23600396077919558,0.1445920306673676,0.9435449978676795,-0.23137927055358887,-0.1440887302160263,-0.9621341228485107,-0.0459478497505188,-1.29494309425354,-0.3088112473487854,-0.03815197944641113,0.0347747802734375,0.15852999687194824
8,-0.3861225569278499,0.17267216483354408,0.9333785522578293,-0.37099894881248474,-0.17181538045406342,-0.9126002788543701,-0.4674355983734131,-0.7899015545845032,0.288215696811676,0.04986247420310974,0.05829000473022461,0.12973284721374512
9,-0.4832731909703543,0.11606440207284,0.9182208328351741,-0.4615536630153656,-0.11580399423837662,-0.8795212507247925,0.08471544831991196,-0.995551347732544,-0.1711077094078064,-0.04258143901824951,-0.008341498672962189,-0.13692766427993774
10,-0.649112121600488,0.12791101605993277,0.929372812499323,-0.5995410680770874,-0.1275625079870224,-0.7901128530502319,0.5211748480796814,-2.4974210262298584,-0.4241788387298584,-0.1331096887588501,-0.1025553047657013,-0.24041998386383057
11,-0.7055484584282601,0.11620290104141397,0.9176396939538933,-0.6440783143043518,-0.11594156175851822,-0.7561221122741699,-1.028854489326477,0.7687467932701111,0.3846733868122101,-0.04821294546127319,-0.14922568202018738,-0.025372028350830078
12,-0.7952492488387084,0.11241059545062146,0.9342979862147268,-0.7095314860343933,-0.11217400431632996,-0.6956881284713745,1.213765263557434,-1.9656144380569458,0.3993566930294037,0.035093069076538086,0.008307434618473053,-0.1945553421974182
13,-1.0481180240536578,0.16924907107653192,1.1034978187943876,-0.8541045784950256,-0.16844220459461212,-0.492069810628891,2.0430376529693604,-2.1147282123565674,0.6264134645462036,-0.026632726192474365,0.015305012464523315,-0.2663987874984741
14,-1.3101771446972879,0.22770820905090666,1.3854782316056928,-0.9412886500358582,-0.22574548423290253,-0.2510272264480591,3.1208391189575195,-2.2455546855926514,0.1633128821849823,-0.006511032581329346,0.13587120175361633,-0.23395812511444092
15,-1.5808574188642184,0.2930274338341575,1.7221451271391892,-0.9573252201080322,-0.28885191679000854,0.009632062166929245,3.5955004692077637,-2.285429000854492,-0.5734740495681763,-0.011272072792053223,0.20318913459777832,-0.22430801391601562
16,-1.9021906083681384,0.3557959321426667,2.1278989320739465,-0.8863668441772461,-0.3483365476131439,0.3049841821193695,3.6230499744415283,-1.09092378616333,-1.4520509243011475,-0.04199308156967163,0.3539670705795288,0.05237659811973572
17,-2.0455015023136762,0.37393794642425393,2.4263184573074428,-0.8279644846916199,-0.3652840852737427,0.4254904091358185,1.6920992136001587,-0.2012033760547638,-1.3913187980651855,0.06360608339309692,0.23912447690963745,0.06483545899391174
18,-2.140154267439463,0.385237522294483,2.6309637468441958,-0.780518114566803,-0.37577927112579346,0.49958083033561707,1.0888850688934326,0.7155871391296387,-0.8020387887954712,0.15907353162765503,0.09893912076950073,-0.045036882162094116
19,-1.8705245718282026,0.40476197132132,2.709234017483703,-0.8782155513763428,-0.3937999904155731,0.27140241861343384,-0.2751816511154175,5.215362071990967,-0.10791832208633423,0.00013309717178344727,0.022935062646865845,0.2706660330295563
20,-1.0094262309827604,0.3533698382773087,2.579517539092641,-0.7942212224006653,-0.3460613787174225,-0.4994538128376007,-2.0067479610443115,8.226834297180176,0.8440638780593872,-0.04446285963058472,0.025291115045547485,0.1898530125617981
21,-0.2662438183447184,0.17815817911717444,2.596748910694275,-0.25894489884376526,-0.17721720039844513,-0.9494954347610474,-1.1896839141845703,5.843440055847168,1.431930661201477,0.020038068294525146,-0.10432270169258118,-0.03407084941864014
22,0.0030869479564985015,0.1671274263452714,2.7695634246168153,0.0030439316760748625,-0.16635048389434814,-0.9860619902610779,1.327736735343933,1.359711766242981,2.2232613563537598,0.10039539635181427,0.043791890144348145,-0.09920412302017212
23,0.06128212590861203,0.24150781875676766,2.9383628618668847,0.05946638807654381,-0.2391669601202011,-0.9691557884216309,-0.046981196850538254,1.3859387636184692,0.5413620471954346,-0.2871427834033966,-0.07514885067939758,0.20464468002319336
24,0.1581954957604003,0.24596790713517505,2.9963410044712657,0.1527949720621109,-0.24349521100521088,-0.9577910900115967,0.1791863739490509,0.30224087834358215,0.7145987153053284,0.0342930406332016,0.035487398505210876,-0.04799199104309082
25,0.13692311727877648,0.2742405596918855,3.0401158388570138,0.13139499723911285,-0.27081596851348877,-0.9536215662956238,0.475495308637619,-1.0771052837371826,0.2980792820453644,0.027601584792137146,0.08046254515647888,-0.04791957139968872
26,0.021840465976266998,0.33910702988792363,3.0051622646005347,0.020595058798789978,-0.33264511823654175,-0.9428271651268005,1.0379786491394043,-1.1513113975524902,-0.6497799158096313,0.06764651834964752,-0.09997206926345825,0.11787599325180054
27,0.1044510762670561,0.44259760896217876,3.0129431579199117,0.09421486407518387,-0.42828822135925293,-0.8987172842025757,0.23047420382499695,1.6347434520721436,0.7235745191574097,0.09510093182325363,0.09846949577331543,0.18634545803070068
28,0.2058445079770963,0.34259980482184577,3.0531951830284334,0.19251544773578644,-0.33593693375587463,-0.9220001101493835,-1.7083258628845215,-0.30896705389022827,0.24418503046035767,0.15503399074077606,0.058471113443374634,-0.17548829317092896
29,0.1255245732791317,0.2422417047590738,3.093184244389844,0.12153983116149902,-0.23987947404384613,-0.9631645083427429,0.11322342604398727,0.41282445192337036,0.043394785374403,-0.04959464818239212,-0.038532376289367676,0.1735222339630127
30,0.4115755868168096,0.37406253835791387,3.0419320155472738,0.37239035964012146,-0.3654000461101532,-0.8531167507171631,1.2717444896697998,4.129847049713135,-0.8826826214790344,-0.15988120436668396,0.2582071125507355,0.42785435914993286
31,0.9326655821771695,0.3016780027191728,2.8524585593913847,0.7669370770454407,-0.2971228361129761,-0.5687930583953857,0.011233121156692505,4.302088260650635,-2.3749799728393555,0.01953136920928955,0.3991125822067261,0.16823458671569824
32,1.2970030679278854,0.057644941859926524,2.7522466772657284,0.9611530303955078,-0.05761302262544632,-0.2699362337589264,-0.3286912441253662,2.405316114425659,-2.5188605785369873,0.1325206160545349,0.5469928979873657,0.005592942237854004
33,1.4747290462142533,-0.26855254497607256,2.7816765611055874,0.9597103595733643,0.26533615589141846,-0.09248144179582596,-1.5207384824752808,1.263868808746338,-3.5675456523895264,0.34839510917663574,0.6076802015304565,-0.07463282346725464
34,1.664201584371562,-0.627964782311759,2.87131651408288,0.8056974411010742,0.5874990224838257,0.07547599822282791,-0.5107770562171936,1.3893319368362427,-2.7225253582000732,0.7155122756958008,-0.08629357814788818,-0.3466399908065796
35,1.7142485589399281,-0.7806100049672406,2.9232227790649072,0.7031866312026978,0.7037129402160645,0.10157138109207153,-0.011747069656848907,-1.0367075204849243,-0.5603054761886597,0.49166810512542725,-0.29622697830200195,-0.2885679006576538
36,1.6193350100197716,-0.7997469142847973,2.907580907664602,0.6960675716400146,0.7171797156333923,0.033812765032052994,0.1530974805355072,-0.5377840995788574,0.16966642439365387,0.25391411781311035,-0.31295913457870483,-0.0740196704864502
37,1.5778094605772663,-0.7550493368077684,2.930771139533181,0.7282196879386902,0.6853246092796326,0.0051071858033537865,-0.7993200421333313,0.033969439566135406,0.1687960922718048,0.07575064897537231,-0.042883872985839844,0.07286524772644043
38,1.599233880545896,-0.6871176724275725,3.0304689450795363,0.7727648019790649,0.6343115568161011,0.021981466561555862,-0.6421286463737488,-0.8193660378456116,0.5883756875991821,-0.07005190849304199,-0.00445932149887085,-0.08144497871398926
39,1.5938927922833483,-0.638158445005325,3.0673602564328535,0.8029800057411194,0.5957173109054565,0.018549298867583275,-0.044677335768938065,0.17502626776695251,0.41116732358932495,0.011518895626068115,-0.00012099742889404297,-0.060495734214782715
40,1.6030227394681336,-0.6139843545194309,3.0699413224719536,0.8169347047805786,0.5761286616325378,0.02633599191904068,-0.036121923476457596,-0.08695866167545319,0.2792523205280304,0.07309520244598389,-0.09358471632003784,-0.055510759353637695
41,1.6026099001906482,-0.5561567710387935,3.0860077725728696,0.8488606214523315,0.5279260873794556,0.02701440453529358,-0.5874145030975342,-0.050255004316568375,0.9444284439086914,0.27188223600387573,0.13712823390960693,0.09252297878265381
42,1.5935375510922292,-0.4493184312957651,-3.053924521463142,0.9005104899406433,0.43435171246528625,0.020482242107391357,-1.479042887687683,-1.5009984970092773,1.2258917093276978,-0.07720726728439331,-0.07781487703323364,0.07375597953796387
43,1.564066907933257,-0.3128487197250242,-2.942990796922099,0.9514392018318176,0.307770311832428,-0.006402729544788599,-0.8427495360374451,-0.1250409483909607,1.000025987625122,-0.2885974049568176,0.31050053238868713,0.16065382957458496
44,1.586009850664697,-0.3003953703814002,-2.834720824411731,0.9551090598106384,0.295897901058197,0.01453169621527195,-1.0765042304992676,-0.08444106578826904,-0.2929741442203522,-0.2706760764122009,0.027588456869125366,0.031458258628845215
45,1.6131110541992684,-0.3554623994196385,-2.7225698834730827,0.9366464018821716,0.3480238914489746,0.039657607674598694,-1.210618495941162,-0.17368221282958984,-0.9155495166778564,-0.14219766855239868,0.028837651014328003,-0.0069274939596652985
46,1.6317624556789603,-0.4753735780790835,-2.571687980900588,0.8874699473381042,0.4576706290245056,0.05417273938655853,-1.2146587371826172,-0.5065300464630127,-1.5914973020553589,0.10436660051345825,0.0855269730091095,-0.08775734901428223
47,1.6540786096765712,-0.6224846514029992,-2.4127863695688063,0.8096165657043457,0.5830555558204651,0.06758303940296173,-1.3413764238357544,-0.5944458246231079,-1.35261070728302,0.45582544803619385,0.06826585531234741,-0.07570075243711472
48,1.6546837160256618,-0.7018322104902825,-2.284476188621394,0.7609752416610718,0.6456179618835449,0.0639863908290863,-0.3380930721759796,-0.7139608263969421,0.3060958981513977,0.2512012720108032,-0.5163760185241699,-0.09377145767211914
49,1.6053115097488277,-0.634030258362081,-2.2686843474413925,0.8051665425300598,0.5923964977264404,0.02780151180922985,-0.558881938457489,-0.5210209488868713,0.5982256531715393,-0.013296544551849365,0.03629601001739502,0.169189453125
50,1.5726352490734334,-0.5453551265283788,-2.0740782120657686,0.854941725730896,0.5187217593193054,0.001572173205204308,-1.5514887571334839,-1.386523723602295,0.780188798904419,-0.2009042501449585,0.2650154232978821,0.0486903190612793
51,1.5606333896854994,-0.49953466922300116,-1.9681967231018158,0.8777603507041931,0.47901710867881775,-0.008920930325984955,-0.7708454132080078,-0.43231865763664246,0.19488751888275146,-0.22241050004959106,0.27585047483444214,0.06965088844299316
52,1.5832288392148162,-0.49487576827714214,-1.833761530767994,0.8799598813056946,0.4749223291873932,0.010940675623714924,-1.2682222127914429,-0.21816138923168182,-0.06455482542514801,-0.15348875522613525,0.1862868070602417,0.05215442180633545
53,1.6555085219952008,-0.5366184601515569,-1.6697281129230486,0.8563603758811951,0.5112326741218567,0.07271819561719894,-1.2311347723007202,-0.3273770809173584,-0.7525191307067871,-0.047400474548339844,0.017011284828186035,-0.15342187881469727
54,1.686784322867525,-0.6123026849678497,-1.5935253219424435,0.8128284215927124,0.5747533440589905,0.09470341354608536,-0.18863752484321594,0.3677881956100464,-0.8820561766624451,0.05228400230407715,-0.0996403694152832,0.048378244042396545
55,1.7237666912056184,-0.6847781045856504,-1.537512878652793,0.7655148506164551,0.6325011849403381,0.1180231049656868,0.004162967670708895,-0.09202126413583755,-0.41522616147994995,0.20415079593658447,-0.27243947982788086,-0.06841669976711273
56,1.7075950360938916,-0.6799620767026358,-1.5441747123924792,0.770331859588623,0.6287635564804077,0.10604272037744522,0.0010163737460970879,-0.34367430210113525,0.47477561235427856,0.1345599889755249,-0.18905103206634521,-0.005350008606910706
57,1.6584786234493776,-0.6241599327603877,-1.5764333169346079,0.8083372116088867,0.5844157934188843,0.07105905562639236,0.3376781940460205,-0.14482533931732178,0.6283501386642456,0.016400456428527832,-0.005283653736114502,0.1071026399731636
58,1.6285996929275022,-0.5685994311272244,-1.6021763644175573,0.841248631477356,0.5384523868560791,0.04868123307824135,-0.05929890275001526,-0.22214548289775848,0.4746086597442627,-0.08461105823516846,0.0929868221282959,0.11207008361816406
59,1.6160280991504814,-0.5434930361140972,-1.6158256684222903,0.8550322651863098,0.5171288847923279,0.03870102018117905,0.31159526109695435,0.12255853414535522,0.06313560158014297,-0.09454935789108276,0.0949774980545044,0.06582164764404297
60,1.6137046024101465,-0.5446181368605513,-1.6522917170078308,0.854538083076477,0.5180914998054504,0.03668927401304245,0.10465419292449951,0.15080027282238007,-0.10165121406316757,-0.0445709228515625,0.08408141136169434,0.08423662185668945
61,1.6228230606828613,-0.5583677334075303,-1.6608316762350974,0.8469733595848083,0.5298025608062744,0.044105060398578644,0.10981548577547073,0.05796735733747482,-0.0924273356795311,-0.0145912766456604,0.032010793685913086,0.008293624967336655
62,1.623174686200417,-0.5694554337340089,-1.674514595983289,0.8410395383834839,0.5391734838485718,0.04409259930253029,0.092023104429245,-0.002141107339411974,-0.0639023706316948,-0.0017910003662109375,0.008311808109283447,0.010518547147512436
63,1.6204037138373353,-0.5701856054474843,-1.6859624642791446,0.8407652974128723,0.5397883057594299,0.041742414236068726,0.04088962450623512,-0.03394221141934395,0.07810071110725403,0.0068909525871276855,-0.004464209079742432,0.029088851064443588
64,1.6192172617470537,-0.5636466847549423,-1.6877588154334555,0.8443219065666199,0.534272313117981,0.04091483727097511,0.014229921624064445,-0.03874940052628517,0.021433161571621895,-0.021964550018310547,0.023039817810058594,0.006189119070768356
65,1.6205358160800551,-0.5666713511536785,-1.6957282278494008,0.8426492214202881,0.5368266701698303,0.041947539895772934,0.06127035990357399,0.015390431508421898,-0.04729875177145004,-0.005262017250061035,0.024773120880126953,-0.010239716619253159
66,1.613779357326372,-0.5721905562652911,-1.7121183218265543,0.8399404287338257,0.5414749979972839,0.036125436425209045,0.14777155220508575,0.05688296630978584,-0.01064605824649334,0.0019174814224243164,-0.00604403018951416,0.012367010116577148
67,1.605195364875094,-0.5737941605322675,-1.7309547847891755,0.8393504619598389,0.5428224802017212,0.028884243220090866,0.1936606466770172,-0.01529320701956749,0.01215086318552494,0.007557928562164307,-0.020346403121948242,0.000504249706864357
68,1.5926527694069494,-0.5714597768136205,-1.759126090542956,0.8409115672111511,0.5408604741096497,0.01838226243853569,0.20125602185726166,-0.021220535039901733,0.0032517695799469948,0.005447745323181152,-0.011975586414337158,0.00494837760925293
69,1.5776092561803834,-0.5666149694439725,-1.7884121789024638,0.8437032699584961,0.5367791056632996,0.005748179741203785,0.27311795949935913,-0.0034228661097586155,0.08823975920677185,0.007508277893066406,0.0034430623054504395,0.008930802345275879
70,1.5569183872703931,-0.55892076306198,-1.8205868110626455,0.8477463126182556,0.5302714705467224,-0.01176572684198618,0.2989804744720459,-0.03427129611372948,-0.023770229890942574,-0.04394376277923584,0.030778884887695312,0.014207124710083008
71,1.535365517189763,-0.5555843549492226,-1.8589636614386804,0.8490592241287231,0.5274398326873779,-0.030095450580120087,0.23888136446475983,-0.06287534534931183,0.08990411460399628,0.0026100873947143555,-0.0012404918670654297,0.023869872093200684
72,1.5137611337868475,-0.5505085122494526,-1.8812610011534163,0.850872814655304,0.5231207013130188,-0.04858238622546196,0.19421453773975372,-0.10888101160526276,0.02598932385444641,-0.011669933795928955,0.018383145332336426,-0.0005051456391811371
73,1.4938501665008364,-0.5601099033446845,-1.911147732044013,0.8446900844573975,0.5312793254852295,-0.06512423604726791,0.3433419466018677,0.039502061903476715,-0.14761176705360413,0.004766702651977539,0.03244143724441528,3.0219554901123047e-05
74,1.479617489487396,-0.5767324699540577,-1.9502073405029947,0.8347670435905457,0.5452878475189209,-0.0763247162103653,0.32836687564849854,0.10764775425195694,-0.2489173412322998,0.0075792670249938965,0.020798027515411377,-0.020904310047626495
75,1.4671176342601846,-0.595251343759255,-2.0001279509190764,0.823561429977417,0.5607168674468994,-0.08569303900003433,0.39218229055404663,0.19658899307250977,-0.16496649384498596,0.020676851272583008,-0.017656564712524414,-0.013244926929473877
76,1.4578475771787767,-0.6005037228952997,-2.030668448852771,0.8197940587997437,0.565058171749115,-0.09299048781394958,0.14507323503494263,-0.0721454918384552,0.029075413942337036,0.0442044734954834,-0.005655646324157715,-0.0422634556889534
77,1.441579474720561,-0.593968711631118,-2.060914575578851,0.8218170404434204,0.5596544146537781,-0.10678762197494507,0.2961328327655792,0.09175112098455429,-0.0024668127298355103,-0.020379722118377686,0.007026493549346924,-0.004326879978179932
78,1.438799761136394,-0.5879379482718073,-2.0833855749914085,0.8248477578163147,0.554646372795105,-0.10951383411884308,-0.013363818638026714,0.014374312944710255,0.1477157175540924,0.06377816200256348,0.027857840061187744,-0.012876853346824646
79,1.4369472160486292,-0.5673093004113086,-2.0669872518512897,0.8358065485954285,0.5373647809028625,-0.11254487186670303,-0.045823317021131516,-0.08182509243488312,0.23106110095977783,-0.011053800582885742,0.0493813157081604,-0.02327357977628708
80,1.4357190363153354,-0.5534469676504009,-2.0636243290432312,0.8429684638977051,0.5256227254867554,-0.11456351727247238,-0.04531269147992134,0.05331193283200264,0.12862661480903625,-0.02581465244293213,0.039364397525787354,-0.000915035605430603
81,1.4469959448941871,-0.5478112171837185,-2.0441341746602286,0.8471329808235168,0.5208199620246887,-0.105414479970932,-0.23674510419368744,-0.05794356018304825,0.13261976838111877,-0.0035660862922668457,0.035713791847229004,-0.046990275382995605
82,1.4548994562927424,-0.5310171394312251,-2.0137342438551844,0.8565077185630798,0.5064106583595276,-0.09971342235803604,-0.34845098853111267,-0.07021962106227875,0.30377382040023804,-0.017732083797454834,0.03375041484832764,-0.019717156887054443
83,1.4713527010669423,-0.500115376106251,-1.9489819115631217,0.8731918931007385,0.4795267879962921,-0.08712073415517807,-0.6657425165176392,-0.2425660490989685,0.4157140552997589,-0.044929563999176025,0.07886859774589539,-0.049887895584106445
84,1.488206846616438,-0.46457039046691034,-1.861805982290757,0.8909667134284973,0.4480387568473816,-0.07375224679708481,-0.8625978827476501,-0.23867741227149963,0.4507972300052643,-0.059118688106536865,0.12146496772766113,-0.037240199744701385
85,1.4985732295089904,-0.42883468781933,-1.7452496828368789,0.9070799946784973,0.41581130027770996,-0.06562627106904984,-1.0648635625839233,-0.3313699960708618,0.3666871190071106,-0.11371457576751709,0.12735581398010254,0.034254200756549835
86,1.5236973775126696,-0.4180922147219605,-1.6093132688635352,0.9128516912460327,0.4060177206993103,-0.04302617534995079,-1.3548774719238281,-0.3087400197982788,-0.09894728660583496,-0.1445717215538025,0.12797880172729492,0.043285612016916275
87,1.5616821417640747,-0.4684970498514556,-1.461897657131738,0.8922110199928284,0.4515458047389984,-0.008132001385092735,-1.2060105800628662,-0.12137280404567719,-0.835239052772522,-0.04429525136947632,0.09575653076171875,0.01280116941779852
88,1.6186037647987785,-0.5791438715810596,-1.324691261088371,0.8359753489494324,0.5473076105117798,0.03999631479382515,-0.6066234111785889,0.0045177629217505455,-1.3183404207229614,0.1752399206161499,-0.029882073402404785,-0.08238518238067627
89,1.6624369776102665,-0.6628600597300122,-1.24514907166197,0.7849279642105103,0.6153737902641296,0.07213334739208221,-0.7685727477073669,-0.1658473014831543,-0.4245963394641876,0.23808223009109497,-0.26707667112350464,-0.01682019978761673
90,1.6909624655624256,-0.6702931360482265,-1.139106803548696,0.777988612651825,0.6212157011032104,0.09394048154354095,-0.5518115758895874,-0.40034663677215576,0.10674634575843811,0.19668179750442505,-0.26988208293914795,-0.05884528160095215
91,1.693548560547728,-0.6251948299753236,-1.0834596271385388,0.8047477006912231,0.5852552652359009,0.09928375482559204,-0.538457453250885,-0.2832053005695343,0.7818320989608765,0.2090461254119873,-0.19968098402023315,-0.03315211832523346
92,1.6643185358272248,-0.5052135582203973,-1.0184527244926633,0.8712469339370728,0.48399433493614197,0.08171933144330978,-0.5674747824668884,-0.7645516395568848,1.4477577209472656,0.1218712329864502,-0.0004738271236419678,-0.0495690181851387
93,1.6110662388264894,-0.3639912013577827,-0.9902484365651018,0.933725893497467,0.35600677132606506,0.0376213975250721,-0.1613987684249878,-0.5256143808364868,1.1602805852890015,-0.11623615026473999,0.15601718425750732,0.06066048517823219
94,1.5702974314474232,-0.29001242246454295,-0.9602622719818723,0.9582403898239136,0.28596413135528564,-0.00047806173097342253,-0.3313886523246765,-0.3933224380016327,0.23999284207820892,-0.24681442975997925,0.17338651418685913,0.1288807988166809
95,1.5551132742627203,-0.3093135749988048,-0.9138208794457934,0.9524255990982056,0.3044048547744751,-0.014938165433704853,-0.5658038854598999,-0.2073221057653427,-0.5900828838348389,-0.13336431980133057,0.1574634313583374,0.15113812685012817
96,1.5604647601381716,-0.3898938661706245,-0.8385387582133247,0.9249000549316406,0.38009023666381836,-0.009556006640195847,-0.6586176753044128,-0.16036541759967804,-0.9862915873527527,-0.07367324829101562,0.06680917739868164,0.04361361265182495
97,1.574096310995985,-0.5002494360804728,-0.7829720842703839,0.8774582147598267,0.47964441776275635,0.002895608777180314,-0.4243992567062378,-0.13617976009845734,-1.055299997329712,0.09820407629013062,-0.06106528639793396,0.0069615840911865234
98,1.5767341236325443,-0.5750191242107612,-0.710271266388305,0.8391669988632202,0.543850839138031,0.004982861690223217,-0.8142188191413879,-0.5888630747795105,-0.32817700505256653,0.184697687625885,-0.13990497589111328,-0.053627967834472656
99,1.5571560949614056,-0.5809615955235056,-0.6182727005344871,0.8358575701713562,0.5488280057907104,-0.01140199787914753,-0.7826102375984192,-0.7418122291564941,0.27769002318382263,0.2005193829536438,-0.09010303020477295,-0.0762445330619812
100,1.5047912940099504,-0.5147839058108602,-0.5001896306812529,0.8685039281845093,0.49234676361083984,-0.05740902200341225,-0.9681702852249146,-1.2964398860931396,1.0084009170532227,0.05613303184509277,-0.02129262685775757,-0.029657669365406036
101,1.4508696163526402,-0.41579296796536647,-0.38657569916417556,0.9082257747650146,0.4039154648780823,-0.1094457283616066,-1.0560775995254517,-0.8731052875518799,0.8998148441314697,-0.08858466148376465,0.2148894965648651,0.04403132200241089
102,1.4253565319469568,-0.38173681408079546,-0.23449867418176898,0.9182213544845581,0.37253281474113464,-0.1344955861568451,-1.62973153591156,-0.8283776640892029,0.18982897698879242,-0.15244370698928833,0.20119765400886536,0.0054825544357299805
103,1.4248097593082911,-0.4113536455405705,-0.06385888694877867,0.9068307280540466,0.39985042810440063,-0.13333366811275482,-1.644351601600647,-0.5180344581604004,-0.2860564589500427,-0.11247336864471436,0.16271066665649414,-0.04919196665287018
104,1.452063403381992,-0.4845874126110301,0.11402357834851601,0.8786373138427734,0.4658433198928833,-0.10481618344783783,-1.9570751190185547,-0.5209696292877197,-0.6624617576599121,-0.0040645599365234375,0.09346756339073181,-0.03666328638792038
105,1.5224472185265163,-0.5630089467894752,0.37673477058843446,0.8446647524833679,0.5337331295013428,-0.04087063670158386,-2.545579195022583,-0.769874632358551,-0.4456837475299835,0.04699784517288208,0.02232760190963745,-0.20932775735855103
106,1.6096904771948968,-0.6099421758129092,0.6696776198291269,0.8190612196922302,0.5728200674057007,0.031872764229774475,-2.4864912033081055,-0.7629488110542297,-0.429236501455307,0.0971221923828125,0.048838257789611816,-0.3022279739379883
107,1.69052839308182,-0.6096875888952048,0.9622417545289963,0.8139576315879822,0.572611391544342,0.09792522341012955,-2.344731092453003,-1.231942892074585,0.1207822859287262,0.17075306177139282,0.039556026458740234,-0.36060523986816406
108,1.7111028422186998,-0.521983311780071,1.2174510305380999,0.8583136796951294,0.4986003041267395,0.12122350931167603,-2.580967664718628,-0.9647516012191772,0.8188199996948242,0.21082377433776855,0.26763495802879333,-0.04309847205877304
109,1.7413678506180432,-0.42499259451771476,1.4855006375359006,0.8978206515312195,0.4123140275478363,0.15464533865451813,-2.0984103679656982,-0.7286053895950317,0.23382896184921265,-0.11681485176086426,0.045831114053726196,-0.05834712088108063
110,1.7968071199635116,-0.4261035858242952,1.6108079566893663,0.8874253034591675,0.4133259356021881,0.20405401289463043,-0.5381130576133728,0.46007540822029114,-0.6507745385169983,-0.05189979076385498,-0.06327405571937561,0.02485835552215576
111,1.8779660626301342,-0.4579662194926387,1.7023120349736867,0.8549700975418091,0.4421248137950897,0.27120476961135864,-0.9466059803962708,0.2652679979801178,-0.2868698835372925,0.10744762420654297,-0.14778274297714233,0.02797439694404602
112,1.9445141954215193,-0.43704992442821206,1.7865614571611723,0.8434687852859497,0.42326852679252625,0.3307633697986603,-0.6178979873657227,0.3278205692768097,-0.10299127548933029,-0.040200233459472656,-0.07220947742462158,0.020066767930984497
113,2.0073408246400932,-0.4253826917218171,1.8406373243133258,0.8254567980766296,0.4126693904399872,0.3851300776004791,-0.6289027333259583,0.3336317837238312,-0.13421045243740082,-0.03494471311569214,-0.032588183879852295,0.02270686626434326
114,2.069166055941801,-0.4155286182415618,1.9075495524732373,0.8036170601844788,0.40367361903190613,0.4373183846473694,-0.6569482684135437,0.429046094417572,-0.33808398246765137,-0.027829647064208984,-0.002336949110031128,-0.02505636215209961
115,2.1140566112314696,-0.41374121976319633,1.964868676143951,0.7837989926338196,0.40203768014907837,0.47331276535987854,-0.43998855352401733,0.047527968883514404,-0.21544605493545532,-0.0677192211151123,-0.0797872543334961,-0.030685722827911377
116,2.1386009614665444,-0.41876184744180595,2.0101311451517265,0.7702354788780212,0.4066295921802521,0.4913144111633301,-0.20743431150913239,0.05469183251261711,-0.3231441378593445,-0.0008873343467712402,-0.04966551065444946,-0.05355501174926758
117,2.1335391922235556,-0.4260325175612524,2.0206298287258204,0.7701914310455322,0.4132612347602844,0.48581913113594055,0.02593522146344185,-0.31741422414779663,0.10662491619586945,0.064891517162323,-0.07324966788291931,-0.005365639925003052
118,2.1065202134775856,-0.4015539399790886,2.0247818147843737,0.7914985418319702,0.39084914326667786,0.4698587656021118,-0.356011301279068,-0.39453455805778503,0.1916908323764801,-0.003885507583618164,0.010579138994216919,-0.01981598138809204
119,2.08209170563388,-0.38158386409489314,2.029864320212389,0.8093857169151306,0.37239089608192444,0.45411446690559387,-0.26175451278686523,-0.2863460183143616,0.12850236892700195,0.00270235538482666,0.013442844152450562,0.009050905704498291
120,2.0454360968721437,-0.3477834550121056,2.0511012796352586,0.8362061381340027,0.3408147990703583,0.42965665459632874,-0.1823020726442337,-0.41942456364631653,0.08633802831172943,-0.09711605310440063,0.02338200807571411,0.021881520748138428
121,2.0224039654917383,-0.3465436038103856,2.073673102231632,0.8462586998939514,0.33964893221855164,0.41046878695487976,-0.07297419011592865,-0.38652560114860535,-0.24886365234851837,0.04175692796707153,-0.05301260948181152,-0.08238965272903442
122,1.9773585815661467,-0.3508907113589348,2.068729998871324,0.8625195026397705,0.34373438358306885,0.37135788798332214,-0.03730209171772003,-0.46755433082580566,6.106868386268616e-05,-0.07142764329910278,-0.10267606377601624,0.011561363935470581
123,1.931710940203002,-0.35227533784693843,2.059134848718052,0.8781206607818604,0.34503430128097534,0.3314443826675415,0.1005045622587204,-0.4716845154762268,-0.008249202743172646,-0.003135979175567627,-0.05417126417160034,-0.013222366571426392
124,1.8661823303899072,-0.34083743379157666,2.036514576656822,0.9016565084457397,0.3342764675617218,0.2743631899356842,0.07487780600786209,-0.7819318175315857,0.36520257592201233,-0.004897356033325195,0.001783132553100586,0.07811489701271057
125,1.7834419260673364,-0.30895367377357,2.0305946954079794,0.9311948418617249,0.30406200885772705,0.20105409622192383,-0.017005592584609985,-0.810455322265625,0.3307954668998718,-0.0626797080039978,0.04193106293678284,0.13547852635383606
126,1.7104496264411737,-0.2821887618973247,2.05892358918709,0.9510977268218994,0.27845850586891174,0.13369421660900116,-0.40212011337280273,-0.7945370078086853,0.043571941554546356,-0.10248005390167236,0.12634193897247314,0.059863582253456116
127,1.6574917892029482,-0.2809722710557888,2.074696255428078,0.9571777582168579,0.2772899270057678,0.08319149911403656,-0.32975515723228455,-0.7112037539482117,0.2205786556005478,0.06299424171447754,0.09407845139503479,0.06741272658109665
128,1.5964764282333481,-0.24564163451773122,2.137987795056006,0.9696615934371948,0.24317875504493713,0.02490648254752159,-0.9067855477333069,-0.698201060295105,0.2380623072385788,-0.06986618041992188,0.17654475569725037,0.07336008548736572
129,1.5747028846133224,-0.255236974147777,2.249755495897938,0.9675960540771484,0.25247472524642944,0.0037799892015755177,-1.2422150373458862,-0.15596941113471985,-0.4096704125404358,0.012735307216644287,0.19209009408950806,-0.05236399173736572
130,1.60728017354405,-0.29479370584958986,2.363253834564653,0.9562254548072815,0.29054245352745056,0.03490227088332176,-1.2427786588668823,-0.10985415428876877,-0.231906920671463,0.06773096323013306,0.05177322030067444,-0.14821410179138184
131,1.6246739859095232,-0.30475852614484145,2.508563669103265,0.9525352716445923,0.3000628352165222,0.05137008801102638,-1.801512598991394,-0.6298629641532898,-0.041266102343797684,0.08030164241790771,0.013184845447540283,-0.12311697006225586
132,1.6062406165178913,-0.28860610061861375,2.7531733911846845,0.958039402961731,0.28461626172065735,0.03397125378251076,-2.3075320720672607,-0.6692743301391602,0.05258219689130783,-0.003022313117980957,0.12512803077697754,-0.10507714748382568
133,1.6154296461230913,-0.27853194874881215,3.036478277561905,0.960502564907074,0.2749444842338562,0.042898908257484436,-3.138108253479004,-0.8736376762390137,-0.039303235709667206,0.00725555419921875,0.1995275318622589,-0.10372042655944824
134,1.621189062666676,-0.278595335442256,-2.902270605742333,0.9602220058441162,0.27500542998313904,0.0484292171895504,-3.3909709453582764,-0.7457175850868225,-0.3747389018535614,-0.13833802938461304,0.20967471599578857,-0.07827544957399368
135,1.6522967005874334,-0.3271538437813256,-2.5959756728161114,0.9438174366950989,0.3213491439819336,0.0770922377705574,-2.431737184524536,-0.27101579308509827,-0.9152575135231018,-0.09373515844345093,0.07518097758293152,-0.18402576446533203
136,1.7008732485334632,-0.41375120952564187,-2.340909525265757,0.9078840613365173,0.4020468294620514,0.11876536160707474,-1.8434622287750244,-0.451126366853714,-1.0783462524414062,0.05288577079772949,-0.060768693685531616,-0.27515265345573425
137,1.7341212601499574,-0.49331993268628066,-2.1384974196151885,0.869044303894043,0.4735525846481323,0.14321227371692657,-1.4613776206970215,-0.6487546563148499,-0.8841761350631714,0.14149940013885498,-0.1594199538230896,-0.21711064875125885
138,1.7222804736764519,-0.53174760545194,-1.9621645187723804,0.8520519137382507,0.5070404410362244,0.1300688087940216,-1.2231582403182983,-1.1651856899261475,-0.28791797161102295,0.11680501699447632,-0.23544907569885254,-0.14081093668937683
139,1.6725340860563556,-0.5319880882067126,-1.839384402494778,0.8573442697525024,0.5072476863861084,0.08752647787332535,-0.8927444815635681,-1.0640664100646973,-0.1129980981349945,0.08021688461303711,-0.13053864240646362,-0.030031435191631317
140,1.6149732546332483,-0.540786749104207,-1.7238255114031042,0.8564676642417908,0.5148106217384338,0.03786074370145798,-0.7677322030067444,-0.9415217041969299,-0.11542809009552002,0.13689488172531128,-0.07807350158691406,0.033031586557626724
141,1.5752556242661802,-0.5229024127000491,-1.6202968632028867,0.8663647770881653,0.49939680099487305,0.003863403806462884,-1.2114009857177734,-1.0468165874481201,0.6242176294326782,0.19059622287750244,-0.04462385177612305,0.06068134307861328
142,1.528096865075087,-0.4437856997306983,-1.4693523618341844,0.9023094773292542,0.4293615221977234,-0.038551561534404755,-1.0823034048080444,-0.905130922794342,0.9207154512405396,0.040531039237976074,0.14423155784606934,0.09304070472717285
143,1.5108159223423503,-0.38554692268358004,-1.3457725939735605,0.9249266386032104,0.3760659694671631,-0.05554410070180893,-1.016308069229126,-0.44167572259902954,0.2414766550064087,-0.18461596965789795,0.17782804369926453,0.07740998268127441
144,1.5310705240318847,-0.40835784165514777,-1.2395729467218026,0.9170500636100769,0.3971027433872223,-0.036449726670980453,-0.9175112843513489,-0.02747167833149433,-0.5402140021324158,-0.1479765772819519,0.1245647668838501,0.04996901750564575
145,1.5664939177563546,-0.4897539611353367,-1.1696468500065837,0.8824405074119568,0.4704087972640991,-0.003796643577516079,-0.27421122789382935,0.30875515937805176,-0.9716253280639648,0.014028608798980713,0.06573927402496338,0.006848394870758057
146,1.6116995899210864,-0.5851757597191273,-1.1151707330475196,0.8329178690910339,0.5523459315299988,0.034088071435689926,-0.4154408872127533,0.033354226499795914,-0.8271232843399048,0.11636197566986084,-0.0725637674331665,-0.09794604778289795
147,1.6323905109719923,-0.6408624050165753,-1.0879074920506957,0.8000603318214417,0.5978869795799255,0.04934147745370865,0.027871735394001007,0.05943511426448822,-0.32515788078308105,0.12543094158172607,-0.15921205282211304,-0.10408997535705566
148,1.623994990450544,-0.6460250183565895,-1.0945131641765249,0.7973533868789673,0.6020172238349915,0.042458195239305496,0.10027432441711426,-0.09856612980365753,0.21270880103111267,0.10791999101638794,-0.15372931957244873,-0.0559622086584568
149,1.596950479170579,-0.5930787933763105,-1.1022519880993842,0.8289402723312378,0.5589166879653931,0.021685175597667694,0.06472411006689072,-0.3127778470516205,0.6671669483184814,0.08524429798126221,-0.036440491676330566,-0.049196839332580566
150,1.5642308357762336,-0.5177207550821675,-1.0945094826500266,0.8689306378364563,0.4949008822441101,-0.005705038085579872,-0.22961390018463135,-0.5172451138496399,0.7795447707176208,-0.038928866386413574,0.089495450258255,-0.01791560649871826
151,1.5240453562839367,-0.4658647278870245,-1.1011707152844805,0.8924573063850403,0.44919553399086,-0.04175366833806038,0.45102524757385254,-0.03459131345152855,0.2760566174983978,-0.08659487962722778,0.10276058316230774,0.07373607158660889
152,1.513149852728727,-0.44439729766309194,-1.1337475559980303,0.9013699889183044,0.42991378903388977,-0.052018437534570694,-0.06270307302474976,-0.016213178634643555,0.09674438089132309,-0.06322014331817627,0.11427557468414307,0.11303836852312088
153,1.521874853216121,-0.4493972819761528,-1.1097226936311553,0.8996314406394958,0.43442273139953613,-0.044046442955732346,-0.21508847177028656,-0.01348180416971445,-0.1269647479057312,-0.055683135986328125,0.09618633985519409,0.012140337377786636
154,1.5355582326986295,-0.48345795660138613,-1.0909896345129995,0.8848431706428528,0.46484360098838806,-0.031193099915981293,-0.12695513665676117,0.09512253105640411,-0.33087727427482605,-0.03828561305999756,0.02377334237098694,0.0010722894221544266
155,1.551618507847631,-0.5223655348871362,-1.070938614927998,0.8664819598197937,0.4989316165447235,-0.01661927066743374,-0.24271787703037262,0.02171824686229229,-0.3682522177696228,0.011996984481811523,-0.01209995150566101,-0.03371948003768921
156,1.5589935638404206,-0.5607947845025415,-1.054485427117895,0.8467735648155212,0.5318593978881836,-0.009994732216000557,0.05035620555281639,0.025016654282808304,-0.3552103340625763,0.04491943120956421,-0.04263216257095337,-0.0380399227142334
157,1.5574043029183453,-0.5824837005429122,-1.0592411077998087,0.8350240588188171,0.550099790096283,-0.011183330789208412,-0.08716334402561188,-0.04175605997443199,-0.09442399442195892,0.060849905014038086,-0.04848235845565796,0.026426851749420166
158,1.5657579695594679,-0.5737110496410535,-1.0296085912437332,0.839881956577301,0.5427526831626892,-0.004231661092489958,-0.26638466119766235,-0.15081718564033508,0.11268682777881622,0.0230177640914917,0.008867859840393066,-0.022959530353546143
159,1.5663858923614637,-0.5602936446752169,-1.0032056099800162,0.8470908999443054,0.531434953212738,-0.003736063139513135,-0.2629733681678772,-0.1607203334569931,0.10945339500904083,-0.013198018074035645,0.03408628702163696,0.011670589447021484
160,1.5696202402822972,-0.5569027530809019,-0.9742337753153706,0.848895788192749,0.5285595059394836,-0.0009983753552660346,-0.29589954018592834,-0.10008977353572845,0.04042753577232361,-0.027087926864624023,0.009679019451141357,0.024618983268737793
161,1.5802547718460684,-0.5663614605940291,-0.9359768119341464,0.843821108341217,0.5365651845932007,0.007981473580002785,-0.20543426275253296,-0.03418012708425522,-0.14392608404159546,0.015157103538513184,-0.002416074275970459,-0.017945408821105957
162,1.5864893013605161,-0.57842431673345,-0.9130742868089206,0.8372220993041992,0.5467052459716797,0.013139584101736546,-0.14944574236869812,-0.0333695188164711,-0.18000154197216034,-0.0037107467651367188,-0.0023326873779296875,0.011015057563781738
163,1.5936681192621849,-0.5944666767479188,-0.8993273094048024,0.8282306790351868,0.5600669980049133,0.01894642412662506,-0.06348908692598343,0.007105336058884859,-0.2061307728290558,0.028687655925750732,-0.01767808198928833,-0.007731199264526367
164,1.5911364245921693,-0.6072484657048692,-0.9160117850984233,0.8210511803627014,0.570609986782074,0.01670256443321705,0.3004467487335205,0.09327130019664764,-0.11806520074605942,0.019082367420196533,-0.059791624546051025,-0.009378315880894661
165,1.5786292402015838,-0.6220577354254068,-0.9664229056734089,0.8126562833786011,0.5827086567878723,0.006365596316754818,0.49598610401153564,0.17012760043144226,-0.17205296456813812,0.030117273330688477,-0.09258109331130981,-0.03271746635437012
166,1.5460986569314714,-0.6461047513140744,-1.0506270763494947,0.7981916069984436,0.6020808815956116,-0.01971748098731041,1.0242774486541748,0.23869551718235016,-0.3749901056289673,0.047069013118743896,-0.07839930057525635,-0.09614253044128418
167,1.4815283765182823,-0.6672045010834006,-1.214141063129741,0.782426655292511,0.6187924146652222,-0.07003174722194672,1.373139500617981,0.4222346246242523,-0.24055197834968567,0.07061588764190674,-0.08818328380584717,-0.042898595333099365
168,1.4204804011042844,-0.6680281113747137,-1.3880126456498127,0.7761923670768738,0.6194391846656799,-0.11756083369255066,1.3670762777328491,0.6110444664955139,-0.048677265644073486,0.10373622179031372,-0.06850540637969971,-0.04206138104200363
169,1.3991190662617086,-0.6327673374325656,-1.539211786918241,0.7945398688316345,0.5913785696029663,-0.13776050508022308,1.035800576210022,0.6621758937835693,0.3732256591320038,0.06733769178390503,0.005881011486053467,-0.09278453886508942
170,1.3944275340973484,-0.5767530212871547,-1.6398910454011717,0.8252342343330383,0.545305073261261,-0.14707370102405548,0.7797340750694275,0.45691120624542236,0.4165642261505127,-0.02904599905014038,0.12005430459976196,-0.10889248549938202
171,1.4012778676887585,-0.5233568913813121,-1.7193190096160225,0.8537312150001526,0.4997905194759369,-0.14612559974193573,0.6623789668083191,0.5291512608528137,0.44859278202056885,-0.07975953817367554,0.14571738243103027,-0.09964771568775177
172,1.4117663810483474,-0.4822541890375844,-1.7907578687169168,0.8747722506523132,0.46377745270729065,-0.1402997374534607,0.6966888904571533,0.4008548855781555,0.22173672914505005,-0.07394522428512573,0.15409672260284424,-0.0696001648902893
173,1.4223139246514342,-0.44795911865817395,-1.8469250979952883,0.8914154171943665,0.43312692642211914,-0.13334086537361145,0.4276527762413025,0.32704049348831177,0.17698602378368378,-0.0945860743522644,0.16283562779426575,-0.0038051754236221313
174,1.4445185586894935,-0.4427336644886164,-1.868760211111494,0.8963891863822937,0.4284111559391022,-0.113799549639225,0.1115601435303688,0.41638076305389404,-0.16942894458770752,-0.1018640398979187,0.12679511308670044,0.026290424168109894
175,1.499131101660087,-0.4690717544489862,-1.8745950437310623,0.8896988034248352,0.45205849409103394,-0.06386984139680862,-0.10704191029071808,0.6509262919425964,-0.26967889070510864,0.01095128059387207,0.07781818509101868,0.0028804540634155273
176,1.5764867854647846,-0.48801423021350077,-1.8333948143992929,0.8832515478134155,0.4688728451728821,0.00502616073936224,-0.6721003651618958,0.4686650335788727,0.005129155702888966,0.07899832725524902,0.03196641802787781,-0.03827500343322754
177,1.656582526990884,-0.465555103673575,-1.7276371149958771,0.8902865052223206,0.4489189088344574,0.07656220346689224,-1.0019543170928955,0.19479766488075256,0.34244486689567566,0.07805150747299194,0.03640216588973999,-0.08850979804992676
178,1.7023641969699947,-0.4223986303009098,-1.6060263583464105,0.9042253494262695,0.4099494516849518,0.11965823918581009,-1.0621974468231201,-0.31080254912376404,0.22786679863929749,-0.04283618927001953,-0.030387073755264282,-0.03800845146179199
179,1.7178310232276595,-0.4005714620349469,-1.539233515429061,0.9109023213386536,0.3899446427822113,0.13490785658359528,-0.3976706564426422,0.18631982803344727,0.28605759143829346,0.04918062686920166,-0.09987509250640869,0.07783018052577972
180,1.7408406098314408,-0.36056942459061,-1.4925563762790992,0.9222008585929871,0.35280710458755493,0.1583441197872162,-0.5782676339149475,-0.028929540887475014,0.3228134512901306,-0.05898064374923706,-0.03124341368675232,0.023876428604125977
181,1.7572672853995925,-0.33960918342354407,-1.4724024159167954,0.9265395998954773,0.33311861753463745,0.1748034954071045,-0.026935264468193054,0.16826336085796356,0.08454437553882599,-0.08022618293762207,-0.03705239295959473,0.018052324652671814
182,1.7641279124088018,-0.34100629261888477,-1.4632522920595201,0.924860954284668,0.3344356119632721,0.1810663789510727,0.12063393741846085,0.015175914391875267,-0.16408276557922363,-0.03994274139404297,-0.0035640299320220947,-0.008214831352233887
183,1.7653863826716527,-0.36346959161182485,-1.4738964829512997,0.9170288443565369,0.35551929473876953,0.1807316243648529,0.07111679762601852,-0.037069253623485565,-0.2239440381526947,-0.006399691104888916,-0.05234244465827942,0.022744283080101013
184,1.7678161595875164,-0.38496977525290377,-1.479651044533767,0.9088799357414246,0.3755311369895935,0.18142086267471313,0.19127142429351807,0.014085381291806698,-0.24263252317905426,0.04125422239303589,-0.058926552534103394,-0.002816706895828247
185,1.7643657443388734,-0.39833771941742735,-1.4974020613489054,0.9044931530952454,0.38788673281669617,0.17730221152305603,0.18064157664775848,-0.060175005346536636,0.021523451432585716,0.058931589126586914,-0.06180641055107117,0.002080082893371582
186,1.7533209208334257,-0.37761351838386287,-1.5209198523688636,0.9141061305999756,0.3687031865119934,0.16872471570968628,0.2642804980278015,-0.10140888392925262,0.2504062056541443,0.0005514621734619141,-0.0070698559284210205,-0.004875898361206055
187,1.7294689119453257,-0.35254612394987056,-1.5553132443606246,0.9267070889472961,0.3452884554862976,0.14828959107398987,0.18798688054084778,-0.19833609461784363,0.33433660864830017,-0.07029235363006592,0.007098019123077393,0.041163548827171326
188,1.6947194662877978,-0.3335795265638323,-1.5757520201182798,0.9376305341720581,0.32742732763290405,0.11679258942604065,0.1243211030960083,-0.32305657863616943,0.15056121349334717,-0.0933464765548706,0.039836496114730835,0.07711613178253174
189,1.6621239884418688,-0.33671670037461077,-1.5957267124207124,0.9399111866950989,0.33038994669914246,0.08607934415340424,0.12440666556358337,-0.27618151903152466,-0.1165597066283226,-0.0742037296295166,0.06322580575942993,0.10061193257570267
190,1.6108464542505334,-0.3646524019206414,-1.570037566860484,0.9334986209869385,0.356624573469162,0.037406742572784424,-0.3531028926372528,-0.713162362575531,-0.5011672973632812,-0.03879952430725098,0.1093941330909729,0.07482171058654785
191,1.5758172496982528,-0.41597707252306576,-1.5088384998542756,0.9147104620933533,0.40408387780189514,0.004592729266732931,-1.0861194133758545,-0.7930549383163452,-0.5894175171852112,0.08089494705200195,0.15431153774261475,0.0235903263092041
192,1.555029862854713,-0.46624037770273696,-1.360632001701464,0.8931536078453064,0.4495311379432678,-0.01408304087817669,-1.5547069311141968,-0.7719051837921143,-0.09343560039997101,0.11739015579223633,0.03731578588485718,-0.032074809074401855
193,1.5456994667129837,-0.45815570154289775,-1.1993629503800995,0.8965873718261719,0.44229477643966675,-0.02250625379383564,-1.1809734106063843,-0.7040205597877502,0.08775749802589417,-0.038753509521484375,0.10381728410720825,-0.04841655492782593
194,1.5632372593502355,-0.44095864219481595,-1.0960521832646477,0.9043170809745789,0.42680659890174866,-0.006835923995822668,-0.884204089641571,-0.003243807703256607,0.455565482378006,0.13769030570983887,-0.10525813698768616,-0.091339111328125
195,1.5782329007681262,-0.28132789933527147,-1.0066991674442338,0.9606610536575317,0.27763158082962036,0.007144158706068993,-1.233074426651001,-0.6711814999580383,2.5892245769500732,0.36494624614715576,-0.18757420778274536,-0.17204582691192627
196,1.4772590470067577,0.020278476820604116,-0.900198280107798,0.9954237937927246,-0.02027708664536476,-0.09338173270225525,-0.7206749320030212,-1.6369376182556152,3.33223557472229,0.37805020809173584,-0.11001771688461304,-0.16066187620162964
197,1.2122915227463333,0.303688973828876,-0.7587121846782797,0.8935717344284058,-0.29904240369796753,-0.33481845259666443,-0.17683787643909454,-2.7523696422576904,3.191774606704712,0.08590519428253174,0.05987614393234253,0.01639801263809204
198,0.8997203467777389,0.5371048356258995,-0.610966119648366,0.6728801131248474,-0.5116506218910217,-0.5342714786529541,-0.13863416016101837,-2.618061065673828,2.4429969787597656,0.2453327775001526,0.17348533868789673,0.0404360294342041
199,0.5562047997149484,0.6848000865713867,-0.44718536100949485,0.4089343845844269,-0.6325181722640991,-0.6577943563461304,0.14663071930408478,-2.816412925720215,1.6487282514572144,0.16299554705619812,0.3079485297203064,0.07812821865081787
200,0.22839670195349787,0.7440629788287533,-0.3040620759321588,0.16657954454421997,-0.6772826910018921,-0.716616690158844,0.23768138885498047,-1.9259707927703857,0.8329548835754395,0.09018008410930634,0.19035953283309937,0.017214834690093994
201,0.00020379490736983973,0.7727229752397554,-0.24115749236822054,0.00014591969375032932,-0.6980875134468079,-0.7160124182701111,0.10230139642953873,-1.5410263538360596,0.18735602498054504,0.05649470537900925,0.17564183473587036,0.03719472885131836
202,-0.1461651606094007,0.7935155604534319,-0.22937498542464949,-0.10214739292860031,-0.7128232717514038,-0.693865180015564,-0.21869292855262756,-1.4017131328582764,0.09167911112308502,0.09201554954051971,0.07512795925140381,0.009996771812438965
203,-0.2797379657243563,0.7908995925746057,-0.23998096045960737,-0.19415783882141113,-0.7109861373901367,-0.6758708357810974,0.3737903833389282,-1.0092716217041016,-0.17582498490810394,0.09384658932685852,0.111392080783844,-0.028245985507965088
204,-0.3771973417766368,0.832477536959443,-0.2431711003218525,-0.2478935867547989,-0.7396011352539062,-0.6257306933403015,0.24438801407814026,-1.0897035598754883,-0.12876051664352417,0.1342156082391739,0.08992767333984375,-0.07368642091751099
205,-0.4842826416558155,0.8771403359282668,-0.23205084219655203,-0.29766568541526794,-0.7689136862754822,-0.5658329129219055,0.9123184084892273,-0.6018081307411194,-0.16725140810012817,0.11767300963401794,0.10617870092391968,-0.10256308317184448
206,-0.5903162926632921,0.9538810845903667,-0.16534367688194565,-0.3220190703868866,-0.815666913986206,-0.4806155562400818,0.7860348224639893,-0.47308850288391113,-0.08944596350193024,0.0970587432384491,0.13002848625183105,-0.04250150918960571
207,-0.6355373200325058,0.987495329611124,-0.16734179062675614,-0.3269498348236084,-0.8346490859985352,-0.4432435631752014,0.14446264505386353,-0.3213345408439636,-0.2787662744522095,0.06109592318534851,0.059426188468933105,-0.06704092025756836
208,-0.6306292119452815,1.0141886389932522,-0.19883201841185918,-0.311519056558609,-0.8490521907806396,-0.42669230699539185,-0.20612765848636627,-0.29921528697013855,-0.2039625644683838,0.06075611710548401,0.06638312339782715,-0.11690205335617065
209,-0.6266740003906655,1.0293168170188274,-0.23623121983455203,-0.30226102471351624,-0.8569470643997192,-0.4174686372280121,0.5318804383277893,-0.0924529880285263,-0.3386266827583313,0.05818146467208862,0.10539066791534424,-0.15691792964935303
210,-0.6403546200339288,1.0554073418734837,-0.2642243718253659,-0.29448190331459045,-0.8701010942459106,-0.39522722363471985,0.0628393366932869,0.015182659029960632,-0.11885225772857666,0.028856903314590454,0.08120644092559814,-0.01634812355041504
211,-0.5943863763869224,1.0667239709064074,-0.27920639533377356,-0.2704775631427765,-0.8756229281425476,-0.4001578390598297,0.04947413131594658,0.6044055223464966,0.00036215968430042267,0.021240562200546265,0.11198163032531738,0.04272070527076721
212,-0.46506121240686077,1.0991458616476322,-0.36070179408343633,-0.2037690430879593,-0.8908196091651917,-0.40610188245773315,0.5428245067596436,0.7195174694061279,-0.8486278653144836,-0.039761245250701904,0.07511520385742188,0.07848042249679565
213,-0.2910174354383774,1.1816318061622213,-0.4938691367334143,-0.10886456817388535,-0.9252263903617859,-0.36346203088760376,0.08042789250612259,0.14399398863315582,-0.7008475661277771,0.01908186823129654,-0.06082707643508911,0.03507760167121887
214,-0.17117734020103073,1.1913452564813218,-0.6424890417894922,-0.06309667229652405,-0.9288681149482727,-0.3649968206882477,-0.2748411297798157,-0.20052827894687653,0.15284457802772522,0.21275487542152405,-0.48989397287368774,0.12332817912101746
215,-0.20293752118691874,1.1746561883185596,-0.6428156673815153,-0.07776913046836853,-0.9225572347640991,-0.3779418468475342,-0.45280003547668457,-0.9602112770080566,0.4788127541542053,-0.04773440212011337,-0.1467786431312561,-0.012591570615768433
216,-0.36116828827854425,1.1180456959975305,-0.5519646182099386,-0.15457725524902344,-0.8992472887039185,-0.409218966960907,-0.5157946944236755,-0.34804731607437134,0.47303688526153564,-0.01931189000606537,-0.10320931673049927,0.04160425066947937
217,-0.49591666803548695,1.0892660324715775,-0.5081523583655001,-0.2203778177499771,-0.8862872123718262,-0.40734347701072693,-0.21371063590049744,-0.8354458212852478,0.26704418659210205,-0.1026659905910492,-0.023685932159423828,-0.011906981468200684
218,-0.4481536652229562,0.9658745920310415,-0.5888502990060832,-0.2464180439710617,-0.8225466012954712,-0.5125381350517273,-1.627350091934204,-0.7661235928535461,0.1391146034002304,0.11243060231208801,-0.03952920436859131,-0.023060619831085205
219,-0.5098314190843569,0.8930147431248782,-0.6552186190993817,-0.30602729320526123,-0.7789657115936279,-0.5473203659057617,-0.24349245429039001,-1.0255309343338013,-0.04086797311902046,0.05869761109352112,0.0665176510810852,0.019747793674468994
220,-0.5043494543393682,0.9451010419744513,-0.7425525612657499,-0.28301361203193665,-0.8105561137199402,-0.5127397179603577,0.5807672739028931,-0.8536144495010376,-1.6277365684509277,-0.19498321413993835,0.06273818016052246,-0.09933602809906006
221,-0.46017287084072306,1.0155962771567697,-0.9389079763994098,-0.2340926080942154,-0.8497949838638306,-0.47228074073791504,0.10148676484823227,-2.3729445934295654,-1.245620608329773,-0.03299723565578461,0.12634533643722534,-0.10862132906913757
222,-0.5594785617470855,1.0606218491057737,-1.0252501646556125,-0.259178102016449,-0.8726593255996704,-0.4138748347759247,-0.34506165981292725,-2.166266679763794,-0.3064315915107727,-0.046516478061676025,0.01589357852935791,0.06641697883605957
223,-0.5825277656891303,1.0033220342864555,-1.1680038204323397,-0.2957005798816681,-0.8432612419128418,-0.4488559663295746,-1.3917704820632935,-0.9317737221717834,-0.22880761325359344,0.014832079410552979,0.002013683319091797,-0.030727744102478027
224,-0.5511561314456132,0.9498759593870857,-1.36592442908373,-0.30466434359550476,-0.813343346118927,-0.4956333041191101,-0.5109635591506958,-1.8932735919952393,-0.49409040808677673,0.08196231722831726,0.07538241147994995,-0.20280730724334717
225,-0.5818835531216037,0.9428341533824229,-1.4560291082131338,-0.3228873610496521,-0.809226393699646,-0.49081185460090637,-0.29479944705963135,-0.583747923374176,-0.2908537685871124,0.06969830393791199,0.05130714178085327,-0.08822861313819885
226,-0.6074244960461149,0.9346093628803654,-1.5063184913861594,-0.33910393714904785,-0.8043670654296875,-0.48785465955734253,0.04019965976476669,-0.41610395908355713,-0.13971830904483795,0.04228997230529785,0.0520477294921875,-0.08381584286689758
227,-0.6172057951384199,0.9296647531523994,-1.5070565658012434,-0.34615716338157654,-0.8014194965362549,-0.4877520501613617,0.16036103665828705,-0.20585480332374573,0.2752727270126343,0.05189141631126404,0.006695985794067383,-0.0639142394065857
228,-0.644292569041578,0.9342823549131888,-1.4763262842776432,-0.3570137321949005,-0.804172694683075,-0.4752342104911804,0.16821451485157013,0.32887476682662964,0.26044559478759766,0.018970519304275513,-0.006084263324737549,-0.02317887544631958
229,-0.6572913872280253,0.9409143271917995,-1.4163981386068987,-0.35989436507225037,-0.8080970048904419,-0.4663209915161133,0.2953580915927887,0.5698801875114441,0.4479626715183258,0.054199784994125366,0.00824660062789917,0.009976416826248169
230,-0.6981193825175851,0.9388194429370507,-1.3169019598820115,-0.37971535325050354,-0.8068612813949585,-0.45253846049308777,0.38182196021080017,0.3786599338054657,0.4647664725780487,-0.022201091051101685,0.03055518865585327,0.02359864115715027
231,-0.7380401245720715,0.9382762344902309,-1.210163500665588,-0.39776867628097534,-0.8065402507781982,-0.43734773993492126,0.47837692499160767,0.4901074469089508,0.4513382911682129,-0.03513842821121216,0.021750211715698242,0.031174004077911377
232,-0.7885216258869238,0.9335536190901709,-1.1061298157605168,-0.4220275282859802,-0.8037393689155579,-0.41939935088157654,0.3554266393184662,0.3118336796760559,0.47714900970458984,-0.014205962419509888,0.020215749740600586,0.047512173652648926
233,-0.7995853121116514,0.9205802662388419,-1.0158446256381894,-0.43408262729644775,-0.7959530353546143,-0.42193734645843506,0.38423749804496765,0.5772771835327148,0.623942494392395,0.05714479088783264,0.019219636917114258,0.03759896755218506
234,-0.8422048154528582,0.9034309862035468,-0.8969917249091721,-0.46178334951400757,-0.785455048084259,-0.41208815574645996,0.37338805198669434,0.907211184501648,0.6999504566192627,0.08838552236557007,0.024773836135864258,0.03984999656677246
235,-0.8326748993007616,0.8454410108494935,-0.7925807948877684,-0.49074047803878784,-0.7482637763023376,-0.446402370929718,0.0408235602080822,0.6297951936721802,1.0952619314193726,0.08740493655204773,0.053515851497650146,-0.0722438395023346
236,-0.8458900931369965,0.7573126517053487,-0.6659438652929005,-0.5439682602882385,-0.6869710683822632,-0.4818393588066101,0.0900951474905014,0.8986078500747681,1.3786048889160156,0.1090165376663208,0.04936736822128296,-0.1076991856098175
237,-0.8489454659822318,0.671028218289173,-0.5344277229813269,-0.5878444314002991,-0.6217916011810303,-0.5175075531005859,0.36075249314308167,0.6470531225204468,1.1200672388076782,0.06617701053619385,0.03673917055130005,-0.1692294478416443
238,-0.8595387704041959,0.6134371987317662,-0.40088900137496597,-0.619422197341919,-0.5756813883781433,-0.53376704454422,0.5008367896080017,0.7870551347732544,1.048931360244751,0.019400835037231445,0.03564232587814331,-0.1938941478729248
239,-0.8608348014501288,0.5786818998877422,-0.2773918761952692,-0.6349096298217773,-0.546920895576477,-0.545680582523346,0.7059062719345093,0.6468607783317566,0.6779965758323669,-0.06766605377197266,0.08792132139205933,-0.24422121047973633
240,-0.8658788556486565,0.5834295885472778,-0.12935103786282443,-0.6356691122055054,-0.5508894324302673,-0.5407825112342834,1.1286028623580933,0.5590803623199463,0.7966467142105103,0.04521501064300537,0.10463088750839233,-0.10782283544540405
241,-0.8947130694055551,0.5782034599763104,0.010616866644061463,-0.6532325744628906,-0.5465202927589417,-0.5240256190299988,0.6854696273803711,0.30964383482933044,0.7122134566307068,0.00569528341293335,0.02955251932144165,-0.08025294542312622
242,-0.9154795870241964,0.5714349108971333,0.13135527893045706,-0.6668907999992371,-0.5408395528793335,-0.5125908255577087,0.6587820053100586,0.38011544942855835,0.5737366080284119,0.0038811564445495605,0.001685500144958496,-0.061734676361083984
243,-0.9314816623029492,0.5718384714541395,0.23575212622673866,-0.6748323440551758,-0.5411789417266846,-0.5017237663269043,0.6737311482429504,0.09736189991235733,0.4826829731464386,0.01740741729736328,-0.03117823600769043,-0.0595860481262207
244,-0.9301019969930104,0.5630192839938422,0.31180489394665334,-0.6779393553733826,-0.5337418913841248,-0.5054876208305359,0.37816181778907776,1.0082306861877441,0.3537534177303314,0.014945030212402344,-0.008341789245605469,-0.06700682640075684
245,-0.9287741128892438,0.5667339244433353,0.4013712716311874,-0.6756750345230103,-0.5368794798851013,-0.5051966905593872,0.66849684715271,-0.054913174360990524,0.5132964849472046,0.09132444858551025,-0.012696325778961182,-0.024603724479675293
246,-0.980049433306427,0.5644194561657783,0.5008628553283447,-0.7017098665237427,-0.5349254012107849,-0.47059324383735657,0.6413783431053162,0.18409886956214905,0.3244197368621826,0.010593593120574951,0.04868888854980469,-0.08493348956108093
247,-1.0395423418579939,0.5736504171620285,0.6335765187445511,-0.7241606116294861,-0.5427017211914062,-0.4255187511444092,0.9966924786567688,-0.3245702087879181,0.4999309480190277,0.01836538314819336,0.049934446811676025,-0.0006744563579559326
248,-1.118904107457798,0.557969857136571,0.7562263818087799,-0.7631782293319702,-0.5294650793075562,-0.3704398274421692,0.8349809646606445,-0.1398869752883911,0.5575979351997375,-0.04097515344619751,0.07402080297470093,-0.0601479709148407
249,-1.1794527808774706,0.5344297009441998,0.8739197877823115,-0.795498788356781,-0.5093503594398499,-0.32824376225471497,0.5845983624458313,0.21126069128513336,0.5581914186477661,-0.040835440158843994,0.059139788150787354,-0.019351482391357422
250,-1.1882041376353334,0.509698994786801,0.9684779266071012,-0.8097813725471497,-0.4879145324230194,-0.3258734941482544,0.7224219441413879,0.13116884231567383,0.5370928645133972,0.014844238758087158,0.0364375114440918,-0.042031168937683105
251,-1.21345690696378,0.48779756700382565,1.070534050011648,-0.8275655508041382,-0.4686814546585083,-0.3089867830276489,0.6370644569396973,0.24289846420288086,0.447687566280365,-0.04950958490371704,-0.0023573338985443115,0.0017053186893463135
252,-1.2145984964477239,0.472947489506369,1.1518234979267896,-0.8343493938446045,-0.4555121958255768,-0.31043484807014465,0.6279239058494568,0.29003989696502686,0.2752818465232849,-0.04228329658508301,0.00144118070602417,-0.0038657188415527344
253,-1.17221116450092,0.4713601368534021,1.218820453216864,-0.821110725402832,-0.45409852266311646,-0.34579145908355713,0.3003866970539093,1.103877067565918,0.22469481825828552,-0.01908397674560547,-0.010729998350143433,0.03675520420074463
254,-1.1034859621946558,0.47017895978609586,1.2656500219964106,-0.795904815196991,-0.4530458450317383,-0.401603102684021,0.517622709274292,0.7302235960960388,0.11906646937131882,-0.02434670925140381,0.010800361633300781,0.001304030418395996
255,-1.0506299072712943,0.48436805018798623,1.3242449157477922,-0.7679202556610107,-0.46564918756484985,-0.4398515224456787,0.5236290693283081,1.0751317739486694,0.08226221799850464,-0.027764558792114258,-0.0016206800937652588,0.01728987693786621
256,-0.9407014246833927,0.4985590175286368,1.362671401755689,-0.7096192240715027,-0.47816047072410583,-0.5174970030784607,0.42304080724716187,1.1978745460510254,0.016861215233802795,-0.00038748979568481445,-0.025730490684509277,0.013667047023773193
257,-0.881165322055217,0.5323739791639729,1.4273518274432506,-0.6647113561630249,-0.5075802206993103,-0.5481980443000793,0.6276079416275024,0.6591333746910095,0.06080671027302742,-0.019309580326080322,-0.017413675785064697,0.04549729824066162
258,-0.8060965334886507,0.5624657740438386,1.4969721167401375,-0.6104240417480469,-0.5332736968994141,-0.5856634974479675,0.292860746383667,1.3372703790664673,0.2936069369316101,-0.005115509033203125,-0.0002651214599609375,0.08915770053863525
259,-0.7382198245829587,0.5521617652568266,1.5415434634408465,-0.5729635953903198,-0.524528980255127,-0.6297476291656494,0.3391494154930115,0.758196234703064,0.23658688366413116,-0.0066567063331604,0.06192827224731445,-0.03780907392501831
260,-0.6924869417205736,0.5769540458907811,1.5948299548270009,-0.5351055860519409,-0.545473575592041,-0.6450741291046143,0.5144788026809692,0.30620458722114563,0.1721871942281723,0.07538878917694092,0.008928775787353516,0.020959138870239258
261,-0.7200285420030175,0.6089127631467922,1.636302452257052,-0.5408912897109985,-0.5719759464263916,-0.6166684627532959,0.44229063391685486,0.3121579885482788,0.19099219143390656,0.08874291181564331,0.010818779468536377,0.045242130756378174
262,-0.7022049299060332,0.6100777034127935,1.6549683000419455,-0.5293840169906616,-0.572931170463562,-0.6257016062736511,0.09647441655397415,0.15915624797344208,0.14516916871070862,0.033030807971954346,0.009622454643249512,-0.05711394548416138
263,-0.7233374145125304,0.6298659437935591,1.6776570875685288,-0.5348776578903198,-0.5890364050865173,-0.6057572960853577,0.15837442874908447,-0.04652911424636841,-0.09797666221857071,-0.026233792304992676,-0.037336766719818115,0.012816131114959717
264,-0.7478832440929863,0.6487456169556485,1.6884144762203763,-0.5419232845306396,-0.6041873097419739,-0.5841891169548035,0.15320834517478943,-0.2638601064682007,-0.14416149258613586,0.02524542808532715,-0.04989588260650635,0.05310696363449097
265,-0.7950747553136991,0.6616869043233446,1.7040849222927863,-0.563248872756958,-0.614448606967926,-0.5524523854255676,0.10296541452407837,-0.33480772376060486,-0.08449707180261612,-0.006788909435272217,-0.031989991664886475,0.0043566226959228516
266,-0.8075442173321082,0.6726878634728634,1.703229067645568,-0.5651748776435852,-0.6230905652046204,-0.5406805276870728,0.01277790404856205,-0.177329421043396,-0.07582265138626099,0.04532325267791748,-0.03970539569854736,-0.01568537950515747
267,-0.8262830792299967,0.6928770873585386,1.704758206456462,-0.5658388733863831,-0.6387534737586975,-0.5213639140129089,0.007636202499270439,-0.05181162431836128,-0.04606214910745621,0.07566559314727783,-0.028467535972595215,-0.008634865283966064
268,-0.8059361419044331,0.7046121510063078,1.6943374813310124,-0.5496681928634644,-0.6477383971214294,-0.5275413990020752,0.16544410586357117,-0.007059760391712189,-0.11917448788881302,0.09632962942123413,-0.028485357761383057,-0.055619001388549805
269,-0.8154689870510952,0.7302126742532941,1.6987882839606117,-0.542418897151947,-0.6670281291007996,-0.5107400417327881,0.07008335739374161,0.019564684480428696,-0.1442941278219223,0.06672614812850952,-0.048822760581970215,-0.01048499345779419
270,-0.8115131343641719,0.7579386020712212,1.702230778707322,-0.5267740488052368,-0.6874257922172546,-0.4999549686908722,0.30396032333374023,-0.035730715841054916,-0.19000424444675446,0.049769043922424316,-0.030484914779663086,-0.013289690017700195
271,-0.8156521312918518,0.7820605035251985,1.7181856502266855,-0.5166115760803223,-0.7047427892684937,-0.48626142740249634,0.28186705708503723,0.13231496512889862,-0.11040683090686798,0.04546600580215454,-0.017318367958068848,0.01772502064704895
272,-0.8233786115086749,0.8077518149299419,1.7470778965671838,-0.5069032907485962,-0.7227352261543274,-0.46979016065597534,0.31148561835289,0.23780016601085663,-0.09058977663516998,-0.010171294212341309,0.009219050407409668,0.02813979983329773
273,-0.8117586772505293,0.8325856769720816,1.774700645089956,-0.4882355332374573,-0.739673912525177,-0.46315068006515503,0.23841772973537445,0.24727626144886017,-0.11932127922773361,-0.09634390473365784,-0.014171302318572998,0.006317794322967529
274,-0.817526890355106,0.8745752309379439,1.8139042873169977,-0.4678170680999756,-0.7672711610794067,-0.4386823773384094,0.5580053925514221,0.09228219091892242,-0.002607278525829315,-0.043428659439086914,-0.011003375053405762,0.015739262104034424
275,-0.8540841160649241,0.912679966496703,1.8828927253489953,-0.4611486792564392,-0.7911457419395447,-0.40178394317626953,0.6453787088394165,0.22841009497642517,0.1013370156288147,-0.005632936954498291,0.018562734127044678,-0.019465386867523193
276,-0.9146599089505468,0.9580338264308931,1.9766907219564518,-0.45570680499076843,-0.8180623650550842,-0.3508635461330414,0.667022168636322,0.02897712215781212,0.021842019632458687,0.04330754280090332,0.021645188331604004,0.007449299097061157
277,-1.0188899387128507,0.9984688467655884,2.0960556291407513,-0.4611783027648926,-0.8406426906585693,-0.2839618921279907,0.7282215356826782,0.030024275183677673,0.10822401195764542,-0.002475231885910034,0.02818852663040161,0.01218762993812561
278,-1.081117051439343,1.0339279507156365,2.1851363060502886,-0.4513440728187561,-0.8593145608901978,-0.24055567383766174,0.6002710461616516,-0.09658095985651016,-0.15053503215312958,-0.03959217667579651,0.08038395643234253,0.02777184545993805
279,-1.1711310866903233,1.0739877947916825,2.280478856144624,-0.4390605092048645,-0.879108190536499,-0.18545858561992645,0.4844822287559509,-0.18385235965251923,-0.07578214257955551,-0.030238866806030273,0.07870829105377197,0.09289871156215668
280,-1.2058791134167468,1.0854518269860156,2.3216278850701584,-0.43579453229904175,-0.8845142722129822,-0.16648535430431366,0.06714657694101334,0.02252391166985035,0.11119725555181503,0.020816564559936523,0.03000694513320923,0.05242593586444855
281,-1.2541278398215496,1.083258996398408,2.3494902656640604,-0.4451592266559601,-0.883489191532135,-0.1458769291639328,-0.01180244144052267,-0.048610586673021317,0.012173816561698914,-0.04866096377372742,0.00916057825088501,0.05382068455219269
282,-1.2579491628448285,1.083052229349129,2.3510199429810634,-0.4458872973918915,-0.8833922743797302,-0.14423102140426636,-0.07134498655796051,-0.05487969517707825,0.03639383241534233,0.04738876223564148,-0.006927549839019775,0.03165167570114136
283,-1.3027583116769792,1.0755119550197898,2.382943663602386,-0.45831072330474854,-0.8798335790634155,-0.12587366998195648,0.05388522520661354,-0.21566109359264374,0.14304155111312866,0.040601372718811035,0.030147910118103027,0.052265286445617676
284,-1.304817935895972,1.0595888431857863,2.375134202259396,-0.4720272123813629,-0.8721544146537781,-0.12859591841697693,-0.2694801986217499,0.1257345825433731,-0.007077077403664589,0.00909087061882019,0.04026055335998535,0.06170143187046051
285,-1.1450492799018028,1.0408116700280252,2.2513884939792823,-0.46039271354675293,-0.8628148436546326,-0.20878051221370697,-1.1060277223587036,0.6665473580360413,-0.29647907614707947,-0.06905674934387207,-0.015801608562469482,0.15418455004692078
286,-0.8287596724402475,1.0050885273930097,1.971178494921783,-0.3950921297073364,-0.8442094326019287,-0.3622328042984009,-1.3103084564208984,0.4853702485561371,-0.6585435271263123,-0.053729861974716187,-0.005399882793426514,0.023914963006973267
287,-0.6398783516960372,0.9862738388370044,1.77480556194149,-0.3294794261455536,-0.8339756727218628,-0.4426376223564148,-0.8346734046936035,0.49094417691230774,-0.5685173869132996,-0.04054620862007141,-0.012246251106262207,0.0646316409111023
288,-0.4575599165783856,0.9611517640637229,1.6408605158302711,-0.25294139981269836,-0.8198515772819519,-0.5136769413948059,-0.37769731879234314,0.7605634927749634,-0.31133681535720825,-0.013278692960739136,0.004955947399139404,0.020268738269805908
289,-0.33646811198764237,0.9440057434375874,1.5766785449468539,-0.19365209341049194,-0.8099141716957092,-0.5536587238311768,0.006381883751600981,0.5925461053848267,-0.3212246894836426,-0.04823023080825806,-0.009681165218353271,-0.05243563652038574
290,-0.2810560102984072,0.9518133924670135,1.542085012145323,-0.160932257771492,-0.8144689798355103,-0.5574415326118469,0.20196551084518433,0.04165012389421463,-0.24586540460586548,-0.043871209025382996,0.004059493541717529,-0.024711787700653076
291,-0.2901325431846358,0.9724507963480868,1.536290746822621,-0.16114163398742676,-0.8262686729431152,-0.5397346615791321,0.09053654223680496,-0.10960113257169724,-0.19428107142448425,-0.08479952812194824,-0.008600711822509766,0.00270158052444458
292,-0.28949840065690385,0.9725944703998941,1.5278250685512,-0.16076545417308807,-0.8263496160507202,-0.5397229790687561,-0.13618433475494385,-0.1912909597158432,-0.0410412922501564,-0.03207510709762573,0.011316657066345215,0.041462481021881104
293,-0.30781721454417754,0.9711013279808917,1.5361361645958314,-0.17099860310554504,-0.8255078196525574,-0.5378626585006714,0.03874373808503151,-0.38197970390319824,0.1971956193447113,0.006524115800857544,-0.008858025074005127,0.008382678031921387
294,-0.4033284770840171,0.9849012285125539,1.5848530908254523,-0.21702107787132263,-0.8332175016403198,-0.5085769295692444,0.3053843080997467,-0.544277548789978,0.1367378979921341,-0.004063516855239868,-0.015720486640930176,0.0022750496864318848
295,-0.5351758107861678,1.0057495376221106,1.6399210780643583,-0.273078054189682,-0.8445635437965393,-0.46058735251426697,0.4227854013442993,-0.8073888421058655,0.2482786923646927,0.016562581062316895,-0.001627802848815918,0.003891855478286743
296,-0.7748849416290324,1.037606539765097,1.7911958908695154,-0.35561197996139526,-0.861190140247345,-0.36316898465156555,1.2989485263824463,-1.869232416152954,0.618737518787384,0.07727640867233276,0.01129084825515747,-0.07639098167419434
297,-1.4093030571952803,1.0637290651537308,2.2262633553523017,-0.47929707169532776,-0.8741724491119385,-0.07808323949575424,2.205765962600708,-2.482029914855957,0.7923531532287598,0.05096757411956787,0.019558191299438477,-0.02547818422317505
298,-1.915572906298794,0.9714695985974121,2.584624910262936,-0.5308904647827148,-0.8257156014442444,0.19065353274345398,1.8919520378112793,-1.4836368560791016,0.6596999764442444,0.023841023445129395,0.06311196088790894,-0.023249417543411255
299,-2.2994336126059265,0.8015938901629488,2.826679119801003,-0.5189467668533325,-0.7184656262397766,0.4631425738334656,1.9920542240142822,-1.5426419973373413,0.6371262669563293,0.02904820442199707,0.04666709899902344,0.013450294733047485
300,-2.414394068676722,0.688121629962541,2.892760363538534,-0.5135024189949036,-0.6350873708724976,0.5770434737205505,0.1891142576932907,-0.07403796911239624,0.2926409840583801,0.01716458797454834,-0.016493380069732666,0.11314195394515991
301,-2.4017381926068753,0.6857755292825487,2.8697113290688123,-0.5217670798301697,-0.6332734227180481,0.5715973973274231,-0.05890754610300064,-0.10070457309484482,0.0871463418006897,0.017799854278564453,0.026965439319610596,0.017635881900787354
302,-2.3391022993698827,0.7374213402638043,2.833228347542298,-0.5322732329368591,-0.6723814010620117,0.5143818259239197,-0.9542520642280579,1.2514009475708008,-0.6787959337234497,-0.15438765287399292,0.029696404933929443,0.09529834985733032
303,-2.068446735132228,0.9104875111215479,2.726219884972999,-0.5389642119407654,-0.7898028492927551,0.2927953004837036,-2.1093385219573975,2.105578660964966,-1.0201482772827148,0.01006406545639038,0.03934508562088013,0.1263025999069214
304,-1.5963481051982544,1.0739868323160275,2.4209605034638155,-0.47646766901016235,-0.8791077136993408,0.012177246622741222,-1.9876980781555176,1.7556016445159912,-0.953726589679718,0.08134132623672485,0.03215336799621582,0.0713036060333252
305,-1.1438775974908595,1.119668123170406,2.0324426172363057,-0.39685019850730896,-0.8999558091163635,-0.18052592873573303,-1.5207375288009644,0.8382285833358765,-0.7192111611366272,0.01849326491355896,-0.00337982177734375,0.0042258501052856445
306,-0.7677093354110106,1.0777906079098858,1.6799259285578771,-0.3286847770214081,-0.8809143304824829,-0.34052351117134094,-1.3308289051055908,0.16993018984794617,-0.5647183656692505,-0.014317542314529419,0.00858461856842041,-0.03513255715370178
307,-0.5608302281118713,1.0285771181464993,1.4775081990559875,-0.27447524666786194,-0.8565655946731567,-0.4369882345199585,-0.7776252627372742,0.04949864000082016,-0.31939733028411865,0.04078689217567444,0.014051556587219238,-0.029961228370666504
308,-0.49072254386226066,1.0078705413535387,1.3927833104021585,-0.2514956593513489,-0.8456973433494568,-0.47068658471107483,-0.24928228557109833,-0.10807673633098602,-0.1076899915933609,0.06443819403648376,0.0009250640869140625,0.001402527093887329
309,-0.4506234453122997,0.9869995482939166,1.356528385815632,-0.24006058275699615,-0.8343759179115295,-0.4961731433868408,-0.12438277155160904,-0.08463378250598907,-0.045725129544734955,0.02553725242614746,-0.015599668025970459,0.00723576545715332
310,-0.43775129328380746,0.9737344376079371,1.3391074929631175,-0.23832514882087708,-0.8269910216331482,-0.509202241897583,-0.0876057967543602,-0.0319877490401268,0.011430716142058372,-0.002244919538497925,-0.01595020294189453,-0.006010770797729492
311,-0.48231082450387375,0.9844807521067831,1.3409678051032567,-0.25663381814956665,-0.8329849243164062,-0.4901787042617798,0.2398460954427719,-0.5478232502937317,0.01128825731575489,-0.03171148896217346,-0.01297760009765625,0.012914329767227173
312,-0.5375585600886873,0.9979770394817216,1.3439520527879933,-0.27752766013145447,-0.8403762578964233,-0.4655599594116211,0.23668771982192993,-0.8007779717445374,-0.0649576336145401,0.008072704076766968,0.02044522762298584,0.01591402292251587
313,-0.6682054417158081,1.0133838841238332,1.3748499339871807,-0.3277519941329956,-0.8486267328262329,-0.41522422432899475,0.1271429806947708,-1.0747140645980835,0.15059737861156464,0.016533762216567993,0.014627218246459961,0.04338282346725464
314,-0.7548660185889712,1.0038603304438913,1.3747857379373467,-0.367981880903244,-0.843550443649292,-0.391167551279068,-0.1451972872018814,-1.008639931678772,0.028306148946285248,-0.0042257606983184814,-0.0005657672882080078,0.0062340497970581055
315,-0.8474907008856766,0.9959957811387767,1.380735269909039,-0.40754494071006775,-0.8393007516860962,-0.35983505845069885,0.0003123311325907707,-0.8105055093765259,0.06996777653694153,-0.01840415596961975,0.002005279064178467,0.0016044378280639648
316,-0.9259745523494546,0.9911036534295853,1.385958249494644,-0.4377789795398712,-0.8366310596466064,-0.32923850417137146,-0.0709841251373291,-0.9567962288856506,0.03979155048727989,0.015995532274246216,-0.010002851486206055,-0.006653189659118652
317,-1.1412549363176834,0.9917818543009754,1.4197489976754212,-0.49749016761779785,-0.8370023369789124,-0.22788336873054504,0.6168609857559204,-1.821770429611206,0.013434783555567265,0.041740596294403076,0.021999776363372803,-0.006659477949142456
318,-1.3728208324117903,0.9816800452728935,1.4399965232264937,-0.5447731614112854,-0.831432044506073,-0.10928324609994888,0.23885345458984375,-2.5735342502593994,0.1323728859424591,0.06859219074249268,0.10691434144973755,-0.09191916882991791
319,-1.7833241872428387,0.9575128177286182,1.6236586701160445,-0.5626060366630554,-0.8177626132965088,0.12140282988548279,0.5648964643478394,-2.93803071975708,0.3514701724052429,0.11865156888961792,0.12626487016677856,0.05990206450223923
320,-2.0996244504114716,0.8860847009583379,1.7248667128692694,-0.5460562705993652,-0.7746014595031738,0.31908464431762695,1.048330545425415,-2.1325204372406006,0.5398180484771729,-0.01238483190536499,0.038334429264068604,0.04511210322380066
321,-2.4008188665597534,0.7880486916570594,1.834920114920879,-0.4759311378002167,-0.7089784741401672,0.5204223394393921,1.0556336641311646,-1.9549838304519653,0.26824289560317993,0.04450404644012451,-0.057867348194122314,0.10405898094177246
322,-2.6897518280855524,0.6821957361970444,1.9102252794850871,-0.3389020562171936,-0.6304988265037537,0.6982956528663635,0.9243839979171753,-2.204610824584961,0.0414872020483017,0.07082036137580872,-0.04024702310562134,0.11260229349136353
323,-2.7862260593257755,0.6517958865198664,1.8694948764320192,-0.276606023311615,-0.6066151261329651,0.7453233599662781,-0.3058105707168579,-0.8137468099594116,0.6148034334182739,0.10773703455924988,-0.07824510335922241,0.10710877180099487
324,-2.5250809094760243,0.7899143731260069,1.6348994582283103,-0.4069932997226715,-0.7102929949760437,0.5743171572685242,-4.153120517730713,3.408006429672241,1.5715508460998535,0.11788499355316162,-0.05775809288024902,0.31681132316589355
325,-1.3952468600353574,0.8275498780939502,0.858147017751304,-0.6662816405296326,-0.7362756133079529,-0.11818192154169083,-4.9481611251831055,5.485245227813721,1.3496735095977783,0.33858394622802734,0.08454221487045288,0.16955828666687012
326,-0.7298064027712516,0.5972114596580699,0.357616480891446,-0.5513198375701904,-0.5623388290405273,-0.6162965893745422,-3.5025506019592285,2.660172462463379,0.7405214905738831,0.44069361686706543,-0.057473182678222656,0.184839129447937
327,-0.5058509164732348,0.38058021034965644,0.23674131474205226,-0.449881911277771,-0.3714592158794403,-0.8121725916862488,-1.9563764333724976,-0.24122950434684753,-0.5035449266433716,0.16083469986915588,0.0771782398223877,-0.04518824815750122
328,-0.5299447222135014,0.3565969608189575,0.10779467683328302,-0.4736856520175934,-0.34908729791641235,-0.8085542321205139,0.22234193980693817,-1.4797489643096924,-1.5332037210464478,0.13687840104103088,-0.036288678646087646,0.06819778680801392
329,-0.6552538256222749,0.4915192630722435,-0.03202942259366266,-0.5372225046157837,-0.47196584939956665,-0.6990280747413635,0.7076222896575928,-2.0008177757263184,-2.0245165824890137,0.04218161106109619,0.06028375029563904,0.016822874546051025
330,-0.7664276011144432,0.6114081730956815,-0.18711519897605886,-0.5679200291633606,-0.5740211009979248,-0.5898869633674622,0.040964070707559586,-2.782020330429077,-3.22011661529541,0.08316361904144287,0.2687232494354248,-0.05314898490905762
331,-0.6700005572907091,0.8284374968084731,-0.77436320763664,-0.4198042154312134,-0.7368759512901306,-0.5298851728439331,-2.668860912322998,-3.7891435623168945,-3.75429105758667,0.2722058892250061,0.17428439855575562,-0.045935750007629395
332,-0.3466069483252191,0.8309498601522199,-1.371900225102356,-0.229022815823555,-0.7385720610618591,-0.6340819001197815,-1.4292124509811401,-1.7179299592971802,-1.5739771127700806,0.1664160192012787,0.1517190933227539,-0.056210458278656006
333,-0.261647223319653,0.895498878117978,-1.5703875114616632,-0.16170354187488556,-0.780521035194397,-0.6038533449172974,-0.9742621779441833,-0.6244074106216431,-0.9279491305351257,-0.06856685876846313,0.09950602054595947,0.07698261737823486
334,-0.26488803513444237,0.814494304369143,-1.6807858965277696,-0.17965750396251678,-0.7273786664009094,-0.6623016595840454,-0.9656679630279541,-1.163681983947754,0.45934244990348816,-0.08975166082382202,-0.11724108457565308,0.05783998966217041
335,-0.2557613794184853,0.7893468877131437,-1.7648254396583916,-0.1781775951385498,-0.7098934054374695,-0.6813986301422119,-0.46874019503593445,-0.699336588382721,-0.15803945064544678,-0.0353996604681015,-0.18405795097351074,0.12791657447814941
336,-0.3294530328732421,0.7106283475509834,-1.758853129403042,-0.24521687626838684,-0.6523101329803467,-0.7171890735626221,-0.9508442878723145,-0.6031627058982849,0.45032089948654175,-0.05541178584098816,-0.05672001838684082,0.08962559700012207
337,-0.27828800445170526,0.66282603276932,-1.8107558483085657,-0.2165418416261673,-0.6153469681739807,-0.7579299211502075,-0.629767119884491,0.06597740203142166,-0.6817989945411682,-0.12482777237892151,0.026601850986480713,-0.04472815990447998
338,-0.1441933117808195,0.7147245908118486,-1.967324008728154,-0.10852843523025513,-0.6554094552993774,-0.7474356889724731,0.8180094957351685,1.2942992448806763,-1.9728964567184448,-0.008857443928718567,0.13667166233062744,0.22004616260528564
339,0.06773846208549286,0.5594829665652944,-2.04611097314669,0.05736646056175232,-0.5307480692863464,-0.8455859422683716,-0.3918144702911377,-0.45309484004974365,0.2490178644657135,0.055045053362846375,-0.022230446338653564,-0.14745604991912842
340,0.02033042077870385,0.48830402566028147,-2.032880531573684,0.017953163012862206,-0.4691287875175476,-0.8829472661018372,-1.014585256576538,0.2619438171386719,-0.008536124601960182,-0.04671597480773926,-0.04065209627151489,0.013516724109649658
341,0.11769910766945,0.3158687762082544,-2.013544383776779,0.1116180345416069,-0.31064239144325256,-0.9439505934715271,-2.652433395385742,0.8891013860702515,-0.05149601772427559,-0.0411834716796875,0.13504424691200256,0.1496085524559021
342,0.042178121542892105,0.16278404462834764,-2.042203293123243,0.041608184576034546,-0.16206607222557068,-0.9859023094177246,-0.5304241180419922,-0.8865435123443604,-0.5976018309593201,0.057589203119277954,0.03651675581932068,-0.07006692886352539
343,0.0773635837783784,0.12985154455435158,-2.0655790664897977,0.07663577049970627,-0.12948693335056305,-0.9886152148246765,0.4444378912448883,0.2721969187259674,0.050206780433654785,-0.0005249232053756714,0.17845240235328674,-0.049485981464385986
344,0.10769578084060341,0.1276955884157785,-2.061206613967971,0.10661255568265915,-0.12734884023666382,-0.986111581325531,-0.26088452339172363,0.27171993255615234,-0.1352781355381012,-0.09286437928676605,0.02188009023666382,-0.099459707736969
345,0.09396373806817333,0.12010271671779524,-2.102944367487029,0.09314963966608047,-0.1198141872882843,-0.9884167909622192,0.08389915525913239,-0.6387273073196411,-0.15154656767845154,0.057622455060482025,0.0847494900226593,0.011381268501281738
346,0.0005582838902689786,0.11365674399675804,-2.1514790815580254,0.0005546818138100207,-0.11341220140457153,-0.9935478568077087,0.10782352834939957,-0.808147668838501,-0.5441821217536926,0.06655347347259521,0.03620273619890213,-0.2784857749938965
347,-0.002748367508307752,0.11063411038704798,-2.1849880915283,-0.002731561427935958,-0.11040855944156647,-0.9938825368881226,-0.03210778534412384,-0.03350508585572243,-0.10393643379211426,0.0173799991607666,0.013911977410316467,0.02568185329437256
348,-0.00962726209870359,0.10116651942464028,-2.1878834844060497,-0.009577889926731586,-0.1009940430521965,-0.9948409199714661,-0.17004497349262238,-0.14064033329486847,0.004280012100934982,-0.00668797641992569,0.007472924888134003,0.016905128955841064
349,-0.013385306709715578,0.09490997673630759,-2.189370478686934,-0.013324667699635029,-0.09476754814386368,-0.9954102635383606,-0.07851163297891617,-0.06315290927886963,0.034105464816093445,0.010425496846437454,0.019328095018863678,0.017230331897735596
350,-0.019408334395689255,0.08500204735535037,-2.1932335491858863,-0.019337046891450882,-0.08489972352981567,-0.9962018728256226,-0.06686607748270035,-0.06803304702043533,-0.1405576765537262,-0.025645865127444267,0.030212223529815674,0.013764739036560059
351,0.018132755930639757,0.05178642315207931,-2.2515462203562238,0.018107455223798752,-0.051763277500867844,-0.9984952211380005,-1.0925045013427734,1.538416862487793,-0.5210168361663818,0.15446944534778595,-0.07415224611759186,-0.007898211479187012
352,0.16470145269134392,0.017436781031407635,-2.2692882340114853,0.1639329046010971,-0.017435897141695023,-0.9863173961639404,-0.22287563979625702,2.9339349269866943,0.0036506475880742073,-0.0898057073354721,-0.028355732560157776,-0.11678624153137207
353,0.3947837408816438,-0.026038462619374477,-2.3272162977673565,0.3844781816005707,0.026035521179437637,-0.9227668642997742,0.45411136746406555,0.7366307973861694,-0.7974349856376648,-0.02450808882713318,0.03106287121772766,0.06978529691696167
354,0.34433084373531025,-0.024393088471442295,-2.4083443620074227,0.33746644854545593,0.02439066953957081,-0.9410215020179749,-0.05854490399360657,0.11931444704532623,0.09960874915122986,0.09110715985298157,0.09984638541936874,0.042904436588287354
355,0.047666038262730026,0.1172048690973413,-2.4662943653706977,0.04732109606266022,-0.11693671345710754,-0.9920113682746887,2.8202285766601562,-7.523063659667969,-1.1666386127471924,0.09998725354671478,0.15219977498054504,0.12509852647781372
356,0.011452370515819927,0.017213731582749588,-2.526408831914098,0.01145042385905981,-0.01721288077533245,-0.9997862577438354,2.715846061706543,-2.3968465328216553,0.22581149637699127,0.06464515626430511,0.0330057293176651,0.46159350872039795
357,-0.023206898750152524,0.0652113659585939,-2.490153988962164,-0.023155493661761284,-0.06516515463590622,-0.9976058006286621,-0.5722971558570862,0.38734835386276245,0.39465445280075073,-0.10065431892871857,-0.02373255044221878,0.07568502426147461
358,-0.0011420671882365243,0.035074599309130094,-2.4762172463784893,-0.0011413644533604383,-0.03506740927696228,-0.9993842840194702,-0.19711503386497498,0.07190746068954468,0.06166132539510727,-0.012408440932631493,0.004336211830377579,0.10053485631942749
359,-0.0022717919947423705,0.031220962005914205,-2.4485079435585075,-0.0022706829477101564,-0.031215889379382133,-0.9995101094245911,-0.1312171071767807,0.05498848110437393,0.8057646155357361,0.011486991308629513,0.027675852179527283,-0.015275657176971436
360,0.0002307015324271899,0.022515147190516772,-2.374325079897257,0.00023064305423758924,-0.022513244301080704,-0.9997465014457703,-0.07459208369255066,0.04777483269572258,0.7190385460853577,-0.05478081479668617,0.1668156087398529,-0.006295919418334961
361,-0.00398047638060494,0.026371718472021737,-2.3210073946815633,-0.003979081753641367,-0.02636866271495819,-0.9996443390846252,0.07429837435483932,-0.0004005557857453823,0.7012127637863159,-0.0009800242260098457,0.08815149962902069,0.0041152238845825195
362,-0.005915996223020798,0.027663381735316517,-2.2491826386168214,-0.005913698114454746,-0.027659853920340538,-0.9995998740196228,0.04371605068445206,-0.019091205671429634,0.5394902229309082,-0.01346496306359768,0.08701654523611069,0.014172077178955078
363,-0.012017735474949068,0.03287109679824794,-2.2253260592301483,-0.012010954320430756,-0.03286517783999443,-0.9993876218795776,0.04791376739740372,-0.06433658301830292,0.34598854184150696,-0.029080964624881744,-0.08012615144252777,0.010145068168640137
364,-0.03660757967462868,0.06089067884271833,-2.2247575677468605,-0.03653157502412796,-0.06085306033492088,-0.9974780082702637,-0.1469229757785797,0.06056138128042221,0.12620572745800018,0.11061299592256546,0.08761697262525558,0.33275938034057617
365,-0.04253631590301601,0.06234067097747775,-2.2220187258381827,-0.04244088754057884,-0.06230029836297035,-0.9971546530723572,-0.0020343055948615074,-0.003413495607674122,0.00482519343495369,0.003393646329641342,0.02596912905573845,-0.002936840057373047
366,-0.043809235977564656,0.06112877980196519,-2.185794821278529,-0.04371342435479164,-0.06109071522951126,-0.9971745610237122,0.03856176882982254,0.015158269554376602,0.9564374089241028,-0.004519607871770859,0.05266786366701126,0.0017064213752746582
367,-0.04499616195760941,0.05162633004098495,-2.1477883106622313,-0.04492104798555374,-0.051603399217128754,-0.9976568222045898,-0.17864063382148743,0.011997655965387821,0.4720862805843353,0.05300820991396904,0.03925904259085655,-0.01015561819076538
368,-0.04384788900417716,0.037302356873443354,-2.119158562331628,-0.043803345412015915,-0.037293706089258194,-0.998343825340271,-0.036885011941194534,0.07815201580524445,0.16787154972553253,0.06699670851230621,0.0037091150879859924,-0.01683861017227173
369,-0.04924627512887675,0.0298947465040252,-2.0693989110920454,-0.049204375594854355,-0.02989029325544834,-0.9983413815498352,-0.20399007201194763,-0.06281588971614838,0.5154120922088623,0.008097201585769653,0.06440567970275879,-0.036067187786102295
370,-0.017857575892441073,0.04742325051076938,-2.031333436716914,-0.017836550250649452,-0.04740547761321068,-0.9987164735794067,0.5816069841384888,0.2735324501991272,0.47386157512664795,-0.010956784710288048,-0.003558877855539322,-0.07702815532684326
371,-0.021352992910854046,0.09860405078108997,-1.9976084608190208,-0.021247657015919685,-0.09844434261322021,-0.9949157238006592,0.3972017168998718,-0.11291094869375229,0.23748290538787842,0.0018079578876495361,-0.019414544105529785,-0.06067204475402832
372,-0.003541305690844588,0.15638288121364824,-2.01785873641918,-0.003498084144666791,-0.1557462513446808,-0.9877908825874329,0.6297189593315125,0.022187625989317894,-0.2369818091392517,-0.06492232531309128,0.09208659827709198,0.11111247539520264
373,-0.013745607631326342,0.15436843615358795,-2.0549122446523715,-0.01358172856271267,-0.15375608205795288,-0.9880154728889465,-0.1760401576757431,0.44620877504348755,-0.4303857088088989,0.04266497865319252,0.03920835256576538,0.031228363513946533
374,0.02404333808143621,0.1659577736711547,-2.0961560796971455,0.023710712790489197,-0.16519701480865479,-0.9859755039215088,0.03670940175652504,0.08830968290567398,-0.138153076171875,0.0340743213891983,-0.07975231111049652,0.06732016801834106
375,0.028067320144912176,0.14368552127330614,-2.1132677466360392,0.02777443826198578,-0.1431916207075119,-0.9893051981925964,-0.2320488840341568,0.16227969527244568,-0.003373272716999054,-0.0020328573882579803,-0.0603453665971756,0.029115378856658936
376,-0.013546891076033745,0.07080749704123475,-2.110595912697816,-0.013512532226741314,-0.07074834406375885,-0.9974026679992676,-0.7618195414543152,-0.16113059222698212,-0.2676645815372467,-0.06359013170003891,0.01072026789188385,-0.08046293258666992
377,-0.05267478219020847,0.037790608103041384,-2.1322646617540375,-0.05261283367872238,-0.03778161481022835,-0.9979000091552734,-0.5831651091575623,-0.40778648853302,0.04530714452266693,0.07148795574903488,-0.03729162737727165,0.014501571655273438
378,-0.056601111446924285,0.03306667687204682,-2.1545483754460304,-0.05653997138142586,-0.033060651272535324,-0.9978528022766113,0.06588641554117203,0.019118543714284897,-0.020909657701849937,0.03368230536580086,0.014658551663160324,0.048130571842193604
379,-0.05250555676790385,0.04149846167622883,-2.1758846672976593,-0.05243625119328499,-0.041486550122499466,-0.997762143611908,0.13536947965621948,0.0003989962860941887,-0.06871724128723145,-0.021706201136112213,0.019040871411561966,0.015019834041595459
380,-0.055915548130638794,0.043387053563614865,-2.2102244279697465,-0.05583382397890091,-0.04337344318628311,-0.99749755859375,0.03541159629821777,0.06380436569452286,-0.019675562158226967,-0.006650917232036591,0.00045046955347061157,-0.00408935546875
381,-0.05017485215179479,0.049002883767907755,-2.226770048604177,-0.050093598663806915,-0.04898327589035034,-0.9975426197052002,0.018580466508865356,0.01849544607102871,-0.03754231333732605,-0.0028391405940055847,0.0006892085075378418,-0.006211042404174805
382,-0.04842577838822142,0.05010436056973927,-2.2528969347704053,-0.048346105962991714,-0.05008339881896973,-0.9975742101669312,-0.05692658573389053,0.04253023490309715,-0.013297026976943016,0.031912386417388916,-0.0018880367279052734,0.020462393760681152
383,-0.043745037705087156,0.04832897025140441,-2.269367817963547,-0.04368002712726593,-0.048310160636901855,-0.9978768229484558,0.1203252449631691,0.036728642880916595,-0.09655435383319855,-0.00794045627117157,0.013550639152526855,0.01690453290939331
384,-0.0428566299555292,0.05244094703464336,-2.2746396105302438,-0.042784616351127625,-0.05241691321134567,-0.9977083206176758,0.01580776274204254,-0.013247299939393997,0.0720621794462204,-0.009537767618894577,0.0007353983819484711,0.004162847995758057
385,-0.04296013511349897,0.051974390359883535,-2.284756114019703,-0.04288892820477486,-0.05195099487900734,-0.9977282285690308,0.024264659732580185,0.08167571574449539,-0.06402166187763214,-0.005740832537412643,0.0048013366758823395,-0.005384564399719238
386,-0.015386915378262813,0.0533144933882257,-2.288351809551809,-0.015364445745944977,-0.05328923836350441,-0.9984608888626099,0.05923410505056381,0.5520485043525696,-0.060659460723400116,-0.025361262261867523,0.008504696190357208,-0.017743945121765137
387,0.035775198610030125,0.06314339747982006,-2.2960785378898194,0.03569628670811653,-0.06310144811868668,-0.9973685145378113,0.05098887160420418,0.38436174392700195,0.0729781985282898,0.12026378512382507,0.033590950071811676,0.014565229415893555
388,0.07290866514949716,0.062315265007504325,-2.2724305083111576,0.07270269840955734,-0.06227494403719902,-0.9954075217247009,0.28902366757392883,0.1770278811454773,0.529819130897522,0.11304254084825516,0.05499649792909622,-0.08720356225967407
389,0.08752110495739712,0.07570838022413427,-2.218231849943198,0.08715903013944626,-0.07563607394695282,-0.9933189153671265,0.0560685396194458,0.11599776148796082,0.7785482406616211,0.13613808155059814,-0.00245840847492218,0.009661078453063965
390,0.07480394357390649,0.09689454964622607,-2.148856912420736,0.07438365370035172,-0.09674300253391266,-0.9925259947776794,0.3142712414264679,-0.3334956169128418,0.8131054043769836,0.09595020860433578,0.0005515962839126587,0.06381505727767944
391,0.07347664654897602,0.15927450916160102,-1.9899766909016552,0.07248136401176453,-0.15860193967819214,-0.9846785664558411,0.7551844716072083,0.6018487811088562,1.673783779144287,0.027906209230422974,0.07567042112350464,0.07948142290115356
392,-0.0070615399120209105,0.20339650914148302,-1.8343584652332514,-0.0069159166887402534,-0.20199698209762573,-0.9793617129325867,0.42474547028541565,-0.47116196155548096,1.3143104314804077,-0.2908898591995239,0.06739920377731323,0.07898634672164917
393,-0.010823915638865122,0.21990827534528934,-1.763320252945192,-0.010563042014837265,-0.218140110373497,-0.9758602976799011,-0.3489709794521332,0.46124017238616943,0.31548410654067993,-0.06686004996299744,0.06158493459224701,-0.12188750505447388
394,0.1353466730592973,0.23115461615609634,-1.74763979685117,0.13134492933750153,-0.22910158336162567,-0.964500367641449,0.3194756805896759,1.656093955039978,0.18055330216884613,-0.17239107191562653,0.09779971837997437,0.0019301772117614746
395,0.4763233595406043,0.24285242610039967,-1.758383667129014,0.44506025314331055,-0.24047233164310455,-0.8626090884208679,0.5054559707641602,5.113308906555176,-0.5400734543800354,-0.03829145431518555,0.03209829330444336,-0.06416398286819458
396,0.7255893356691021,0.2383465820804529,-1.7980293755132657,0.6448168754577637,-0.23609627783298492,-0.7269591689109802,-0.6064269542694092,-0.8698479533195496,-0.268394410610199,-0.18325382471084595,-0.05122670531272888,-0.021575927734375
397,0.7614458116432989,0.21393714016094112,-1.798645066162718,0.6742392182350159,-0.21230891346931458,-0.7073375582695007,0.309619665145874,1.4518427848815918,-0.1638844758272171,0.09437650442123413,0.02886776626110077,0.015336215496063232
398,1.0051183187107737,0.1755085135682619,-1.846294094422222,0.8312562108039856,-0.17460885643959045,-0.5277543663978577,-0.5063673257827759,1.4940441846847534,-0.5666621923446655,0.008709490299224854,-0.08054856956005096,-0.12725961208343506
399,1.1358601015731418,0.12142780809593212,-1.8780909820795846,0.900219202041626,-0.12112962454557419,-0.41825002431869507,1.18121337890625,1.368140697479248,-0.8034511804580688,-0.20151925086975098,0.022756218910217285,-0.03479868173599243
400,1.1151589626844127,0.10953868773392189,-1.921362447837385,0.8925988674163818,-0.1093197613954544,-0.43739748001098633,-0.1987767219543457,-0.16659414768218994,-0.473047137260437,-0.029912710189819336,0.0757656991481781,-0.04488706588745117
401,1.101446898917216,0.08813172972765086,-1.9403785893495913,0.8884013891220093,-0.08801768720149994,-0.45055073499679565,0.38203567266464233,0.7784848213195801,-0.09765633195638657,-0.06522023677825928,0.05609631538391113,0.027912795543670654
402,1.1426638631533415,0.08289495977356479,-2.0207509106495536,0.9066187739372253,-0.08280005306005478,-0.4137468934059143,0.3618870973587036,0.1244112178683281,-0.46088579297065735,-0.06570696830749512,-0.007242046296596527,0.07793152332305908
403,1.1254321735077448,0.06200665296448719,-2.057274717120863,0.9007195830345154,-0.061966925859451294,-0.429958701133728,0.2775132656097412,-0.35876893997192383,0.07036252319812775,0.1505805253982544,0.0800333246588707,-0.027164161205291748
404,1.1780620967428268,0.05464958266737656,-2.1050585051846973,0.9224867820739746,-0.054622385650873184,-0.3821445405483246,0.241456538438797,3.0592055320739746,-0.5185545682907104,0.13580173254013062,0.17057392001152039,0.16760596632957458
405,1.3800190227819131,0.03676953235005254,-2.181990022730162,0.9811936020851135,-0.036761246621608734,-0.18949399888515472,0.30555012822151184,0.32500022649765015,0.054904721677303314,-0.10861968994140625,-0.10271936655044556,-0.16267883777618408
406,1.381913103086603,0.0401044012633787,-2.158289353798895,0.981424868106842,-0.04009365290403366,-0.1876111477613449,-0.262361079454422,-0.11400148272514343,-0.15185166895389557,0.0011191964149475098,0.15241360664367676,0.03390929102897644
407,1.4560014872027638,-0.07085030667164925,-2.1534653690431926,0.9909261465072632,0.07079104334115982,-0.11425553262233734,-0.6182727813720703,1.3942854404449463,-1.3854268789291382,-0.006840944290161133,-0.07141663879156113,0.015378519892692566
408,1.4192999087507416,-0.086522585753626,-2.1660349288664937,0.9848483204841614,0.08641467243432999,-0.15035301446914673,0.6478381156921387,-0.9241403937339783,0.3713425397872925,-0.00038188695907592773,-0.06593737751245499,-0.12088720500469208
409,1.3698663003048854,-0.0442666857929538,-2.2345768184970236,0.9789215326309204,0.04425223171710968,-0.19938522577285767,1.4513685703277588,-0.5524164438247681,0.2737955152988434,0.00639951229095459,0.044508155435323715,0.04270799458026886
410,1.3214625100010784,-0.002990054960821412,-2.2427099708126974,0.9690727591514587,0.0029900504741817713,-0.24675734341144562,0.0621337890625,-0.3557266891002655,0.060167789459228516,-0.004289984703063965,-0.02128535509109497,-0.008308619260787964
411,1.245901275317203,0.004087262852186333,-2.264374213559738,0.9476763606071472,-0.004087251611053944,-0.3192066550254822,0.5367207527160645,-0.7126114964485168,0.30842384696006775,-0.03636044263839722,0.040403157472610474,-0.045081645250320435
412,1.1907477936517645,0.034194775182546905,-2.270809369229326,0.9281037449836731,-0.03418811038136482,-0.37074869871139526,0.12420207262039185,-0.4833539128303528,0.34251415729522705,0.008572280406951904,0.00431138277053833,-0.02637660503387451
413,1.232752895405234,0.054127910560158365,-2.2859511626799844,0.9420236945152283,-0.05410148203372955,-0.3311561942100525,-0.9444470405578613,0.5627899765968323,-2.7643375396728516,-0.6469797492027283,0.04326772689819336,0.6202492117881775
414,1.2583896539611203,0.0018638232908773356,-2.285514798450277,0.9515950083732605,-0.0018638222245499492,-0.30734917521476746,-0.017072439193725586,0.4506519138813019,-0.002055363729596138,-0.04522287845611572,0.004106849431991577,-0.011910468339920044
415,1.2583407611351385,0.001809105997547931,-2.285329572117383,0.9515801072120667,-0.0018091050442308187,-0.3073957562446594,0.004051161929965019,-0.41773852705955505,-0.0022389497607946396,-0.012157440185546875,0.0062951743602752686,0.017051517963409424
416,1.2353786489655831,0.0020398831795217006,-2.290033980760971,0.9442710280418396,-0.002039881655946374,-0.32916292548179626,0.0017833048477768898,0.08913446962833405,-0.005948470905423164,-0.015987277030944824,-0.00041675567626953125,-0.023711800575256348
417,1.2574063731349605,0.002284888298185702,-2.2904268510015084,0.9512913823127747,-0.0022848863154649734,-0.3082844018936157,-0.002828833647072315,0.15139253437519073,-0.002101566642522812,-0.003034055233001709,-0.009372830390930176,0.0032917559146881104
418,1.2577056486138618,0.0027900563511735524,-2.290422164726068,0.9513823986053467,-0.0027900526765733957,-0.30799931287765503,-0.0006864471361041069,-0.01766304112970829,0.002356402575969696,0.010073840618133545,0.0006233158055692911,-0.012938767671585083
419,1.2714349681422332,0.0030189288941711483,-2.2903478507674317,0.9555206894874573,-0.003018924267962575,-0.29490870237350464,-0.0005044266581535339,0.18654198944568634,-0.002016345039010048,-0.004043698310852051,-0.0031151175498962402,0.0008718371391296387
420,1.2875257840600662,0.0034993147234730466,-2.290235280475866,0.9601406455039978,-0.003499307669699192,-0.27949562668800354,-0.002885645255446434,0.2100197821855545,-0.004013463854789734,-0.0034756064414978027,-0.0066172778606414795,-0.01003989577293396
421,1.2377157132861105,0.0038974548441203117,-2.267589775547859,0.9450324773788452,-0.0038974450435489416,-0.3269534111022949,0.1978466957807541,-0.12971752882003784,-0.06150828301906586,-0.025019049644470215,-0.00203821063041687,-0.08939790725708008
422,1.2101888420039089,0.0033701106015518495,-2.266663735331044,0.9356773495674133,-0.0033701041247695684,-0.35284072160720825,-0.16148988902568817,-0.3963800072669983,0.05498209595680237,0.00653761625289917,0.05598241090774536,0.023907005786895752
423,1.209472239163178,0.0030465068764515247,-2.2748809060833053,0.9354252815246582,-0.003046502126380801,-0.3535115122795105,0.043859973549842834,0.32334038615226746,-0.02833782322704792,0.003570079803466797,-0.030492305755615234,-0.013080894947052002
424,1.2313266459816963,0.002329854950680477,-2.2926719009050265,0.9429287910461426,-0.0023298528976738453,-0.33298617601394653,0.32813307642936707,0.21847312152385712,-0.12083826214075089,0.0019106268882751465,0.009409934282302856,0.001733154058456421
425,1.2424980536012284,0.0020470167793027955,-2.316587481500213,0.9465904235839844,-0.002047015354037285,-0.3224319815635681,0.1026972159743309,0.007216539233922958,-0.03778707981109619,-0.0003014206886291504,-0.0032782850321382284,0.0007462203502655029
426,1.2437965957233383,0.0009816596860932035,-2.3201765498127065,0.9470098614692688,-0.0009816595120355487,-0.3212030231952667,-0.007864565588533878,0.09040120989084244,0.00730273500084877,-0.0017126202583312988,-0.003168731927871704,-0.015939921140670776
427,1.2686781997131227,0.0012650723806474635,-2.319938400122731,0.9547077417373657,-0.0012650720309466124,-0.29754287004470825,0.0007936889305710793,0.3599638044834137,-0.0019622892141342163,-0.0003466606140136719,0.0004563628463074565,-0.011661261320114136
428,1.3005465629162196,0.0013074140971704549,-2.319991542570956,0.963703453540802,-0.0013074136804789305,-0.2669719159603119,-0.0008983481675386429,0.09007204324007034,0.0027138134464621544,0.0023305416107177734,-0.004353582859039307,0.01044115424156189
429,1.3103420267099328,0.0013986991044360904,-2.320106521889605,0.9662721753120422,-0.0013986986596137285,-0.25751930475234985,0.0034101074561476707,-0.04375483840703964,-0.0007336307317018509,0.0004941821098327637,-0.005635589361190796,-0.0038942694664001465
430,1.2955476627854003,0.0015941315449977782,-2.3199084817297604,0.962356448173523,-0.0015941308811306953,-0.2717859148979187,-0.002349836751818657,-0.07149825245141983,-0.0018434617668390274,0.004623532295227051,0.00034290552139282227,-0.0077550411224365234
431,1.28802982495884,0.0017392046235271354,-2.3197686516534364,0.9602857828140259,-0.0017392036970704794,-0.27901291847229004,-0.0011041779071092606,-0.001900999341160059,0.0012098271399736404,-0.0008131265640258789,-0.003845512866973877,-0.006845235824584961
432,1.2961090358818326,0.0020986341279337875,-2.319715629137217,0.962507963180542,-0.002098632510751486,-0.27124539017677307,-0.0005363533273339272,0.18642909824848175,-0.0042577628046274185,0.0016796588897705078,-0.0039133429527282715,-0.004877686500549316
433,1.308687312664629,0.0022991067650825884,-2.319705116002483,0.9658429622650146,-0.002299104817211628,-0.25911739468574524,0.0013517970219254494,0.1459101438522339,0.0006822366267442703,0.0011063814163208008,0.00030019902624189854,-0.0012738406658172607
434,1.3302786827891016,0.0023048275739791964,-2.3196355863853753,0.9712122082710266,-0.0023048254661262035,-0.23820476233959198,0.0007098689675331116,0.02936365455389023,-0.0007834527641534805,-0.0026758313179016113,-0.001052111154422164,0.023925617337226868
435,1.3290105709860238,0.002585050914692871,-2.319566894216252,0.9709087610244751,-0.0025850480888038874,-0.23943603038787842,-0.0004063071683049202,-0.09180042147636414,0.002282378263771534,0.0020831823348999023,-0.004220366477966309,0.010401606559753418
436,1.3218307173552526,0.002680314381598793,-2.3194883573944614,0.9691643714904785,-0.0026803112123161554,-0.24640071392059326,0.0014296667650341988,-0.004213832784444094,-0.002266930416226387,0.0028357505798339844,0.0017800331115722656,-0.0003644227981567383
437,1.321347402019699,0.0027527468534153565,-2.3194866564246017,0.9690448641777039,-0.0027527434285730124,-0.2468690276145935,0.002987275831401348,-0.0033245966769754887,-0.00010527670383453369,-0.0008595585823059082,-0.003900110488757491,0.0002870112657546997
438,1.3206174754377367,0.0031196696045140073,-2.3197031127279475,0.9688634872436523,-0.0031196644995361567,-0.247576043009758,0.007843253202736378,-0.03554460406303406,7.485412061214447e-05,0.0036096572875976562,-0.0013816652353852987,0.003526940941810608
439,1.2773832868313433,0.0032509092913324445,-2.3229136380459905,0.9572572112083435,-0.0032509034499526024,-0.28921952843666077,0.0041325087659060955,-1.2957066297531128,0.0070575932040810585,0.0030546188354492188,0.0017402772791683674,0.05281516909599304
440,1.1669377148877567,0.003981765972186254,-2.315012322090492,0.9195442795753479,-0.003981755580753088,-0.3929663598537445,0.0022272011265158653,0.11812609434127808,-0.0026946496218442917,0.0156058669090271,-0.013443797826766968,-0.0976189374923706
441,1.1771836735792842,0.0037024499141843155,-2.3150372180287744,0.9235231876373291,-0.0037024414632469416,-0.38352465629577637,0.002604221925139427,-0.004411113914102316,0.0005607884377241135,0.004989326000213623,-0.0013634858187288046,0.002253323793411255
442,1.181572903508456,0.0037236901938661167,-2.3150641050425227,0.9251976013183594,-0.0037236816715449095,-0.3794673979282379,0.0001416429877281189,0.2759201228618622,0.0003025885671377182,-0.00541311502456665,0.0006871821824461222,-0.028537362813949585
443,1.2388381248483664,0.0037054834707361366,-2.3150446755608303,0.9453994631767273,-0.003705475013703108,-0.32589268684387207,0.00033138878643512726,0.9010295867919922,-0.002566291019320488,0.0003707408905029297,-0.002245455514639616,-0.018345564603805542
444,1.2779606278026026,0.0035955467070924903,-2.317028426499702,0.9574229717254639,-0.003595538903027773,-0.2886664867401123,0.08607306331396103,-0.033071279525756836,-0.022901000455021858,0.004552125930786133,-0.004659473896026611,0.00904923677444458
445,1.2624724268747909,0.003672884003447247,-2.321267146785131,0.9528371691703796,-0.0036728756967931986,-0.3034599721431732,0.019375111907720566,-0.4206182360649109,-0.005098672583699226,0.00039464235305786133,-0.001515120267868042,0.019783854484558105
446,1.2011884455751873,0.004152297311360642,-2.321674553240628,0.9324609637260437,-0.004152285400778055,-0.36124667525291443,-0.003820662386715412,-0.727687418460846,0.004810412414371967,0.005817115306854248,-0.003675490152090788,0.016520172357559204
447,1.192641931076425,0.004027750740987951,-2.321764867849436,0.929340124130249,-0.004027739632874727,-0.3692029118537903,0.0019072275608778,0.5715848803520203,-0.0030702967196702957,-0.0011937618255615234,0.002166181802749634,-0.05007809400558472
448,1.266698837384226,0.0036099622945759678,-2.3217138247412534,0.9541113972663879,-0.0036099543794989586,-0.299430251121521,-0.004978140816092491,0.3784472644329071,0.0007069222629070282,0.00014275312423706055,-0.0018221735954284668,0.022345900535583496
449,1.2430393338480354,0.0037276740831917927,-2.3224761583801037,0.9467601776123047,-0.003727665403857827,-0.32191798090934753,0.0021952339448034763,-0.6771719455718994,0.004300960339605808,0.003419816493988037,0.00030970596708357334,0.015033215284347534
450,1.2119803314293431,0.0039487045179127725,-2.3224908790476264,0.9363059401512146,-0.003948694095015526,-0.3511631190776825,-0.0019892631098628044,0.0123282540589571,-0.0009474530816078186,-0.001247406005859375,4.243897274136543e-05,-0.003176480531692505
451,1.222126138719181,0.003897770418302905,-2.3223766117887705,0.9398207664489746,-0.0038977605290710926,-0.3416457176208496,-0.001767907291650772,0.3719348609447479,-0.0015124455094337463,0.0039048194885253906,-0.002251535654067993,-0.01553201675415039
452,1.2453829308325888,0.004130565185131609,-2.322302185764402,0.9475106596946716,-0.00413055345416069,-0.3196978271007538,0.0028702402487397194,-0.0018771346658468246,-0.001487618312239647,0.0006248354911804199,7.173372432589531e-05,0.011531323194503784
453,1.236643382568342,0.004208565001991577,-2.3233116822162287,0.9446800351142883,-0.004208552651107311,-0.3279661536216736,0.0057791671715676785,-0.3496023118495941,0.0013815416023135185,0.00038826465606689453,-0.00036907196044921875,0.013787686824798584
454,1.219295022427915,0.004251542742142825,-2.3238016344431127,0.9388483166694641,-0.004251529928296804,-0.34430456161499023,0.0004621502012014389,0.006699645426124334,0.001508878543972969,0.0022984743118286133,-0.0009364779107272625,0.00014260411262512207
455,1.2197502458941982,0.004193804811343369,-2.323648752311183,0.9390052556991577,-0.004193792585283518,-0.34387725591659546,-0.003264632076025009,0.01577061228454113,-0.0023317094892263412,0.0010123848915100098,-0.0011620516888797283,-0.004297822713851929
456,1.220076419795684,0.00419766859639631,-2.3236030515176727,0.9391173720359802,-0.00419765617698431,-0.3435709774494171,-0.00018505286425352097,-0.002146928571164608,-0.0030373893678188324,0.0005341172218322754,-0.0012344717979431152,0.0031778812408447266
457,1.2206990264583575,0.004343489482476481,-2.323523928093427,0.9393304586410522,-0.004343475680798292,-0.34298598766326904,0.0026723812334239483,0.020410655066370964,0.00021477974951267242,0.0031591057777404785,0.001261204481124878,-0.003815770149230957
458,1.2607384734477947,0.004260614169777475,-2.323554697047815,0.952307403087616,-0.0042606014758348465,-0.30511099100112915,-0.00104451272636652,0.29773879051208496,-0.0023767296224832535,-0.000464022159576416,0.00210910988971591,0.03266528248786926
459,1.2638281122210788,0.004128988672369225,-2.323546914978694,0.9532459378242493,-0.004128976725041866,-0.3021673858165741,-0.00018494389951229095,-0.002840776927769184,0.0004950277507305145,0.0024577975273132324,-0.0020660758018493652,0.0030798912048339844
460,1.253508557909806,0.004185219572963757,-2.3234882277704543,0.9500767588615417,-0.004185207188129425,-0.31198811531066895,0.00022688694298267365,-0.3719630241394043,0.0029176073148846626,0.0005304813385009766,0.0016369824297726154,0.011618882417678833
461,1.2224822077842588,0.0043810599968441616,-2.32350461045069,0.9399404525756836,-0.004381046164780855,-0.34131038188934326,0.0005375044420361519,-0.0013330667279660702,-0.001740630716085434,0.0008249282836914062,-0.0025159120559692383,-0.014310956001281738
462,1.2218315354052556,0.0045128602557886035,-2.323519760364152,0.9397175908088684,-0.0045128450728952885,-0.34192168712615967,-0.0011798366904258728,0.002204385120421648,-0.0016883015632629395,0.003046691417694092,-0.0012091989628970623,-0.0014773309230804443
463,1.22175009951127,0.004526351840805313,-2.3234927497977624,0.9396897554397583,-0.004526336211711168,-0.34199821949005127,0.0014372160658240318,8.307350799441338e-05,-0.0006068050861358643,-0.0011674165725708008,0.0005285441875457764,-0.0025757551193237305
464,1.2217904986996535,0.0045145452625944766,-2.323420931779211,0.9397035837173462,-0.004514529835432768,-0.34196028113365173,0.0022189817391335964,-0.0012869774363934994,7.421709597110748e-05,0.0020993947982788086,-0.0015279650688171387,0.0017045140266418457
465,1.2217979612833856,0.004636816567295131,-2.323435360839855,0.939705491065979,-0.004636799916625023,-0.34195300936698914,0.0013256734237074852,-1.8186867237091064e-05,0.0028286920860409737,0.0015633106231689453,-0.0002765054814517498,-0.004665583372116089
466,1.2216052534049997,0.004705857306600701,-2.3234238086422763,0.9396392703056335,-0.004705839790403843,-0.3421339988708496,-0.0010746000334620476,2.740509808063507e-05,-0.0006576627492904663,0.0021483302116394043,5.191611126065254e-05,0.00039818882942199707
467,1.2218669219173175,0.004760319904400492,-2.323398278303746,0.9397286176681519,-0.004760302137583494,-0.34188804030418396,-0.00016375817358493805,-6.50482252240181e-06,0.0009888755157589912,-0.0008553862571716309,-6.148172542452812e-05,-0.00038185715675354004
468,1.2217864429320546,0.004781094361521739,-2.3233279729968355,0.9397010207176208,-0.004781076218932867,-0.34196364879608154,0.0006926208734512329,0.00017574895173311234,-0.00037711672484874725,0.0008812546730041504,-0.0006357729434967041,-0.002534031867980957
469,1.2218258393070756,0.004784725507386114,-2.323305464897812,0.9397145509719849,-0.004784707445651293,-0.341926634311676,-0.0009340522810816765,0.0023604808375239372,-0.0020668189972639084,0.0009592771530151367,0.001137852668762207,0.0021286606788635254
470,1.2217887400646226,0.004805169825747263,-2.3232679748724783,0.9397016763687134,-0.0048051513731479645,-0.34196144342422485,-0.0008720410987734795,0.0014596504624933004,0.00046385452151298523,-0.0009810328483581543,-0.0012983675114810467,-0.003985792398452759
471,1.2216343937199143,0.004861099856608017,-2.323248859255656,0.9396485686302185,-0.004861080553382635,-0.3421063721179962,-0.001153087243437767,0.0034530579578131437,-0.0005644075572490692,0.004412591457366943,-0.0003726775757968426,-0.0004229247570037842
472,1.2217024160188208,0.004837892709805563,-2.323249097505354,0.9396721124649048,-0.004837873857468367,-0.3420425355434418,0.00023889262229204178,0.0015014875680208206,0.0004238709807395935,0.0030007362365722656,0.0009621377103030682,-0.0019058287143707275
473,1.2215924630134614,0.004855983718475702,-2.323202191474267,0.9396343231201172,-0.004855964798480272,-0.34214580059051514,-0.00030193012207746506,0.002750348998233676,0.001544884406030178,-0.0022563934326171875,-0.0003015100955963135,-0.0009480714797973633
474,1.221599863817537,0.004918572048341498,-2.3232045889692996,0.9396364688873291,-0.004918552003800869,-0.34213870763778687,-2.8760172426700592e-05,0.00031593581661581993,-0.0004357118159532547,0.0031734704971313477,-0.001764803659170866,0.00037238001823425293
475,1.2216143997082245,0.004982070019480952,-2.323208426903176,0.9396413564682007,-0.004982049576938152,-0.3421249985694885,-0.0007264586165547371,-0.0032113082706928253,0.0010915249586105347,0.0002086162567138672,0.0014114673249423504,-0.0013045966625213623
476,1.2215148565865526,0.004918672119177469,-2.323221324534706,0.9396075010299683,-0.00491865212097764,-0.3422186076641083,-0.0027785496786236763,0.0022086561657488346,0.000609133392572403,0.0013867616653442383,-0.0010475516319274902,-0.00037175416946411133
477,1.2215724551571872,0.004926507626205245,-2.323189465984636,0.9396271109580994,-0.0049264878034591675,-0.34216445684432983,-0.0015613213181495667,-0.00030038831755518913,-0.001363169401884079,0.0027556419372558594,-0.0009328718297183514,-0.0013566315174102783
478,1.2215481334910725,0.004905406487094969,-2.323152365357438,0.9396188855171204,-0.004905386827886105,-0.3421873450279236,-0.0021803798153996468,-0.0005442798137664795,-0.0032127033919095993,0.0026570558547973633,-0.0032275612466037273,-0.0004945099353790283
479,1.2216204536457886,0.004925350804047186,-2.3231795492693386,0.9396436214447021,-0.004925331100821495,-0.34211939573287964,0.0012445608153939247,-0.0016720104031264782,-0.001427866518497467,0.0031511783599853516,0.0009580552577972412,-0.0018137097358703613
480,1.2215848044391322,0.0048657701230168235,-2.3231630784089465,0.9396317005157471,-0.004865751136094332,-0.34215298295021057,0.0007930183783173561,-0.00024273106828331947,-0.001003514975309372,-0.00405430793762207,0.0014020204544067383,0.0001729726791381836
481,1.221557009626499,0.004973370701504634,-2.323180841622027,0.93962162733078,-0.004973350092768669,-0.3421788811683655,-4.619080573320389e-05,-0.0005081002600491047,0.00179232656955719,0.0019829273223876953,-0.0019846553914248943,0.0010076463222503662
482,1.2216476511759253,0.005065526531626642,-2.32311801879898,0.9396523237228394,-0.005065504927188158,-0.3420936167240143,0.0005465354770421982,0.0022658342495560646,0.0025541409850120544,0.0033255815505981445,-0.0005649924278259277,-0.00037467479705810547
483,1.2216590426407112,0.005033503534754982,-2.323097153727456,0.9396563768386841,-0.005033482331782579,-0.3420829772949219,0.000895046629011631,0.0027339747175574303,-0.00015012919902801514,-0.0016222000122070312,0.0022258455865085125,-0.0026741325855255127
484,1.2216284693975057,0.005009619667500579,-2.323106824199778,0.9396459460258484,-0.0050095985643565655,-0.3421117067337036,0.0012995591387152672,0.0012238812632858753,0.0005431566387414932,0.0012262463569641113,-0.0005140602588653564,0.0010014772415161133
485,1.2216899155603878,0.0051198116090893754,-2.323079329754611,0.9396664500236511,-0.005119789391756058,-0.34205377101898193,-0.0003310767933726311,0.0015485940966755152,-0.0004843473434448242,0.001541435718536377,-0.0012736315838992596,-0.0017419755458831787
