,attitude.roll,attitude.pitch,attitude.yaw,gravity.x,gravity.y,gravity.z,rotationRate.x,rotationRate.y,rotationRate.z,userAcceleration.x,userAcceleration.y,userAcceleration.z
0,0.001966350008679845,-0.0005236425610157572,-2.6214758744822415,0.001966348383575678,0.0005236425204202533,-0.9999979138374329,0.003968237899243832,-0.002431643195450306,-0.0005463864654302597,0.0025502529460936785,-0.002263144589960575,0.0009592771530151367
1,0.3637168095910123,-0.05763183492545654,-2.5433620729042152,0.3551596999168396,0.05759993568062782,-0.9330294132232666,-0.014137627556920052,1.5162250995635986,-0.23008683323860168,-0.0171470046043396,-0.006406709551811218,-0.0344541072845459
2,0.6558788197024956,-0.08568333301227964,-2.5547291465507294,0.6076186299324036,0.08557853102684021,-0.789604902267456,-0.3807404339313507,5.26325798034668,-0.08639366924762726,-0.037901222705841064,0.05486336350440979,-0.018058061599731445
3,1.0950068076000539,-0.11977405306094792,-2.58667571564662,0.8825628161430359,0.11948788166046143,-0.454758882522583,0.2388240396976471,2.9778690338134766,-0.6104698181152344,0.006048023700714111,0.014667391777038574,0.06439328193664551
4,1.4974489013470649,-0.149030333891156,-2.648980692350597,0.9862566590309143,0.14847928285598755,-0.07246939092874527,0.6249058246612549,2.5778086185455322,-0.457813024520874,-0.024266302585601807,-0.09122830629348755,-0.15883862972259521
5,1.7474167326677907,-0.1850925987866516,-2.6675150718141265,0.9676280617713928,0.18403755128383636,0.17270241677761078,0.3814617991447449,2.023682117462158,-0.23555541038513184,0.017250418663024902,-0.03814828395843506,-0.04780912399291992
6,1.9892549274767444,-0.2562127467209191,-2.6953056500938013,0.8838898539543152,0.2534187436103821,0.3930879235267639,0.3265404999256134,2.249197483062744,-0.49888545274734497,0.053213655948638916,-0.1022956371307373,-0.21817639470100403
7,2.032786017906206,-0.2531027235156601,-2.693907109449175,0.8666476607322693,0.2504090368747711,0.43152928352355957,0.3601627051830292,1.869930386543274,-0.3280566334724426,0.041311442852020264,-0.02650153636932373,-0.001551806926727295
8,2.187288195674061,-0.2903817274539632,-2.726115434332187,0.7817533016204834,0.28631800413131714,0.5539708137512207,0.028678730130195618,0.20268498361110687,-0.10356772691011429,0.0009767413139343262,0.04116612672805786,-0.017563343048095703
9,2.211904427635821,-0.29116714468163923,-2.7007837194023234,0.7677008509635925,0.28707045316696167,0.5729103088378906,-0.06320157647132874,0.23035186529159546,-0.1744825392961502,0.10412544012069702,-0.04102244973182678,-0.07382577657699585
10,2.209446656051405,-0.2921231313391667,-2.6710295302526896,0.7688857316970825,0.28798606991767883,0.5708577632904053,-0.308937132358551,-0.8101853132247925,0.3184479773044586,0.1372726559638977,-0.04788905382156372,-0.04108792543411255
11,2.133477460437292,-0.23093911010419496,-2.663235509289929,0.8233727216720581,0.22889180481433868,0.5192936062812805,-0.6102914810180664,0.40463268756866455,0.11801821738481522,0.1021949052810669,0.026479274034500122,0.1506739854812622
12,2.092077863688438,-0.14060960162759903,-2.5943366147502913,0.8586233258247375,0.14014673233032227,0.4930770993232727,-1.135095238685608,-0.34202712774276733,0.1707424521446228,-0.01694852113723755,0.008122920989990234,0.00493931770324707
13,2.162692196999057,-0.12235323598749599,-2.588319160440184,0.8236803412437439,0.12204818427562714,0.5537643432617188,1.0967161655426025,0.6573940515518188,0.5275559425354004,-0.0679582953453064,0.059958651661872864,-0.22557830810546875
14,2.2222843077289407,-0.12794003549924476,-2.6088942806269704,0.7886834740638733,0.12759128212928772,0.6014145016670227,-0.05713484436273575,1.0266094207763672,-0.4408426582813263,-0.17605817317962646,0.09813199937343597,0.15133225917816162
15,2.2730854720477254,-0.15618772193398425,-2.6325920329393107,0.7540732622146606,0.15555347502231598,0.6381036639213562,-0.47403690218925476,0.4424523413181305,-0.36701875925064087,-0.12190181016921997,-0.05914847552776337,0.030444800853729248
16,2.562452280539904,-0.12281580837124963,-2.599054441834207,0.5431821942329407,0.12250728905200958,0.8306294083595276,-1.042592167854309,3.6247644424438477,0.3555435836315155,-0.3855894207954407,-0.21821041405200958,-0.04722785949707031
17,2.9063878951603606,-0.055383464629783774,-2.547706074933525,0.23268479108810425,0.05535515397787094,0.9709755778312683,-0.31292393803596497,2.0779383182525635,-0.937677264213562,0.03068186342716217,-0.14045342803001404,-0.07905364036560059
18,3.0778654905595175,-0.05850467824106811,-2.5116964138604256,0.06357508152723312,0.058471307158470154,0.9962626695632935,-0.32952746748924255,1.0172992944717407,0.13858862221240997,0.3276297450065613,0.12379492819309235,0.011946558952331543
19,3.1328026091312844,-0.1284071294589828,-2.5489260116168406,0.008717567659914494,0.12805454432964325,0.9917291402816772,2.247134208679199,-0.17734624445438385,-0.23649445176124573,0.24285408854484558,0.35139191150665283,-0.0811910629272461
20,3.0564110389566177,-0.3087376344613045,-2.480938031697448,0.08105594664812088,0.3038561940193176,0.9492636322975159,-0.29226887226104736,1.8706228733062744,0.31107014417648315,0.00898616760969162,-0.09963256120681763,0.3944559097290039
21,-3.1332763091005615,-0.23032106854546758,-2.5150777029838802,-0.00809664186090231,0.2282901257276535,0.9735594391822815,-0.636786162853241,0.7914071083068848,-0.1009240597486496,-8.207093924283981e-05,0.03213159739971161,-0.08066093921661377
22,-3.025780800811731,-0.12698041245759362,-2.5744129426912066,-0.11462278664112091,0.1266394555568695,0.9853039383888245,-1.1867597103118896,2.0789010524749756,0.8321858048439026,-0.03477600961923599,-0.012366384267807007,0.028215229511260986
23,-2.941190238600668,-0.08529623103362971,-2.5826960535553014,-0.19834004342556,0.08519284427165985,0.9764239192008972,0.3459877669811249,-0.1275022029876709,-0.3556951880455017,0.071295365691185,0.12749941647052765,-0.17637503147125244
24,-2.984378092408247,-0.07539261673596107,-2.6172964988814664,-0.15612292289733887,0.07532121241092682,0.9848613142967224,-0.21529845893383026,-0.1447266787290573,0.24253180623054504,0.07168082892894745,0.09708783030509949,0.02961897850036621
25,-3.006557640113263,-0.06699655935982891,-2.6365500926111736,-0.13432301580905914,0.06694645434617996,0.9886738657951355,-0.2282555103302002,-0.019526075571775436,0.3203742206096649,0.02421557903289795,-0.03906863182783127,0.006184101104736328
26,-3.084678845517845,-0.049848637533068965,-2.6529488022727805,-0.05681242793798447,0.049827996641397476,0.9971407055854797,-0.12398587912321091,-0.8022425174713135,-0.08329405635595322,0.039554741233587265,0.039496954530477524,-0.012704730033874512
27,-3.0888513241984183,-0.05265285513980589,-2.641992212825766,-0.05264382064342499,0.0526285283267498,0.9972255229949951,-0.004769353196024895,-0.13572141528129578,-0.2947622239589691,0.11064247786998749,-0.0415048785507679,-0.06325036287307739
28,3.112745992357898,-0.05711120548913903,-2.633089146787247,0.028795626014471054,0.057080164551734924,0.9979538917541504,-0.17202769219875336,-0.7462334632873535,-0.043719332665205,-0.06254807114601135,0.06952199339866638,0.25543320178985596
29,3.105243111505979,-0.054357752582768995,-2.646516037744721,0.036287855356931686,0.054330985993146896,0.997863233089447,0.014753350056707859,0.02393384650349617,0.1894931197166443,0.014722272753715515,-0.0769445151090622,0.0034183263778686523
30,3.066085439879182,-0.03778324142943448,-2.6471037388677585,0.07538164407014847,0.03777425363659859,0.9964390397071838,-0.17746709287166595,-0.41150346398353577,0.03298502415418625,0.03855571895837784,-0.015038661658763885,0.003515183925628662
31,3.1192177758713098,-0.05952580316682346,-2.65659948589812,0.022333385422825813,0.05949065461754799,0.9979789853096008,1.0815435647964478,2.5427021980285645,-0.0203215591609478,0.15009093284606934,-0.04859588295221329,0.044760823249816895
32,3.1019422949677375,-0.052574918776629134,-2.659263512806543,0.03958520293235779,0.052550703287124634,0.9978334307670593,0.3705434501171112,0.923578679561615,0.18952199816703796,0.05692664161324501,-0.029403112828731537,0.12463366985321045
33,3.1121417768397914,-0.05659865777743665,-2.666187129331564,0.029399462044239044,0.056568443775177,0.9979656338691711,0.01261809654533863,0.029195241630077362,0.0598253533244133,0.04629938304424286,-0.003818824887275696,0.015248298645019531
34,3.126432669246169,-0.06277814750124615,-2.674406310883316,0.015129543840885162,0.06273692101240158,0.9979156255722046,-0.2451086938381195,-0.564116895198822,0.0011411644518375397,0.032996680587530136,0.003806672990322113,0.009546160697937012
35,3.1369233926467284,-0.06722088761296646,-2.6794980964064474,0.004658698104321957,0.06717027723789215,0.997730553150177,-0.15770553052425385,-0.356205016374588,0.0015259841457009315,0.025813104584813118,0.005308963358402252,-0.015217244625091553
36,3.136513752181739,-0.06690750739268238,-2.6841189550522846,0.005067517049610615,0.06685759872198105,0.9977498650550842,-0.004613162949681282,-0.008684439584612846,0.0002566631883382797,0.02767784520983696,0.0026614516973495483,-0.016304373741149902
37,3.1292791484990023,-0.06488562387569442,-2.688070399933211,0.012287285178899765,0.06484010070562363,0.9978201985359192,0.0243420097976923,0.058257490396499634,-0.0008575208485126495,0.03857026249170303,-0.006002195179462433,0.019910693168640137
38,3.1247232558676794,-0.06417077374615676,-2.690944069375163,0.016833873465657234,0.06412674486637115,0.9977994561195374,0.027295980602502823,0.06609901040792465,-0.00028195418417453766,0.03467979282140732,0.008703432977199554,0.012850821018218994
39,3.1211261770718997,-0.0641338078001029,-2.6939828745806316,0.02042297273874283,0.06408984959125519,0.9977350831031799,0.02163676545023918,0.04702811688184738,-8.408166468143463e-05,0.03530212491750717,-0.004199109971523285,-0.002648472785949707
40,3.118241034451286,-0.06376919540588692,-2.6964236655296934,0.02330203354358673,0.06372598558664322,0.9976951479911804,0.00958025362342596,0.021244119852781296,-0.0017455052584409714,0.025327719748020172,-0.00447613000869751,0.0074926018714904785
41,3.1161044884755107,-0.0638506173711644,-2.698443967285782,0.025433475151658058,0.06380724161863327,0.9976382255554199,0.009355027228593826,0.019167594611644745,0.0009527886286377907,0.02511889673769474,0.004567399621009827,0.006069779396057129
42,3.1135509744372416,-0.06371113831583841,-2.700280489230898,0.027981124818325043,0.06366804242134094,0.9975789785385132,0.00787356123328209,0.018488198518753052,0.0002476125955581665,0.025149982422590256,-0.00031354278326034546,-0.026799440383911133
43,3.1116375447614835,-0.06364579611215322,-2.7020861324817202,0.02988998219370842,0.06360283493995667,0.9975273609161377,0.0027507045306265354,0.004211790859699249,-0.001980947330594063,0.018220970407128334,-0.0007518976926803589,0.009674549102783203
44,3.109671734153749,-0.06350886246931751,-2.7032955854877874,0.031851161271333694,0.06346617639064789,0.9974757432937622,0.0016277125105261803,0.0002459045499563217,0.0004204362630844116,0.018365517258644104,0.0010327324271202087,0.011603355407714844
45,3.1078512389138484,-0.06334403642315597,-2.7041451454561143,0.03366734832525253,0.063301682472229,0.9974261522293091,-0.00015883799642324448,-0.003553581889718771,-0.00019740313291549683,0.01978418603539467,-0.00020659714937210083,0.0018106698989868164
46,3.106278003171274,-0.06342148581317915,-2.704890948953848,0.03523632511496544,0.06337897479534149,0.9973672032356262,0.0017461208626627922,0.0016590235754847527,0.001239638775587082,0.013072997331619263,0.0020506978034973145,0.0044026970863342285
47,3.1049098911634845,-0.06329313301126008,-2.705544791929303,0.03660109266638756,0.06325088441371918,0.9973260164260864,0.0003981180489063263,0.0002489844337105751,0.0005454383790493011,0.013478245586156845,-0.004351973533630371,0.005542397499084473
48,3.1036077120461565,-0.06324804567572792,-2.70589383895379,0.03789987787604332,0.06320588290691376,0.9972806572914124,-0.0034432755783200264,-0.009966611862182617,-0.00244702585041523,0.011920072138309479,-0.0010110512375831604,0.009631633758544922
49,3.102665720401151,-0.06359234610482994,-2.7059841377834717,0.03883843868970871,0.06354949623346329,0.9972226023674011,-0.0031783664599061012,-0.008249616250395775,-0.0002468470484018326,0.010310117155313492,0.011615291237831116,0.0074923038482666016
50,3.10151237804379,-0.06360821910783306,-2.706306029085443,0.03998851031064987,0.06356533616781235,0.9971761703491211,0.003729846328496933,0.0025340463034808636,0.0006885826587677002,0.00772571936249733,-0.011380285024642944,-0.003569662570953369
51,3.100388692146196,-0.06294346426777367,-2.706339992050017,0.04111074283719063,0.06290190666913986,0.9971728920936584,0.004013410769402981,0.0010601601097732782,-0.0008695442229509354,0.01798655465245247,0.005930498242378235,0.02191603183746338
52,3.099791107021646,-0.06371036193935527,-2.706676368160559,0.04170459136366844,0.06366726756095886,0.9970993995666504,-0.0016457131132483482,0.002837725216522813,0.0009599225595593452,-0.004824094474315643,0.0007400810718536377,-0.0012650489807128906
53,3.0993700213139084,-0.06341930998493113,-2.70672468213291,0.04212523251771927,0.06337680667638779,0.9971002340316772,0.006151203531771898,0.016787134110927582,-0.0008410215377807617,0.01874207705259323,-0.002097509801387787,0.0002905130386352539
54,3.0978418146980857,-0.06344184615634785,-2.706855975239629,0.04364889860153198,0.0633992999792099,0.9970333576202393,-0.0048761870712041855,-0.018580306321382523,0.0027787089347839355,0.0029361844062805176,0.0009164959192276001,0.012198328971862793
55,3.0981143736726318,-0.06360894739648473,-2.706960564543547,0.04337667301297188,0.06356605887413025,0.9970343708992004,0.0029312637634575367,0.007277685217559338,0.0006509777158498764,0.0046732425689697266,-0.0006540864706039429,-0.00039142370223999023
56,3.09663604784922,-0.063283597753991,-2.707032106584836,0.04485150799155235,0.0632413700222969,0.9969900250434875,-0.0076616909354925156,-0.011136459186673164,0.002610885538160801,0.012094296514987946,0.0004946067929267883,0.0015451908111572266
57,3.0969560359841455,-0.0636167305605552,-2.707325936728915,0.044531531631946564,0.06357382982969284,0.9969831109046936,0.0002808086574077606,0.0032682442106306553,-0.00274462066590786,-0.005652137100696564,0.005426414310932159,0.008921980857849121
58,3.0959286248894267,-0.06336845876022792,-2.7073865979869804,0.04555654153227806,0.06332606077194214,0.9969526529312134,0.001979515887796879,0.0033290463034063578,0.00015234574675559998,0.01706552878022194,-0.006303958594799042,0.0003314018249511719
59,3.0956306126202944,-0.06336908282834108,-2.7075961005759965,0.045853640884160995,0.06332667917013168,0.9969388842582703,-0.003484174609184265,-0.00693666422739625,-0.00036777928471565247,-0.0058145783841609955,0.004422344267368317,0.005105733871459961
60,3.0955548995849616,-0.06357127673731663,-2.7076168156184894,0.045928530395030975,0.06352846324443817,0.9969226121902466,0.0032020914368331432,0.008296649903059006,0.000575333833694458,0.009643979370594025,0.0014434605836868286,0.006739497184753418
61,3.0945481354862947,-0.06332693483288857,-2.707383490263615,0.0469328947365284,0.06328461319208145,0.9968911409378052,-0.005119212903082371,-0.011246577836573124,0.00016702711582183838,0.0053589679300785065,-0.0029055997729301453,0.004817605018615723
62,3.094965215329279,-0.06350439249227907,-2.707637934627121,0.04651658236980438,0.06346172094345093,0.996899425983429,0.0015451544895768166,0.0067445505410432816,-0.0014484208077192307,-0.0026933513581752777,0.0029139965772628784,0.0029935836791992188
63,3.0941402521158934,-0.06339679953170774,-2.7075985966425775,0.0473393052816391,0.06335434317588806,0.9968677163124084,0.000636211596429348,0.0006688758730888367,0.0006899069994688034,0.013634812086820602,-0.0021818652749061584,0.0036053061485290527
64,3.0940869232955825,-0.06343728052686123,-2.7074735286065237,0.047392360866069794,0.06339474022388458,0.9968629479408264,-0.003952852450311184,-0.003578758332878351,-0.00015103444457054138,-0.006681900471448898,0.0009210705757141113,0.005807638168334961
65,3.093950463358932,-0.06339917111328781,-2.707440156093008,0.04752848297357559,0.06335670500993729,0.9968584179878235,-0.0006540901958942413,0.005271616857498884,0.001272270455956459,0.008394971489906311,-0.0012076720595359802,0.005323469638824463
66,3.093273248142282,-0.06331707593872042,-2.7074524790879355,0.048203807324171066,0.06327477842569351,0.9968310594558716,-0.0034214984625577927,-0.010761059820652008,-0.0010922588407993317,0.0015245825052261353,0.003253526985645294,0.005121767520904541
67,3.0936718103125904,-0.06347980241079543,-2.7074384929364097,0.0478060245513916,0.06343717873096466,0.9968402981758118,0.0025063338689506054,0.00887751393020153,-0.0008122511208057404,0.001464609056711197,-0.0022036507725715637,0.004502654075622559
68,3.092972030909474,-0.06312719238711377,-2.7076183003627015,0.048504650592803955,0.06308527290821075,0.996828556060791,-0.0006142528727650642,0.0016906626988202333,0.00029702112078666687,0.006411723792552948,0.0014746487140655518,0.004056274890899658
69,3.093391023708352,-0.06354755630521668,-2.707370713532243,0.048085711896419525,0.06350479274988174,0.9968224167823792,0.003097009379416704,0.005998943001031876,0.000809473916888237,-0.0038657449185848236,0.004839323461055756,0.005771517753601074
70,3.09302905188617,-0.0634067209003796,-2.7070195607466916,0.04844696819782257,0.06336424499750137,0.996813952922821,0.0017902161926031113,0.0027821834664791822,0.0007053297013044357,0.00794951617717743,-0.006281115114688873,0.0044831037521362305
71,3.0928722098221355,-0.06329896548350905,-2.706538825974871,0.048603639006614685,0.06325670331716537,0.9968130588531494,-0.0026984894648194313,-0.007810828275978565,0.0008776290342211723,-0.004231076687574387,0.0026307478547096252,0.004194021224975586
72,3.092986377369368,-0.06359939218213405,-2.706018418241334,0.04848889634013176,0.06355652213096619,0.9967993497848511,0.0025297030806541443,0.0025874560233205557,9.244494140148163e-05,0.0035283006727695465,0.0028497129678726196,0.004695773124694824
73,3.0924517071659228,-0.0634902397717669,-2.7057594795577855,0.04902219399809837,0.06344759464263916,0.996780276298523,-0.0010355142876505852,-0.006340122316032648,0.0001159273087978363,0.002094745635986328,-0.002656593918800354,0.005584657192230225
74,3.092819596597039,-0.06374362120839251,-2.7056857474331952,0.048654705286026,0.06370045989751816,0.9967822432518005,-0.0007651383057236671,0.00023649074137210846,-0.0008596871048212051,-0.004770427942276001,0.003819681704044342,0.0030040740966796875
75,3.092550493220997,-0.06376222543043335,-2.7055771708421124,0.048922888934612274,0.06371902674436569,0.9967681169509888,0.004130271263420582,0.007818019017577171,-0.001882532611489296,0.006420746445655823,-0.003782495856285095,0.0036745071411132812
76,3.0921878983192257,-0.06363910290101622,-2.705650154060677,0.049284692853689194,0.06359615921974182,0.9967580437660217,-0.00043998751789331436,-0.004207865335047245,0.0007871547713875771,-0.0016314946115016937,0.006792627274990082,0.008307874202728271
77,3.092555296919028,-0.06387722064397076,-2.7056167215632927,0.0489177405834198,0.06383378803730011,0.9967610239982605,0.006575489416718483,0.016477975994348526,-0.0015282761305570602,-0.0008983314037322998,0.0009702891111373901,0.004734396934509277
78,3.0915697460465674,-0.06350774526963929,-2.7056480913389667,0.04990124702453613,0.06346506625413895,0.9967357516288757,0.00333628011867404,0.005222813226282597,-0.0008070133626461029,0.011774782091379166,-0.00914376974105835,0.004240870475769043
79,3.0923229219324364,-0.0637338122685159,-2.7056004369539832,0.04914981126785278,0.0636906698346138,0.996758759021759,-0.0004946701228618622,0.0022343259770423174,0.0005582850426435471,-0.011506371200084686,0.009856700897216797,0.0018680095672607422
80,3.0922367357576506,-0.06395483533563193,-2.7055992614893025,0.049235012382268906,0.06391124427318573,0.9967402219772339,0.006140814162790775,0.014935608953237534,0.0010327184572815895,0.012212119996547699,-0.005805782973766327,0.0058078765869140625
81,3.0917903839996184,-0.06347217863978366,-2.7053093571843223,0.049681439995765686,0.0634295716881752,0.9967489242553711,-0.0011456646025180817,-0.005248271860182285,0.003913929685950279,-0.0077808089554309845,-0.0005175843834877014,0.007019937038421631
82,3.092353541540543,-0.06372355029926462,-2.705101626890599,0.04911930859088898,0.06368043273687363,0.9967606067657471,0.002909368369728327,0.004881815519183874,-0.0007808133959770203,0.0021959878504276276,0.0023138150572776794,0.0008130073547363281
83,3.091605660125009,-0.0636117362881514,-2.7047549072081094,0.049865130335092545,0.0635688453912735,0.9967311024665833,-0.00765293650329113,-0.012929849326610565,-0.0001680329442024231,0.00859130173921585,-0.0026862621307373047,0.008167147636413574
84,3.092043977657353,-0.06359546637622437,-2.704354085808672,0.04942828416824341,0.0635526105761528,0.9967537522315979,-0.003063434734940529,-0.0039497907273471355,-0.0009407643228769302,-0.008290588855743408,-0.0029599517583847046,0.007396697998046875
85,3.0918782679515684,-0.06346851252210044,-2.7039921805456686,0.04959386959671974,0.06342591345310211,0.9967538714408875,2.629123628139496e-06,0.0004947441630065441,2.421438694000244e-06,0.009717054665088654,0.004521489143371582,0.0005913972854614258
86,3.091785880709628,-0.06376593121512868,-2.7035083775601865,0.04968501254916191,0.06372272968292236,0.9967303276062012,-0.001546693965792656,-0.005342684220522642,0.0018085446208715439,-0.004702091217041016,0.0008829981088638306,0.00943446159362793
87,3.0920313367909666,-0.06353180553355228,-2.703263556021617,0.049441080540418625,0.06348907202482224,0.9967570900917053,0.0009377319365739822,0.001109872478991747,0.0006630867719650269,0.0014011934399604797,-0.002698071300983429,0.004753470420837402
88,3.0915436279933055,-0.06361622897285146,-2.7032589371129694,0.04992693290114403,0.06357333064079285,0.996727466583252,-0.0035529565066099167,-0.004610269330441952,-0.002206161618232727,0.003799259662628174,0.0035653337836265564,0.0028757452964782715
89,3.0919059016587833,-0.06386143960996782,-2.7028062927383485,0.04956505820155144,0.06381803750991821,0.9967297315597534,0.003658800385892391,0.006869670934975147,0.0001085326075553894,-0.004231207072734833,0.00010100752115249634,0.0066574811935424805
90,3.0916454227892243,-0.06362275597665598,-2.7026789103884625,0.04982544481754303,0.06357984244823456,0.9967320561408997,0.0007255654782056808,0.001704550115391612,0.0003053806722164154,0.004984118044376373,-0.002239525318145752,0.005648195743560791
91,3.091812953422937,-0.06386160263140865,-2.702874165465353,0.04965771734714508,0.06381820142269135,0.9967253804206848,0.0008876314386725426,-7.343431934714317e-05,0.0011450741440057755,-0.0016688182950019836,0.0037782415747642517,0.003656148910522461
92,3.0918176426899024,-0.06396373995841788,-2.7026075546051453,0.04965270683169365,0.06392013281583786,0.9967189431190491,0.0018833233043551445,0.002942550927400589,0.0007594432681798935,0.0019677728414535522,-0.001771092414855957,0.004898369312286377
93,3.0916586875357877,-0.06366881922293907,-2.702504729651317,0.049812085926532745,0.06362581253051758,0.9967299699783325,-0.005277158692479134,-0.0028745033778250217,0.0018469933420419693,0.00043510645627975464,-0.002193927764892578,0.0056809186935424805
94,3.0917448943381194,-0.06369273868574224,-2.702546054120369,0.04972607269883156,0.06364968419075012,0.9967324733734131,-0.0008768355473875999,0.0011300034821033478,0.0008224863559007645,4.8082321882247925e-05,0.002817586064338684,0.0041675567626953125
95,3.0916061464272775,-0.06365300435626171,-2.702507580153827,0.04986448958516121,0.0636100322008133,0.9967280030250549,0.002057848498225212,0.004887412302196026,-0.0015541259199380875,0.0035107433795928955,0.005481749773025513,0.013952851295471191
96,3.091638756200058,-0.06360337978384203,-2.7028697950323632,0.04983217269182205,0.06356050819158554,0.9967333078384399,0.004531310871243477,0.011412021704018116,-0.0010534152388572693,-0.005490120500326157,-0.01085662841796875,-0.00437772274017334
97,3.0916271077811412,-0.06332958243242855,-2.703237786415389,0.049844637513160706,0.06328725814819336,0.9967498779296875,0.0005562407895922661,0.003776032477617264,-0.00018045492470264435,0.006902799010276794,0.0012879371643066406,0.0020294189453125
98,3.0916704246273183,-0.06360262708394898,-2.7033296571871888,0.049800582230091095,0.06355975568294525,0.9967344403266907,-0.003055356442928314,-0.0023545464500784874,-0.00039324164390563965,-0.0007741115987300873,0.004524938762187958,0.01051318645477295
99,3.0916571647327498,-0.06357068114365498,-2.7034652356169806,0.04981391131877899,0.06352787464857101,0.9967360496520996,0.000979127362370491,0.0010375042911618948,0.00036530569195747375,0.0022338107228279114,-0.0026605725288391113,0.0023789405822753906
100,3.0915472632122203,-0.06352450492121338,-2.7036076669227986,0.0499236062169075,0.06348179280757904,0.9967336058616638,-0.0005105724558234215,-0.0008343136869370937,0.0017065508291125298,0.0011017844080924988,0.0035195499658584595,0.00012314319610595703
101,3.091631596872036,-0.06340584112353086,-2.7039980014598584,0.04983990639448166,0.06336336582899094,0.9967449307441711,-0.00018889550119638443,-0.004695304669439793,0.0015600351616740227,0.0003767572343349457,0.0015017315745353699,0.00873267650604248
102,3.091479543651484,-0.06325526963601863,-2.704369939072152,0.04999195784330368,0.06321309506893158,0.9967471957206726,-0.002891547977924347,-0.0061829122714698315,-0.0006832350045442581,0.0058704763650894165,0.0017283186316490173,0.015002131462097168
103,3.091704414651586,-0.06340647779715192,-2.7046698774082456,0.049767330288887024,0.06336399912834167,0.9967486262321472,0.0012164320796728134,0.0014212816022336483,8.404068648815155e-05,-0.006020396947860718,0.0027217939496040344,-0.0007466673851013184
104,3.0916672250437145,-0.06334643746790695,-2.7048355027935473,0.04980460926890373,0.06330408155918121,0.9967510104179382,0.002514371182769537,0.002982748905196786,0.0011176103726029396,0.0062561966478824615,-0.0018874406814575195,0.006438255310058594
105,3.0917159865410344,-0.06336785468178195,-2.705071424009091,0.04975593462586403,0.06332545727491379,0.9967520833015442,-0.0024616681039333344,-0.007235180586576462,0.000822325237095356,-0.004757758229970932,0.000486813485622406,0.007123827934265137
106,3.091913695400285,-0.0634232032730651,-2.7056738329398136,0.049558691680431366,0.06338068842887878,0.9967582821846008,-7.699243724346161e-05,0.0056455545127391815,0.002269890159368515,0.001878693699836731,0.0033307448029518127,0.005133867263793945
107,3.0916207624691263,-0.06334098719942595,-2.705804813552706,0.049850936979055405,0.06329864263534546,0.9967490434646606,-0.001018894836306572,0.0028724195435643196,-0.002514319494366646,0.0024409405887126923,-0.002110891044139862,0.002457737922668457
108,3.0918938247513776,-0.06331864954323373,-2.7060841216100466,0.049578819423913956,0.06327635049819946,0.9967637658119202,0.003124229609966278,0.0007933985907584429,0.0016332464292645454,-0.004946857690811157,0.0007800459861755371,0.006104826927185059
109,3.0917444179409426,-0.06346535267445821,-2.7058605908892424,0.04972727969288826,0.06342275440692902,0.9967470765113831,0.0015470031648874283,0.0002643344923853874,-0.0016467086970806122,0.004578754305839539,0.003181859850883484,0.007464289665222168
110,3.091740927061962,-0.06385334624235926,-2.7058172428115896,0.049729518592357635,0.06380996108055115,0.9967221021652222,0.00691273994743824,-0.0005058515816926956,3.95849347114563e-05,-0.0024425387382507324,0.006670370697975159,0.014492928981781006
111,3.091735917671494,-0.06415540629027644,-2.7059461514301955,0.04973354563117027,0.06411140412092209,0.9967024326324463,0.009681402705609798,0.019567938521504402,-0.0007665734738111496,0.006510347127914429,-0.015481658279895782,0.000977933406829834
112,3.091286852065576,-0.06340210026447853,-2.706047598281911,0.05018353462219238,0.06335963308811188,0.9967278838157654,-0.005320162512362003,-0.006838296540081501,0.0005238931626081467,-0.0008976608514785767,0.002100549638271332,-0.009606659412384033
113,3.092003527674035,-0.06428774863055557,-2.70604810689008,0.04946640133857727,0.06424347311258316,0.9967073798179626,0.005155893974006176,0.005908017046749592,-0.0015602987259626389,-0.0015080347657203674,0.014186687767505646,0.021236836910247803
114,3.09122881199637,-0.06384561146807526,-2.7057993690231883,0.050239983946084976,0.06380224227905273,0.996697187423706,0.0014126366004347801,0.0026795563753694296,-0.00034927763044834137,0.006583746522665024,-0.017140865325927734,-0.0025260448455810547
115,3.091753547285013,-0.0635686964195512,-2.705992876536571,0.04971786215901375,0.06352589279413223,0.9967411756515503,-0.0026168283075094223,-0.004289031028747559,-0.0032189246267080307,-0.008366532623767853,0.004787713289260864,0.002190828323364258
116,3.0917597613066423,-0.06417808833840602,-2.7062073976037486,0.049709707498550415,0.06413403898477554,0.9967021942138672,0.0015663569793105125,0.008160780183970928,-0.0010054316371679306,0.009296014904975891,0.009428560733795166,0.011872947216033936
117,3.0912185911397154,-0.06394088399159771,-2.7066043468445278,0.050249870866537094,0.06389732658863068,0.9966906905174255,-0.0020883874967694283,-0.005908795166760683,0.0007822141051292419,-0.0017421804368495941,-0.010827258229255676,-0.0016649961471557617
118,3.0918976601161363,-0.06380389942570125,-2.70679075475621,0.04957346245646477,0.06376061588525772,0.9967331886291504,-0.0005140695720911026,0.0022516287863254547,-0.0006039571017026901,-0.0040870122611522675,0.006536617875099182,0.006242275238037109
119,3.0914169915979466,-0.06414289819493675,-2.7069920380650943,0.05005146935582161,0.06409892439842224,0.9966875910758972,-0.0003570849075913429,0.0010760750155895948,-0.004118787124752998,0.01127360388636589,0.006534002721309662,0.008042633533477783
120,3.0914127294195595,-0.0640845907624536,-2.7069637925838066,0.050055909901857376,0.06404073536396027,0.9966912269592285,-0.0008377553895115852,-0.0033278432674705982,-0.0007983408868312836,-0.01021520420908928,-0.00978047400712967,0.0018440485000610352
121,3.0916942449063893,-0.063701775886779,-2.7065913546249534,0.04977655038237572,0.0636586993932724,0.9967297911643982,-0.0018544122576713562,0.004680011421442032,0.001189185306429863,0.005521312355995178,0.003754645586013794,0.006627321243286133
122,3.0912160267304074,-0.06407648424692383,-2.706388642811485,0.050251975655555725,0.064032644033432,0.9966816306114197,-0.001646517775952816,-0.005231596529483795,0.00045225396752357483,0.0024823881685733795,0.005455873906612396,0.003852248191833496
123,3.0916296228634663,-0.06400219385399128,-2.7063567193503326,0.04984000325202942,0.06395851075649261,0.9967074394226074,5.0162896513938904e-05,0.003967424854636192,-4.1892752051353455e-05,-0.0070848651230335236,-0.008569091558456421,0.0025908946990966797
124,3.0914051074539937,-0.06363230454192907,-2.7062199947136523,0.05006496235728264,0.06358937174081802,0.9967197775840759,-0.003188805654644966,-0.0005827397108078003,-0.0009676404297351837,0.009627427905797958,0.004251211881637573,0.008483648300170898
125,3.0914423135789306,-0.06414831088910192,-2.7059579328941497,0.05002620816230774,0.06410432606935501,0.9966884255409241,0.0005401782691478729,-0.002566948067396879,-0.0011084452271461487,-0.004921235144138336,0.007505156099796295,0.003555595874786377
126,3.0915680680881747,-0.06392494110047849,-2.705968809873346,0.04990159347653389,0.06388141214847565,0.9967091083526611,0.004840001929551363,0.0069009680300951,0.0003734081983566284,0.0008338838815689087,-0.009377017617225647,0.005305051803588867
127,3.0912665486350606,-0.06363759920223229,-2.705778314252666,0.05020303279161453,0.06359465420246124,0.9967122077941895,-0.004753236658871174,-0.0071320622228085995,0.0006132852286100388,0.0034773796796798706,0.00651947408914566,0.005820631980895996
128,3.0915589638766505,-0.06426276680963952,-2.7055779655311722,0.04990958422422409,0.06421854346990585,0.9966870546340942,0.0020495960488915443,0.004864620044827461,3.594905138015747e-06,-0.0030040666460990906,0.0017146840691566467,0.004594683647155762
129,3.091202575955427,-0.063771123917305,-2.7052779146963513,0.05026635900139809,0.06372790783643723,0.9967002868652344,0.0014087418094277382,0.000812233192846179,-0.0008439477533102036,0.0046042390167713165,-0.00871998816728592,0.004993140697479248
130,3.091478636456655,-0.06385623304719037,-2.705146572701408,0.0499909408390522,0.06381284445524216,0.996708869934082,-0.005403588525950909,-0.004910229239612818,-4.660896956920624e-05,-0.004046734422445297,0.008803725242614746,0.005656123161315918
131,3.0915007917554806,-0.06414115901821285,-2.7051400875972735,0.049967966973781586,0.06409718841314316,0.9966921806335449,0.0064954329282045364,0.00892016664147377,0.002297069877386093,0.004338070750236511,-0.0002544000744819641,0.0035979747772216797
132,3.0911979394483198,-0.06370501972161006,-2.705162473450727,0.050271205604076385,0.06366194039583206,0.9967045783996582,-0.005248183384537697,-0.003567162901163101,-0.0004670191556215286,-0.0002986714243888855,-0.006655104458332062,0.004775524139404297
133,3.0915948485328837,-0.06379721573811704,-2.704931440897655,0.049875304102897644,0.06375394761562347,0.9967184662818909,-0.00411139614880085,-0.01647968962788582,-0.0006559230387210846,-0.001413390040397644,0.009244091808795929,0.00976639986038208
134,3.091294590394639,-0.06399155519021356,-2.7045874728779107,0.05017394572496414,0.063947893679142,0.9966909885406494,-0.009094765409827232,-0.028671622276306152,0.0016001584008336067,0.004208371043205261,-0.002149805426597595,0.01148754358291626
135,3.0915375951492985,-0.06358006456515171,-2.7043696016207868,0.04993307217955589,0.06353724002838135,0.9967296719551086,-0.0018574204295873642,0.00022182799875736237,-0.0028525255620479584,-0.0054994672536849976,-0.0036007091403007507,-0.012491822242736816
136,3.091624550435485,-0.06379310847289721,-2.704378225752308,0.04984571784734726,0.06374984979629517,0.9967203736305237,0.0018302584066987038,0.010693110525608063,-0.0010322555899620056,0.005238518118858337,0.006928868591785431,0.010222434997558594
137,3.091438313845321,-0.06392757688330584,-2.704424186644089,0.0500309057533741,0.06388404220342636,0.9967023730278015,-0.001054336316883564,0.00035954732447862625,0.001576288603246212,-0.0005771778523921967,-0.002467423677444458,0.012193441390991211
138,3.09162768512498,-0.06357770832757839,-2.7044706099996985,0.04984328895807266,0.06353488564491272,0.9967344403266907,-0.0017235251143574715,-0.003309240099042654,-0.0020119119435548782,-0.00254102423787117,-0.001767285168170929,-0.003539562225341797
139,3.0915190353021402,-0.06377585588410029,-2.704416345551104,0.04995095357298851,0.06373263150453568,0.9967164397239685,-0.001004091463983059,0.00058369105681777,-0.000616142526268959,0.005255360156297684,0.005588069558143616,0.002887129783630371
140,3.091371618687139,-0.06386080175895638,-2.704578487377334,0.05009758844971657,0.06381740421056747,0.9967031478881836,0.003612547181546688,0.0007431800477206707,0.001687535084784031,-0.0036193281412124634,-0.005025304853916168,0.011124372482299805
141,3.0915536796656604,-0.06347575098663928,-2.705101399829198,0.049917370080947876,0.06343313306570053,0.9967371225357056,0.00041658710688352585,-0.0002504028379917145,-0.0007777586579322815,0.00046715885400772095,-0.002321675419807434,-0.003038763999938965
142,3.091364726831782,-0.06375338212303366,-2.705306279367133,0.05010480061173439,0.06371020525693893,0.9967096447944641,-0.0001372266560792923,0.0006605028174817562,-0.0006255954504013062,0.002324391156435013,0.008387573063373566,0.0074558258056640625
143,3.091426473328268,-0.06391908326612676,-2.7055751168728266,0.05004274472594261,0.06387556344270706,0.9967024922370911,0.001852773129940033,0.0021373056806623936,0.0003879796713590622,-0.0015503130853176117,-0.0036491304636001587,0.006120443344116211
144,3.0913328545138126,-0.06366223350046565,-2.706232869948557,0.05013686418533325,0.06361924111843109,0.9967139363288879,0.000540432520210743,0.002378384117037058,0.0007503125816583633,-0.0006373561918735504,-3.587454557418823e-05,0.00818401575088501
145,3.0913446668805005,-0.06390656594291032,-2.706551053955678,0.05012430623173714,0.06386307626962662,0.9966989159584045,0.00015038903802633286,-0.002066048327833414,0.0014816168695688248,0.004258006811141968,0.007227614521980286,0.004033327102661133
146,3.0913452832830766,-0.06398989319955727,-2.7068840152113585,0.050123430788517,0.06394623219966888,0.9966937303543091,-0.000831906683743,0.0010286387987434864,-0.001472296193242073,-0.004331812262535095,-0.004589557647705078,0.005121946334838867
147,3.0914908321267434,-0.06367019712249698,-2.706898120456338,0.04997938498854637,0.06362718343734741,0.9967213869094849,0.0012413924559950829,0.0012288964353501797,0.0006679221987724304,0.00261765718460083,-0.001462891697883606,0.005521595478057861
148,3.0913183130934327,-0.06389617802129403,-2.707069841718427,0.05015062913298607,0.0638527050614357,0.9966986775398254,0.0015840409323573112,0.0009644241072237492,0.0006798915565013885,0.0010121017694473267,0.0076499879360198975,0.004857897758483887
149,3.0914959289983366,-0.06398707403429531,-2.707051495544705,0.04997328668832779,0.06394341588020325,0.9967013597488403,0.0015478627756237984,0.0021720544900745153,0.001012447290122509,-0.0012672357261180878,-0.004434160888195038,0.005709350109100342
150,3.0915329586985245,-0.06375574553643211,-2.706975565503085,0.049937132745981216,0.06371255964040756,0.9967182278633118,-0.00013597030192613602,-0.0001234053634107113,0.00019123591482639313,0.002522587776184082,-0.0006174743175506592,0.006425142288208008
151,3.0914977575374003,-0.0639560241379777,-2.7075092232616167,0.049971580505371094,0.06391242891550064,0.9967038035392761,-0.0011613322421908379,-0.0009549153037369251,-0.0022722892463207245,-0.0005636140704154968,0.007849656045436859,0.003860950469970703
152,3.0916536683589624,-0.0638737441258239,-2.7077795882436217,0.04981643706560135,0.06383032351732254,0.9967166185379028,-0.002979133278131485,0.002277232240885496,0.0017148889601230621,0.0005223080515861511,-0.00459570437669754,0.005297541618347168
153,3.091653644101629,-0.06366083507847448,-2.707702519594212,0.04981712996959686,0.06361784040927887,0.9967300295829773,-0.0027887625619769096,-0.002403466496616602,-0.0015447568148374557,0.00023168697953224182,-0.0043374598026275635,-0.013285994529724121
154,3.0915821656978286,-0.06360389284841574,-2.707529489423315,0.049888577312231064,0.06356101483106613,0.9967305064201355,0.000639558769762516,0.0009046695195138454,-1.1574476957321167e-05,0.002586405724287033,0.007651768624782562,0.010410904884338379
155,3.091663861272619,-0.06355653286270191,-2.7072583731984166,0.04980727657675743,0.06351375579833984,0.9967371225357056,-0.0027565564960241318,-0.005564929451793432,-0.0006004460155963898,-0.0028559863567352295,-0.0004186704754829407,-0.009569942951202393
156,3.0917143131819116,-0.06294871603062512,-2.707157673349985,0.0497589111328125,0.0629071518778801,0.9967781901359558,-0.005003506317734718,-0.013183610513806343,0.0013674357905983925,0.0031585693359375,-0.0056714341044425964,-0.015134572982788086
157,3.0915919147444986,-0.0630751887746475,-2.706747149071801,0.049880530685186386,0.06303337216377258,0.9967643618583679,-0.0014530438929796219,0.00795150175690651,-0.0020984970033168793,0.00862167775630951,0.00946114957332611,0.035401344299316406
158,3.091967917219254,-0.06309855536538285,-2.706536103855573,0.04950566589832306,0.06305669248104095,0.996781587600708,-5.725771188735962e-06,-0.0011286968365311623,5.188584327697754e-05,-0.009619180113077164,-0.006278723478317261,0.012938499450683594
159,3.0917930392260087,-0.06260189264564993,-2.7063889938403265,0.04968152940273285,0.06256101280450821,0.9968039393424988,-0.0009031007066369057,0.00046508898958563805,0.0008208667859435081,0.010514393448829651,0.0010833963751792908,0.0008767843246459961
160,3.0917180570391896,-0.06282547263338892,-2.70615825423554,0.04975556209683418,0.06278415024280548,0.9967859983444214,-0.00040828436613082886,0.00038680993020534515,7.432699203491211e-05,-0.004528515040874481,0.006002463400363922,0.0057621002197265625
161,3.0918473486184648,-0.06288245480878245,-2.70600661431001,0.04962652176618576,0.0628410205245018,0.9967890977859497,0.0015299487859010696,-0.00025401264429092407,0.0012368420138955116,0.003062088042497635,-0.0031028464436531067,0.007910728454589844
162,3.0917208299228767,-0.06269497703234181,-2.70591115440178,0.04975321888923645,0.06265391409397125,0.9967945218086243,-0.0007988754659891129,-0.0006514559499919415,-0.001132771372795105,-0.0010624155402183533,0.0003648921847343445,0.003983736038208008
163,3.0918632158188015,-0.06291073384144266,-2.7056697797954166,0.04961061477661133,0.06286924332380295,0.9967880845069885,-8.547771722078323e-05,-0.003641553223133087,0.0001665111631155014,0.003291614353656769,0.002697780728340149,0.00798797607421875
164,3.091785235711803,-0.0629119468047249,-2.7055896259683974,0.049688320606946945,0.06287045776844025,0.9967837333679199,-0.0005921246483922005,-0.0008360468782484531,-0.000994604080915451,-0.001668926328420639,-0.0023998990654945374,0.003414332866668701
165,3.091853615302673,-0.06281990840752602,-2.705498228656446,0.049620456993579865,0.06277859956026077,0.9967930912971497,0.0006754854694008827,0.0005779392085969448,0.003746933303773403,0.0010234564542770386,0.0015982165932655334,0.004274904727935791
166,3.0917097138478296,-0.06293718512009502,-2.705507628396555,0.04976354166865349,0.06289564073085785,0.9967788457870483,-0.0006782421842217445,0.0016754926182329655,3.160908818244934e-05,0.0029708407819271088,0.0017253383994102478,0.004762411117553711
167,3.0916790378781354,-0.06295719506351258,-2.705556732505906,0.04979405179619789,0.0629156157374382,0.9967759847640991,0.001956944353878498,-0.0020852000452578068,-0.0010313205420970917,-0.0032242275774478912,-0.002429775893688202,0.001896500587463379
168,3.0916683507870895,-0.0629050146297358,-2.706065255296848,0.04980485886335373,0.0628635361790657,0.9967785477638245,-0.001887376420199871,0.0009682949166744947,0.0005940627306699753,0.003204166889190674,0.0009487047791481018,0.005418598651885986
169,3.0917196051108413,-0.06280870413756816,-2.7061396899884054,0.04975408688187599,0.06276741623878479,0.996787428855896,0.0006070258095860481,0.0021627701353281736,0.0017034020274877548,-0.001902516931295395,0.00022087246179580688,0.005226850509643555
170,3.0917403328104696,-0.06292027616247486,-2.706102479523714,0.04973306134343147,0.06287876516580582,0.9967811703681946,0.0005845790728926659,-0.001191096380352974,-0.001099471002817154,0.0021010376513004303,0.00010950863361358643,0.002715170383453369
171,3.091588541121241,-0.06283701802616742,-2.706050363234766,0.049884628504514694,0.06279567629098892,0.9967789053916931,-0.00034406501799821854,0.000410362146794796,0.0020535001531243324,-0.0022467002272605896,0.000528290867805481,0.006379604339599609
172,3.0917488513629685,-0.06285289979379163,-2.7062850375381013,0.04972479119896889,0.06281152367591858,0.9967860579490662,9.524449706077576e-05,-0.0007242374122142792,0.0013612397015094757,0.0015752613544464111,0.0010770335793495178,0.005121350288391113
173,3.091683376022071,-0.06289255719944935,-2.7064795257720724,0.0497899167239666,0.06285110116004944,0.9967799782752991,-0.0027740858495235443,0.00057459925301373,-0.0004723072052001953,-0.0003209337592124939,-0.0015412941575050354,0.0035707950592041016
174,3.0917205889388564,-0.06282383267081339,-2.7063502492238056,0.04975304380059242,0.06278251856565475,0.9967862367630005,-0.0006419643759727478,-0.0009088059887290001,-0.0013417769223451614,0.0012113042175769806,0.0009992197155952454,0.005288839340209961
175,3.091665221264238,-0.06281444495357409,-2.7063370794272124,0.04980827122926712,0.06277314573526382,0.9967842102050781,-0.001966414973139763,0.0016372865065932274,0.0018669813871383667,-0.0017583444714546204,-0.0037521496415138245,0.000240325927734375
176,3.091738008109659,-0.06255184800695181,-2.7065189588308005,0.04973652958869934,0.06251106411218643,0.9968041181564331,-0.00014426279813051224,-0.0019551790319383144,0.0004277024418115616,0.0009226426482200623,0.0010112673044204712,0.0005254745483398438
177,3.091431626580054,-0.0629159866842064,-2.7067208051319565,0.050040796399116516,0.06287448853254318,0.9967662692070007,0.0034420224837958813,0.0013009817339479923,0.0017278585582971573,-0.003120012581348419,0.0068124085664749146,0.013502955436706543
178,3.091923369867749,-0.06328393393094306,-2.706706809269482,0.049549490213394165,0.06324170529842377,0.9967676997184753,-0.0007384726777672768,-0.0005377824418246746,-0.002062831073999405,-0.0013469681143760681,-0.00843212753534317,0.0037512779235839844
179,3.09156324468469,-0.06283242627541158,-2.7067485815221857,0.04990987479686737,0.06279109418392181,0.9967783093452454,-0.000933661125600338,0.0021076342090964317,-0.0004952829331159592,-0.0009444095194339752,-0.0006115138530731201,-0.0004248619079589844
180,3.0917370787451346,-0.06327412050196038,-2.706862641164131,0.0497351810336113,0.06323190778493881,0.9967585206031799,-0.0031777359545230865,0.0013196398504078388,-0.0031074900180101395,-0.001547936350107193,0.009857676923274994,0.006155610084533691
181,3.091822630643948,-0.06338188931584635,-2.707026550177806,0.04964958503842354,0.063339464366436,0.9967562556266785,0.0005278447642922401,-0.001490746159106493,-0.0009412802755832672,0.0034510046243667603,-0.008484117686748505,0.003182649612426758
182,3.091527845536311,-0.06296188471951664,-2.707118361805261,0.04994475096464157,0.06292029470205307,0.9967683553695679,-0.0021597854793071747,-0.003425978124141693,-0.0014026910066604614,0.007962364703416824,0.007682137191295624,-0.02296745777130127
183,3.091596606903163,-0.06365428491539832,-2.707275892717349,0.04987401142716408,0.06361130625009537,0.9967277646064758,0.002818905282765627,0.0015043886378407478,2.512708306312561e-06,-0.011803332716226578,0.005373671650886536,0.01930922269821167
184,3.0913376575798353,-0.06302349399674329,-2.707398157849346,0.05013410747051239,0.06298178434371948,0.99675452709198,0.00042956043034791946,0.004062248859554529,0.00021174177527427673,0.023611612617969513,-0.01102561503648758,0.010127067565917969
185,3.0917163986353353,-0.06339806230630472,-2.707909286103307,0.04975542798638344,0.06335560232400894,0.9967501163482666,0.015706902369856834,0.03509604185819626,0.0013212449848651886,-0.027294479310512543,0.014937251806259155,-0.0003815889358520508
186,3.091780429663575,-0.06344337655241425,-2.7078639003501586,0.04969146475195885,0.06340082734823227,0.9967504739761353,-0.0023413654416799545,0.0013723047450184822,0.0015922123566269875,0.02518342435359955,-0.011566706001758575,0.006667613983154297
187,3.091367029609437,-0.06314863276411811,-2.7078549064601325,0.05010443553328514,0.06310667097568512,0.996748149394989,0.002981276251375675,0.004336321260780096,-0.002037458121776581,-0.007562939077615738,0.0043676868081092834,0.009523093700408936
188,3.0918876220412588,-0.06346772852435881,-2.7077819566414516,0.049584537744522095,0.06342513114213943,0.9967541694641113,0.0011622384190559387,0.0018488257192075253,5.3044408559799194e-05,-0.004906795918941498,-0.000803045928478241,0.0028034448623657227
189,3.0913561120712005,-0.06310035384650835,-2.707692545168552,0.050115473568439484,0.06305848807096481,0.9967506527900696,0.00033763330429792404,0.0005810470320284367,-0.0011302009224891663,0.01677905023097992,-0.008996613323688507,0.001998007297515869
190,3.0913868472538573,-0.06321767538109864,-2.707551073614405,0.05008446425199509,0.06317557394504547,0.9967447519302368,0.002545674331486225,0.0013164114207029343,0.0007747644558548927,-0.014073729515075684,0.009227365255355835,0.011464297771453857
191,3.0919087655364437,-0.06355437549590627,-2.7076041969600824,0.049563173204660416,0.06351160258054733,0.9967494010925293,0.0011171260848641396,-0.0018374351784586906,-0.0007096193730831146,0.0054752640426158905,-0.0027663782238960266,0.0062716007232666016
192,3.0914036483532397,-0.0631482081068686,-2.7070693163273423,0.05006793141365051,0.0631062462925911,0.9967498779296875,0.00010302569717168808,0.0013922969810664654,-0.002077057957649231,0.0009421892464160919,-0.002162657678127289,0.0025479793548583984
193,3.091643715622881,-0.06341633482635951,-2.7067479491301136,0.049827802926301956,0.06337383389472961,0.9967450499534607,0.0023253303952515125,-0.001159102190285921,0.0021237293258309364,-0.0026171132922172546,0.005962088704109192,0.004002511501312256
194,3.0915513212540082,-0.06349717386971154,-2.7066225375141784,0.04991966113448143,0.0634545162320137,0.9967357516288757,0.0006753494963049889,0.0011415064800530672,0.0019126925617456436,-0.0025868751108646393,-0.005135402083396912,0.011031270027160645
195,3.091673229875128,-0.06324619900386093,-2.7063495454333264,0.049798931926488876,0.06320404261350632,0.9967575073242188,-0.0021518785506486893,0.0005669367965310812,9.357370436191559e-05,0.004308741539716721,-0.0005056709051132202,0.0022050142288208008
196,3.09149932294528,-0.06345574809692393,-2.7060332727635883,0.04997161030769348,0.06341317296028137,0.9967355728149414,-0.0009114108979701996,0.0014125281013548374,-0.001963796094059944,-0.0015707239508628845,0.002275921404361725,0.0042105913162231445
197,3.091654078193185,-0.0632780497601323,-2.7058421884172645,0.04981790482997894,0.0632358267903328,0.9967541694641113,-0.0006809970363974571,0.0020975901279598475,0.0008790642023086548,-0.0005015097558498383,-0.003589242696762085,0.007395923137664795
198,3.0916137382639692,-0.06326669091110929,-2.705701787210448,0.04985816776752472,0.06322449445724487,0.9967532753944397,-0.0015793591737747192,0.0017533900681883097,0.0018547829240560532,0.0020827576518058777,0.002846069633960724,0.009548664093017578
199,3.0915522169957903,-0.0634261770623994,-2.705511366480386,0.04991898685693741,0.06338366121053696,0.9967401623725891,-0.0005806935951113701,-0.0002623065374791622,-0.00032801181077957153,0.0008317567408084869,-0.00266893208026886,-0.0008293390274047852
200,3.0914444720784187,-0.06326773331635609,-2.705449843740113,0.05002688243985176,0.06322553008794785,0.9967447519302368,-0.0008955607190728188,-0.0024788915179669857,0.0007958067581057549,-0.0011529698967933655,-0.0009696707129478455,0.0020194053649902344
201,3.091582878837562,-0.06337369913933458,-2.705619701963978,0.049888573586940765,0.06333128362894058,0.996744692325592,-0.0013562589883804321,0.0014714035205543041,-0.00021665729582309723,0.00783541426062584,0.006340332329273224,0.008717775344848633
202,3.091273672477559,-0.063438448294136,-2.7056327435292777,0.0501965694129467,0.0633959025144577,0.9967252016067505,-0.0014921799302101135,0.0002688933163881302,5.466490983963013e-05,-0.0059918612241744995,-0.0022692009806632996,0.0023439526557922363
203,3.0916007559994894,-0.06319154873689276,-2.705748544125371,0.049871351569890976,0.06314950436353683,0.9967575073242188,-0.0011826101690530777,0.00059358193539083,-0.0010098740458488464,-0.000753302127122879,-0.002205885946750641,0.0070116519927978516
204,3.091386492989984,-0.0633560962176325,-2.7058286098220687,0.050084393471479416,0.06331372261047363,0.9967362880706787,-0.00035314634442329407,-0.0033723823726177216,-0.0006381161510944366,0.00849410891532898,0.005961202085018158,0.00614774227142334
205,3.09128146594373,-0.06354943127403907,-2.705685269097897,0.05018845200538635,0.06350666284561157,0.9967186450958252,-0.0018516136333346367,0.0014389331918209791,-0.0002442300319671631,-0.0053733885288238525,-0.002975054085254669,-0.0036308765411376953
206,3.0914009626010728,-0.06331316391907918,-2.705846143830196,0.05007011070847511,0.06327087432146072,0.9967398047447205,-0.000437428243458271,0.0015787363518029451,-1.2429431080818176e-05,0.002801608294248581,0.00154847651720047,0.002527952194213867
207,3.091521293700323,-0.06367029128218939,-2.7061350501022523,0.049949027597904205,0.06362728029489517,0.9967229962348938,-0.000982079654932022,0.0009738756343722343,-0.0018556397408246994,0.0016714520752429962,0.005708649754524231,0.008754909038543701
208,3.091565466953601,-0.06365683956494461,-2.706135156233932,0.04990502819418907,0.06361385434865952,0.996725857257843,0.002734065055847168,-0.0024114102125167847,-0.0006107147783041,-0.002190805971622467,-0.0018615573644638062,0.0007104873657226562
209,3.0915309657642216,-0.06344373882634038,-2.706223893503557,0.049940090626478195,0.06340118497610092,0.996737539768219,-0.001908089965581894,0.0002480684779584408,0.002926439978182316,-0.0013408586382865906,-0.0032663121819496155,0.010632157325744629
210,3.091605249979162,-0.06373038406530943,-2.7060264437982786,0.04986513778567314,0.06368725001811981,0.9967230558395386,-0.001932986080646515,0.0005166870541870594,-0.0011648871004581451,0.003311730921268463,0.007968001067638397,-0.0015756487846374512
211,3.0915377145632887,-0.06392487246298638,-2.70594485008848,0.0499318391084671,0.06388134509325027,0.9967074394226074,0.001262027770280838,-0.00010775821283459663,-0.00015037134289741516,-0.000356040894985199,-0.007103398442268372,0.007427573204040527
212,3.091655084907494,-0.06353920870218122,-2.7056095123516446,0.04981609433889389,0.06349646300077438,0.996738076210022,-0.0026277415454387665,-0.004137744661420584,-0.001520693302154541,-4.191696643829346e-05,0.0017653852701187134,0.008053302764892578
213,3.091672494560637,-0.06370590455348009,-2.7052255366903633,0.04979820176959038,0.0636628195643425,0.9967281818389893,0.004082844126969576,0.007204909808933735,-0.0011533647775650024,-0.004952620714902878,0.012997321784496307,0.012121856212615967
214,3.091425541659881,-0.06382732412251643,-2.7053374423901637,0.05004396289587021,0.06378399580717087,0.9967082142829895,0.005780098959803581,0.008472247049212456,-2.9549002647399902e-05,0.011479470878839493,-0.013933539390563965,0.006541907787322998
215,3.091892043817532,-0.06382438863147247,-2.705372025246408,0.04957899823784828,0.06378106772899628,0.9967315793037415,0.005084217991679907,0.011420298367738724,0.00046556256711483,-0.012820582836866379,0.0033118203282356262,-0.0005463361740112305
216,3.0914347929797454,-0.06404097300671466,-2.7051084885480448,0.050034042447805405,0.06399720907211304,0.996694803237915,0.0006218887865543365,0.0035397217143326998,-0.001021701842546463,0.0162806436419487,0.007749602198600769,0.00911855697631836
217,3.0913718226937292,-0.06406254856544231,-2.7046823413029024,0.050096746534109116,0.06401874125003815,0.9966904520988464,-0.0019805775955319405,-0.011127961799502373,-0.0014949608594179153,-0.013078935444355011,-0.005409739911556244,0.005277872085571289
218,3.091889683187145,-0.06379991383971341,-2.70405385746488,0.049581438302993774,0.06375663727521896,0.9967333078384399,0.0028195567429065704,0.005498996935784817,-0.00019237026572227478,0.008539296686649323,0.0015967562794685364,-0.0005477666854858398
219,3.0910544828477184,-0.06397370918079655,-2.703690798903214,0.050413310527801514,0.06393007934093475,0.996679961681366,-0.003836369141936302,-0.011444253847002983,-0.00018773041665554047,0.0012071654200553894,0.005909383296966553,0.007592260837554932
220,3.0918586171741773,-0.06406110384587814,-2.703306191772595,0.04961155354976654,0.06401729583740234,0.9967146515846252,0.002545655705034733,0.009425858035683632,0.0011132778599858284,-0.008565425872802734,-0.0071020349860191345,0.006046950817108154
221,3.0913180838580487,-0.06360156270996936,-2.7030544814775386,0.05015179514884949,0.06355869024991989,0.9967173337936401,0.001395917497575283,0.004691779147833586,-0.0012806002050638199,0.01218036562204361,0.0016268640756607056,0.001405954360961914
222,3.0916100468335617,-0.06418320815064749,-2.7030992138473677,0.04985892027616501,0.06413915008306503,0.9966945648193359,0.0002859635278582573,-0.005214869510382414,-0.0009107179939746857,-0.010064005851745605,0.00692102313041687,0.008050799369812012
223,3.091805268781426,-0.06395794370140477,-2.7030485878952915,0.04966507479548454,0.06391435116529465,0.9967190027236938,0.001842038705945015,0.008128571324050426,-0.0009919516742229462,0.004824068397283554,-0.00884537398815155,0.004425644874572754
224,3.09119674250167,-0.06361256161781369,-2.7029942526044644,0.05027269944548607,0.06356966495513916,0.996710479259491,-0.007434112019836903,-0.012749717570841312,0.0005921889096498489,0.0016987361013889313,0.004881255328655243,0.003930449485778809
225,3.091858633090466,-0.06420229579252239,-2.7032548392308513,0.049611106514930725,0.06415820121765137,0.996705949306488,0.00641466723755002,0.009955642744898796,-0.00041821226477622986,-0.005085952579975128,0.00441480427980423,0.005949139595031738
226,3.0913760698930592,-0.06377922896328726,-2.703570028444744,0.05009342357516289,0.06373599916696548,0.9967088103294373,-1.1743046343326569e-05,0.007555852644145489,-0.0005652196705341339,0.00903439149260521,-0.009384185075759888,0.0037490129470825195
227,3.091626619968745,-0.06379662203183398,-2.703787967643513,0.04984363168478012,0.06375335901975632,0.996720016002655,-0.006279676221311092,-0.008231790736317635,-0.0004974622279405594,-0.007439468055963516,0.007779836654663086,0.0046988725662231445
228,3.0918216937092065,-0.06414170273860631,-2.7040353482086448,0.04964810237288475,0.06409773230552673,0.9967076778411865,0.002233642153441906,0.006783582270145416,-0.00021833740174770355,0.006473720073699951,0.0012403875589370728,0.00541311502456665
229,3.0912611160310983,-0.06369071855968225,-2.70427977277051,0.050208285450935364,0.06364766508340836,0.9967086911201477,-0.003760268911719322,-0.009606591425836086,0.0005646683275699615,0.0006950423121452332,-0.006289869546890259,0.00425267219543457
230,3.091901806589247,-0.06389804663195378,-2.704451722335168,0.04956904426217079,0.06385457515716553,0.9967275857925415,-0.0014485074207186699,0.0032506482675671577,-0.0006445646286010742,-0.004967592656612396,0.00734294205904007,0.005607128143310547
231,3.0914075196025506,-0.06398389459750249,-2.704515245174079,0.0500614233314991,0.06394024938344955,0.9966973066329956,0.004673043731600046,0.00100433430634439,0.0024050092324614525,0.0095546655356884,-0.0008146315813064575,0.0048896074295043945
232,3.0914743776132694,-0.06382654305707114,-2.7043174403407613,0.0499952994287014,0.06378321349620819,0.9967108964920044,-0.0032912036404013634,-0.0066253412514925,0.002917446196079254,-0.009040702134370804,-0.003099001944065094,0.005578041076660156
233,3.0918496029587508,-0.06382822493688932,-2.7042271834405778,0.04962128400802612,0.0637848973274231,0.9967291951179504,0.0014863787218928337,0.006462262012064457,-0.000650409609079361,0.00503569096326828,0.0039488524198532104,0.00516277551651001
234,3.0913123410652563,-0.06393133072133672,-2.704139321873364,0.050156451761722565,0.06388778984546661,0.9966958165168762,-0.0007160445675253868,-0.005768365692347288,0.0008190618827939034,0.0035849958658218384,0.0011299028992652893,0.004250168800354004
235,3.0917930658306054,-0.06390882411535159,-2.7038402185021484,0.04967737942934036,0.06386532634496689,0.9967212080955505,-0.0009043067693710327,0.0032020853832364082,-0.0016025044023990631,-0.006952773779630661,-0.0033184587955474854,0.004590928554534912
236,3.0915297067519116,-0.06373936543620208,-2.704043116398727,0.04994041100144386,0.06369621306657791,0.9967188239097595,-0.0006844280287623405,0.002348225796595216,-0.002372128888964653,0.00819556787610054,0.0030914917588233948,0.005096793174743652
237,3.091491500823655,-0.06403216817192096,-2.7041250491093405,0.049977559596300125,0.06398841738700867,0.9966983199119568,-0.0013319812715053558,-0.0027986294589936733,-0.0002879612147808075,-0.005406640470027924,0.001761697232723236,0.004888474941253662
238,3.0917198565074835,-0.0638239793354532,-2.7042018311862734,0.049750618636608124,0.06378065794706345,0.9967229962348938,0.0032647992484271526,0.003997968975454569,0.00012036412954330444,0.0007864907383918762,-0.004332423210144043,0.00465017557144165
239,3.091356399381393,-0.06366268407020051,-2.704335759878622,0.05011339113116264,0.0636196881532669,0.9967150092124939,-0.0034330952912569046,-0.007592145353555679,-0.0007038228213787079,0.00411633774638176,0.004205621778964996,0.005314230918884277
240,3.091682914783104,-0.06402028196472868,-2.704253128035133,0.04978681728243828,0.06397655606269836,0.9967086911201477,0.00011817459017038345,-0.00010512396693229675,-0.0021947845816612244,-0.005597364157438278,0.0010869204998016357,0.0045272111892700195
241,3.0915021288748514,-0.0637831458775013,-2.704299472818553,0.04996778070926666,0.06373990327119827,0.9967151284217834,0.002091013826429844,0.0029490692541003227,-0.0009886715561151505,0.006062503904104233,-0.006015889346599579,0.00404810905456543
242,3.0915224176667797,-0.06382120367670441,-2.704337961779251,0.04994741082191467,0.06377788633108139,0.9967132210731506,-0.0016761990264058113,-0.004986446350812912,0.001890457235276699,-0.0026604384183883667,0.005634322762489319,0.004156291484832764
243,3.0917389782576503,-0.06402714937200327,-2.703981481395458,0.04973091930150986,0.06398341059684753,0.9967111349105835,0.0031664096750319004,0.007966261357069016,-0.000609150156378746,0.0011876560747623444,-0.0009188428521156311,0.004128158092498779
244,3.0914224719077334,-0.06373057623693769,-2.7037464293045947,0.050047338008880615,0.06368744373321533,0.9967143535614014,-0.000800606794655323,-0.005249225068837404,9.16793942451477e-06,0.0023971274495124817,-0.003735654056072235,0.005147337913513184
245,3.091781706784191,-0.06391341171284243,-2.703446957215399,0.04968870058655739,0.063869908452034,0.9967206120491028,0.0012387139722704887,0.00074158632196486,-0.00033310241997241974,-0.003881804645061493,0.0055118128657341,0.004790067672729492
246,3.091607825658756,-0.06397817250406686,-2.7033815681668396,0.049861788749694824,0.06393453478813171,0.996707558631897,0.0018341578543186188,0.0037613646127283573,0.00011653639376163483,0.005207173526287079,-0.0016023889183998108,0.0045588016510009766
247,3.0916265962111096,-0.06379910134903358,-2.70332938249516,0.04984366148710251,0.0637558326125145,0.9967200756072998,-0.0030633024871349335,-0.0032740039750933647,0.0016805734485387802,-0.0030602142214775085,-0.00011142343282699585,0.005339860916137695
248,3.0918831823335378,-0.06396519799785683,-2.703233353689269,0.04958739131689072,0.06392158567905426,0.9967223405838013,0.0005457401275634766,0.006167388521134853,-0.0012213755398988724,0.0036352723836898804,0.0036595985293388367,0.0037813186645507812
249,3.0914941992368865,-0.06395952759752264,-2.7029982727477924,0.04997510462999344,0.0639159306883812,0.9967031478881836,-0.0016359947621822357,-0.001892182044684887,-0.0011811498552560806,0.0024693459272384644,-0.001995772123336792,0.005341470241546631
250,3.091792497656836,-0.06388396875623058,-2.7028910542316122,0.04967803880572319,0.06384052336215973,0.9967230558395386,0.0006057173013687134,-0.00014810869470238686,-0.0008016098290681839,-0.0035049356520175934,0.0004295036196708679,0.0046961307525634766
251,3.0915895058312475,-0.06391660597608681,-2.7029750989566956,0.049880266189575195,0.06387309730052948,0.9967109560966492,0.0007716566324234009,0.002242974704131484,-0.0005702581256628036,0.0060126893222332,0.002136439085006714,0.004448890686035156
252,3.0915688230622047,-0.06396617146239117,-2.703458764216085,0.04990072175860405,0.06392256170511246,0.9967067837715149,0.001252535730600357,-0.003409824799746275,-0.0010188259184360504,-0.004185378551483154,-0.0006748661398887634,0.006055355072021484
253,3.0918011132375716,-0.06387729913004948,-2.703351883235366,0.04966946691274643,0.06383386999368668,0.9967238306999207,-0.00016487855464220047,0.0032280886080116034,-0.00030519627034664154,0.0009744614362716675,-0.0009218752384185791,0.005442976951599121
254,3.09152407469733,-0.0638827689866184,-2.703484424817928,0.04994557797908783,0.06383932381868362,0.9967097043991089,-0.00011673197150230408,-0.00015115085989236832,3.74428927898407e-05,0.002834577113389969,0.0022922754287719727,0.005075693130493164
255,3.0917461430156084,-0.06396533474648876,-2.703577675703263,0.049723971635103226,0.0639217272400856,0.9967153668403625,0.002344320062547922,-0.000230391975492239,-0.0016322024166584015,-0.004100196063518524,-0.0012691468000411987,0.005069911479949951
256,3.0915985561651613,-0.06383171071567616,-2.7036926564303574,0.04987150803208351,0.06378836929798126,0.9967166781425476,0.0014183158054947853,-0.0011796900071203709,0.0015538129955530167,0.004648152738809586,-0.0008153393864631653,0.004977107048034668
257,3.0915655712950407,-0.06393130853621026,-2.7039727460225347,0.04990406334400177,0.06388776749372482,0.9967086315155029,-0.004366319626569748,-0.0003450745716691017,-0.001238470897078514,-0.00128956139087677,0.003342457115650177,0.00466465950012207
258,3.0917917142132842,-0.0640510229270905,-2.7042795015978127,0.04967827349901199,0.0640072375535965,0.9967120885848999,0.002652856521308422,0.004126790910959244,0.0009222002699971199,0.0002789907157421112,-0.0006069764494895935,0.004737377166748047
259,3.0915515264867803,-0.06379717914332364,-2.7045903887618845,0.04991849511861801,0.06375391036272049,0.9967166185379028,-0.0012241732329130173,-0.0013251951895654202,0.0011726003140211105,0.002419162541627884,-0.00039940327405929565,0.0057708024978637695
260,3.0917429665655205,-0.06396944076304431,-2.7048132679310877,0.04972711205482483,0.06392582505941391,0.99671471118927,0.0002556554973125458,-0.000710959080606699,-0.0012457072734832764,-0.0025164298713207245,0.0030144676566123962,0.005085587501525879
261,3.0916860655718703,-0.06399247239635406,-2.7047734035114885,0.04978377744555473,0.06394880264997482,0.9967108368873596,0.001209694892168045,0.0028756510000675917,-0.0017222724854946136,0.003042161464691162,-0.0011588707566261292,0.004815220832824707
262,3.0916317942232703,-0.06386036171143986,-2.7046536096683753,0.049838289618492126,0.06381696462631226,0.9967166185379028,-0.004072695970535278,-0.002296276856213808,-0.00034582987427711487,-0.001208517700433731,0.000483587384223938,0.0035735368728637695
263,3.0917795196453537,-0.06397714742688537,-2.704719297922305,0.049690671265125275,0.06393351405858994,0.996716320514679,0.002364142332226038,0.0009219341445714235,0.0031448137015104294,-0.00017590448260307312,0.0020607411861419678,0.005313098430633545
264,3.091531168041859,-0.06390794992090802,-2.7049147599240317,0.04993843659758568,0.06386445462703705,0.9967085719108582,0.0020072748884558678,-0.0007690498605370522,-1.2381002306938171e-05,0.002826463431119919,-0.0009982362389564514,0.004725933074951172
265,3.091695740267786,-0.06394767834109194,-2.705204886111192,0.04977427050471306,0.06390410661697388,0.9967141151428223,0.0008021248504519463,0.0002162889577448368,0.0011395039036870003,-0.002777203917503357,0.001159369945526123,0.005895256996154785
266,3.0916608615713526,-0.0639831072243441,-2.705316989185369,0.04980892315506935,0.06393945962190628,0.9967100620269775,0.0015893802046775818,0.0015363756101578474,-0.00019848160445690155,0.003932535648345947,0.0015207454562187195,0.004709005355834961
267,3.0915246847892806,-0.06398670372289691,-2.7052692479315943,0.049944620579481125,0.063943050801754,0.9967027306556702,-0.0012804549187421799,-0.0011720554903149605,-0.00018634088337421417,-0.0011775530874729156,-0.0016109198331832886,0.004914402961730957
268,3.0917117121667017,-0.06398404399585074,-2.7054231600279572,0.04975822940468788,0.06394039839506149,0.9967124462127686,-0.0012274766340851784,0.0035629114136099815,0.0007029036059975624,-0.0007012300193309784,0.0003143623471260071,0.00400465726852417
269,3.0915193572908577,-0.06401771563956148,-2.705993969843685,0.04994983971118927,0.06397400051355362,0.996700644493103,-0.0015256600454449654,0.0010225656442344189,0.0021778270602226257,0.0037763528525829315,0.0013183504343032837,0.004489481449127197
270,3.091537330778062,-0.06403615700870141,-2.7059566477706256,0.04993187636137009,0.06399240344762802,0.9967005848884583,-0.00035582296550273895,-0.0019532502628862858,0.002308427356183529,-0.0024007484316825867,-0.0011414512991905212,0.0061070919036865234
271,3.0916001803770605,-0.06398201272157909,-2.706033343050092,0.04986939951777458,0.06393836438655853,0.996707022190094,-0.00010107271373271942,0.0010336486157029867,-0.0010723304003477097,0.002300392836332321,-4.982203245162964e-05,0.0061157941818237305
272,3.091546066030628,-0.0640029495982334,-2.7061941579758275,0.04992327466607094,0.0639592632651329,0.9967030882835388,0.0005224132910370827,-0.0038465987890958786,0.0018562320619821548,9.504333138465881e-05,0.0015162080526351929,0.005128026008605957
273,3.091654983667259,-0.06400427801271619,-2.70573702951116,0.04981470853090286,0.06396058946847916,0.9967083930969238,0.0009658206254243851,-0.0009051770903170109,-0.00020979903638362885,-0.0011239126324653625,-0.0009417906403541565,0.005870342254638672
274,3.091526828784771,-0.06389144494481204,-2.705181748000246,0.04994281008839607,0.06384798139333725,0.9967093467712402,-0.0009649293497204781,-0.002654698211699724,-0.0017458535730838776,0.003188304603099823,0.0012917891144752502,0.004236817359924316
275,3.0915449524955214,-0.0639961309955821,-2.704984918711663,0.049924395978450775,0.06395246088504791,0.9967032670974731,-0.002591189928352833,0.0006497828289866447,-0.0015624221414327621,-0.002347499132156372,0.0027436986565589905,0.005554914474487305
276,3.0915443640321185,-0.06396287392859261,-2.705112848774591,0.049925100058317184,0.06391926854848862,0.9967055916786194,-0.001512547954916954,0.002734801732003689,-0.0008690226823091507,0.001802198588848114,-0.00155659019947052,0.005598545074462891
277,3.091523648394343,-0.06390071422636912,-2.7050853654790097,0.049945954233407974,0.06385723501443863,0.9967086315155029,0.0007665799930691719,-0.00362889701500535,-0.0006789136677980423,0.0013388469815254211,0.0003212466835975647,0.004588603973388672
278,3.0916407654766473,-0.0639853153825495,-2.7050367389308216,0.049828946590423584,0.06394166499376297,0.9967089891433716,0.0006349319592118263,0.0053303418681025505,-0.0011488515883684158,-0.0003752075135707855,0.000526726245880127,0.004771232604980469
279,3.091522766549684,-0.0639014279587442,-2.7047991648586804,0.04994681477546692,0.06385795027017593,0.9967082142829895,0.0012309178709983826,-0.0005207066424190998,-0.003039758652448654,0.0024518631398677826,-0.0012358874082565308,0.004970133304595947
280,3.0915059182293145,-0.06394844817065037,-2.704834189134043,0.04996347054839134,0.06390487402677536,0.9967046976089478,-0.0007870104163885117,0.0007411143742501736,0.0017952211201190948,-0.0015778392553329468,0.0020436272025108337,0.005340218544006348
281,3.091524558855613,-0.06397148210687426,-2.7046012128570873,0.04994481801986694,0.06392785906791687,0.9967041015625,-0.0010885987430810928,0.0025780743453651667,-0.0006576478481292725,0.0019961073994636536,0.0006778612732887268,0.004226803779602051
282,3.0914216701991974,-0.06390776505212069,-2.704614200014611,0.05004756897687912,0.06386426836252213,0.9967029690742493,-0.0009044613689184189,-0.0004497668705880642,0.0008655069395899773,-4.450604319572449e-05,-0.0003419220447540283,0.004990816116333008
283,3.091565430044285,-0.06392750464333809,-2.7044412959641555,0.0499042272567749,0.06388396769762039,0.9967090487480164,-6.94766640663147e-07,-0.0013096453621983528,-0.0001250840723514557,-0.00019107013940811157,0.002583339810371399,0.0051833391189575195
284,3.0914954006484328,-0.06393133801780766,-2.7045664085671803,0.04997400566935539,0.06388779729604721,0.996705174446106,0.001971844583749771,0.0003446592018008232,-0.0006351601332426071,0.0018753670156002045,-0.00030441582202911377,0.005919456481933594
285,3.0915727508942834,-0.06391574596226621,-2.704803693763767,0.04989694803953171,0.06387223303318024,0.9967098236083984,-0.0015134615823626518,-0.001435338519513607,0.00037808530032634735,-0.0005042515695095062,-0.00031938403844833374,0.006174027919769287
286,3.091606916997386,-0.06391874309929503,-2.70499745627512,0.04986288398504257,0.0638752281665802,0.9967113137245178,-5.201902240514755e-05,-0.00041850004345178604,0.0016386136412620544,0.0009031035006046295,0.0006389245390892029,0.004478752613067627
287,3.091512144744384,-0.06393302085083165,-2.705256823046515,0.049957312643527985,0.06388947367668152,0.9967058897018433,0.0008518444374203682,-0.0013287891633808613,-0.0005067382007837296,0.0010986030101776123,-0.00012298673391342163,0.004575967788696289
288,3.0915659448272717,-0.06390880779586283,-2.7050319046888216,0.04990376532077789,0.0638653114438057,0.9967101812362671,-0.0006646644324064255,0.0007088873535394669,-0.0004463307559490204,-0.0010145977139472961,0.00029790401458740234,0.004831075668334961
289,3.091598073871917,-0.0638564659076454,-2.7050427204157135,0.04987190663814545,0.06381307542324066,0.9967150688171387,0.0009186882525682449,-0.00010599754750728607,-0.0019300784915685654,0.0019469484686851501,-0.0003822818398475647,0.004688858985900879
290,3.0915939091349514,-0.06390183272063127,-2.7053523225531513,0.049875903874635696,0.06385835260152817,0.9967117309570312,-0.0009111808612942696,-0.0019494830630719662,-0.0009097401052713394,-0.0008646808564662933,0.00010648369789123535,0.004676699638366699
291,3.0916695871343904,-0.06385111444208753,-2.7053188701834965,0.04980064183473587,0.06380773335695267,0.9967188835144043,-0.0006972430273890495,0.002035881159827113,-3.530643880367279e-05,0.0010569021105766296,-0.00043798983097076416,0.005463123321533203
292,3.091497374384532,-0.06386068786669222,-2.7055168937017173,0.049972254782915115,0.06381729245185852,0.9967095851898193,0.000632062554359436,-0.0002833660691976547,-0.0006522629410028458,0.0011752024292945862,0.0019175633788108826,0.004266917705535889
293,3.0915841304520817,-0.06391982881442054,-2.7058286085421335,0.04988560080528259,0.06387630850076675,0.9967102408409119,-0.0006566224619746208,9.253853932023048e-05,0.0005254838615655899,-0.0006302334368228912,0.001217670738697052,0.005456507205963135
294,3.091512431037643,-0.06384095545955286,-2.706363390407448,0.049957312643527985,0.06379760056734085,0.9967116713523865,0.0015920428559184074,-0.0016418956220149994,0.00046391598880290985,0.001724202185869217,-0.0008245855569839478,0.004951536655426025
295,3.0914453466473066,-0.06384696808960727,-2.7068463279285373,0.05002415552735329,0.06380359828472137,0.9967078566551208,-2.2518448531627655e-05,-0.0001616380177438259,0.00043052248656749725,-0.0005704276263713837,0.0012598708271980286,0.005275726318359375
296,3.0915035157526654,-0.06387341246833556,-2.707028909141098,0.04996608942747116,0.06382998824119568,0.9967089891433716,0.0019092364236712456,0.0010111555457115173,0.0015478422865271568,0.0001285076141357422,-3.300607204437256e-05,0.005579650402069092
297,3.091444898514549,-0.06385729062586797,-2.707220577609559,0.05002457648515701,0.06381390243768692,0.9967073798179626,0.0011380696669220924,-0.0008016177453100681,0.0006194785237312317,0.001031331717967987,0.00033404678106307983,0.005077958106994629
298,3.091529500610827,-0.06392655285518341,-2.7074152472796467,0.04994003474712372,0.06388302147388458,0.9967072606086731,5.650613456964493e-05,-0.0024579796008765697,-0.0012335460633039474,-0.0005625858902931213,0.0014398619532585144,0.0048493146896362305
299,3.0915000810838453,-0.06394998782734206,-2.707308989892402,0.049969274550676346,0.06390640884637833,0.9967041015625,0.0012035826221108437,0.0013044318184256554,-0.002164093777537346,0.0011476688086986542,7.369369268417358e-05,0.0057525634765625
300,3.091491324263045,-0.06391134561407201,-2.707563492587581,0.049978118389844894,0.06386784464120865,0.996705949306488,0.003777659498155117,-0.001427843701094389,-0.0008923616260290146,0.00014699622988700867,-0.0002997368574142456,0.005216479301452637
301,3.0915460990256767,-0.0639147387797339,-2.707862004524597,0.049923527985811234,0.06387123465538025,0.9967088103294373,-0.0008334256708621979,0.002081364393234253,0.002256915904581547,-0.00019513070583343506,0.0002004280686378479,0.00463414192199707
302,3.0914643642214257,-0.06390982718354328,-2.7078539876825394,0.0500049889087677,0.06386633217334747,0.996704638004303,0.0007259771227836609,-0.0007547540590167046,-0.0010253936052322388,0.0013713464140892029,0.000891953706741333,0.00495833158493042
303,3.091556381464802,-0.06389214296027244,-2.7082418645525594,0.04991333931684494,0.06384868174791336,0.9967105388641357,-0.0008149184286594391,0.0027109847869724035,0.0008045127615332603,-0.00039857253432273865,-0.0004026442766189575,0.004922091960906982
304,3.0915868078125555,-0.06387217127100339,-2.708259721712554,0.04988308623433113,0.06382875144481659,0.9967134594917297,-0.00087704136967659,-0.0002501937560737133,-0.0006853826344013214,0.001111794263124466,0.00042601674795150757,0.005438089370727539
305,3.091576516803731,-0.06383546718881976,-2.7083756884641037,0.04989347234368324,0.06379212439060211,0.9967154860496521,0.0002282978966832161,-0.0006842445582151413,0.0004123002290725708,0.0009640902280807495,0.000813610851764679,0.005283713340759277
306,3.091638832563784,-0.06380616546473813,-2.708719844049612,0.04983144998550415,0.06376288086175919,0.9967204332351685,-0.0011422336101531982,0.00174971972592175,-0.0005801934748888016,-0.000362444669008255,3.413110971450806e-05,0.0060721635818481445
307,3.0915875289724455,-0.06377608687628207,-2.708957262574839,0.049882687628269196,0.06373286247253418,0.9967198967933655,0.0022165891714394093,0.001343822106719017,0.001506909728050232,0.0018598772585391998,0.0012695938348770142,0.0045621395111083984
308,3.091573006634499,-0.06381174441376343,-2.7092261606192096,0.04989703744649887,0.06376844644546509,0.9967167377471924,0.0013937978073954582,0.0017344166990369558,0.0001497901976108551,-0.0008247643709182739,0.00042528659105300903,0.004626154899597168
309,3.091610053672765,-0.06381953029844402,-2.7092125544653998,0.049860063940286636,0.06377621740102768,0.9967175722122192,0.002465234138071537,0.0007895908784121275,-0.0006376225501298904,0.0011500492691993713,0.0009820610284805298,0.005494594573974609
310,3.0915843000305925,-0.0638594739656191,-2.709103827777315,0.049885623157024384,0.06381607800722122,0.9967141151428223,-0.0007978137582540512,-0.002505399752408266,0.0006062006577849388,0.00040734559297561646,0.001293174922466278,0.005605220794677734
311,3.09162276023024,-0.06390067932133522,-2.7089562158523153,0.04984714463353157,0.06385719776153564,0.9967131018638611,-8.041970431804657e-05,3.710296005010605e-05,0.0009428113698959351,-0.0005917847156524658,-0.0006705671548843384,0.005087137222290039
312,3.091571124839067,-0.06385308268588605,-2.7087368965557546,0.04989877715706825,0.06380970031023026,0.9967138767242432,0.00018893461674451828,-0.0026022568345069885,0.001156192272901535,0.0016759298741817474,0.0006129071116447449,0.005086660385131836
313,3.091568455775116,-0.06389174034875088,-2.7085827446225292,0.049901314079761505,0.06384827941656113,0.996711254119873,-0.0007437961176037788,0.0013574226759374142,0.0003849342465400696,-0.00011188536882400513,0.0007574334740638733,0.004387378692626953
314,3.0915485262084137,-0.06387416239469593,-2.708424687751771,0.049921225756406784,0.06383074074983597,0.996711254119873,0.0018534958362579346,0.00033618509769439697,0.001584051176905632,0.001058381050825119,-0.000979796051979065,0.005424857139587402
315,3.091534068585149,-0.063862778999227,-2.708464668905052,0.04993567243218422,0.06381937861442566,0.996711254119873,0.0003112396225333214,-0.0014497525990009308,0.001324615441262722,0.00034202635288238525,0.0006489977240562439,0.005897879600524902
316,3.091593682853767,-0.0639201001413297,-2.7080537608678257,0.04987608641386032,0.06387658417224884,0.9967108964920044,0.0007568150758743286,-0.0006038239225745201,0.0004342570900917053,8.120015263557434e-05,0.0008817315101623535,0.004677891731262207
317,3.091612863379951,-0.06390745660466156,-2.7076816286996817,0.0498570054769516,0.06386396288871765,0.9967125654220581,-0.0006849290803074837,0.00024104630574584007,-0.0007732976227998734,0.0009089931845664978,-0.0005552396178245544,0.004782915115356445
318,3.0916574515404243,-0.06390512661472368,-2.7077477321456636,0.04981255531311035,0.06386163830757141,0.9967146515846252,0.0017398511990904808,0.002179741160944104,-0.0009885802865028381,0.00020574778318405151,0.0006830319762229919,0.00494837760925293
319,3.0916452704119655,-0.06393027084480406,-2.7078637739926004,0.04982462897896767,0.06388673186302185,0.9967126250267029,-0.0002896897494792938,0.0015558090526610613,0.0025467798113822937,0.00020894035696983337,0.0005206167697906494,0.005362510681152344
320,3.0915958379247908,-0.06395410207435447,-2.708187604328408,0.04987381398677826,0.06391051411628723,0.9967084527015686,-0.0013873754069209099,-0.00021566031500697136,-0.0011973381042480469,0.0008311308920383453,0.0002374202013015747,0.00443577766418457
321,3.091630043825821,-0.06398195067351951,-2.708009854707226,0.04983963444828987,0.06393830478191376,0.9967084527015686,-0.0029311785474419594,0.0007999686058610678,-0.00039775483310222626,0.0005143657326698303,-0.00021761655807495117,0.004847824573516846
322,3.0915600181670735,-0.06395000804366589,-2.7078854088426816,0.04990953952074051,0.06390643119812012,0.9967072010040283,-0.001991172321140766,0.0005715445149689913,0.0008180532604455948,0.0011768937110900879,0.0006840303540229797,0.0053375959396362305
323,3.0915231999411796,-0.06395724324714959,-2.7076240290543723,0.04994620382785797,0.06391365081071854,0.996704638004303,0.0012074699625372887,-0.002630676608532667,-0.0009764246642589569,0.0003772750496864319,-0.00017768889665603638,0.005126237869262695
324,3.091504226968697,-0.06391678406672063,-2.7074768158993074,0.049965258687734604,0.0638732761144638,0.9967066049575806,-0.0009436309337615967,-8.965516462922096e-05,0.0016312720254063606,0.00032771751284599304,-0.0001067817211151123,0.005963802337646484
325,3.091442219982505,-0.0639184279709038,-2.7076540375030587,0.050027038902044296,0.06387491524219513,0.9967030882835388,0.0007464783266186714,-0.0033620656467974186,0.0015819650143384933,0.0009983442723751068,0.0003645792603492737,0.005738198757171631
326,3.09142223066121,-0.06391897435525307,-2.7073339043161937,0.05004696547985077,0.0638754591345787,0.9967021346092224,-0.0003701942041516304,0.0001613548956811428,-0.0002634972333908081,-0.0006847940385341644,0.00019618868827819824,0.0045642852783203125
327,3.0914382653435095,-0.06389000183321752,-2.7071412902085035,0.05003107711672783,0.06384654343128204,0.9967048168182373,-0.00024324748665094376,0.0006945612840354443,-0.001322450116276741,0.001009572297334671,0.0005608052015304565,0.005019426345825195
328,3.0914197888848687,-0.0639262233537877,-2.706990406762512,0.050049372017383575,0.06388269364833832,0.9967014789581299,-0.0012473873794078827,0.00010738661512732506,-0.00025736354291439056,-0.00027520954608917236,0.0010739639401435852,0.005343079566955566
329,3.091437315237849,-0.06394344159981807,-2.70678919518779,0.05003185570240021,0.06389987468719482,0.9967014193534851,-0.00041363388299942017,-0.0005944087170064449,0.0004537086933851242,0.0005662962794303894,0.0007058456540107727,0.005205988883972168
330,3.091364726464478,-0.06393806489210195,-2.70660193379456,0.05010421574115753,0.06389451026916504,0.9966979622840881,0.00028946250677108765,-0.0014688028022646904,0.00032419897615909576,0.0002803020179271698,-0.00015855580568313599,0.0052703022956848145
331,3.091405737570856,-0.06390176021916476,-2.7065401966053813,0.050063468515872955,0.0638582780957222,0.9967026114463806,-0.0009702099487185478,-0.0003349608741700649,0.00023632310330867767,-0.00016721710562705994,0.00033546239137649536,0.004869222640991211
332,3.0914108655973456,-0.06385248485865869,-2.706557903500592,0.0500585213303566,0.0638091042637825,0.9967061281204224,-0.0005044993013143539,0.0007852267008274794,-0.0011030547320842743,0.0008905865252017975,0.0004609301686286926,0.004423260688781738
333,3.0913782474827887,-0.06389265866166796,-2.7070440556259134,0.050090886652469635,0.06384919583797455,0.9967015981674194,-0.0007422985509037971,-0.0002714022994041443,-0.00038716383278369904,-0.00046931207180023193,0.0007107332348823547,0.005205690860748291
334,3.0914233774000706,-0.06395687811682225,-2.7070897490343055,0.050045713782310486,0.06391328573226929,0.9967000484466553,0.0007149362936615944,0.0019699514377862215,-0.00022745132446289062,-0.00048515573143959045,0.0005093365907669067,0.005253314971923828
335,3.091383366319943,-0.06396749716470758,-2.707123610328701,0.050085537135601044,0.06392388045787811,0.996696949005127,-0.0014124419540166855,-0.0018709790892899036,-0.0003411564975976944,0.0004210472106933594,0.00034612417221069336,0.004905045032501221
336,3.091378735010058,-0.06398877707434647,-2.7071030374626917,0.05009010061621666,0.06394511461257935,0.9966956377029419,0.001827877014875412,0.0013295889366418123,0.002675723284482956,1.977384090423584e-05,4.470348358154297e-06,0.004601478576660156
337,3.0913131206062863,-0.06398860386075478,-2.7071519346548936,0.05015549063682556,0.06394494324922562,0.9966922402381897,0.0017769979313015938,-0.0013157953508198261,-0.0010972712188959122,-0.0007170215249061584,0.0007980838418006897,0.006054341793060303
338,3.0913586748109925,-0.06403275876938833,-2.70713598767121,0.05010995268821716,0.06398901343345642,0.9966918230056763,-0.00046160630881786346,-0.003364827949553728,0.0004666391760110855,0.0006713084876537323,0.00026576220989227295,0.005261421203613281
339,3.0913882704006226,-0.0640426608404994,-2.7071354390277604,0.05008041486144066,0.06399889290332794,0.9966924786567688,-0.0008281134068965912,0.0033364733681082726,-0.0015505962073802948,-0.00038254261016845703,0.00046947598457336426,0.00475698709487915
340,3.091415310627571,-0.06405533253603707,-2.706918826534701,0.0500534288585186,0.06401153653860092,0.9966931939125061,0.002120346762239933,-0.00022734515368938446,0.0008064378052949905,0.00030057504773139954,4.485994577407837e-05,0.005168437957763672
341,3.091444451831701,-0.06404203832939341,-2.7066629398883792,0.05002443492412567,0.0639982670545578,0.9966956377029419,0.0006174258887767792,-0.0016729156486690044,0.001276560127735138,-9.766966104507446e-05,-0.0008116140961647034,0.005410194396972656
342,3.091416132736875,-0.06398434866285291,-2.706164507786778,0.05005284398794174,0.06394069641828537,0.9966978430747986,0.0009828470647335052,-0.0022424468770623207,0.001920849084854126,0.000377461314201355,0.000649765133857727,0.005301117897033691
343,3.091436004353695,-0.06398497209152469,-2.7057645052034234,0.05003303661942482,0.06394132226705551,0.9966988563537598,0.0015858476981520653,-0.0017143781296908855,0.0008308049291372299,0.000702444463968277,0.0002981945872306824,0.005681753158569336
344,3.0914456324538993,-0.06398067669952577,-2.7054666296870824,0.050023455172777176,0.06393703818321228,0.9966996312141418,-0.0031983349472284317,0.0010796098504215479,-0.0006298162043094635,0.00011693686246871948,0.0008365437388420105,0.0060013532638549805
345,3.0913320466649425,-0.06395983039260511,-2.7053217023166876,0.05013672262430191,0.06391622871160507,0.9966950416564941,0.001352822408080101,2.305535599589348e-05,0.0024374891072511673,0.0005224533379077911,0.00017067044973373413,0.004678189754486084
346,3.091325972024359,-0.06395345647658425,-2.705209404554203,0.050142787396907806,0.0639098733663559,0.9966949224472046,-0.0006640134379267693,0.0033444322180002928,-0.000855613499879837,-0.0003686286509037018,0.00026857852935791016,0.004891753196716309
347,3.091321152555165,-0.06397424060836929,-2.7051389729721156,0.050147537142038345,0.06393060833215714,0.9966936111450195,0.00021305587142705917,0.0009488011710345745,-0.00027380697429180145,-7.152557373046875e-06,-0.00045405328273773193,0.004466056823730469
348,3.0913158284393245,-0.06396995339359927,-2.7052959911060794,0.05015285685658455,0.0639263316988945,0.9966936707496643,0.0028757224790751934,0.0017065813299268484,-0.0012876912951469421,0.0002926960587501526,0.00016058236360549927,0.005259513854980469
349,3.091354986274531,-0.063959486192812,-2.7051952929397234,0.050113845616579056,0.06391588598489761,0.9966959953308105,-0.0006407173350453377,-0.0014606956392526627,-0.001924188807606697,-0.00024813786149024963,0.00018627196550369263,0.0051348209381103516
350,3.0913440304804567,-0.06387111507628904,-2.705568356323214,0.05012507364153862,0.06382769346237183,0.9967015385627747,-0.00041123852133750916,0.0006939452141523361,0.0005230717360973358,0.0014496445655822754,0.00015240907669067383,0.003802180290222168
351,3.0913811582851607,-0.06390839133856259,-2.7056932522506236,0.050087928771972656,0.06386489421129227,0.9967005848884583,-0.0009573092684149742,0.00045205559581518173,0.0008923755958676338,-0.00013066455721855164,0.0004661381244659424,0.0057863593101501465
352,3.091421237064975,-0.0638972419286704,-2.7055910051587655,0.05004803091287613,0.06385377049446106,0.996703565120697,-0.0004608519375324249,0.0023920335806906223,0.00044707581400871277,0.0006416738033294678,0.0013012662529945374,0.004700303077697754
353,3.0914213277730314,-0.06390178616995983,-2.705644997069562,0.05004792660474777,0.06385830789804459,0.9967033267021179,0.0008766558021306992,0.0009805061854422092,0.0002584420144557953,4.668533802032471e-05,-7.655471563339233e-05,0.0052345991134643555
354,3.0914748271149217,-0.06393768989115431,-2.7055784722414145,0.049994487315416336,0.06389413774013519,0.9967036843299866,-0.0005156667903065681,0.00040800683200359344,-0.0018843896687030792,0.0005426295101642609,0.00039114803075790405,0.004608631134033203
355,3.0914494176496103,-0.06391018533887026,-2.7060356719737206,0.05001990124583244,0.06386668980121613,0.9967041611671448,-0.002153206616640091,0.0004019276238977909,-0.0007085148245096207,0.0005935095250606537,0.0004948899149894714,0.005035400390625
356,3.0914994781175316,-0.06388269414307791,-2.7062807141093894,0.04997008293867111,0.06383924931287766,0.9967081546783447,0.0006643785163760185,0.0015462012961506844,-0.00015807896852493286,-0.00010436400771141052,0.0009648129343986511,0.005427896976470947
357,3.091427449082762,-0.0639013353884161,-2.7063009152030553,0.050041813403367996,0.06385785341262817,0.9967033863067627,-0.00018060952425003052,0.0010455611627548933,-0.0016336087137460709,0.00026640668511390686,0.0003205984830856323,0.0050969719886779785
358,3.091425614549136,-0.06390505662136056,-2.706433516024475,0.05004364252090454,0.06386157125234604,0.9967032670974731,0.0008164364844560623,0.0008910393808037043,0.0006800461560487747,0.00024932995438575745,0.0007746666669845581,0.0052651166915893555
359,3.0913982056068035,-0.06392432025203541,-2.706318173213614,0.050070904195308685,0.0638807937502861,0.9967008233070374,0.002065882086753845,-0.0019291252829134464,-0.001680668443441391,0.0006035417318344116,-0.0009077638387680054,0.004184365272521973
360,3.091341427155575,-0.06389890123492573,-2.70636271724712,0.05012756958603859,0.06385542452335358,0.9966993927955627,0.0017440225929021835,0.0001234789378941059,0.0019530551508069038,0.0011724792420864105,0.00042985379695892334,0.0038651227951049805
361,3.0913060196108875,-0.0639318658648908,-2.7064842885720815,0.05016276240348816,0.06388832628726959,0.9966956973075867,-0.0006095170974731445,-0.001838582567870617,-0.00019471906125545502,5.3923577070236206e-05,0.0008852481842041016,0.005105018615722656
362,3.091312573981242,-0.06393917572959075,-2.7065669369463943,0.05015619844198227,0.06389562040567398,0.9966953992843628,-0.0002001877874135971,-0.002973719500005245,0.0010275701060891151,0.0007318630814552307,-7.070600986480713e-06,0.004632115364074707
363,3.0913075207871312,-0.06393458221684578,-2.7067261833019733,0.050161249935626984,0.06389103084802628,0.9966954588890076,-0.0019287718459963799,-0.00035554030910134315,0.0007819430902600288,0.0009099133312702179,0.0010198503732681274,0.005242407321929932
364,3.091347768467585,-0.06390227637479318,-2.706460459373902,0.050121236592531204,0.06385879218578339,0.9966994524002075,-0.0019151894375681877,-0.00248383404687047,-1.792237162590027e-05,0.0004463903605937958,0.00013656169176101685,0.005375683307647705
365,3.0913229588877007,-0.06390560825162721,-2.706518796056267,0.0501459464430809,0.06386212259531021,0.9966979026794434,-0.00012206844985485077,-0.0007881247438490391,-0.0015917308628559113,0.0006810687482357025,0.0005299597978591919,0.0044921040534973145
366,3.091269771076286,-0.06387891009470303,-2.706847574793389,0.05019906163215637,0.06383547931909561,0.9966972470283508,-0.0021543772891163826,-0.000261867418885231,0.0014213398098945618,-8.918717503547668e-05,0.0012127533555030823,0.005042433738708496
367,3.0912369381615803,-0.0638374251125674,-2.7070073043491947,0.050231922417879105,0.0637940764427185,0.9966983199119568,0.001848769374191761,-0.0017951331101357937,0.0003941729664802551,-0.0005035176873207092,0.000582769513130188,0.005041360855102539
368,3.0912913073348616,-0.06383968283651828,-2.707033729169122,0.05017770454287529,0.06379632651805878,0.9967004656791687,0.001094668172299862,-4.85079362988472e-05,0.0013524200767278671,0.0003899186849594116,0.0001990199089050293,0.005389750003814697
369,3.0912486255930864,-0.06380310265974197,-2.7070943499731834,0.05022037774324417,0.06375982612371445,0.9967009425163269,3.6801211535930634e-05,0.00011230609379708767,0.0005489476025104523,-9.525567293167114e-05,-0.000283263623714447,0.003939986228942871
370,3.0912133032309472,-0.06382682508136682,-2.707315679012871,0.05025549605488777,0.06378349661827087,0.9966974854469299,0.0021087713539600372,-0.000977837946265936,0.00015749596059322357,6.943941116333008e-06,0.0007001310586929321,0.004980862140655518
371,3.091208615605527,-0.06380178547088554,-2.7073094928153947,0.05026024580001831,0.06375850737094879,0.996698796749115,0.0005702991038560867,-0.0004186900332570076,-0.0012833289802074432,9.375438094139099e-05,0.0012744441628456116,0.005315244197845459
372,3.0912695425853083,-0.06388317981114705,-2.7072933610927494,0.050199273973703384,0.06383973360061646,0.996696949005127,0.0009863702580332756,-0.0011369814164936543,0.0026074321940541267,6.318092346191406e-05,0.0009033158421516418,0.004569649696350098
373,3.091271908272181,-0.0639131967223748,-2.7070736839355978,0.0501968190073967,0.06386969238519669,0.9966951608657837,0.0006514629349112511,-0.00037498632445931435,-0.0003055296838283539,0.000874347984790802,0.0012700781226158142,0.005044460296630859
374,3.0912388157396964,-0.06396951902185374,-2.7068369027946764,0.05022961273789406,0.06392589956521988,0.9966897368431091,-0.0007786909118294716,0.0017682525794953108,0.0007521966472268105,0.00026172026991844177,0.0007103309035301208,0.004866600036621094
375,3.09124480350095,-0.06397318667660584,-2.7064128347037006,0.050223637372255325,0.06392955780029297,0.9966899156570435,0.000512249767780304,-0.0015520472079515457,-0.0017208829522132874,-0.00022058933973312378,0.0014390870928764343,0.005110681056976318
376,3.0912486781866373,-0.06399871344900092,-2.7059841863759306,0.05021970346570015,0.06395503133535385,0.9966886043548584,-0.00364561565220356,5.215359851717949e-05,-0.00034078583121299744,0.00028689950704574585,0.00016241520643234253,0.005066394805908203
377,3.09128775197388,-0.06389485265500468,-2.70523745777176,0.05018109455704689,0.06385138630867004,0.9966973066329956,-0.00011361856013536453,-0.0007711723446846008,0.0013799462467432022,0.00027973949909210205,0.0003423616290092468,0.005362987518310547
378,3.091233882571706,-0.06391476963225658,-2.7052323351284757,0.05023471638560295,0.06387126445770264,0.9966931939125061,0.0013821050524711609,0.000478844391182065,-0.0005275364965200424,-0.0004300214350223541,0.0011159256100654602,0.005015969276428223
379,3.0912467977288447,-0.06392227088728206,-2.7048598354817495,0.050221800804138184,0.06387874484062195,0.996692955493927,-0.0005564289167523384,-0.0028844140470027924,0.00034243054687976837,0.0005136653780937195,7.081776857376099e-05,0.0053362250328063965
380,3.0912853554393607,-0.06395785670158054,-2.7045220205469382,0.05018327757716179,0.06391426175832748,0.9966930747032166,-0.000959344208240509,0.001136420527473092,-0.0006300527602434158,0.000414874404668808,0.0003252476453781128,0.0049550533294677734
381,3.09123527452639,-0.06390435539159738,-2.704917383914637,0.050233352929353714,0.06386087089776993,0.9966937303543091,0.0009531760588288307,-0.0009421096183359623,-7.871538400650024e-05,0.0005631521344184875,0.0001802593469619751,0.005274593830108643
382,3.0911870206391407,-0.06390906960686606,-2.7051830288656427,0.05028143525123596,0.06386557221412659,0.9966910481452942,-0.0007342696189880371,0.0010312211234122515,0.0006455034017562866,-0.0003699362277984619,5.3495168685913086e-05,0.004819631576538086
383,3.0912320658564485,-0.06391089149742159,-2.705190733214833,0.050236526876688004,0.06386739015579224,0.9966931343078613,0.0014841938391327858,0.0009129296522587538,0.0023781638592481613,0.000453166663646698,0.00028055161237716675,0.0039934515953063965
384,3.0912430724231776,-0.06391865800596983,-2.705029106678025,0.050225529819726944,0.06387514621019363,0.9966931343078613,0.0007900185883045197,-0.00014755269512534142,0.00033794716000556946,0.0005557090044021606,0.001478239893913269,0.004496932029724121
385,3.0912366467564496,-0.06399870338316664,-2.7048925251622804,0.050231680274009705,0.06395502388477325,0.9966877698898315,-0.0008017048239707947,0.0023673521354794502,-0.00031238049268722534,0.00021386891603469849,-0.0002648457884788513,0.005097508430480957
386,3.09124816852407,-0.06400813825411901,-2.704924683212177,0.05022016912698746,0.06396444141864777,0.9966877698898315,-0.0003145141527056694,0.00047890283167362213,-0.0009000282734632492,0.0003169402480125427,9.195506572723389e-05,0.004456639289855957
387,3.091200199445855,-0.06404584339285847,-2.7051551024940754,0.05026785284280777,0.06400206685066223,0.9966828227043152,0.002132859081029892,0.0001962787937372923,-0.0015021413564682007,-0.00037161633372306824,0.0006341561675071716,0.005010783672332764
388,3.0911739482239513,-0.06404959013150446,-2.705148957597906,0.05029399320483208,0.06400580704212189,0.9966810941696167,0.004134810995310545,-0.0018733032047748566,-0.001244664192199707,0.0005787946283817291,8.108466863632202e-05,0.004401981830596924
389,3.091205315310708,-0.06406043567607768,-2.705117326136607,0.05026273429393768,0.06401663273572922,0.9966827034950256,0.0030194222927093506,0.00018136296421289444,-0.002236194908618927,-0.0004427693784236908,0.00026866793632507324,0.005438685417175293
390,3.091194409792027,-0.06408331621146005,-2.705447688210999,0.05027351900935173,0.06403946131467819,0.9966805577278137,0.00013509206473827362,-0.001061254646629095,-6.497837603092194e-05,0.00015678629279136658,-0.00010512024164199829,0.004998207092285156
391,3.0911687257944003,-0.06404402641170258,-2.70581003205471,0.05029923841357231,0.06400025635957718,0.9966816306114197,-0.001994808204472065,-0.0001871963031589985,0.0003083236515522003,-8.255988359451294e-05,2.562999725341797e-05,0.0055158138275146484
392,3.0911287278522215,-0.06401375962356053,-2.706047981540384,0.05033919960260391,0.06397005170583725,0.9966814517974854,-0.0013266019523143768,-0.0006045447662472725,-0.00092267245054245,0.0006404183804988861,0.00011686235666275024,0.0045545101165771484
393,3.091109826768021,-0.06396732672242071,-2.706419643262677,0.050358179956674576,0.06392370909452438,0.9966833591461182,0.0005824649706482887,-0.00032719364389777184,-0.0009988900274038315,-0.00015676766633987427,0.0007125064730644226,0.0053765177726745605
394,3.091157028798812,-0.06399455004627298,-2.706757808087473,0.050311047583818436,0.06395088136196136,0.9966840147972107,-0.0010701753199100494,0.0006014129612594843,-0.0016679540276527405,-0.0003232620656490326,0.00044120103120803833,0.005528450012207031
395,3.091196779559679,-0.06396034090846209,-2.7070690718359294,0.05027154088020325,0.06391674280166626,0.9966882467269897,-0.0008417647331953049,0.0002395976334810257,-8.982233703136444e-05,-0.00010064244270324707,0.00036853551864624023,0.004517197608947754
396,3.091197451910797,-0.06398772020305614,-2.7069997356581315,0.050270795822143555,0.06394406408071518,0.9966868162155151,-0.0008463524281978607,-0.0004268782213330269,-0.0001544766128063202,0.0004494301974773407,-0.0002386048436164856,0.004976630210876465
397,3.0912038002389495,-0.06396357461146326,-2.7066464931574403,0.05026452988386154,0.06391996890306473,0.9966883659362793,-0.00023040082305669785,-0.0036041466519236565,-0.001176556572318077,-0.0003377757966518402,0.0012808367609977722,0.004822254180908203
398,3.0912326240561927,-0.06397091575141438,-2.7069199512403266,0.05023578554391861,0.0639272928237915,0.9966894388198853,-0.0004069376736879349,-0.0009036525152623653,0.00016103684902191162,-0.0003090277314186096,0.0001443624496459961,0.004653334617614746
399,3.091194716063768,-0.06398960687523653,-2.707392973853068,0.05027351155877113,0.0639459490776062,0.9966863989830017,-0.0015973420813679695,0.0010053832083940506,-0.0008747931569814682,-0.00014838576316833496,0.0007513165473937988,0.005388855934143066
400,3.091142560845462,-0.06403077952028309,-2.707817335298312,0.05032535642385483,0.06398703157901764,0.9966810941696167,-0.0023688459768891335,0.00016385037451982498,0.002916342578828335,0.00025753676891326904,-0.00019002705812454224,0.0045244693756103516
401,3.091121324717582,-0.06407451834946107,-2.7079250142676607,0.050346385687589645,0.06403068453073502,0.9966772794723511,0.002393302507698536,-0.0015406855382025242,-0.00024114549160003662,0.0007095299661159515,0.00034615397453308105,0.0045282840728759766
402,3.0911226382470933,-0.06406515650440293,-2.7079467011729874,0.050345100462436676,0.06402134150266647,0.996677815914154,0.0008228635415434837,0.0002850666642189026,0.00017312727868556976,-0.0003420524299144745,0.0002791881561279297,0.005717813968658447
403,3.0911351657050927,-0.06407755140250673,-2.708187030509057,0.050332583487033844,0.06403370946645737,0.9966778755187988,0.0003535225987434387,2.489425241947174e-05,0.000248640775680542,-0.00010063871741294861,0.0004041716456413269,0.0036122798919677734
404,3.091093738464728,-0.06409968113926885,-2.7081983164513797,0.050373777747154236,0.06405579298734665,0.9966739416122437,0.0007255207747220993,0.0009588731918483973,-0.0008478723466396332,-0.00034021586179733276,0.000290505588054657,0.0043939948081970215
405,3.091152191839356,-0.06418362266528642,-2.7079180032105494,0.05031526833772659,0.06413956731557846,0.9966719150543213,0.0020762430503964424,0.0007500830106437206,-0.00034559890627861023,3.874674439430237e-05,0.0006187483668327332,0.0048847198486328125
406,3.0911072290387054,-0.06420520298793234,-2.7079509804272797,0.05036001279950142,0.06416109949350357,0.9966682195663452,-0.0014189863577485085,-0.002001612912863493,0.0029862243682146072,-0.00023488327860832214,-4.366040229797363e-05,0.006246328353881836
407,3.091114462147705,-0.06419405781137914,-2.707965293153998,0.05035282298922539,0.06414997577667236,0.9966689348220825,-0.0016138805076479912,-0.001408782321959734,0.00224272720515728,0.00030635297298431396,0.0002878829836845398,0.004414200782775879
408,3.0911343462624994,-0.06418557990226095,-2.708069759120927,0.05033304542303085,0.06414151936769485,0.9966707825660706,-0.00013050716370344162,0.0020304371137171984,-0.0015369225293397903,-5.532801151275635e-05,-0.0003750324249267578,0.005282402038574219
409,3.091134633358839,-0.0642013966671453,-2.707743014111045,0.050332698971033096,0.06415729969739914,0.996669590473175,0.002693677321076393,-0.002773057669401169,0.0017732912674546242,-3.973767161369324e-05,-0.00043661147356033325,0.0048866868019104
410,3.0911546459105326,-0.06420515879485368,-2.7072441868327366,0.050312746316194534,0.06416105479001999,0.9966704845428467,-0.0006348127499222755,0.0010992006864398718,-0.0007809475064277649,0.0001938454806804657,-0.000379316508769989,0.00438237190246582
411,3.091232738244918,-0.06419358289311118,-2.706856879635165,0.05023496598005295,0.06414950639009476,0.9966754913330078,0.000176931731402874,-0.0027864445000886917,-0.00014900602400302887,-0.0001861192286014557,7.475912570953369e-05,0.00402677059173584
412,3.0912185050540337,-0.06424548147061108,-2.7065263462124385,0.05024896562099457,0.06420129537582397,0.9966710805892944,-0.0001560477539896965,-0.00242020795121789,-0.0013625789433717728,-0.0007341951131820679,0.0007248520851135254,0.004091858863830566
413,3.0912864713566615,-0.06418251992802894,-2.7059887723042797,0.050181418657302856,0.06413846462965012,0.9966782927513123,0.001601901836693287,0.00116607709787786,0.0014301333576440811,0.0007829293608665466,0.0004672333598136902,0.005503475666046143
414,3.0912775833830977,-0.06415153031866731,-2.70589599523418,0.05019039660692215,0.06410753726959229,0.9966802597045898,0.001072373241186142,0.00022810231894254684,-0.003820013254880905,0.0008807778358459473,0.0007423236966133118,0.004845738410949707
415,3.0912197071237313,-0.06419061108093237,-2.705694087600431,0.05024794861674309,0.06414654105901718,0.9966747164726257,-0.0017421208322048187,0.00034638470970094204,-0.00013620220124721527,-7.705017924308777e-05,-4.4368207454681396e-05,0.005110621452331543
416,3.09125198922695,-0.06418041515339162,-2.705387323405838,0.05021579936146736,0.06413636356592178,0.9966768622398376,-0.00032149720937013626,0.0002427990548312664,0.0007404880598187447,0.00013819709420204163,-0.00041566789150238037,0.004604816436767578
417,3.0912516161249592,-0.06420381338953052,-2.7053084785797124,0.05021609365940094,0.06415971368551254,0.9966752529144287,0.0009850384667515755,-0.0011615436524152756,-0.0006765611469745636,-0.00041141360998153687,0.00036969035863876343,0.004972517490386963
418,3.091314423667507,-0.06426291662449046,-2.705003761735805,0.05015331134200096,0.06421869248151779,0.9966747760772705,0.0005599251016974449,0.0010577302891761065,-0.0019939299672842026,3.2842159271240234e-05,0.0005396082997322083,0.005476713180541992
419,3.0913027844605687,-0.06428420462994068,-2.7047229550294034,0.0501648485660553,0.06423994153738022,0.9966729283332825,-0.0005356995388865471,-0.0006225877441465855,-0.0016978364437818527,0.00012812763452529907,0.00047259777784347534,0.004853010177612305
420,3.0913573555616214,-0.06425476283145601,-2.704560143428513,0.05011055991053581,0.06421055644750595,0.9966776371002197,0.0018879743292927742,0.0014615533873438835,-0.0008743908256292343,0.00012138858437538147,0.0009597465395927429,0.004421114921569824
421,3.0914159669530905,-0.06424705209585568,-2.7043182565479795,0.050052158534526825,0.06420285999774933,0.9966809153556824,-0.00010510627180337906,-0.0019581951200962067,-0.0001734066754579544,0.00025607645511627197,-0.0001312047243118286,0.005134940147399902
422,3.091365056327376,-0.06425283397152051,-2.704395289526915,0.050102878361940384,0.06420863419771194,0.9966779351234436,-0.0009725708514451981,0.0019165517296642065,0.00043865106999874115,0.00032741203904151917,-0.0003658682107925415,0.005824446678161621
423,3.0913634964923307,-0.06418976323441021,-2.7041828624244477,0.050104644149541855,0.06414569169282913,0.9966820478439331,0.000883195549249649,0.001488611800596118,0.0012244237586855888,0.00038669630885124207,0.00033795833587646484,0.005255937576293945
424,3.0913889812056494,-0.06421775017320504,-2.704136919563189,0.05007914826273918,0.064173623919487,0.9966814517974854,-0.0008552949875593185,-0.0011694109998643398,-0.0010894984006881714,0.00027485191822052,-0.0005139559507369995,0.0053327083587646484
425,3.0914470472159357,-0.0642016387697685,-2.704473059482992,0.05002132058143616,0.06415754556655884,0.9966852068901062,-7.528066635131836e-05,0.000452257227152586,0.0006245728582143784,0.0010040663182735443,-0.0004215911030769348,0.005206704139709473
426,3.091389893051577,-0.06417028394189364,-2.7044891942331732,0.05007839947938919,0.06412625312805176,0.9966846704483032,0.00041417405009269714,0.00032583484426140785,-0.0007948391139507294,1.6205012798309326e-05,0.0008761882781982422,0.005299091339111328
427,3.0913924169478824,-0.06414119291008824,-2.704196988302543,0.050075970590114594,0.06409721821546555,0.9966865181922913,0.0006965324282646179,-0.0015945862978696823,0.00016950815916061401,0.0002017393708229065,-0.0006054118275642395,0.00480884313583374
428,3.0914126254841814,-0.064130161232312,-2.703932785759539,0.0500558577477932,0.06408621370792389,0.9966881275177002,-0.0001079905778169632,-0.00035579828545451164,0.0015616407617926598,0.0009237527847290039,-0.00024344772100448608,0.004852950572967529
429,3.0913716789569516,-0.06408278164397228,-2.704015827902706,0.05009682849049568,0.06403893232345581,0.9966892600059509,0.001612153835594654,0.0008880416862666607,-7.541105151176453e-05,0.0003487244248390198,0.0006888508796691895,0.004836678504943848
430,3.091357859619647,-0.0640827718348992,-2.704098604790627,0.0501105971634388,0.06403891742229462,0.9966884255409241,-0.0005082190036773682,-0.0003258963115513325,-0.0019119549542665482,0.000395994633436203,-0.0004708021879196167,0.005173087120056152
431,3.0913782495198165,-0.06407384261386923,-2.704409141151675,0.05009032040834427,0.0640300065279007,0.9966903328895569,0.00030798371881246567,0.00018346402794122696,0.0006613545119762421,-0.00016355514526367188,-0.0002635195851325989,0.005522370338439941
432,3.09136795650553,-0.06406661781803993,-2.7048112843116505,0.050100576132535934,0.06402280181646347,0.9966897964477539,0.00047123711556196213,-0.0005801264196634293,0.0006598019972443581,5.5052340030670166e-05,9.46149230003357e-05,0.005247831344604492
433,3.0913633890082335,-0.06408532808137525,-2.7050932021342833,0.05010508745908737,0.06404147297143936,0.996688723564148,0.0016737878322601318,1.3136770576238632e-05,0.0021581603214144707,0.0005083233118057251,0.0005642473697662354,0.0049288272857666016
434,3.09138867310633,-0.0640477742996198,-2.7051441173205233,0.05007999390363693,0.06400399655103683,0.9966921210289001,0.00010609719902276993,8.643651381134987e-05,-0.0009246580302715302,1.4599412679672241e-05,-0.00026804953813552856,0.004497885704040527
435,3.091411427294642,-0.06401012707507396,-2.7056070536820047,0.05005744844675064,0.06396642327308655,0.996695876121521,0.0019415980204939842,-0.00038099056109786034,5.677901208400726e-05,-8.491426706314087e-05,0.00016626715660095215,0.005119919776916504
436,3.091414798459951,-0.06398716414679002,-2.705632840771467,0.0500541627407074,0.06394350528717041,0.9966975450515747,-0.002728259190917015,0.0018598157912492752,-0.0011060573160648346,0.0006965771317481995,0.0008453205227851868,0.005209922790527344
437,3.091402612886499,-0.06395178264016624,-2.705826705690106,0.05006643012166023,0.06390819698572159,0.9966993927955627,-0.0009603267535567284,-0.0023888940922915936,-0.002955930307507515,0.0009742267429828644,0.0007127821445465088,0.003972291946411133
438,3.091366769558409,-0.06397988888031128,-2.7060074972155346,0.05010204389691353,0.063936248421669,0.9966953992843628,0.0011638738214969635,-0.0007427106611430645,-0.0012257583439350128,-0.00019055232405662537,0.0009898915886878967,0.004311561584472656
439,3.091389205486782,-0.06398778558215346,-2.706078756514204,0.05007965862751007,0.06394413113594055,0.9966959953308105,-0.0004924274981021881,0.0003518862649798393,0.0005237124860286713,-1.5579164028167725e-05,0.0002648383378982544,0.004921257495880127
440,3.0914181472797795,-0.06402961703876782,-2.7060579164006398,0.050050679594278336,0.06398587673902512,0.996694803237915,-0.001866629347205162,-0.0003416426479816437,0.0016225334256887436,-0.00010866671800613403,-0.0002041459083557129,0.00464785099029541
441,3.0914321591526677,-0.06403593121687816,-2.7058235222923184,0.05003669857978821,0.06399217247962952,0.9966952204704285,4.815682768821716e-05,0.0008521468844264746,-0.0008778423070907593,0.000515669584274292,7.94827938079834e-05,0.004845857620239258
442,3.0914386779049647,-0.06401543904629343,-2.705502559360871,0.05003027617931366,0.06397172808647156,0.9966970682144165,0.0010242462158203125,-0.0007818909361958504,-4.1853636503219604e-05,0.0004305504262447357,-6.790459156036377e-05,0.005439400672912598
443,3.0914409654124557,-0.06398311643969898,-2.7051643477467233,0.05002808943390846,0.06393946707248688,0.9966990351676941,-0.001567445695400238,-0.0012446469627320766,0.0010788273066282272,0.0003716908395290375,-8.143484592437744e-05,0.005635499954223633
444,3.0914742593671773,-0.06396260477783414,-2.7045087331888835,0.04999497905373573,0.06391900032758713,0.9967021942138672,-0.00045376457273960114,-0.001133075449615717,-0.0009203068912029266,-0.00015977025032043457,0.0006714612245559692,0.005388379096984863
445,3.091489876049098,-0.06396358964338543,-2.703801909693369,0.04997938871383667,0.06391998380422592,0.9967024326324463,0.00017910171300172806,0.0014285678043961525,0.0004623178392648697,0.00014571845531463623,-7.72327184677124e-05,0.004289090633392334
446,3.0914442237469832,-0.0639834740094785,-2.7038983332024866,0.050024840980768204,0.06393982470035553,0.9966991543769836,0.0017673149704933167,-0.0022038565948605537,-0.0012074951082468033,0.0005275234580039978,0.0001318231225013733,0.004658877849578857
447,3.0914606763465904,-0.06402150970999643,-2.703955278481784,0.05000831186771393,0.06397778540849686,0.9966974258422852,-0.0004690224304795265,0.0022047546226531267,-0.0008358731865882874,-5.271285772323608e-06,9.385496377944946e-05,0.005514979362487793
448,3.0914904375728507,-0.06404375591916774,-2.7037542372833814,0.0499785952270031,0.06399998813867569,0.9966977834701538,-0.0010647345334291458,-0.0015098401345312595,0.00020857714116573334,0.00020757317543029785,0.00013272464275360107,0.004889249801635742
449,3.0914847749569554,-0.06401917771653709,-2.7037505808784483,0.04998431354761124,0.06397545337677002,0.9966989755630493,0.0014403611421585083,-0.0005073812790215015,0.0005987025797367096,0.0005527958273887634,0.00011146068572998047,0.004536986351013184
450,3.0914506467905998,-0.06404475198346223,-2.703650119666968,0.05001823604106903,0.06400097906589508,0.9966954588890076,0.001233755610883236,0.0007789665833115578,3.550015389919281e-05,0.0003815405070781708,2.489238977432251e-05,0.005501687526702881
451,3.0914354832806645,-0.0640342092942575,-2.703660461235347,0.05003339797258377,0.06399045884609222,0.9966956377029419,0.00031571369618177414,0.00025807134807109833,-0.0012521129101514816,0.0009309649467468262,0.0006762966513633728,0.004250526428222656
452,3.0914218343207907,-0.06403692932416938,-2.703642811892431,0.05004698783159256,0.0639931708574295,0.9966946840286255,-0.0006215926259756088,0.0004016829188913107,0.0005677975714206696,-0.0003033354878425598,0.0003836601972579956,0.005212664604187012
453,3.0914365571600837,-0.0639787469212015,-2.703562887727818,0.05003250390291214,0.06393510848283768,0.9966992139816284,-0.0013005314394831657,0.002291768556460738,-0.0002255905419588089,3.159046173095703e-05,0.0008994936943054199,0.004597902297973633
454,3.0913834382592826,-0.0639793685765915,-2.7034054680151645,0.05008542910218239,0.06393572688102722,0.9966962337493896,-0.0013381345197558403,-0.0014625084586441517,0.0027213795110583305,0.00010071694850921631,-0.0004896968603134155,0.005607664585113525
455,3.0913593162336293,-0.06397777953959208,-2.7034121016446053,0.050109487026929855,0.06393413990736008,0.996695339679718,0.0026932591572403908,-0.0017708628438413143,-6.76959753036499e-05,6.141141057014465e-05,0.0008699372410774231,0.004540681838989258
456,3.0913322987557885,-0.06394747031063343,-2.703585358949909,0.0501365028321743,0.06390389800071716,0.9966956377029419,-0.0014389650896191597,0.0007465428207069635,-0.0007552765309810638,0.00043111667037010193,0.00054921954870224,0.005852341651916504
457,3.0913694891082124,-0.06396388319807181,-2.7034859953492605,0.05009940639138222,0.0639202743768692,0.996696949005127,5.807727575302124e-05,-0.00020964816212654114,-0.0017653238028287888,-0.00017263740301132202,9.036064147949219e-05,0.0043561458587646484
458,3.091384247282839,-0.06398005759142887,-2.7033489473280308,0.05008462816476822,0.06393641978502274,0.9966962933540344,0.004443954210728407,-0.0013200542889535427,0.0010040691122412682,0.00029988959431648254,-0.0008108168840408325,0.005134642124176025
459,3.0913953803022296,-0.06399312592938701,-2.7033672005006113,0.05007348582148552,0.06394945830106735,0.9966959357261658,0.001084059476852417,0.0013083945959806442,-0.0007282067090272903,-0.0005129501223564148,0.00016795843839645386,0.005806326866149902
460,3.0913662388648264,-0.06407147556600021,-2.7032388048094873,0.05010228604078293,0.06402764469385147,0.9966896772384644,0.0020468709990382195,-0.0015493165701627731,-0.0006050746887922287,0.0005111172795295715,0.000791691243648529,0.0051108598709106445
461,3.0913776952709013,-0.0640451981019197,-2.7030866639393616,0.05009095370769501,0.0640014261007309,0.9966919422149658,0.002480835188180208,-0.00036943890154361725,0.0003419090062379837,0.0006445199251174927,0.000421181321144104,0.00570368766784668
462,3.091404320357197,-0.06406960579175067,-2.7028824850109943,0.050064340233802795,0.06402578204870224,0.9966917634010315,0.0012700119987130165,0.0006866897456347942,0.0002080630511045456,3.026425838470459e-05,0.00057993084192276,0.005047798156738281
463,3.0914254893236244,-0.06405313202076876,-2.702668669688809,0.05004327744245529,0.06400933861732483,0.9966935515403748,-0.0005708308890461922,-0.0005975309759378433,-0.00011002644896507263,0.0007227063179016113,0.00032170116901397705,0.005076229572296143
464,3.091401302054436,-0.06403717288250442,-2.702576547549798,0.050067439675331116,0.0639934167265892,0.9966934323310852,-0.00024256668984889984,-0.0010136584751307964,-0.0011806730180978775,0.0001492239534854889,0.00047495216131210327,0.004939079284667969
465,3.0913883810776346,-0.06406655324353318,-2.7028855692753626,0.050080232322216034,0.0640227347612381,0.9966910481452942,0.00019285175949335098,-0.0009143324568867683,0.001758749596774578,0.0007467903196811676,0.0006440058350563049,0.0041024088859558105
466,3.091415300740987,-0.06411325402840369,-2.7030283659874335,0.050053250044584274,0.06406933814287186,0.9966894388198853,0.0005188370123505592,0.0018489474896341562,0.0010044584050774574,-6.545707583427429e-05,6.335228681564331e-05,0.005645155906677246
467,3.091434122950237,-0.06408809954178232,-2.7028509642323733,0.050034571439027786,0.06404423713684082,0.9966919422149658,-0.0001502707600593567,-0.0008202069438993931,5.6862831115722656e-05,-0.00015358999371528625,0.0002868175506591797,0.00439143180847168
468,3.0914081455344053,-0.0640976176659454,-2.702490130721812,0.050060439854860306,0.0640537366271019,0.9966902136802673,0.0005673542618751526,0.00018374575302004814,-0.0019913967698812485,3.41758131980896e-05,0.0005367323756217957,0.005217313766479492
469,3.0913081997570635,-0.0641247442056767,-2.702226027398522,0.050159964710474014,0.06408080458641052,0.9966834187507629,0.0006640683859586716,-0.0014325440861284733,0.0008383831009268761,-0.00040104612708091736,0.00037232786417007446,0.006246328353881836
470,3.0913188974516608,-0.06414816074540274,-2.701953146509148,0.05014922469854355,0.06410417705774307,0.996682345867157,-0.0005502002313733101,0.0008535822853446007,-0.0017777401953935623,0.0005862489342689514,-0.0003529563546180725,0.004721403121948242
471,3.0913316792980203,-0.06411230715714504,-2.701984218975954,0.05013660714030266,0.06406839191913605,0.9966854453086853,-6.874091923236847e-05,-0.001364593394100666,-0.00024156272411346436,0.00011058524250984192,0.00011007487773895264,0.004840493202209473
472,3.0913269873807447,-0.06416628352294418,-2.7020292368186514,0.0501411147415638,0.0641222596168518,0.9966818690299988,0.0005365181714296341,-0.0002834252081811428,0.00028514303267002106,-0.0006110742688179016,-0.0008287876844406128,0.005103707313537598
