,attitude.roll,attitude.pitch,attitude.yaw,gravity.x,gravity.y,gravity.z,rotationRate.x,rotationRate.y,rotationRate.z,userAcceleration.x,userAcceleration.y,userAcceleration.z
0,3.0918801104715214,-0.0628258631626024,-2.7023959785624907,0.049594033509492874,0.06278454512357712,0.9967941641807556,0.0005621034651994705,-0.00029455963522195816,-0.00036169029772281647,0.0006684139370918274,0.007970452308654785,0.004075586795806885
1,1.397358441086535,-0.004848362988238693,-2.448300799723097,0.9849858283996582,0.004848343785852194,-0.17256766557693481,-0.0010633636265993118,-0.0007862430065870285,3.9538368582725525e-05,0.003005504608154297,-0.0002707242965698242,-0.0007111430168151855
2,1.397500469280056,-0.004867545035597337,-2.448279902800348,0.9850102066993713,0.0048675257712602615,-0.17242774367332458,0.0008766362443566322,-0.0035528400912880898,-0.00020972825586795807,0.0006618499755859375,-0.0003966987133026123,0.0025364160537719727
3,1.397532831372645,-0.0048159619886768285,-2.448282870445823,0.9850161671638489,0.004815943539142609,-0.17239592969417572,-0.0007489724084734917,-0.000770331360399723,-0.0009762179106473923,0.002746403217315674,-0.0008486504666507244,-0.0017526298761367798
4,1.3975504357434159,-0.0047991491981100335,-2.448266755820854,0.9850190877914429,0.004799130838364363,-0.1723785698413849,-0.0007469458505511284,-0.0008837333880364895,-0.0007987022399902344,0.0024686455726623535,0.0005261893384158611,0.00027467310428619385
5,1.397607919223904,-0.004878515621241785,-2.4483251749437134,0.9850286841392517,0.0048784962855279446,-0.17232190072536469,-0.003196815960109234,-0.0014161188155412674,-0.0027546994388103485,0.001406252384185791,-0.0002550780773162842,0.0004621744155883789
6,1.3976575132536968,-0.0048126540223336475,-2.4483335617147084,0.9850375056266785,0.0048126354813575745,-0.17227308452129364,-0.001740477979183197,0.0011653497349470854,0.0020257849246263504,0.0030149221420288086,-0.0013641417026519775,-0.001112520694732666
7,1.3976911865029644,-0.004789276737729581,-2.4483232198198692,0.9850432872772217,0.004789258353412151,-0.17223991453647614,0.002864990383386612,-1.4384277164936066e-05,-0.0010045133531093597,0.0013152360916137695,0.0009480412118136883,0.0015245825052261353
8,1.3976802526377223,-0.004874037594557968,-2.4483078737338584,0.9850412607192993,0.004874018486589193,-0.1722506582736969,-0.0028541628271341324,0.00028825318440794945,-0.0016670320183038712,0.0013480782508850098,-0.0005405242554843426,-0.0009823590517044067
9,1.3976346819684724,-0.004820959675967758,-2.448347263125441,0.9850335717201233,0.004820941016077995,-0.17229557037353516,0.001408856362104416,0.00018020998686552048,0.0007400466129183769,0.0031714439392089844,-0.0013419389724731445,0.00016117095947265625
10,1.3977242325132149,-0.004776729674635021,-2.448377215345766,0.9850490689277649,0.004776711575686932,-0.17220738530158997,-0.0007946928963065147,0.00024759070947766304,2.7028843760490417e-05,0.001156926155090332,0.0004113013856112957,0.000881686806678772
11,1.3977232093950835,-0.0048181225903824575,-2.448384981130875,0.9850488305091858,0.004818103741854429,-0.17220838367938995,0.002255053259432316,0.00017585325986146927,-0.0006375797092914581,0.002301633358001709,-0.0003014802932739258,-0.0015282034873962402
12,1.3977769247984424,-0.004781739945799989,-2.4483819134101577,0.9850581884384155,0.004781721625477076,-0.1721554845571518,-0.0017011426389217377,-0.0012001851573586464,0.0008584102615714073,0.0020481348037719727,-0.0004634559154510498,0.0009670853614807129
13,1.397790447834961,-0.004712720603246841,-2.4483672234173777,0.9850608110427856,0.004712703172117472,-0.17214222252368927,0.001866089180111885,-0.0021500112488865852,0.0016478393226861954,0.00161820650100708,0.00038373423740267754,-0.00154857337474823
14,1.3977532186661183,-0.004732930736626457,-2.4483236863816376,0.9850544333457947,0.004732912871986628,-0.17217889428138733,0.0008634757250547409,0.0005046091973781586,0.0005268659442663193,0.000770270824432373,-0.0023067588917911053,-0.000809982419013977
15,1.3977795657022278,-0.0046206468718873826,-2.4483028321279696,0.9850594997406006,0.004620630294084549,-0.1721530258655548,-1.8452294170856476e-05,-0.001111739780753851,0.001436915248632431,0.0032981038093566895,-0.00030240416526794434,0.002643108367919922
16,1.397889961999545,-0.004601498013666574,-2.4483594078841326,0.9850784540176392,0.004601481836289167,-0.1720442771911621,0.0002614380791783333,0.0011286432854831219,-0.0010241754353046417,0.007963478565216064,0.0009832377545535564,-0.0026078075170516968
17,1.3977557932597022,-0.004651323709554397,-2.448397462949738,0.9850552082061768,0.004651307128369808,-0.17217640578746796,-0.001057296060025692,0.00040272041223943233,-0.001371338963508606,-0.006386995315551758,-0.0018894672393798828,-0.000308990478515625
18,1.3978284508184533,-0.0045383916059561855,-2.4483900795960327,0.9850682616233826,0.00453837588429451,-0.17210493981838226,-0.0016316277906298637,0.0010238699615001678,4.4932588934898376e-05,0.005593419075012207,0.00039020227268338203,0.0006266683340072632
19,1.3978644175024766,-0.004581367521074211,-2.4483853759259375,0.9850740432739258,0.004581351298838854,-0.17206944525241852,0.0027263639494776726,-0.0006435303948819637,-0.000656353309750557,0.014269709587097168,0.0014763767831027508,-0.002796277403831482
20,1.397919355728456,-0.004630553751381897,-2.4483967094088652,0.9850833415985107,0.004630537237972021,-0.17201529443264008,0.0010029152035713196,0.0005018184892833233,-0.002094607800245285,-0.004446804523468018,-0.0049204532988369465,0.000399664044380188
21,1.3978910626066199,-0.0045055400650366555,-2.448363494554607,0.9850789308547974,0.004505524877458811,-0.17204324901103973,0.001438591629266739,0.0003392556682229042,-0.00032242387533187866,-0.0063040852546691895,0.0037800068967044353,0.0021214038133621216
22,1.3977682908170475,-0.004752744095155448,-2.448348155262274,0.9850568771362305,0.004752726294100285,-0.17216400802135468,0.00025428086519241333,0.002911670133471489,-0.0023019611835479736,0.01689624786376953,0.00180855393409729,-0.005936563014984131
23,1.3979020532853679,-0.004637959024162965,-2.448294928898124,0.985080361366272,0.004637942183762789,-0.17203234136104584,0.002062518149614334,0.0013792903628200293,0.002242187038064003,-0.011279702186584473,-0.004729479551315308,0.005192756652832031
24,1.3979246674333246,-0.0046250000915027505,-2.448274926736579,0.9850843548774719,0.004624983761459589,-0.17201007902622223,0.0026225876063108444,0.0003804704174399376,-0.0013869740068912506,-0.005393803119659424,0.004331916570663452,-0.0017265081405639648
25,1.3978796180621553,-0.00478817906140246,-2.44825782999545,0.9850759506225586,0.004788160789757967,-0.17205433547496796,-0.0031363964080810547,-0.0006367289461195469,0.0015934845432639122,0.013932347297668457,-0.0010344977490603924,0.00022511184215545654
26,1.3980143026824945,-0.004550649062668162,-2.4481829697778505,0.9851000905036926,0.0045506334863603115,-0.17192183434963226,-0.00038256309926509857,0.001762723084539175,0.0008188486099243164,-0.008064568042755127,-0.003299415111541748,0.00036722421646118164
27,1.3978132447200233,-0.004573961924906889,-2.4482000962322674,0.9850655198097229,0.004573945887386799,-0.1721199005842209,0.0004573678597807884,0.0016713859513401985,-0.0008850377053022385,0.004985809326171875,0.004413456190377474,-0.0026542693376541138
28,1.39791735499792,-0.004697905100552209,-2.44821444442788,0.9850828051567078,0.004697887692600489,-0.17201723158359528,-0.0006722677499055862,0.0021029773633927107,0.00044676847755908966,0.005945026874542236,-0.0022717416286468506,0.002232670783996582
29,1.3979281207107634,-0.004486215423106994,-2.4481524485462525,0.9850856065750122,0.004486200399696827,-0.1720067858695984,-0.0008547054603695869,-3.4912023693323135e-05,-0.00014705955982208252,-0.006188511848449707,-0.0025330781936645508,-0.0015619397163391113
30,1.3978229402820452,-0.004567331632364947,-2.4481582401177002,0.9850671887397766,0.004567315801978111,-0.17211033403873444,6.884615868330002e-05,0.0006775474175810814,-0.0007615871727466583,0.00947028398513794,0.00419122027233243,-0.00013090670108795166
31,1.3979308519213904,-0.0046700977313142615,-2.4482265516871853,0.9850852489471436,0.004670080728828907,-0.17200395464897156,0.0001685619354248047,-0.0015661455690860748,-0.0010257642716169357,-0.0011222362518310547,-0.0005807280540466309,0.00119704008102417
32,1.3977678626555994,-0.004545990848861613,-2.448215118079044,0.9850577712059021,0.004545975010842085,-0.17216461896896362,0.003638806752860546,-0.002118751872330904,0.0010479465126991272,-0.0005301833152770996,-0.0026691555976867676,-0.002197563648223877
33,1.397775891918792,-0.00452070234535977,-2.448227974103052,0.9850592017173767,0.004520686808973551,-0.1721567064523697,0.0005745477974414825,0.00487402081489563,-0.0002721976488828659,0.001314699649810791,0.004283636808395386,0.0059275031089782715
34,1.3979631304783184,-0.004645238280922897,-2.448259045460988,0.9850907921791077,0.004645221401005983,-0.1719721555709839,-0.001156587153673172,0.0022868479136377573,-0.002963852137327194,-0.0010363459587097168,-0.0017918352968990803,0.00015820562839508057
35,1.3977584692043175,-0.004513642338880324,-2.4482675709224053,0.9850563406944275,0.004513626918196678,-0.1721739023923874,-0.001877988688647747,0.0007361150346696377,0.0012742988765239716,0.003911614418029785,0.0010253195650875568,-0.0016542226076126099
36,1.397814752877922,-0.0045840426867502174,-2.448293986758345,0.9850655198097229,0.004584026522934437,-0.17211836576461792,-0.0006015617400407791,0.00012277858331799507,6.249174475669861e-06,-0.0017281770706176758,0.0003140270709991455,0.00341719388961792
37,1.3978582776196242,-0.004521687158537083,-2.448281197863368,0.9850733876228333,0.004521671682596207,-0.172075554728508,-0.003487006761133671,0.0013078944757580757,0.0017122700810432434,0.005740821361541748,-2.0325183868408203e-05,-0.003400564193725586
38,1.3978528147625202,-0.004553967638812215,-2.4482642441603955,0.9850722551345825,0.0045539517886936665,-0.1720809042453766,0.0003134505823254585,-0.001303400844335556,-0.002068515866994858,0.003514111042022705,0.0022514755837619305,0.0062179118394851685
39,1.3980534874478885,-0.004521769386537891,-2.44826014228609,0.9851068258285522,0.00452175410464406,-0.1718832403421402,0.00029366929084062576,-0.003501646686345339,-0.0018246211111545563,-0.0036769509315490723,-0.008061766624450684,0.0024801641702651978
40,1.3978673094764529,-0.004357968034527275,-2.4482802892368594,0.9850756525993347,0.004357954021543264,-0.17206677794456482,0.0002468172460794449,-0.002689574845135212,-0.0003339238464832306,0.009476959705352783,-0.00234377384185791,-0.002432703971862793
41,1.3979943154160874,-0.004511479149809254,-2.4483296500879472,0.9850968718528748,0.004511463921517134,-0.17194156348705292,-1.4537014067173004e-05,0.001944944029673934,0.0004972685128450394,-0.00038617849349975586,0.0022329390048980713,0.005163013935089111
42,1.3980695845960192,-0.004497476570439988,-2.448327037589283,0.985109806060791,0.00449746148660779,-0.17186740040779114,0.00030686985701322556,-0.00031906692311167717,0.0002706572413444519,-0.002520143985748291,-0.006175935734063387,-0.002174362540245056
43,1.3979288691157328,-0.004424682818329348,-2.4483622721270177,0.9850860238075256,0.00442466838285327,-0.17200610041618347,-0.0006682891398668289,0.0016172067262232304,0.0016829678788781166,0.011297643184661865,0.0008701086044311523,-0.000402987003326416
44,1.3980838618082794,-0.004672923441311388,-2.4483733684672404,0.9851114749908447,0.00467290636152029,-0.1718532145023346,0.0019844966009259224,-0.00018545379862189293,-0.0009231362491846085,-0.006290733814239502,0.0035515720956027508,0.002984181046485901
45,1.3980497747679277,-0.004605050306056742,-2.4483995308870545,0.9851059913635254,0.004605033900588751,-0.1718868613243103,0.0012762881815433502,0.0006200324278324842,-0.0019975267350673676,0.006501734256744385,-0.005062818061560392,-0.002475336194038391
46,1.3979641899858697,-0.0044182562027848,-2.4483673600123006,0.9850921034812927,0.0044182417914271355,-0.17197130620479584,0.0001156982034444809,0.0012649514246731997,0.0017762025818228722,0.0026856064796447754,0.0018683671951293945,0.0023546218872070312
47,1.3981281798285587,-0.004557089327961205,-2.44837505805954,0.985119640827179,0.0045570735819637775,-0.17180964350700378,0.00020593591034412384,0.0010737802367657423,0.0018481854349374771,-0.002499401569366455,0.0009513492695987225,1.0982155799865723e-05
48,1.3980029015892608,-0.004390719124668678,-2.448403993915572,0.9850988984107971,0.004390704911202192,-0.17193318903446198,-0.0005738707259297371,0.002404207829385996,0.0008793799206614494,0.005196511745452881,-0.0013694465160369873,-0.0023221373558044434
49,1.3979795157347426,-0.00434650667239879,-2.448422046234795,0.9850950241088867,0.004346493165940046,-0.17195625603199005,0.0010555358603596687,0.0001765475608408451,4.8745423555374146e-05,0.004162788391113281,9.381771087646484e-05,0.0007068514823913574
50,1.3980161858454345,-0.004375154013553685,-2.4484243063769284,0.9851012229919434,0.004375140182673931,-0.17192012071609497,-0.001902783289551735,0.002002113498747349,-0.002901565283536911,0.005041599273681641,-0.002849280834197998,-0.004257857799530029
51,1.3980542499477686,-0.004175006045018168,-2.448381213735359,0.9851086735725403,0.004174993839114904,-0.1718827784061432,0.0002791211009025574,0.003974776715040207,-7.389672100543976e-05,0.0016314387321472168,-0.010827809572219849,-0.00012958049774169922
52,1.3980348889203538,-0.004204489469182869,-2.448374914837112,0.9851050972938538,0.004204477183520794,-0.17190180718898773,0.002004356123507023,0.0065256888046860695,-0.0005121789872646332,0.0027946829795837402,0.01184779405593872,-0.005222201347351074
53,1.3979974459466369,-0.004657577898497198,-2.4483709745895736,0.9850966930389404,0.004657560959458351,-0.17193834483623505,0.0019913576543331146,0.004526986740529537,-0.0015400201082229614,0.0007736086845397949,0.003734766971319914,0.001207783818244934
54,1.3981390007036028,-0.00431923594547014,-2.4483859663806222,0.985122561454773,0.004319222643971443,-0.1717991679906845,-0.00161809753626585,0.0014351950958371162,0.0002266913652420044,-0.0022429227828979492,-0.003098517656326294,-0.002303600311279297
55,1.3980198497200969,-0.004407792446164988,-2.448366449409879,0.985101580619812,0.004407778382301331,-0.17191645503044128,0.001714089885354042,0.005583177320659161,-0.0007962286472320557,0.0068569183349609375,0.008180737495422363,-0.0022778958082199097
56,1.3980552611492898,-0.00465077590959875,-2.4483924441685074,0.9851066470146179,0.004650759045034647,-0.17188140749931335,0.0007288595661520958,0.0006673508323729038,-0.006304580718278885,-0.007613420486450195,-0.0009581148624420166,0.002264738082885742
57,1.3980752488083792,-0.004374166405261631,-2.448448579909752,0.9851113557815552,0.004374152515083551,-0.171861931681633,-0.0009474316611886024,0.0029496019706130028,0.002221819944679737,0.007686495780944824,-0.005594879388809204,0.0012839436531066895
58,1.398113247253464,-0.004430510817744725,-2.448443016115936,0.9851175546646118,0.004430496133863926,-0.17182444036006927,0.0011199461296200752,-0.001972080674022436,0.0019303644075989723,0.0007374882698059082,-0.0009362404234707355,0.004328742623329163
59,1.398116837509481,-0.004520025353553581,-2.4484391745347716,0.9851179122924805,0.004520009737461805,-0.17182086408138275,-0.0007670912891626358,-0.00017422763630747795,-0.0012123174965381622,0.00035572052001953125,-0.0018039345741271973,-0.0010459423065185547
60,1.3981084914236743,-0.004472976678653795,-2.448360857877363,0.985116720199585,0.004472961649298668,-0.17182911932468414,0.0001246631145477295,0.0021103601902723312,0.0018947143107652664,0.00835263729095459,0.001859456766396761,-0.0015412718057632446
61,1.3980415867776408,-0.004605630451382962,-2.448335899113162,0.985104501247406,0.004605614114552736,-0.17189490795135498,-0.000713936984539032,-0.000472046434879303,0.0024740733206272125,-0.0029115676879882812,0.0008722837083041668,-0.0027876943349838257
62,1.3981596540933425,-0.004574186381153961,-2.4483455156422504,0.9851250052452087,0.004574170336127281,-0.1717786341905594,0.0004621380940079689,-0.0004777875728905201,0.00019074790179729462,0.00594860315322876,-0.007656455039978027,0.005763053894042969
63,1.3983312239777874,-0.004440517531996431,-2.448335182574059,0.9851549863815308,0.004440502729266882,-0.17160969972610474,0.0020862380042672157,0.0008058627136051655,0.0019620954990386963,8.970499038696289e-05,0.0018613631837069988,-0.00218789279460907
64,1.3982083086833779,-0.0046502977497601995,-2.448372049551816,0.9851330518722534,0.004650280810892582,-0.1717306524515152,0.001109447330236435,0.0020858636125922203,-0.002321070060133934,-0.0028789639472961426,-0.0006372327916324139,0.00402127206325531
65,1.3984602193316482,-0.004500272108950365,-2.448338720390705,0.9851768612861633,0.004500256851315498,-0.17148257791996002,0.0010051336139440536,-0.0012228055857121944,0.0009070578962564468,0.011710286140441895,-0.00599563168361783,-0.002635464072227478
66,1.3983084174015814,-0.004481230974494026,-2.448355310613813,0.985150933265686,0.004481215961277485,-0.17163214087486267,0.001967192627489567,0.0005578843411058187,5.532056093215942e-07,-0.006559014320373535,-0.00046816468238830566,-0.0017077326774597168
67,1.3982765981339211,-0.004656008951878679,-2.448366886666014,0.9851446151733398,0.004655992146581411,-0.1716633439064026,-0.0005756150931119919,0.000167191494256258,0.0025537367910146713,0.002480447292327881,0.0028513367287814617,0.0034962445497512817
68,1.3983800622686744,-0.004538464302406763,-2.448379419456709,0.9851629734039307,0.00453844852745533,-0.17156152427196503,0.0009074816480278969,-0.001565825194120407,0.0008525364100933075,0.007817983627319336,-0.005026727914810181,-0.006554305553436279
69,1.398197971887314,-0.004336376013559258,-2.4483780783608595,0.9851326942443848,0.004336362238973379,-0.1717410832643509,-0.00103739183396101,0.000868731876835227,0.00013656727969646454,0.0009207725524902344,0.004330635070800781,0.007236063480377197
70,1.3984813049263327,-0.004602118230161472,-2.4484463587970637,0.9851800203323364,0.004602102097123861,-0.17146171629428864,0.00042214617133140564,0.002209317870438099,-0.001368081197142601,-0.00019472837448120117,0.003668158780783415,-0.005357131361961365
71,1.398172941874392,-0.004449772843396715,-2.4484839791783726,0.9851278066635132,0.004449758213013411,-0.17176562547683716,0.0006241193041205406,0.0013443110510706902,-0.0006544701755046844,0.0037790536880493164,-0.004358202219009399,0.002820312976837158
72,1.3985418856559708,-0.0042853791783390984,-2.448533032583023,0.9851919412612915,0.004285366274416447,-0.17140230536460876,-0.0012521296739578247,-0.001062068622559309,0.0014773709699511528,-0.005348682403564453,0.0016655628569424152,0.0015109628438949585
73,1.3982205492634472,-0.004543779608789779,-2.448571862142873,0.985135555267334,0.004543764051049948,-0.17171865701675415,0.0020331963896751404,-0.00074422312900424,-0.0006933193653821945,0.004045963287353516,0.005877971649169922,-0.01257699728012085
74,1.39802903599895,-0.00449470720776024,-2.4485534570762506,0.9851028919219971,0.004494692198932171,-0.17190736532211304,3.0566006898880005e-05,0.0013934543821960688,0.0002840198576450348,0.0007979869842529297,-0.010262519121170044,0.012193620204925537
75,1.3986377015703655,-0.00420397968398695,-2.448562056852259,0.9852086305618286,0.004203967284411192,-0.17130796611309052,0.0018635662272572517,0.003266663756221533,0.0008197249844670296,-0.0041446685791015625,0.002281010616570711,-0.003511980175971985
76,1.398107068952867,-0.0046029082719350415,-2.4485727438832092,0.9851158261299133,0.004602891858667135,-0.171830415725708,-0.0016240999102592468,0.002484978409484029,0.0018601464107632637,0.008063435554504395,0.007039576768875122,-0.008955717086791992
77,1.3983728596905054,-0.004597624440382927,-2.4485874447379516,0.9851614832878113,0.004597608465701342,-0.17156857252120972,0.0003186427056789398,-0.00011581368744373322,0.0005614440888166428,0.02641993761062622,-0.0014390349388122559,0.007735013961791992
78,1.3985939954195328,-0.004375108548545994,-2.448599830816831,0.9852003455162048,0.004375094547867775,-0.1713508814573288,0.000493188388645649,0.004217284265905619,0.0018793679773807526,-0.014893949031829834,-0.0025897924788296223,-0.009160622954368591
79,1.3980586980613139,-0.004472200922602406,-2.4486089153722577,0.9851081371307373,0.004472185857594013,-0.1718781739473343,0.002077953889966011,-0.0019205654971301556,0.0014419471845030785,-0.00839298963546753,0.006605714559555054,0.005175888538360596
80,1.3985439062497398,-0.004658002044220335,-2.448597058991171,0.9851905703544617,0.0046579851768910885,-0.1714000254869461,0.0016809869557619095,-0.000290693249553442,0.003643040545284748,0.02527695894241333,0.00031638145446777344,0.002622544765472412
81,1.3983217619910144,-0.004360858848362286,-2.448606812201004,0.9851537346839905,0.004360844846814871,-0.17161910235881805,-0.0006841542199254036,0.002032834105193615,0.0006328150629997253,-0.014603197574615479,-0.012264907360076904,-0.009472250938415527
82,1.3981345360236457,-0.0042721368355752186,-2.448601871241217,0.9851219654083252,0.004272123798727989,-0.17180359363555908,0.0008712839335203171,0.0008578195702284575,0.0002798512578010559,-0.0009758472442626953,0.010040640830993652,0.012501835823059082
83,1.39858057478495,-0.004855824838781408,-2.4485851060089847,0.9851958751678467,0.004855805542320013,-0.1713637262582779,0.0008924352005124092,-0.0025542043149471283,0.0027238205075263977,0.00493168830871582,0.009365379810333252,-0.004982098937034607
84,1.3979337481752723,-0.004344115266058872,-2.448577633938193,0.9850871562957764,0.004344101529568434,-0.17200134694576263,-0.0026454469189047813,-0.0050111813470721245,-0.00448274239897728,-0.007014036178588867,-0.004649281967431307,0.009678378701210022
85,1.398474834140822,-0.004455507060373314,-2.448586084098096,0.9851797223091125,0.004455492366105318,-0.17146824300289154,0.0006519602611660957,0.0053358557634055614,0.00020138360559940338,0.025547325611114502,0.010589659214019775,0.0034384578466415405
86,1.39830005818197,-0.0047512199707688595,-2.448573645960121,0.9851482510566711,0.004751202184706926,-0.17164015769958496,0.0006284331902861595,0.007822120562195778,0.0006836038082838058,-0.010584652423858643,0.0019931793212890625,-0.007421731948852539
87,1.3981528292480698,-0.0046017824464217715,-2.44855319189484,0.9851236939430237,0.004601766355335712,-0.17178532481193542,0.00022734515368938446,-0.007699083536863327,-0.00018588639795780182,-0.006089270114898682,-0.008309662342071533,0.012895584106445312
88,1.3985086896647982,-0.004394038464095334,-2.4485049828092755,0.9851855635643005,0.004394024144858122,-0.1714348942041397,-0.0016032252460718155,0.0011203030589967966,0.0007918374612927437,0.014783799648284912,0.0029149348847568035,-0.0067572444677352905
89,1.3980101555677507,-0.004754238563381023,-2.4485086487913725,0.9850985407829285,0.004754220601171255,-0.17192576825618744,-0.0017759408801794052,0.0014152922667562962,-0.0036164168268442154,-0.013159394264221191,0.004248470067977905,0.0010731220245361328
90,1.3983706819836819,-0.004648535996848361,-2.448494179525609,0.9851608872413635,0.004648519214242697,-0.17157067358493805,-0.0004124874249100685,-0.0011579617857933044,0.0018886979669332504,0.015296876430511475,-0.008219093084335327,0.003937616944313049
91,1.3982805970689236,-0.00440103327248555,-2.4485070190500338,0.9851464629173279,0.004401018843054771,-0.17165961861610413,-0.0017635412514209747,0.002401894424110651,0.0025722067803144455,-0.005745828151702881,0.0019924044609069824,-0.006486713886260986
92,1.3979709242455018,-0.004663317275998525,-2.4485085694052535,0.9850922226905823,0.004663300234824419,-0.17196449637413025,0.0031483029015362263,-0.0012469547800719738,0.0005525164306163788,0.005218505859375,0.005193889606744051,0.004575595259666443
93,1.3983804809094207,-0.004594598305617579,-2.448497207609637,0.9851627945899963,0.004594582132995129,-0.1715610772371292,-6.239209324121475e-05,0.0004319169092923403,-0.0009970571845769882,0.004796862602233887,-0.005296498537063599,-0.0015956759452819824
94,1.398054656074545,-0.0043546589096664515,-2.4485193968652594,0.9851078987121582,0.004354645032435656,-0.17188222706317902,-0.0005597881972789764,0.0001584962010383606,-0.001951286569237709,-0.003677845001220703,0.0015352368354797363,-0.004127919673919678
95,1.3981537727909876,-0.004262535035841386,-2.4485139468915205,0.9851252436637878,0.004262522328644991,-0.1717846542596817,0.0013556545600295067,0.014139775186777115,-0.012490745633840561,-0.028948545455932617,0.00510638952255249,0.011307954788208008
96,1.3980634953543085,-0.004233231888669751,-2.448522727490104,0.985109806060791,0.0042332191951572895,-0.17187359929084778,0.003909334074705839,0.016183648258447647,0.0318126305937767,0.09664666652679443,0.012948155403137207,-0.020020946860313416
97,1.3983604516455843,-0.004170433147950219,-2.448525469633025,0.9851611256599426,0.004170421045273542,-0.17158110439777374,0.0014222078025341034,0.026400066912174225,0.017080556601285934,-0.0730823278427124,0.0024976725690066814,0.023158863186836243
98,1.3985429367201967,-0.004635756385316554,-2.448556996353406,0.9851904511451721,0.004635739605873823,-0.1714009791612625,-0.0026543661952018738,-0.017594316974282265,-0.007040334865450859,0.05954831838607788,-4.285573959350586e-05,-0.01815897226333618
99,1.398034966914723,-0.004394058925799135,-2.4485043263256334,0.9851042628288269,0.004394044633954763,-0.17190158367156982,0.0002563735470175743,0.008838779293000698,0.00348699651658535,-0.02599787712097168,-0.0046839420683681965,0.003047838807106018
100,1.3984620781195491,-0.00437824721473667,-2.448511511257966,0.9851776361465454,0.004378233104944229,-0.17148083448410034,-0.000407608225941658,-0.004662605468183756,0.0033584609627723694,0.008993387222290039,0.011979162693023682,0.0018183737993240356
101,1.3982126789338658,-0.004725220099081119,-2.448451301448579,0.9851332902908325,0.004725202452391386,-0.171726256608963,-0.0009039510041475296,-0.0011280546896159649,-0.0016592293977737427,0.01346278190612793,-0.0018413071520626545,-0.006282791495323181
102,1.3983096093703753,-0.004328376143030787,-2.448425956002994,0.9851517081260681,0.0043283626437187195,-0.1716310679912567,-0.0027634138241410255,0.003511483781039715,-0.0024871118366718292,-0.017805635929107666,-0.005259126890450716,0.00646992027759552
103,1.3983275765655196,-0.004376201641269723,-2.4484380935928534,0.9851546287536621,0.004376187454909086,-0.17161335051059723,-0.00024747196584939957,-0.00044523226097226143,-5.502253770828247e-06,0.020201146602630615,0.008731096982955933,-0.007067084312438965
104,1.398223696801397,-0.004624171340030061,-2.448444378574706,0.9851357936859131,0.004624154884368181,-0.17171551287174225,0.0005254913121461868,0.0037752597127109766,0.002252936363220215,-0.006330251693725586,-0.0025031864643096924,0.0023734569549560547
105,1.3983139764468218,-0.004275258014877696,-2.4484489181203153,0.9851527810096741,0.004275245126336813,-0.17162682116031647,-0.0013560932129621506,-0.000794148538261652,0.0006258375942707062,0.004440724849700928,-0.005160272121429443,0.001979649066925049
106,1.3982120865871985,-0.0043508743611253755,-2.448417578022868,0.9851348400115967,0.004350860603153706,-0.17172712087631226,-0.0007277326658368111,0.0030397202353924513,0.001250898465514183,0.0023986101150512695,0.005765735637396574,-0.0036421269178390503
107,1.398221666603209,-0.00453159481449122,-2.448406029828533,0.9851358532905579,0.004531579092144966,-0.171717569231987,0.0006188219413161278,-0.0018623340874910355,-0.00026467256247997284,-0.002897024154663086,-0.002380073070526123,0.0036115050315856934
108,1.3983039574749194,-0.004307817429343261,-2.448431502670092,0.9851508736610413,0.00430780416354537,-0.1716366708278656,-0.0005262000486254692,-0.0012442665174603462,0.001566433347761631,0.006655097007751465,-0.003743231762200594,-0.003976747393608093
109,1.3981311713363693,-0.0044207917143468806,-2.4484238612102036,0.9851207733154297,0.004420777317136526,-0.17180681228637695,0.0012711994349956512,0.001226506195962429,0.001568392850458622,-0.0015544891357421875,0.00694701075553894,0.0005269050598144531
110,1.3982090209350622,-0.004667559354000781,-2.4483888616891014,0.9851329326629639,0.0046675424091517925,-0.1717299073934555,0.00017841067165136337,-0.0006570359691977501,-0.0020573046058416367,0.004414737224578857,-0.0008375947363674641,0.001838579773902893
111,1.398158044943733,-0.004365931686614189,-2.4483596659322027,0.9851256608963013,0.004365917760878801,-0.17178037762641907,0.0019017010927200317,0.002114133210852742,0.001776103861629963,0.00030219554901123047,-0.0039081573486328125,-0.002505481243133545
112,1.3982948825446608,-0.003995794993929923,-2.448332521947377,0.9851506948471069,0.003995784558355808,-0.171645849943161,-0.0019167223945260048,-0.0018084854818880558,-0.01575363799929619,0.032747864723205566,0.0003529787063598633,-0.0050966739654541016
113,1.3952228429134481,-0.00413245658995182,-2.4553049947930243,0.9846181869506836,0.004132444970309734,-0.17467135190963745,0.4405544102191925,-0.10774262994527817,-0.07684163004159927,0.02493387460708618,-0.06916540861129761,0.05891816318035126
114,1.3955559555471513,-0.002721964139176018,-2.4656751418061797,0.9846809506416321,0.0027219608891755342,-0.17434418201446533,0.02443821355700493,-0.006432464346289635,-0.0018796976655721664,-0.03398221731185913,-0.008321911096572876,0.00013460218906402588
115,1.3867417019337038,-0.004947115975843716,-2.5118506336696025,0.9830976724624634,0.0049470956437289715,-0.18301497399806976,0.1899612694978714,-0.05766743794083595,-0.12234963476657867,0.012172102928161621,-0.01996174454689026,0.04951584339141846
116,1.6130433763439407,-0.12454400608516207,-2.5788505687891314,0.9913691878318787,0.1242222860455513,0.041907358914613724,0.9243543148040771,4.601141929626465,-1.9851174354553223,0.4053289294242859,-0.03981064260005951,-0.24045467376708984
117,1.8787819278111653,-0.27297973046730145,-2.6975143858406088,0.9176604151725769,0.2696020305156708,0.2919149696826935,0.7683053612709045,2.6338906288146973,-1.5781718492507935,0.019885480403900146,0.2851160168647766,0.10911646485328674
118,2.1438575878190007,-0.44062798675958864,-2.747559712971468,0.7599881887435913,0.4265075623989105,0.49041736125946045,0.4718456566333771,2.3980300426483154,-0.05181358754634857,-0.15992110967636108,-0.04644167423248291,-0.09159842133522034
119,2.0678590555064806,-0.337673608222325,-2.929103113163432,0.8293488621711731,0.331292986869812,0.44991734623908997,-0.17886176705360413,-1.9611297845840454,3.0825109481811523,-0.2910493016242981,0.05209934711456299,0.2756533622741699
120,1.7821278615496765,-0.17552834272651882,-2.948984346916391,0.9627286195755005,0.1746283918619156,0.2065388560295105,-0.5715687870979309,-1.4111647605895996,0.43827977776527405,0.0025574564933776855,0.14969713985919952,0.3026317059993744
121,1.6118115436389453,-0.03790206261055877,-2.866726138109742,0.9984414577484131,0.037892989814281464,0.04097427427768707,-0.8701224327087402,-0.9849135875701904,1.179459571838379,0.08062958717346191,0.04924996197223663,0.05666673183441162
122,1.5653066309786974,-0.006712531909225206,-2.7673772063279816,0.999962329864502,0.006712481379508972,-0.00548954401165247,-0.5139623880386353,0.17282027006149292,-0.05370111018419266,-0.06079918146133423,-0.21055464446544647,-0.1648443341255188
123,1.5576350199929958,-0.033033740698272626,-2.743951428745953,0.9993678331375122,0.033027734607458115,-0.013153745792806149,-0.024191301316022873,-0.2982555031776428,-0.313604474067688,-0.04157370328903198,-0.10504922270774841,-0.13976985216140747
124,1.5068917825514239,-0.046057685781018556,-2.763431212704565,0.9969004392623901,0.04604140296578407,-0.06379333138465881,-0.07148845493793488,-0.3241012394428253,-0.14438091218471527,0.2080097794532776,0.08379563689231873,0.0433465912938118
125,1.5043988161495232,-0.04939891164868518,-2.7600533679069454,0.9965791702270508,0.04937882348895073,-0.06626778841018677,-0.0715826153755188,0.25888192653656006,-0.04132474958896637,0.2707698941230774,0.09275678545236588,0.02157481014728546
126,1.5562545705281943,-0.04501671685572982,-2.733548437644783,0.9988812208175659,0.04500151425600052,-0.014526511542499065,-0.6153535842895508,-0.1490844041109085,0.11358775943517685,0.17883777618408203,-0.00940275564789772,0.04644787311553955
127,1.577135358652121,-0.023252257006549905,-2.69493004639842,0.9997096061706543,0.023250162601470947,0.006337275728583336,-0.4908640384674072,-0.0944829210639,0.48493826389312744,0.0694737434387207,0.05438655614852905,0.011713862419128418
128,1.5993311532640668,0.04050231471414848,-2.66740268204162,0.9987731575965881,-0.040491241961717606,0.02850755676627159,0.0006498834118247032,0.22012034058570862,0.769824743270874,-0.07392269372940063,0.07656301558017731,-0.03369557857513428
129,1.6670244350535368,0.19891218695869772,-2.6918383998817736,0.9757471084594727,-0.19760309159755707,0.09418519586324692,0.31927844882011414,0.694210410118103,1.788857102394104,-0.2465142011642456,0.18487723171710968,-0.05365775525569916
130,1.7258407255725563,0.3730652977929545,-2.7010190027635193,0.9200444221496582,-0.36447158455848694,0.14380185306072235,0.025094004347920418,-0.2991773188114166,2.6677732467651367,-0.15116918087005615,0.04182446002960205,-0.027361974120140076
131,1.5722242519352236,0.7021354790026747,-2.7361314325907604,0.7634637951850891,-0.6458495259284973,0.0010901698842644691,0.26537519693374634,-1.9168872833251953,3.0230016708374023,-0.1994532346725464,0.025473058223724365,0.020623087882995605
132,1.5108110438398186,0.9095537750401642,-2.741202869448844,0.6129936575889587,-0.7892298102378845,-0.03681476414203644,0.01215858943760395,0.6633288860321045,0.9287790656089783,-0.31436389684677124,0.12087947130203247,-0.16469281911849976
133,1.453547972729429,0.9773021911797736,-2.6713554530960817,0.5554216504096985,-0.8289915919303894,-0.06542234122753143,-0.01995656080543995,0.23757456243038177,0.3400563597679138,-0.2125108242034912,0.0033689141273498535,-0.3259961009025574
134,1.5198317411151359,0.9631063653675098,-2.686731678889102,0.5702313184738159,-0.8209691643714905,-0.02908679097890854,-0.18558244407176971,0.007274635136127472,-0.1271270215511322,-0.06699645519256592,-0.02152961492538452,0.07147568464279175
135,1.4414769223173387,0.912208366369898,-2.597953244749454,0.6068902611732483,-0.790857195854187,-0.07892313599586487,-0.6121530532836914,0.21394425630569458,-0.10694368183612823,0.14715325832366943,-0.0005092620849609375,-0.051859959959983826
136,1.3659899399455548,0.8946295813645352,-2.5447343353290597,0.6127284169197083,-0.7799773216247559,-0.1272752434015274,-0.4188011884689331,-0.20625300705432892,-0.33532610535621643,0.015567362308502197,-0.00958859920501709,-0.020597681403160095
137,1.4084387091487713,0.8722371688224247,-2.5397242644520275,0.6346574425697327,-0.7657696008682251,-0.10395650565624237,-0.034674085676670074,0.909166693687439,-0.09901885688304901,0.054933011531829834,0.013435006141662598,0.021375954151153564
138,1.364608330054671,0.881024332608971,-2.534786553864159,0.6228821873664856,-0.7713911533355713,-0.13028234243392944,-0.022095952183008194,-0.8357983827590942,0.2309071570634842,0.0835997462272644,0.006849527359008789,-0.028760015964508057
139,1.3254727793339927,0.869733253949296,-2.5288274115385363,0.6257174015045166,-0.7641568779945374,-0.15665866434574127,0.028871586546301842,-0.046243228018283844,-0.3159407079219818,-0.04435759782791138,-0.07112443447113037,-0.07927273213863373
140,1.3234653032649242,0.831004965711069,-2.5340735780475785,0.6536193490028381,-0.738609254360199,-0.16503943502902985,-0.04210411757230759,0.547992467880249,-0.43604809045791626,-0.025689661502838135,-0.0028305649757385254,0.059997931122779846
141,1.419727377640095,0.8628792539226261,-2.4970173999927163,0.6428468823432922,-0.7597179412841797,-0.09785979241132736,-0.23947612941265106,2.288767099380493,1.0928435325622559,-0.018228352069854736,0.030942916870117188,0.007893979549407959
142,1.6101304985545302,0.9737509424446045,-2.507530159177265,0.5617667436599731,-0.8270003199577332,0.022108031436800957,0.3898391127586365,0.919875979423523,0.8804814219474792,0.034653544425964355,0.08960407972335815,-0.2041912078857422
143,1.7926269895537752,0.9707977991971923,-2.6843683048361866,0.550805389881134,-0.8253364562988281,0.12422997504472733,0.8584993481636047,1.2622427940368652,0.34559598565101624,0.09656393527984619,-0.1126517653465271,0.259696364402771
144,2.0566498419840658,1.0113899029752396,-2.8493263504724737,0.46927058696746826,-0.8475702404975891,0.24780945479869843,1.0063245296478271,0.691538393497467,0.24521946907043457,0.027158796787261963,-0.03644752502441406,-0.09072020649909973
145,2.1394329272467747,1.016895891335124,-2.9295574526370847,0.443233460187912,-0.8504793047904968,0.28324687480926514,0.2626166045665741,0.5913442969322205,0.5157899260520935,0.06917184591293335,0.029770195484161377,-0.052839308977127075
146,2.2242271315771114,1.0121591874364593,-2.9825111912387543,0.4208460748195648,-0.8479782342910767,0.3222132623195648,-0.04072099179029465,-0.027819685637950897,0.10868068039417267,0.032294124364852905,-0.061231911182403564,0.1034000813961029
147,2.1775906764320747,0.9993619013349321,-2.9338250198367337,0.44428887963294983,-0.841126024723053,0.30840665102005005,-0.056571099907159805,-0.20360711216926575,-1.0058714151382446,-0.08248770236968994,-0.0734858512878418,-0.052989810705184937
148,2.0879863177111786,0.8972899311240053,-2.8295662468658223,0.54215407371521,-0.7816394567489624,0.3083970546722412,-0.03527235612273216,0.42263510823249817,-1.0836129188537598,0.02773118019104004,-0.013846993446350098,-0.04884505271911621
149,2.070199475437652,0.8149558834490949,-2.791706904126962,0.602130651473999,-0.7276953458786011,0.32847896218299866,0.21780170500278473,-0.0726793110370636,0.14329099655151367,0.09539443254470825,-0.036602139472961426,0.01290595531463623
150,2.061184159727922,0.8363291499209929,-2.8353125467169717,0.591209888458252,-0.7421879768371582,0.315638929605484,-0.22436967492103577,-0.5932419300079346,0.3100857436656952,0.12839454412460327,-0.0921931266784668,0.147984117269516
151,2.0728937058617465,0.8833833053122295,-2.881772517570565,0.5562218427658081,-0.7728901505470276,0.3053818941116333,0.4042462408542633,0.42473480105400085,1.0242208242416382,0.04508119821548462,-0.08457750082015991,0.04973587393760681
152,2.171558612245041,0.9107251599781093,-2.9714042294536083,0.5058092474937439,-0.789948582649231,0.34660905599594116,0.23134995996952057,0.4221763014793396,0.3662211000919342,0.0017285346984863281,-0.016447842121124268,0.022607535123825073
153,2.3729511501386997,0.8920253161041144,-3.1185101767518804,0.43644681572914124,-0.7783449292182922,0.4513242840766907,0.9718396663665771,0.40370193123817444,0.38917848467826843,0.03004494309425354,0.021707236766815186,-0.06748944520950317
154,2.496218510369446,0.9055017029239708,3.0694186168477757,0.3712988793849945,-0.786734938621521,0.4931381642818451,0.13330112397670746,0.5849496722221375,0.6517711877822876,0.008553385734558105,-0.039833664894104004,-0.0064896345138549805
155,2.5393043496760814,0.8939034571004947,3.0474988377827996,0.3548595607280731,-0.779522716999054,0.5161583423614502,0.13075757026672363,0.5586175322532654,0.10331009328365326,0.10713079571723938,-0.014972031116485596,-0.03654402494430542
156,2.6043283685829968,0.8803430238601347,3.033669599719654,0.32595065236091614,-0.7709574103355408,0.5471568703651428,0.6515666246414185,-0.0492507629096508,-0.35185888409614563,-0.10254675149917603,0.0015025138854980469,-0.1209026575088501
157,2.6163643936715837,0.7658728286211627,2.9913275712955696,0.3614054024219513,-0.6931663751602173,0.6236235499382019,0.6183419227600098,-0.2766348719596863,-0.3753281831741333,0.05341997742652893,0.06635063886642456,0.0772889256477356
158,2.590046448121816,0.7631846232184776,2.9951683434584986,0.3786659240722656,-0.6912263035774231,0.6154821515083313,-0.025318283587694168,-0.20329917967319489,-0.13750891387462616,0.061870574951171875,0.0718262791633606,-0.049945712089538574
159,2.578030552609017,0.7398058548941314,3.001619444143649,0.3945603668689728,-0.6741445064544678,0.6243805289268494,0.001576784998178482,0.4009561240673065,0.28088340163230896,0.013993650674819946,-0.037220120429992676,0.11281734704971313
160,2.592030282357082,0.7066544727687186,2.995223302504333,0.39724001288414,-0.6492930054664612,0.6485517024993896,0.3405531942844391,0.22738146781921387,0.06721004843711853,0.04764527082443237,-0.060210227966308594,-0.004310309886932373
161,2.654862586810253,0.6582551062887757,2.9186756216650647,0.37000927329063416,-0.6117374897003174,0.6991924047470093,0.9717146754264832,0.2719002068042755,0.2338859885931015,0.0022593140602111816,-0.27014416456222534,-0.0884748101234436
162,2.7576712089847297,0.4626129827869338,2.8283952816373032,0.33518925309181213,-0.44628795981407166,0.829744279384613,3.0035433769226074,0.6026221513748169,-0.6695489287376404,0.04357978701591492,-0.1444714367389679,-0.135728657245636
163,2.82764269612915,0.19575982237436196,2.7623650131800765,0.30291956663131714,-0.19451190531253815,0.9329549074172974,2.1670725345611572,0.5204110741615295,0.7227022051811218,0.15765172243118286,-0.03498029708862305,-0.03441059589385986
164,2.893937498528104,0.07197593930831485,2.6167146123757483,0.2444966733455658,-0.07191380858421326,0.9669798612594604,0.9824615120887756,0.5107245445251465,1.0306416749954224,0.1347910612821579,0.04977329820394516,-0.008102178573608398
165,2.940739753580401,0.016600456374604715,2.4872018668279914,0.19947774708271027,-0.01659969426691532,0.9797621369361877,0.4569619596004486,0.4005022943019867,1.088380217552185,-0.021361827850341797,0.10124018788337708,-0.059748291969299316
166,2.9702430167092393,-0.03815554813364296,2.4102107756563353,0.17038826644420624,0.03814629092812538,0.9846383333206177,0.6969749927520752,0.26958006620407104,0.2072913944721222,-0.09349924325942993,0.13771125674247742,-0.03912752866744995
167,2.9877802525267745,-0.09905834504560997,2.368412498336949,0.15245558321475983,0.09889642149209976,0.9833498597145081,0.6274093985557556,0.06254629045724869,0.5979775190353394,-0.010121583938598633,0.10062749683856964,-0.0014772415161132812
168,2.9878836735017336,-0.1048669526573289,2.3285026569997056,0.1522633284330368,0.10467485338449478,0.982781171798706,-0.32731494307518005,0.05413796380162239,0.708152711391449,0.1088297963142395,0.11575359106063843,0.0648871660232544
169,3.0145283350560286,-0.013565019928127975,2.2307339719464867,0.12671099603176117,0.013564604334533215,0.9918467402458191,-0.599601686000824,0.5468635559082031,1.0210081338882446,0.05621135234832764,0.04580733925104141,0.04077637195587158
170,3.086686737698682,0.13777957060632956,2.079167241770023,0.05435827374458313,-0.13734406232833862,0.9890307188034058,-1.6998499631881714,0.745070219039917,2.6420907974243164,0.07634850591421127,0.05558748543262482,-0.005250811576843262
171,-3.043458340966577,0.32305432081505236,1.7772314264442715,-0.09290853142738342,-0.31746435165405273,0.9437075257301331,-1.8949083089828491,1.0204236507415771,2.680361270904541,-0.0008566975593566895,0.06720507144927979,-0.024060606956481934
172,-2.843005218018837,0.44670029245636456,1.4089011179239603,-0.26530569791793823,-0.43199196457862854,0.8619721531867981,-2.234229326248169,0.27352583408355713,3.325705051422119,0.020753055810928345,0.22428926825523376,0.0009887218475341797
173,-2.594859064478023,0.5147582990936911,1.0019107030671053,-0.45252686738967896,-0.49232447147369385,0.7435294985771179,-1.731273889541626,1.0342795848846436,2.7905397415161133,0.09878233075141907,0.028121531009674072,0.05026322603225708
174,-2.359978251627827,0.4798929400786846,0.6663783889845877,-0.6248571872711182,-0.4616841971874237,0.6296038031578064,-1.5852683782577515,0.5789318084716797,2.840317487716675,0.037851691246032715,-0.005143105983734131,0.006901264190673828
175,-2.1446632223721025,0.3624514395092825,0.3135325275693149,-0.7852461338043213,-0.3545674681663513,0.5076127052307129,-1.7578320503234863,0.605562150478363,2.5095841884613037,-0.06810176372528076,0.08917132019996643,-0.021330296993255615
176,-2.0551200600801103,0.2704062714687227,0.14287848317308632,-0.8528315424919128,-0.26712295413017273,0.4486907720565796,-0.8668497204780579,0.18488261103630066,1.0568827390670776,-0.05784332752227783,0.023424923419952393,0.026925593614578247
177,-2.014828326854903,0.23194218145085074,0.05995639881137958,-0.8788455724716187,-0.22986812889575958,0.41808050870895386,-0.46977078914642334,0.23052091896533966,0.7058541178703308,-0.0008083581924438477,-0.026708409190177917,0.003260493278503418
178,-1.9902355058164232,0.19058140073166913,0.01062887175018281,-0.8967812657356262,-0.18942980468273163,0.39987480640411377,-0.012519650161266327,0.14249637722969055,0.22212402522563934,-0.016136884689331055,-8.435547351837158e-05,-0.01071465015411377
179,-1.9881123489011354,0.17763901800176365,0.01823600546058964,-0.8997943997383118,-0.1767062395811081,0.39893028140068054,0.33117684721946716,0.001817213138565421,0.13242872059345245,-0.013261258602142334,-0.09949314594268799,-0.03290238976478577
180,-2.01002553350337,0.13579125118336136,0.06307500505802793,-0.8967483043670654,-0.13537432253360748,0.42132753133773804,0.7911847233772278,-0.4006024897098541,0.15563493967056274,-0.06614255905151367,-0.058259740471839905,-0.0572221577167511
181,-2.0891075837617445,0.07822217532805659,0.1259812949885934,-0.8660008311271667,-0.0781424269080162,0.49389901757240295,0.9459097981452942,-1.2432101964950562,0.15242260694503784,-0.05692696571350098,-0.015180319547653198,-0.07516732811927795
182,-2.1598884709289106,0.047524945004713395,0.19178485977858276,-0.8305067420005798,-0.04750705510377884,0.554979145526886,0.394938200712204,-0.35001134872436523,-0.24129965901374817,-0.010267853736877441,0.011053808033466339,-0.014253377914428711
183,-2.208058170903535,0.009624905505892104,0.23741027786213018,-0.8036907911300659,-0.009624756872653961,0.5949694514274597,0.32630327343940735,-0.37880873680114746,0.4184136390686035,0.013483762741088867,-0.03590746968984604,0.04132205247879028
184,-2.2387323879782235,0.004909475562071863,0.31535836106525544,-0.7850923538208008,-0.0049094557762146,0.61935955286026,1.0553383827209473,-0.22599706053733826,-1.4476317167282104,-0.035678088665008545,0.0274466872215271,-0.01604217290878296
185,-2.2531494570242003,0.04661232056843237,0.4676690328832663,-0.7752479314804077,-0.04659544304013252,0.6299359798431396,0.7429723739624023,0.12246070802211761,-0.8941287398338318,0.07262653112411499,-0.007557999342679977,0.020973384380340576
186,-2.2308774819632893,0.09344703021578814,0.62354664099346,-0.7864961624145508,-0.09331108629703522,0.6105058193206787,1.1690617799758911,0.35545438528060913,-2.4131393432617188,0.011029064655303955,0.04797718673944473,0.02757108211517334
187,-2.2873974085471045,0.2783748081438521,0.9666451558633539,-0.7250142693519592,-0.2747933864593506,0.6315398216247559,1.912643313407898,0.055174749344587326,-4.246168613433838,-0.00792628526687622,0.04865819215774536,-0.01043093204498291
188,-2.4696332179898333,0.4720824454903131,1.4394947149607595,-0.5544313788414001,-0.4547419548034668,0.6970047354698181,1.3125754594802856,0.09604381769895554,-3.995246171951294,0.0004610419273376465,0.10293528437614441,0.0020155906677246094
189,-2.64089872812471,0.5985526043084549,1.7695363773506936,-0.3965812921524048,-0.5634472966194153,0.7247413992881775,-0.14316314458847046,0.14677368104457855,-2.3170602321624756,-0.05474311113357544,0.013398528099060059,0.03119415044784546
190,-2.8042638843925074,0.6811920507908111,1.9916119025469066,-0.2571031451225281,-0.6297194957733154,0.7330426573753357,-0.6475858092308044,-0.5542067289352417,-2.4096784591674805,-0.09673294425010681,0.17078083753585815,0.015172064304351807
191,-3.0292068250091253,0.8147745940312683,2.2211227335458306,-0.07693811506032944,-0.7275710105895996,0.6817044019699097,-1.3748465776443481,-1.1095308065414429,-1.9312770366668701,-0.06428197771310806,0.1722884178161621,0.05219751596450806
192,3.023400152158899,0.9557838165487551,2.3846675976396408,0.06803476065397263,-0.8167662024497986,0.5729438662528992,-2.0740227699279785,-0.6775911450386047,-0.5120274424552917,0.10474050790071487,-0.09145230054855347,-0.01114565134048462
193,2.876809411316368,1.0795359074309967,2.513269994075244,0.12345383316278458,-0.8817389607429504,0.45529747009277344,-0.7361139059066772,-0.10431089997291565,-0.4712520241737366,0.07669569551944733,-0.03467351198196411,0.03904157876968384
194,2.817054511111199,1.1610029426067223,2.5652366021380586,0.12704454362392426,-0.9172031879425049,0.37762153148651123,0.10713624954223633,-0.2128630131483078,0.390097975730896,0.008667141199111938,-0.09663653373718262,0.01004326343536377
195,2.7323348703894954,1.174511510153861,2.63607625289566,0.15359795093536377,-0.9225013852119446,0.35411709547042847,-1.0421853065490723,-0.22747820615768433,-0.05541131645441055,0.04026496410369873,0.00695878267288208,0.10643899440765381
196,2.6051392337288335,1.2609379918040529,2.7365445621471145,0.1558438539505005,-0.9523767828941345,0.2620903253555298,-0.7786952257156372,-0.5589468479156494,-0.27684056758880615,-0.01595127582550049,-0.010269701480865479,-0.06917345523834229
197,2.395434920592358,1.2570730574838478,2.9308249592203026,0.20948611199855804,-0.9511911273002625,0.22660739719867706,-0.4136894643306732,-0.16540345549583435,-0.855400800704956,0.0011614412069320679,-0.07189536094665527,-0.010787144303321838
198,2.056487794678958,1.2809761076651884,-3.0397260579163867,0.25273072719573975,-0.9582952857017517,0.1334080845117569,-1.1384254693984985,-0.4244515299797058,-0.2574686110019684,0.05792301893234253,0.024426758289337158,0.01692153513431549
199,1.8220756233511697,1.2557651858514,-2.8121861419851344,0.30011510848999023,-0.9507867097854614,0.07704106718301773,-0.061133719980716705,0.20013995468616486,-0.39177319407463074,0.013178318738937378,0.03181099891662598,0.006806008517742157
200,1.8718257157486853,1.2488335665912078,-2.828640016476821,0.3022005259990692,-0.9486161470413208,0.09382253140211105,-0.02730841562151909,0.4027251601219177,0.11839058250188828,-0.0038148462772369385,-0.0329667329788208,0.042743705213069916
201,1.8350780363181358,1.2647420280032837,-2.7402685745294852,0.29083776473999023,-0.9535298347473145,0.07870404422283173,-0.42273980379104614,0.31434905529022217,0.018682150170207024,-0.006444424390792847,0.08426713943481445,0.030594706535339355
202,1.814363014388381,1.2667176834229184,-2.7087637469130454,0.2905762195587158,-0.9541231989860535,0.07220827788114548,-0.1538836807012558,-0.17147928476333618,-0.14489641785621643,-0.006396591663360596,0.021338343620300293,-0.014469042420387268
203,1.584534415036259,1.2688085819031836,-2.5359560374853043,0.2973910868167877,-0.954747200012207,0.004085842054337263,-0.9118745923042297,-0.9106206297874451,0.21009433269500732,-0.04758942127227783,0.02132117748260498,0.05569815635681152
204,1.2512510622085056,1.2738095225046366,-2.2206166160639964,0.2778262495994568,-0.9562225937843323,-0.09192848205566406,-0.6930579543113708,0.039745599031448364,0.09816790372133255,-0.0145358145236969,0.03343212604522705,-0.010854721069335938
205,0.9013072909597121,1.248054552107367,-1.860815764741057,0.24870401620864868,-0.9483693838119507,-0.19683003425598145,-1.28041672706604,-0.0886293277144432,-0.0931231826543808,-0.0989084541797638,0.011708617210388184,0.040320634841918945
206,0.6097907288398104,1.1344164229643532,-1.5438292563188423,0.2420564889907837,-0.906287670135498,-0.3464842736721039,-1.7076754570007324,0.43874043226242065,0.0430140420794487,-0.0848909467458725,0.07532453536987305,0.04379570484161377
207,0.577938636199061,1.0542075068661685,-1.4594906771052383,0.269826203584671,-0.8695091009140015,-0.41370031237602234,-0.3379109501838684,0.0622110478579998,-0.38912874460220337,0.03495287895202637,-0.06667870283126831,-0.07197165489196777
208,0.5251587483617394,0.9966338840705058,-1.39375778816516,0.27229923009872437,-0.8396474719047546,-0.46994155645370483,-1.0879886150360107,0.3853122591972351,0.9108275771141052,0.08750298619270325,-0.01598900556564331,0.09365984797477722
209,0.48211380343813376,0.9898412292946525,-1.3073134805780016,0.254463255405426,-0.8359388709068298,-0.48626601696014404,0.665107011795044,0.1490248590707779,-0.0683131217956543,-0.06967931985855103,0.06405776739120483,-0.21888840198516846
210,0.5788072658024197,1.0801764356496553,-1.3915104389501307,0.2577437460422516,-0.8820409774780273,-0.394426167011261,1.3374699354171753,0.5577840805053711,0.2707059681415558,-0.0190047025680542,-0.020577430725097656,-0.05114567279815674
211,0.9335143034370623,1.2918643642416638,-1.6561987561536002,0.22128625214099884,-0.9613500237464905,-0.16382433474063873,2.4186718463897705,0.8222351670265198,0.5611250400543213,0.01009802520275116,0.09321653842926025,-0.007776021957397461
212,1.9542588378054457,1.369267790249768,-2.623138764468885,0.18562985956668854,-0.9797617793083191,0.07488924264907837,1.935196042060852,0.8186135292053223,0.5278312563896179,0.040535926818847656,0.05373638868331909,0.08113181591033936
213,2.7990770456933554,1.2733610152321564,2.8738761216946567,0.09842954576015472,-0.9560912847518921,0.27604568004608154,1.4512898921966553,0.572445273399353,0.7756854295730591,0.044911518692970276,0.10075986385345459,-0.006636500358581543
214,3.0616905086087596,1.1909166889235272,2.6335257817460533,0.02959689125418663,-0.9287092685699463,0.36962559819221497,0.23781870305538177,0.18830199539661407,0.5488668084144592,-0.022211642935872078,-0.0071274638175964355,0.013751477003097534
215,3.106295203246767,1.2007083697098595,2.582340209052781,0.01276435051113367,-0.932295560836792,0.3614722490310669,0.05349662899971008,-0.22183187305927277,0.13841284811496735,0.0030285120010375977,-0.05674868822097778,-0.039145588874816895
216,3.078200866946467,1.2248286585238766,2.602940712473283,0.02148224413394928,-0.9407477378845215,0.33842650055885315,-0.6190508008003235,-0.0937020480632782,-0.30046993494033813,-0.02216891013085842,0.00442272424697876,-0.0006880462169647217
217,2.9670766819917804,1.2902030031247882,2.6872349155606163,0.048083145171403885,-0.9608913064002991,0.2727200984954834,-0.783092737197876,-0.5695310235023499,-0.0810149684548378,0.03277317434549332,0.05633491277694702,-0.01097080111503601
218,3.034596741289915,1.3636688875538132,2.5835495775306496,0.021961763501167297,-0.9786257147789001,0.2044740915298462,-0.35396602749824524,0.07599729299545288,0.9287904500961304,0.157191663980484,-0.0643889307975769,-0.03870245814323425
219,-2.673451914846212,1.3829364241242876,2.0257573660469776,-0.08426996320486069,-0.9824061393737793,0.16666360199451447,-0.607454240322113,0.28030383586883545,1.1455235481262207,0.026332318782806396,0.012420237064361572,0.011589527130126953
220,-2.204944884349628,1.3138179621842514,1.5775629386142709,-0.20474497973918915,-0.9671623706817627,0.15058746933937073,-0.11447778344154358,0.22838859260082245,0.2527504563331604,-0.22866567969322205,0.0676720142364502,-0.01058804988861084
221,-2.3725887112995108,1.3654088837352683,1.7344931846834901,-0.1418285369873047,-0.9789820313453674,0.1465568095445633,0.27121976017951965,-0.37881118059158325,-0.9041302800178528,-0.040422454476356506,0.07412058115005493,-0.046611666679382324
222,-2.736996047358431,1.4019154590834915,2.076524325146014,-0.06616414338350296,-0.985773503780365,0.15450894832611084,0.00019455235451459885,-0.14530184864997864,-0.7921436429023743,0.026384472846984863,-0.010350823402404785,0.02397310733795166
223,-2.835819156588201,1.397239349898531,2.177768816162444,-0.051983922719955444,-0.9849767684936523,0.16467618942260742,-0.14744631946086884,0.10301095992326736,0.49259886145591736,0.13006314635276794,-0.03022092580795288,0.006145939230918884
224,-2.540520519191568,1.3978438463936347,1.8838082287667957,-0.09732184559106827,-0.9850809574127197,0.14192818105220795,-0.03914790228009224,0.0764479711651802,0.33571064472198486,-0.04998646676540375,0.03548091650009155,-0.04976513981819153
225,-2.522520261945611,1.4020888687841553,1.8716480021405248,-0.09743376821279526,-0.9858025908470154,0.1367473155260086,-0.11634024977684021,-0.020259227603673935,-0.28596368432044983,-0.05301789194345474,0.015618324279785156,-0.006376281380653381
226,-2.675415793876262,1.4006807507812975,2.027925760396653,-0.0760943666100502,-0.985565185546875,0.15123127400875092,0.2495899200439453,0.06911854445934296,-0.020623335614800453,0.0860888659954071,-0.0120086669921875,0.00852823257446289
227,-2.621085731275739,1.3693774895485784,2.0055661889321867,-0.09949366748332977,-0.9797837138175964,0.17356519401073456,0.6512409448623657,0.01918880082666874,-0.29017943143844604,-0.007699310779571533,0.06361550092697144,-0.10647225379943848
228,-2.857022382836788,1.3626058969024764,2.2236868349047363,-0.058027125895023346,-0.978406548500061,0.19837720692157745,0.09381571412086487,0.04305342957377434,-0.4861665666103363,0.01977333426475525,0.047773003578186035,0.025042057037353516
229,2.995252752272261,1.3526592196945257,2.6129571360578088,0.03155668079853058,-0.9763022661209106,0.21409806609153748,-0.07211703062057495,-1.489881157875061,-1.181990146636963,-0.08284145593643188,-0.00625687837600708,-0.023485302925109863
230,2.327088782531623,1.3836250122228728,-3.0993533583528916,0.1353522390127182,-0.9825345277786255,0.12769392132759094,-0.49452152848243713,-0.7696732878684998,-0.5885787010192871,-0.04201421141624451,0.07599461078643799,-0.0828942060470581
231,2.114581036771971,1.3048543395154857,-2.934581379587496,0.22490864992141724,-0.9648453593254089,0.1359766125679016,0.5187118053436279,0.1007537841796875,-0.7677010893821716,0.00903908908367157,-0.0042250752449035645,0.03815673291683197
232,2.313794338185594,1.2556680656242716,-3.0567390619362222,0.22825247049331665,-0.9507566094398499,0.2096732258796692,0.5004869699478149,0.6357271075248718,-0.30925488471984863,0.05359265208244324,-0.04565763473510742,0.05499044060707092
233,2.3430476889748375,1.2301938017870775,-3.0499870434707064,0.23929713666439056,-0.9425535798072815,0.2330864518880844,0.006184332072734833,0.23951585590839386,-0.27276986837387085,-0.03792695701122284,0.05452275276184082,-0.01975339651107788
234,2.501354728070015,1.2180784219724203,3.1391672309702403,0.20636670291423798,-0.938437283039093,0.27703437209129333,0.3038461208343506,0.9587534070014954,0.5360039472579956,-0.007590487599372864,-0.007256567478179932,0.04636034369468689
235,2.6283273294526324,1.1980783207149879,3.0665958491529586,0.1788058578968048,-0.9313410520553589,0.3172265291213989,0.3841273784637451,0.476040780544281,0.19407643377780914,0.09000825881958008,0.025014638900756836,-0.03264996409416199
236,2.5211304474884595,1.197867657226533,3.1357520217461823,0.21183419227600098,-0.9312642812728882,0.29643452167510986,-0.520875871181488,-1.1349555253982544,-0.6110743880271912,-0.004802897572517395,-0.009775817394256592,-0.046281903982162476
237,2.335054237939609,1.1875308947805658,-3.020420947708541,0.2699533700942993,-0.9274484515190125,0.2587742805480957,0.028795156627893448,-0.005058238748461008,0.14319956302642822,0.07631427049636841,0.012653708457946777,-0.0072332024574279785
238,2.3847818516590054,1.1989368381760295,-3.0677709815799505,0.2494775950908661,-0.9316533207893372,0.2641652822494507,0.06744588911533356,0.3191635310649872,0.24602286517620087,0.048633381724357605,0.0010502338409423828,0.025461792945861816
239,2.6327812302082583,1.1718064579720044,3.1170559422644226,0.18924789130687714,-0.9214538931846619,0.33927595615386963,0.8422779440879822,2.1719565391540527,0.11069602519273758,0.07689593732357025,-0.029672324657440186,-0.02343425154685974
240,2.9698996409558736,1.09892137446808,2.9859780698059417,0.07766152918338776,-0.8907175660133362,0.44787442684173584,0.5052071213722229,1.6271668672561646,0.15420083701610565,-0.011804580688476562,0.01945573091506958,-0.03759586811065674
241,3.106335226258561,1.0859625189772464,2.9068541807385646,0.016428718343377113,-0.8847523927688599,0.4657716751098633,-0.41255754232406616,-0.3900451362133026,0.11822091042995453,-0.07844044268131256,-0.03433018922805786,0.03776836395263672
242,2.987049736881442,1.1658207814851682,2.907482240244341,0.06064729392528534,-0.9191120266914368,0.3893009126186371,-0.8453319072723389,-1.6110095977783203,-0.0007026884704828262,-0.03954438865184784,0.03608590364456177,-0.03428983688354492
243,2.7799469731797632,1.2596166826257953,2.992728594965473,0.10833136737346649,-0.951973021030426,0.28637662529945374,-0.8180607557296753,-0.9811177849769592,-0.07941186428070068,0.01950675994157791,0.0092698335647583,-0.008361488580703735
244,2.559296972621675,1.2947340938502085,-3.1352419572695083,0.14989782869815826,-0.9621362090110779,0.22765100002288818,-0.5075331330299377,-0.442800372838974,-0.41708070039749146,0.047596707940101624,-0.04856032133102417,0.035380035638809204
245,2.294219212497032,1.3158778432997773,-2.917274987979546,0.18901044130325317,-0.9676838517189026,0.16692307591438293,-0.3805077075958252,-0.5626617670059204,-0.39356231689453125,-0.03486613929271698,-0.010862410068511963,-0.03760479390621185
246,2.15558760658544,1.239030503615852,-2.8211017179932893,0.27158811688423157,-0.9454686641693115,0.17980165779590607,0.18311868607997894,-0.35376137495040894,-0.8131362199783325,0.055285632610321045,0.024021029472351074,0.06432364881038666
247,2.002791750794423,1.213435931508543,-2.6956402947602998,0.31766727566719055,-0.9368234276771545,0.1464567929506302,-0.16400916874408722,-0.588316023349762,0.01801242306828499,-0.005121469497680664,-0.05104595422744751,-0.039751991629600525
248,1.9316897993237048,1.2157819669125933,-2.6856636006876724,0.325211763381958,-0.9376415014266968,0.12274248152971268,-0.7205561399459839,-0.8400074243545532,0.10680601000785828,0.03613162040710449,-0.04027903079986572,0.1150047779083252
249,1.808445002460941,1.3048626245158679,-2.608173201201348,0.25542333722114563,-0.9648475646972656,0.06187017261981964,-0.31335458159446716,-0.3375173807144165,1.0729477405548096,0.07346457242965698,0.0523567795753479,0.00622975081205368
250,1.7664726176884453,1.3498298849266888,-2.5877968355393413,0.21498967707157135,-0.9756860733032227,0.04261365532875061,0.7248810529708862,0.050432879477739334,-0.17446070909500122,-0.12522223591804504,-0.006781458854675293,-0.13892710208892822
251,2.006242843833467,1.268930043704296,-2.8304720396181984,0.2695586681365967,-0.9547833204269409,0.12540669739246368,0.7347720265388489,0.10809287428855896,-0.9571678042411804,-0.023815900087356567,0.03431218862533569,-0.02086867392063141
252,1.9531596606986568,1.2057821958907258,-2.7433132255501707,0.3311847746372223,-0.9341186881065369,0.13318783044815063,-0.4167405068874359,0.22901584208011627,-0.27806755900382996,-0.01264229416847229,-0.03525686264038086,-0.01906728744506836
253,1.844495122608812,1.1564111306297506,-2.633463533769836,0.38764041662216187,-0.9153640270233154,0.1088278517127037,-0.2669368088245392,-0.2672896087169647,-1.0795071125030518,0.008813410997390747,0.010548412799835205,-0.03518904000520706
254,1.784189567049619,1.1008910177750528,-2.6009055100698077,0.44253137707710266,-0.8916111588478088,0.09589319676160812,-0.0008470183238387108,-0.16223478317260742,0.030815761536359787,0.05632421374320984,-0.06316173076629639,0.019264809787273407
255,1.6486219454568367,1.1090657671245705,-2.4955615196351646,0.44415000081062317,-0.8952828645706177,0.034636206924915314,-0.6799449920654297,-0.6691387295722961,0.3720884919166565,0.1602049171924591,-0.13576889038085938,0.05418527498841286
256,1.4288355843801155,1.0858109152678361,-2.3581805091653143,0.4615056812763214,-0.884681761264801,-0.0659593790769577,-0.8081158995628357,-0.9503183960914612,-0.0880596935749054,0.2194330096244812,-0.06948083639144897,0.1382555365562439
257,1.1373418985089954,1.1271377807802652,-2.148903484956153,0.3895500898361206,-0.9031872749328613,-0.180287167429924,-0.532429039478302,-1.2128362655639648,0.9306755661964417,0.1431494951248169,-0.014583051204681396,0.0712326169013977
258,0.691155989732874,1.2480311562082362,-1.7543060602100826,0.2021859586238861,-0.9483619332313538,-0.24439804255962372,-0.18041303753852844,-1.2059258222579956,2.8701183795928955,0.4354178309440613,0.15449297428131104,0.038083985447883606
259,-0.3391320400217202,1.3486912601506589,-0.7979248931895562,-0.07328140735626221,-0.9754359126091003,-0.20773692429065704,0.985038697719574,-0.6323056817054749,2.5645248889923096,0.057244427502155304,0.23048663139343262,-0.11135485768318176
260,-1.3888209042373365,1.1210242353346394,0.22489490072889556,-0.4275817573070526,-0.9005461931228638,-0.07867978513240814,1.474527359008789,-0.7759582996368408,4.342933177947998,0.12066650390625,0.33388054370880127,-0.22811341285705566
261,-1.745390586895977,0.8444886377534688,0.5123303019572897,-0.6540170907974243,-0.7476316094398499,0.11536221951246262,1.3777217864990234,0.0940677598118782,1.0994008779525757,-0.4498952031135559,-0.05220353603363037,-0.06583215296268463
262,-1.7617365223944361,0.6088514290514079,0.6893402494540307,-0.8053973913192749,-0.5719256401062012,0.15567927062511444,1.7346378564834595,0.7807213068008423,2.662583351135254,0.020439565181732178,0.08079105615615845,-0.06556083261966705
263,-1.7807471736853393,0.3974283166149629,0.7929961131163351,-0.9018121957778931,-0.3870483934879303,0.19216811656951904,0.8340210914611816,-0.24414081871509552,1.492904782295227,-0.06684637069702148,0.11850893497467041,0.12855640053749084
264,-1.7802316385536263,0.28204415362376767,0.7931744131093994,-0.9395004510879517,-0.2783196270465851,0.19969286024570465,-0.14351266622543335,-0.3421424627304077,0.13912780582904816,-0.11749112606048584,0.043135881423950195,0.028136134147644043
265,-1.79611828949396,0.22574125985132876,0.7290460447559995,-0.9499919414520264,-0.22382888197898865,0.2177516669034958,-0.704926073551178,-0.2656133770942688,1.1113786697387695,0.030070126056671143,-0.11671677231788635,-0.0243922621011734
266,-1.8402780649068278,0.21429529352655788,0.6277353683664676,-0.9418610334396362,-0.21265889704227448,0.2601422667503357,-1.1466861963272095,-0.6510326266288757,0.34973999857902527,0.02654731273651123,0.03649616241455078,0.04218006134033203
267,-1.860873785032386,0.21980096149210354,0.5526509739924175,-0.9351679086685181,-0.21803538501262665,0.27914494276046753,-0.10161766409873962,0.0017822745721787214,0.22396960854530334,-0.024991512298583984,0.07350410521030426,-0.028656572103500366
268,-1.848776941496208,0.20256642932323538,0.5409226594447225,-0.9419499039649963,-0.20118394494056702,0.26880353689193726,-0.046020135283470154,0.037244562059640884,0.0025956416502594948,-0.026037156581878662,0.026348739862442017,-0.04283618927001953
269,-1.847171490773965,0.1987479518084654,0.5381008757226012,-0.9431124925613403,-0.19744208455085754,0.26749861240386963,0.021269001066684723,-0.05733182281255722,-0.06649839878082275,0.019635319709777832,-0.013648003339767456,0.03868424892425537
270,-1.8564724205685217,0.2108821732242357,0.5742758823420374,-0.9382159113883972,-0.20932261645793915,0.2755632698535919,0.3890199065208435,0.14308401942253113,-0.04703634977340698,0.018492400646209717,-0.051709502935409546,-0.09300708770751953
271,-1.8890565410113038,0.23158585796753764,0.6004670500153382,-0.9244258403778076,-0.22952133417129517,0.3045610189437866,0.013270843774080276,-0.6104893684387207,-0.5539748668670654,0.037661075592041016,-0.01002645492553711,0.015797436237335205
272,-1.9150336424470678,0.24655144792217576,0.6205613240210647,-0.9128668904304504,-0.2440611571073532,0.3272733688354492,0.28312286734580994,0.13769209384918213,-0.029653672128915787,-0.023961544036865234,0.019695937633514404,0.0726136863231659
273,-1.9216137625346763,0.2513218237406493,0.641534060004178,-0.9095901846885681,-0.24868448078632355,0.33286917209625244,-0.09994914382696152,-0.29015910625457764,-0.18251991271972656,0.02068936824798584,-0.0041231513023376465,-0.012907624244689941
274,-1.955238555597287,0.290075403109638,0.6532601830210405,-0.888279378414154,-0.2860244810581207,0.35937368869781494,-0.11826170235872269,-0.15687799453735352,-0.21749016642570496,0.03816664218902588,-0.0574508011341095,0.004319489002227783
275,-1.9691312839880555,0.312116316751193,0.6371545514424187,-0.8771767020225525,-0.3070733845233917,0.3691439628601074,-0.10981959849596024,-0.13881000876426697,-0.15454240143299103,-0.007253289222717285,0.025014638900756836,-0.016299694776535034
276,-1.9726002995315202,0.32365335911678883,0.6400440187769981,-0.8725719451904297,-0.3180323541164398,0.37077438831329346,-0.06159355491399765,-0.18534237146377563,-0.16942186653614044,0.07052421569824219,-0.001089930534362793,-0.026703953742980957
277,-1.9855121582132431,0.33421791142088303,0.6507227891263643,-0.8645884394645691,-0.32803046703338623,0.3806345760822296,0.07104690372943878,0.006648327223956585,-0.05038650333881378,-0.011586427688598633,0.00785529613494873,0.020122140645980835
278,-1.9851938655419679,0.33532941335712985,0.6600637964786071,-0.8643755316734314,-0.3290802538394928,0.3802124261856079,0.013280127197504044,0.032443609088659286,0.0012462912127375603,0.009196579456329346,-0.01886594295501709,0.005163609981536865
279,-1.9850275757664404,0.3348431798331563,0.6550473979303076,-0.8645849823951721,-0.3286210596561432,0.3801330029964447,0.03183652088046074,-0.03223860263824463,0.027727454900741577,-0.004586160182952881,-0.0040968358516693115,-0.03177475929260254
280,-1.995651696895231,0.3348444680855496,0.6611411400923781,-0.8604973554611206,-0.3286222815513611,0.38929665088653564,0.04827076196670532,-0.1547679603099823,-0.05636586621403694,-0.0017462968826293945,-0.025244295597076416,-0.023268818855285645
281,-2.015117757838891,0.3398359254680678,0.6689352998180074,-0.8512648344039917,-0.3333324193954468,0.4052621126174927,-0.005725628696382046,-0.3187049627304077,-0.10138873755931854,0.006279051303863525,-0.012950509786605835,0.009715855121612549
282,-2.029185801866418,0.34495844785605045,0.6724166185870801,-0.843937337398529,-0.3381575644016266,0.41643622517585754,0.10082339495420456,-0.10896474868059158,-0.052941471338272095,-0.007030069828033447,0.021476656198501587,-0.000573277473449707
283,-2.0382375796555463,0.34637448538944016,0.6691892002865815,-0.8397050499916077,-0.3394898474216461,0.42384201288223267,-0.10680121928453445,0.04078381136059761,0.10209809243679047,0.0003191232681274414,0.004452645778656006,0.05659624934196472
284,-2.038049897856047,0.33977221937397994,0.6588714896095803,-0.8417676687240601,-0.3332723379135132,0.42468491196632385,-0.033407773822546005,-0.10033822804689407,-0.01493285782635212,-0.013426601886749268,-0.00861617922782898,-0.020052224397659302
285,-2.038148464500401,0.3444662770233734,0.6540052711761334,-0.8403194546699524,-0.33769434690475464,0.424058198928833,-0.10782913863658905,0.09169541299343109,0.07049307972192764,0.01600933074951172,-0.013089865446090698,0.04958978295326233
286,-2.0213770301607075,0.34016579686213333,0.6328764889625719,-0.8486127257347107,-0.3336434066295624,0.41053465008735657,-0.0699772834777832,0.007349420804530382,0.07312676310539246,-0.011525273323059082,0.00683063268661499,-0.06638795137405396
287,-2.029903233024109,0.34262339387800644,0.6316515519590379,-0.8443440198898315,-0.33595916628837585,0.4173904359340668,-0.08572296053171158,-0.19037243723869324,-0.017388224601745605,0.03701663017272949,0.0008608698844909668,0.023939549922943115
288,-2.033919117658388,0.3456632458422681,0.6202515496959622,-0.8417434692382812,-0.33882075548171997,0.42031967639923096,-0.016107890754938126,0.06212841346859932,0.05080544203519821,0.0121535062789917,-0.011048048734664917,-0.03399759531021118
289,-2.038999507876469,0.34637826605086336,0.6200204306034834,-0.8393805027008057,-0.33949339389801025,0.42448103427886963,-0.016867350786924362,-0.19746771454811096,-0.06032043695449829,0.0028175711631774902,0.001938551664352417,-0.000698775053024292
290,-2.041575994101461,0.34772349953426346,0.6140391440636603,-0.8378763198852539,-0.34075844287872314,0.4264347553253174,-0.08096752315759659,0.09120557457208633,0.11084870994091034,-0.004790127277374268,0.020766407251358032,0.011477172374725342
291,-2.0400477949571636,0.34620323534640546,0.6100141349308067,-0.8389884233474731,-0.3393287658691406,0.42538776993751526,-0.05072075128555298,-0.0654514729976654,-0.045170798897743225,0.015593528747558594,0.010395020246505737,-0.009585678577423096
292,-2.0420776674108843,0.3513719635159109,0.6080251481731829,-0.8365493416786194,-0.34418627619743347,0.4262879192829132,-0.02767573483288288,0.02099854312837124,-0.02413509599864483,-0.007109224796295166,0.014260679483413696,0.004208385944366455
293,-2.0418531547910495,0.35521487199705715,0.6099275055549831,-0.8354599475860596,-0.3477918207645416,0.42549651861190796,-0.04553834721446037,-0.028591351583600044,-0.06725995987653732,0.007380843162536621,-0.019319355487823486,-0.00649029016494751
294,-2.046063119682695,0.36589455350859057,0.6112929359314991,-0.8303113579750061,-0.35778477787971497,0.4272861182689667,0.003155350685119629,0.03811521828174591,-0.08357885479927063,-0.008220255374908447,0.007046222686767578,0.028783857822418213
295,-2.0356391572102646,0.36594155295665654,0.6097225329237075,-0.8347049355506897,-0.35782867670059204,0.41860029101371765,0.03144742548465729,0.0800255835056305,-0.02350986935198307,0.016910195350646973,-0.02544158697128296,-0.029791146516799927
296,-2.0251129630326856,0.3623186057753524,0.6093389635799439,-0.8402242064476013,-0.3544432520866394,0.41035717725753784,0.006176006980240345,0.15720656514167786,0.14819420874118805,0.01597505807876587,-0.0022614002227783203,0.010693728923797607
297,-2.0149320636911825,0.3529428542429802,0.610432912419169,-0.8473220467567444,-0.3456607460975647,0.40319207310676575,0.04293195530772209,0.05948479101061821,0.004082714207470417,-0.00533902645111084,-0.006771445274353027,-0.009301692247390747
298,-2.0082908458151705,0.35100600865935494,0.6103059216680768,-0.8505858778953552,-0.34384265542030334,0.39783889055252075,0.04761364683508873,0.07501976937055588,0.0383528470993042,0.005905210971832275,0.004365146160125732,-0.003017723560333252
299,-2.009894065489509,0.3487719046337507,0.616940774075129,-0.8506403565406799,-0.34174391627311707,0.3995276987552643,0.09719270467758179,-0.028583360835909843,-0.05064236372709274,-0.0008002519607543945,-0.006675302982330322,-0.01817995309829712
300,-2.011699489865464,0.3509220846802421,0.6187551693791443,-0.8492509722709656,-0.3437638282775879,0.40074822306632996,-0.007699831388890743,-0.014948547817766666,0.019269771873950958,0.008445918560028076,0.007719576358795166,0.0037927329540252686
301,-2.0121336653542174,0.3472729628788215,0.6192656261869882,-0.8502053618431091,-0.34033483266830444,0.40165001153945923,0.028156261891126633,-0.02934364788234234,-0.018540136516094208,0.00032150745391845703,-0.007214546203613281,-0.02758091688156128
302,-2.015626781221096,0.34957178137648776,0.6200085583848711,-0.8480889201164246,-0.34249553084373474,0.40427979826927185,-0.0015251757577061653,-0.015550784766674042,0.023754768073558807,0.006093621253967285,0.008434832096099854,0.01759517192840576
303,-2.0155468015382496,0.3457294084632863,0.6202474746039239,-0.8493029475212097,-0.33888301253318787,0.4047751724720001,0.039500944316387177,-0.02420232631266117,-0.019194170832633972,-0.010697662830352783,-0.002013593912124634,-0.021718502044677734
304,-2.017047678560191,0.34741258656191876,0.6196522670784427,-0.8481788635253906,-0.34046611189842224,0.40580272674560547,-0.013814551755785942,-0.008165637031197548,0.009975772351026535,-0.0003167390823364258,0.010998308658599854,0.019047796726226807
305,-2.0170590931653223,0.3457933392294095,0.6200667696657125,-0.8486700057983398,-0.33894315361976624,0.40604960918426514,0.028736498206853867,-0.07505866140127182,-0.09304913878440857,-0.00904160737991333,0.0044858455657958984,-0.03472709655761719
306,-2.0306675937744756,0.3588384849701899,0.6219623737222152,-0.8390323519706726,-0.35118693113327026,0.41556304693222046,-0.0705045834183693,-0.16890622675418854,-0.1215534582734108,-0.0006436705589294434,0.018270671367645264,0.009165346622467041
307,-2.033084319418351,0.3614495965324102,0.6157725438192322,-0.837201714515686,-0.35363054275512695,0.4171789884567261,-0.042975522577762604,-0.01816641353070736,-0.034000933170318604,-0.004747569561004639,-0.014014631509780884,-0.023883789777755737
308,-2.0386701435108567,0.37018339323102617,0.6141934052694652,-0.8320700526237488,-0.3617863953113556,0.4204399883747101,-0.09784507006406784,-0.07082341611385345,-0.05618155375123024,0.00345689058303833,-0.014815717935562134,0.02706974744796753
309,-2.033867037457927,0.3737894672912722,0.6068798667107075,-0.8329072594642639,-0.36514586210250854,0.4158531725406647,0.003996815998107195,0.05926404520869255,-0.004748357459902763,0.001761019229888916,-0.004803478717803955,-0.029622793197631836
310,-2.0374311366848934,0.3785298891485474,0.6089332796082798,-0.8298645615577698,-0.3695548176765442,0.418035626411438,-0.0374271385371685,-0.06055428460240364,-0.01504448615014553,0.009399592876434326,0.005968451499938965,0.02816179394721985
311,-2.034447901094874,0.37581802773760903,0.6060716097498512,-0.832001268863678,-0.36703360080718994,0.4160047769546509,0.0188255924731493,0.0808698832988739,0.05863646790385246,0.0005804896354675293,-0.006074309349060059,-0.016071975231170654
312,-2.0376584754408436,0.37691909560417225,0.6093139611211564,-0.8303001523017883,-0.36805757880210876,0.41849175095558167,0.003193468786776066,-0.015395025722682476,0.0023772111162543297,0.00399094820022583,0.0025180280208587646,0.028957009315490723
313,-2.0350661412202995,0.3723851889961871,0.6093398271410687,-0.8328655958175659,-0.36383816599845886,0.41708076000213623,0.06199437752366066,0.08850625902414322,0.053208380937576294,-0.0036668777465820312,-0.004356324672698975,-0.026562660932540894
314,-2.03172984120334,0.3714012023948337,0.6147228880790615,-0.8345729112625122,-0.36292144656181335,0.41445890069007874,0.03362775221467018,0.018741676583886147,-0.00475676916539669,0.012566685676574707,0.017233610153198242,-0.008941292762756348
315,-2.030912031435581,0.3675920114785748,0.6175847517956817,-0.836143970489502,-0.35936933755874634,0.4143869876861572,0.045382045209407806,0.05041693523526192,0.034696340560913086,-0.007285416126251221,-0.002004474401473999,-0.019748985767364502
316,-2.034611727268536,0.36979095397003897,0.6215635121378135,-0.8338964581489563,-0.36142051219940186,0.41712313890457153,-0.027515046298503876,-0.037969060242176056,-0.02956339716911316,-0.011577725410461426,0.013398081064224243,0.020529359579086304
317,-2.0327082540647816,0.368786893783532,0.6166151138516076,-0.8350133895874023,-0.36048415303230286,0.4156966209411621,-0.015185869298875332,0.00394778698682785,0.040050677955150604,0.007346212863922119,-0.0007218718528747559,-0.025682002305984497
318,-2.038337687085578,0.37332327703095924,0.6147914730051275,-0.8311915993690491,-0.36471182107925415,0.41964927315711975,-0.0688977837562561,-0.09770140796899796,-0.05810417979955673,0.001983344554901123,0.016246885061264038,-0.00818091630935669
319,-2.0401981577260093,0.3766897191124764,0.6082502864625567,-0.8293098211288452,-0.3678443133831024,0.42063722014427185,-0.05764148384332657,0.03282240778207779,0.06828474998474121,0.009577274322509766,-0.003188401460647583,-0.004697859287261963
320,-2.0452710068509905,0.38025498897358867,0.6063795001494735,-0.8259936571121216,-0.3711572587490082,0.4242369830608368,-0.05871764197945595,-0.11082569509744644,-0.054827865213155746,0.01880359649658203,-0.011060178279876709,-0.0027890801429748535
321,-2.048441361647456,0.38353281047292165,0.6014990154090474,-0.8235596418380737,-0.37419894337654114,0.42629197239875793,0.020317642018198967,-0.0006433096714317799,0.021695181727409363,0.00515437126159668,-0.00066375732421875,-0.0025554299354553223
322,-2.053687793657062,0.38465813045120906,0.6030528968418356,-0.820938229560852,-0.3752422630786896,0.4304109811782837,-0.05263608694076538,-0.08025331050157547,-0.03804592043161392,0.0008394122123718262,-0.0007342696189880371,0.007897704839706421
323,-2.055884332028706,0.38646454274746467,0.6003105736178926,-0.819389820098877,-0.3769160807132721,0.4318963885307312,-0.0016074851155281067,0.07016672939062119,0.05858471244573593,0.0006490945816040039,0.0012447237968444824,0.0261114239692688
324,-2.0506310234418295,0.3798438044902276,0.6003926218052836,-0.8238431811332703,-0.37077540159225464,0.4287286102771759,0.08213594555854797,0.051364000886678696,-0.016240650787949562,0.005361616611480713,-0.03004249930381775,-0.01600879430770874
325,-2.046847981909208,0.3785122035041045,0.6016376383881998,-0.8258970379829407,-0.36953839659690857,0.42583468556404114,0.053244851529598236,0.15698207914829254,0.0868980810046196,0.0002288818359375,0.001282811164855957,0.022727906703948975
326,-1.970382612813896,0.33197012191514347,0.6024714523463294,-0.8709251284599304,-0.3259062170982361,0.36779657006263733,0.4317752420902252,1.0552855730056763,0.404132217168808,-0.02278202772140503,-0.04949048161506653,-0.07176080346107483
327,-1.9235819771168694,0.2828632973211382,0.6348503032283525,-0.9011215567588806,-0.2791062891483307,0.33178263902664185,0.24528861045837402,0.005384325515478849,0.27382346987724304,0.03503274917602539,0.02588668465614319,0.04062342643737793
328,-1.9187321646034499,0.2529404206335903,0.6208485704156161,-0.9101660847663879,-0.2502518892288208,0.3301090896129608,-0.05762398615479469,0.2580632269382477,0.5510667562484741,-0.0007837414741516113,-0.005622774362564087,-0.010376423597335815
329,-1.9020801597165211,0.2306917183850803,0.6084427439303695,-0.9205744862556458,-0.22865097224712372,0.3166407644748688,-0.013961052522063255,0.029409877955913544,0.04266642779111862,-0.010425269603729248,0.05433458089828491,0.014352917671203613
330,-1.8959301169071339,0.2270823137914589,0.6021651913299412,-0.9232804775238037,-0.2251356989145279,0.31123486161231995,-0.08341026306152344,-0.015023498795926571,-0.021140113472938538,-0.002058267593383789,-0.0009385198354721069,-0.02079904079437256
331,-1.900705868710717,0.2249660083257511,0.5878655608673917,-0.9222323894500732,-0.22307322919368744,0.31579431891441345,-0.1944618672132492,-0.03399099409580231,0.14024657011032104,0.02138388156890869,-0.018839657306671143,0.027894645929336548
332,-1.8920999426711884,0.219097590425779,0.5681382886541693,-0.9261417984962463,-0.2173488736152649,0.30825409293174744,-0.12528592348098755,0.14487220346927643,0.23985415697097778,0.04705256223678589,0.05751308798789978,0.008411496877670288
333,-1.887819758788626,0.21009745899268487,0.565198568577849,-0.9292740821838379,-0.2085552215576172,0.30488479137420654,-0.06428930908441544,-0.14528702199459076,-0.20102673768997192,-0.02493441104888916,-0.0401630699634552,-0.0017994344234466553
334,-1.899578891025204,0.20773651830748263,0.5628418529784885,-0.9260879755020142,-0.20624561607837677,0.3159489631652832,0.21062874794006348,-0.6870996356010437,-0.6509492993354797,-0.05496060848236084,0.038429468870162964,-0.09880116581916809
335,-1.998864487873784,0.24743807421000985,0.6237408339044855,-0.882060706615448,-0.24492086470127106,0.40247097611427307,0.454116553068161,-0.6678522825241089,-0.2117851972579956,-0.004108846187591553,0.004854306578636169,-0.03387957811355591
336,-2.025363034119009,0.2044235759695208,0.6793023258015578,-0.8797439932823181,-0.20300276577472687,0.42993077635765076,0.9075836539268494,-0.390124648809433,-0.10875361412763596,0.07606357336044312,0.10725386440753937,-0.009154438972473145
337,-2.035465271227518,0.15444990697137947,0.7675992593191479,-0.8833282589912415,-0.15383657813072205,0.4427924156188965,1.2283744812011719,0.43266600370407104,-0.11233288794755936,-0.12427043914794922,-0.0041986554861068726,-0.060819268226623535
338,-2.0598063670809097,0.144151530360438,0.8661676145514569,-0.8736420273780823,-0.1436528116464615,0.46487995982170105,0.1393924504518509,-0.06393594294786453,-0.08434116095304489,-0.01344287395477295,-0.19649609923362732,0.17478370666503906
339,-2.08333579810354,0.17270884738220302,0.8608038553628401,-0.8585365414619446,-0.1718515306711197,0.4830963611602783,-0.06117599457502365,-0.39116916060447693,-0.4361315965652466,0.03506547212600708,-0.054115891456604004,-0.03964543342590332
340,-2.099468970025163,0.18270208847699831,0.8801071776546124,-0.8491060137748718,-0.1816873550415039,0.49599286913871765,0.12835335731506348,-0.18517693877220154,-0.5025362372398376,-0.06568902730941772,0.09002779424190521,0.043725788593292236
341,-2.0926816370809957,0.17848458593815777,0.8995838609703589,-0.8531095385551453,-0.1775384396314621,0.4905959367752075,0.2760510742664337,0.48500943183898926,0.3130546808242798,0.00044840574264526367,-0.0016455352306365967,0.02788257598876953
342,-2.069757178894537,0.15842963872759194,0.902048928816284,-0.8670834302902222,-0.15776771306991577,0.4725205600261688,0.0901733934879303,0.06222126632928848,0.02957787737250328,-0.027447760105133057,0.031135037541389465,-0.008470207452774048
343,-2.0733558812937005,0.14553420771309766,0.9169368821093618,-0.8670881390571594,-0.1450210064649582,0.4765781760215759,0.126484215259552,0.017454922199249268,0.014417103491723537,-0.022468626499176025,0.01582486927509308,0.08467048406600952
344,-2.0476805667303135,0.173329822440031,0.8840130059452678,-0.8751170635223389,-0.17246322333812714,0.4521353542804718,-0.9231069087982178,0.2810169458389282,-0.3134288489818573,-0.008824467658996582,0.07901842892169952,0.07195824384689331
345,-2.0105273585995675,0.2692560329033632,0.8146426393499222,-0.8722629547119141,-0.26601433753967285,0.41035786271095276,-1.2544578313827515,0.1620522290468216,-0.8900396823883057,-0.14349931478500366,0.24190548062324524,-0.015414625406265259
346,-1.9470621798152912,0.45934508824731207,0.7812299476561971,-0.8336378335952759,-0.44336116313934326,0.3293613791465759,-0.9221987724304199,1.2129943370819092,-2.192171335220337,-0.18073594570159912,0.42151057720184326,-0.0842747688293457
347,-1.7768819971985634,0.7620385758314089,0.7185135855025915,-0.7081217169761658,-0.6903976202011108,0.1480354517698288,-1.671658992767334,1.4233062267303467,-3.2058157920837402,0.41017866134643555,0.5429673194885254,-0.19480372965335846
348,-1.4175819978804427,1.0711262095060838,0.5592090119593448,-0.47352319955825806,-0.8777406811714172,-0.07312361896038055,-0.733343780040741,3.884249687194824,-3.2585160732269287,0.46018701791763306,0.11956197023391724,0.12591904401779175
349,-1.0335521958316516,1.292381360383326,0.5652402122360332,-0.23611430823802948,-0.9614922404289246,-0.14065085351467133,0.8158679604530334,2.6931991577148438,0.1413349211215973,0.5679166316986084,-0.30391907691955566,0.19123375415802002
350,-1.330836246609512,1.1921224834453692,1.0446204242933437,-0.3590964078903198,-0.929155707359314,-0.08786169439554214,0.32819974422454834,0.6150500774383545,1.768656849861145,-0.12735381722450256,-0.2799508571624756,0.0030075833201408386
351,-1.421781743161909,1.044677216672546,1.0944507313797511,-0.49661582708358765,-0.8647624850273132,-0.0745556652545929,-0.7736558318138123,-0.39067208766937256,2.1063406467437744,0.16392844915390015,0.27406424283981323,-0.12998837232589722
352,-1.5832870316126297,0.9496429103074158,1.2450154931751738,-0.5819281339645386,-0.813207745552063,0.007269070949405432,1.0197149515151978,-1.1488416194915771,-0.580285906791687,0.010791659355163574,0.2527371644973755,0.07000136375427246
353,-1.7460681844000503,0.8956547515051448,1.3732935433270257,-0.6154323220252991,-0.7806184887886047,0.10898628830909729,-0.12489619851112366,-0.4282897412776947,0.3023788034915924,-0.025375783443450928,0.061136066913604736,0.0477367639541626
354,-1.7988089337777886,0.9081094528303898,1.3718178332022153,-0.5993132591247559,-0.7883419990539551,0.13906943798065186,0.05747054144740105,-0.13524295389652252,0.4279835820198059,0.004006922245025635,-0.03462541103363037,0.14857397973537445
355,-1.7896241137299154,0.8979369547784396,1.3330725829635253,-0.6083623766899109,-0.7820428609848022,0.13529305160045624,-0.25811001658439636,-0.23301683366298676,-0.18265816569328308,-0.028844594955444336,-0.016525864601135254,0.05065058171749115
356,-1.729379049021449,0.9016034010993872,1.26815134773215,-0.6125692129135132,-0.7843226194381714,0.09796550124883652,-0.5212293267250061,0.17295792698860168,0.12719082832336426,0.016988098621368408,-0.013986766338348389,0.029781103134155273
357,-1.6434115233734996,0.8578667351145745,1.2045263650135065,-0.6523290276527405,-0.7564490437507629,0.04745243489742279,-0.05584783852100372,0.5407431721687317,0.8950169682502747,0.06649833917617798,-0.018392324447631836,-0.038342952728271484
358,-1.6133335057731553,0.8048812383779185,1.211593604131144,-0.6925700306892395,-0.7207483053207397,0.029477758333086967,0.28365975618362427,0.1578187495470047,0.08025704324245453,-0.009547889232635498,0.10220271348953247,-0.06718218326568604
359,-1.6593408949273356,0.8001797599577979,1.271109643625648,-0.6938489079475403,-0.7174813151359558,0.061597615480422974,0.17733360826969147,-0.10112366080284119,-0.21808204054832458,-0.028532683849334717,-0.05400305986404419,0.036089181900024414
360,-1.6573269781124396,0.7760582917450263,1.2802023338710207,-0.7110099792480469,-0.7004717588424683,0.06167817488312721,-0.15831676125526428,0.28400325775146484,0.5122646689414978,0.048076629638671875,0.060518085956573486,0.10021758824586868
361,-1.6463101398495068,0.7598130203694148,1.2659098846159718,-0.7228987812995911,-0.6887859106063843,0.054692842066287994,-0.01789824664592743,0.0060864780098199844,0.11318064481019974,0.012358009815216064,-0.005138039588928223,0.019312262535095215
362,-1.6478278014966967,0.7698719476725467,1.2622767258632595,-0.7158706784248352,-0.6960433125495911,0.055253904312849045,0.051644109189510345,-0.10047710686922073,-0.2966100871562958,-0.012660205364227295,0.011595070362091064,-0.007951617240905762
363,-1.659683799633958,0.7948156730608635,1.2703567982083586,-0.6976511478424072,-0.71373450756073,0.062176287174224854,0.13517193496227264,-0.08136666566133499,-0.3781370520591736,-0.001140296459197998,0.009175240993499756,-0.021145347505807877
364,-1.6936301183394935,0.8214221694889077,1.3024827472948997,-0.6760483384132385,-0.7321153283119202,0.08346176147460938,0.23429785668849945,-0.015935949981212616,-0.05619046092033386,0.027534544467926025,-0.025239408016204834,0.022907257080078125
365,-1.7180985319959465,0.8269774475091501,1.3280526038358031,-0.6697704195976257,-0.7358881831169128,0.09937847405672073,0.19648867845535278,-0.033162105828523636,0.032507479190826416,0.03926205635070801,-0.009167909622192383,0.007677190005779266
366,-1.7433971918805837,0.8237778372090798,1.3438580985715278,-0.6693586111068726,-0.7337179183959961,0.11669298261404037,0.011186853051185608,-0.11527302116155624,0.18374553322792053,0.022950470447540283,-0.02041727304458618,0.028479114174842834
367,-1.739165522657987,0.8104867843123329,1.3289465371248157,-0.6794007420539856,-0.7246227264404297,0.11548347026109695,-0.11655554920434952,-0.07497704774141312,0.14952050149440765,0.0002015829086303711,-0.004152238368988037,0.0029704496264457703
368,-1.731827691458884,0.7994871646159464,1.3141440101147914,-0.6880561113357544,-0.7169986963272095,0.11176636070013046,-0.062326788902282715,8.36346298456192e-05,0.08741902559995651,-0.010781168937683105,0.018817543983459473,-0.008616924285888672
369,-1.7319862130051495,0.7969673149186138,1.3154569021996074,-0.6898194551467896,-0.7152398824691772,0.11216504126787186,-0.04048971086740494,0.018684014678001404,-0.006124166771769524,0.003036677837371826,-0.0009313225746154785,0.017717838287353516
370,-1.7263830381934662,0.7954358125535524,1.3094686874147912,-0.6915183663368225,-0.7141687273979187,0.1084677204489708,-0.03885330259799957,-0.03573758527636528,-0.0685996264219284,0.01036602258682251,0.0022852420806884766,0.0003122091293334961
371,-1.7326004586725563,0.7980139391949878,1.3182143830287938,-0.6890114545822144,-0.7159709930419922,0.11246811598539352,0.07369235157966614,-0.014706561341881752,0.0347839817404747,0.02302628755569458,0.00013530254364013672,-0.004557952284812927
372,-1.7507366335601657,0.7977213112964299,1.3351045617602244,-0.6870644092559814,-0.7157666683197021,0.12498241662979126,0.15510013699531555,-0.025609750300645828,0.09346535056829453,0.01287013292312622,0.00040411949157714844,0.008181087672710419
373,-1.7670567126902499,0.7940953615268488,1.3509953935645398,-0.6874741911888123,-0.7132298350334167,0.1366834044456482,0.08826660364866257,-0.014699235558509827,0.017274493351578712,-0.0013075470924377441,-0.017101585865020752,0.029789909720420837
374,-1.7730573556210294,0.7958955819831904,1.3559677075267005,-0.6853829026222229,-0.7144904732704163,0.14054808020591736,0.13003024458885193,-0.0659213736653328,-0.0919235348701477,0.0012856125831604004,0.01507335901260376,-0.040740370750427246
375,-1.794530215691049,0.7971793584890734,1.3794388648135425,-0.6813119649887085,-0.7153880596160889,0.15502798557281494,0.1327894926071167,-0.03308640047907829,-0.001859620213508606,0.0041117072105407715,-0.013493657112121582,0.024079665541648865
376,-1.8043048025119988,0.7963008886058424,1.3875124774017968,-0.6803755164146423,-0.7147740125656128,0.16182544827461243,0.02902800217270851,-0.04992208257317543,0.02735896408557892,0.01126241683959961,0.010886013507843018,-0.011114358901977539
377,-1.82499730386605,0.7895806015118896,1.4080089989279465,-0.681515097618103,-0.7100580334663391,0.17707236111164093,0.18409033119678497,-0.1359068602323532,-0.024438360705971718,0.005413472652435303,0.010183215141296387,0.0017758458852767944
378,-1.843872974811253,0.7941649630497616,1.422280732498222,-0.6749098300933838,-0.713278591632843,0.1890242099761963,0.022575518116354942,-0.04909861460328102,-0.1130967065691948,-0.0052048563957214355,-0.00048172473907470703,0.014161795377731323
379,-1.8588938991067625,0.8001686249940743,1.4292136366726242,-0.6678768396377563,-0.717473566532135,0.1979200392961502,0.05135567858815193,-0.21089504659175873,-0.08861032128334045,0.019607186317443848,0.01624065637588501,-0.03259110450744629
380,-1.872523985950089,0.7962279155844365,1.432089017173728,-0.6678115725517273,-0.7147229313850403,0.20784315466880798,0.03322204574942589,0.09140792489051819,0.14964649081230164,-0.006581127643585205,-0.039061129093170166,0.035443052649497986
381,-1.8750223481733326,0.7874038395827951,1.4350557689723678,-0.6732814311981201,-0.7085235714912415,0.21139201521873474,0.09062471240758896,-0.027946554124355316,0.06975097209215164,-0.005002319812774658,0.010159313678741455,-0.003399461507797241
382,-1.8765085551323677,0.7809445423014574,1.4349291235884525,-0.6773167848587036,-0.7039505839347839,0.21376538276672363,-0.03649658337235451,0.002552090212702751,0.031610652804374695,-0.0016536116600036621,0.0016953349113464355,0.012293577194213867
383,-1.8804474745786743,0.7782151738182381,1.4354353470430241,-0.6782971024513245,-0.7020094394683838,0.21701635420322418,0.08379531651735306,-0.032493047416210175,0.027990687638521194,-0.0017260909080505371,0.006574809551239014,-0.0085812509059906
384,-1.872695340876835,0.771585599066564,1.4300525028133455,-0.6843873858451843,-0.6972726583480835,0.21313069760799408,-0.13849611580371857,0.0496823750436306,0.06977768987417221,-0.00019812583923339844,-0.009956896305084229,0.030506357550621033
385,-1.873866131352793,0.766635407700015,1.430000440586035,-0.687423586845398,-0.6937158107757568,0.21495942771434784,0.20384229719638824,-0.06115744262933731,0.002738719806075096,0.0008085370063781738,0.03377312421798706,-0.04319116473197937
386,-1.8965243795763183,0.7545860072150089,1.472563851717055,-0.690246045589447,-0.6849871277809143,0.2331365942955017,0.21400131285190582,0.07315454632043839,0.06754782795906067,0.011291146278381348,-0.013911068439483643,0.04492419958114624
387,-1.900884552141171,0.7379325423824279,1.479630042807418,-0.6999185681343079,-0.6727597117424011,0.23980849981307983,0.17091815173625946,-0.04401369392871857,0.21452322602272034,0.03335368633270264,-7.647275924682617e-05,-0.01916639506816864
388,-1.9085887756600872,0.713563583237454,1.4771944983682797,-0.7133097052574158,-0.6545321345329285,0.25055360794067383,0.002836876083165407,0.006597594823688269,0.3149166405200958,-0.024025559425354004,-0.013726532459259033,0.04230833053588867
389,-1.8989735318492607,0.7001568905971869,1.4586402060994679,-0.723927915096283,-0.6443376541137695,0.24648983776569366,-0.03829913213849068,-0.008457377552986145,0.044694188982248306,-0.02367645502090454,0.017964422702789307,-0.0008081495761871338
390,-1.8937761786467286,0.698002661037402,1.4459253851751794,-0.7265139222145081,-0.6426887512207031,0.2431640625,-0.16617649793624878,0.060917627066373825,0.1089724525809288,0.001767277717590332,-0.049938201904296875,0.0587921142578125
391,-1.860626042667296,0.709228386989778,1.3884065144344828,-0.7272140979766846,-0.6512483954429626,0.2168751358985901,-0.5430348515510559,0.04655929282307625,0.04944511502981186,0.008616805076599121,0.014087319374084473,-0.008012816309928894
392,-1.8301544039204019,0.6993405046531461,1.3542785082011966,-0.7396724820137024,-0.643713116645813,0.1962604820728302,0.01939459517598152,-0.10648375004529953,-0.012741196900606155,-0.019162416458129883,0.04700291156768799,-0.05653572082519531
393,-1.835712008313215,0.7041761236950729,1.3624306279719762,-0.7355575561523438,-0.6474061608314514,0.19955089688301086,-0.1085573360323906,-0.049995314329862595,-0.220144584774971,-0.02120208740234375,0.004644870758056641,0.030566930770874023
394,-1.83079359029157,0.7198250948711867,1.3573089791455066,-0.7266494631767273,-0.6592531800270081,0.19330228865146637,-0.2384525090456009,0.13730181753635406,-0.13048601150512695,0.02764439582824707,0.0036287903785705566,0.05352388322353363
395,-1.7897987220026974,0.7484603185838319,1.3163487176931943,-0.7152360081672668,-0.6805113554000854,0.15919162333011627,-0.3566189706325531,0.13239727914333344,-0.1014523059129715,0.01232457160949707,-0.004821896553039551,0.0032839924097061157
396,-1.7705541652889194,0.7543744956166082,1.2985431227244681,-0.7142096161842346,-0.6848329901695251,0.14459741115570068,-0.04103374108672142,-0.07358576357364655,-0.10157222300767899,0.01605898141860962,0.028537213802337646,-0.027959227561950684
397,-1.764591572434714,0.7600763416271833,1.2938086880053534,-0.7112157344818115,-0.6889767646789551,0.13958202302455902,-0.08658279478549957,0.08473214507102966,0.012685740366578102,0.012607336044311523,0.0030484795570373535,0.015264153480529785
398,-1.7589285093790943,0.7629613666484576,1.290984851980351,-0.7100392580032349,-0.6910649538040161,0.13517984747886658,-0.05692870914936066,0.06418688595294952,-0.062471963465213776,-0.018537402153015137,-0.004857897758483887,0.017041921615600586
399,-1.740330453841763,0.7800811625116312,1.2837348291297974,-0.7006651163101196,-0.7033371329307556,0.11993793398141861,-0.05393098294734955,0.1810314953327179,-0.15510724484920502,0.022137343883514404,0.02747964859008789,-0.03010942041873932
400,-1.7382722824474646,0.7869001362686071,1.295247134508332,-0.6961653232574463,-0.7081680297851562,0.11769337952136993,-0.0002685030922293663,0.029380349442362785,-0.06940528750419617,0.033582985401153564,-0.023155152797698975,0.018521778285503387
401,-1.7312861082546782,0.7903249957413684,1.291028699812862,-0.6945723295211792,-0.7105819582939148,0.11243878304958344,-0.06274580955505371,0.03657642751932144,0.002881874330341816,-0.0136643648147583,0.006800830364227295,-0.001583695411682129
402,-1.7217520200655032,0.8084238505276946,1.2925040668124261,-0.6827850341796875,-0.7231995463371277,0.10386039316654205,0.018616607412695885,0.27403607964515686,-0.21939575672149658,-0.012741029262542725,0.008584737777709961,0.050604335963726044
403,-1.685817709896332,0.8454532472803329,1.2803458117672948,-0.6590086817741394,-0.7482718825340271,0.07613614201545715,-0.1905687153339386,0.15973982214927673,-0.562415361404419,-0.004565536975860596,0.0234488844871521,-0.026224620640277863
404,-1.6642888655618195,0.8960183608551746,1.2842669607549675,-0.621995747089386,-0.7808457016944885,0.058321986347436905,-0.039652444422245026,0.18053029477596283,-0.5424874424934387,0.010453999042510986,0.0034256577491760254,0.02447223663330078
405,-1.6475230051267757,0.9463110971866763,1.280167447905759,-0.5829594731330872,-0.8112642168998718,0.0448165237903595,-0.04329150915145874,0.12316237390041351,-0.4680878221988678,0.012204527854919434,0.0053255558013916016,-0.009614471346139908
406,-1.643823642903138,0.9954272534573514,1.2836363869022518,-0.542694091796875,-0.8389915227890015,0.039702095091342926,0.02240593731403351,0.05872797593474388,-0.4211273789405823,0.025787413120269775,0.01658862829208374,0.01089608296751976
407,-1.6441248137579465,1.033023002717984,1.2927845091293215,-0.5108484625816345,-0.8588513731956482,0.03752703219652176,-0.1382255256175995,0.06535559892654419,-0.4149845838546753,0.009765088558197021,-0.013493597507476807,0.0058078765869140625
408,-1.635874534793701,1.0566434513568979,1.2886684934828208,-0.4907563626766205,-0.8707096576690674,0.03198270872235298,0.0968731939792633,0.027049710974097252,-0.15209418535232544,0.017169326543807983,0.014783143997192383,0.011260747909545898
409,-1.6316754914948886,1.0767081336555202,1.2871831758924646,-0.47335055470466614,-0.8804014921188354,0.02885284088551998,-0.07085954397916794,0.0828767791390419,-0.1634676456451416,0.00698089599609375,0.0004118680953979492,-0.00861966609954834
410,-1.6330100804984342,1.0862929585990015,1.2932323671021022,-0.4648677110671997,-0.8849063515663147,0.028958536684513092,0.08102797716856003,-0.04839525371789932,-0.11682900786399841,0.02791711688041687,-0.007610619068145752,-0.02668500319123268
411,-1.6424992671796572,1.0902758455683061,1.3004678851534204,-0.4610530138015747,-0.8867544531822205,0.033115629106760025,-0.014538519084453583,0.00470562931150198,0.03430192917585373,0.004052281379699707,-0.004206240177154541,0.024165868759155273
412,-1.6410141556245887,1.093141588912794,1.2982864869512314,-0.45856475830078125,-0.8880754709243774,0.03225244581699371,0.017678044736385345,0.02051912620663643,-0.028848053887486458,-0.005012482404708862,0.017500579357147217,-0.010188225656747818
413,-1.6464686199638383,1.0998626667581632,1.3030944228952521,-0.4524197578430176,-0.8911450505256653,0.034301139414310455,0.058321934193372726,-0.007239834871143103,-0.07445371896028519,0.016079485416412354,0.006593167781829834,-0.0052942074835300446
414,-1.651014634989689,1.1011919534831376,1.3085714876386707,-0.4510784447193146,-0.8917474150657654,0.03626256808638573,0.0038760188035666943,-0.027839064598083496,-0.05029250681400299,0.0008984208106994629,-0.0056983232498168945,-0.00222015380859375
415,-1.6582226670437463,1.0973609612497852,1.3144447061393398,-0.4542054831981659,-0.8900071978569031,0.03981100395321846,0.01835332065820694,-0.04513835161924362,0.04782186448574066,0.0055359601974487305,0.0016556382179260254,0.001509789377450943
416,-1.663816138035769,1.0941592714757453,1.3170113527284595,-0.4568103849887848,-0.8885428309440613,0.04261539876461029,0.018107354640960693,-0.03689140826463699,0.02944478765130043,-0.0007244646549224854,0.018761277198791504,0.004152778536081314
417,-1.671982425777275,1.0944157909560255,1.3226064997332827,-0.4562201499938965,-0.8886604905128479,0.046321336179971695,-0.02241482585668564,0.0017313850112259388,-0.050013720989227295,-0.016405582427978516,0.0010872483253479004,0.016666889190673828
418,-1.6693607143366784,1.1000057749141217,1.321633153437875,-0.4513893723487854,-0.8912099599838257,0.044635556638240814,0.04471147805452347,-0.0017924699932336807,-0.10328509658575058,0.0053902268409729,0.02202361822128296,-0.016483068466186523
419,-1.6738977484794082,1.1056371620196885,1.3277300194252657,-0.44618332386016846,-0.8937501907348633,0.0461658276617527,-0.05225110054016113,0.012037770822644234,-0.0489267036318779,0.011857062578201294,-0.01260673999786377,0.017066601663827896
420,-1.6713936511947078,1.1100767111703782,1.3239322709264045,-0.44234541058540344,-0.8957328200340271,0.044649481773376465,-0.0031632566824555397,-0.015376828610897064,0.006520998664200306,0.011254042387008667,0.016246557235717773,-0.011034365743398666
421,-1.6808723814383788,1.1104668036958512,1.3328517310323533,-0.4415546655654907,-0.8959061503410339,0.048801861703395844,-0.006589937023818493,-0.014548026956617832,0.021470092236995697,0.00493970513343811,-0.007215738296508789,0.021586891263723373
422,-1.6846354935489607,1.108599143694464,1.336796905822616,-0.4430297017097473,-0.8950749039649963,0.050653133541345596,-0.0005011903122067451,0.034049421548843384,0.05441264063119888,0.0059722065925598145,-0.003957688808441162,0.01219785213470459
423,-1.6827531574511543,1.1090353902367667,1.3339330875925237,-0.442735880613327,-0.8952693343162537,0.04977544769644737,-0.00577290914952755,0.00393708748742938,0.009691746905446053,0.0043509602546691895,0.010534346103668213,0.004240743815898895
424,-1.6856343649957128,1.1092602598056593,1.3367936113627292,-0.4423907697200775,-0.8953695297241211,0.051027800887823105,0.031121643260121346,-0.012545263394713402,-0.021076107397675514,0.00240364670753479,-0.0012063980102539062,-0.004930976778268814
425,-1.6908963879036671,1.1057026208457945,1.342020320526581,-0.4452756643295288,-0.8937795162200928,0.05373625084757805,0.0905735120177269,0.06847526133060455,0.1274353712797165,0.009835660457611084,-0.007450282573699951,0.014867302030324936
426,-1.6721584491994523,1.0524394261665155,1.358151847756246,-0.4929104745388031,-0.8686344027519226,0.050134267657995224,0.22352971136569977,0.2327265441417694,0.7925843596458435,0.0909176766872406,-0.015627622604370117,-0.05581057071685791
427,-1.7045253467001276,1.0203947628308137,1.3735796314537256,-0.518359899520874,-0.8523145318031311,0.06973596662282944,-0.0006197821348905563,-0.18369759619235992,0.24980229139328003,0.004871070384979248,-0.016261637210845947,0.051525600254535675
428,-1.7002028333158412,0.9935165850618907,1.3589556186932337,-0.5411834120750427,-0.8379503488540649,0.07042621076107025,0.020615361630916595,-0.12104983627796173,0.22629527747631073,0.0026854872703552246,0.021986544132232666,-0.032157182693481445
429,-1.717048393949924,0.9699746946332546,1.3669364418398526,-0.5592851638793945,-0.8248714208602905,0.08238484710454941,0.10643386095762253,-0.09763585031032562,0.18743044137954712,-0.00042247772216796875,0.009182333946228027,0.006039857864379883
430,-1.7320608658682874,0.9485885149990165,1.3782000190483057,-0.5752685070037842,-0.8125936388969421,0.09358306229114532,0.12949861586093903,-0.035198383033275604,0.2569971978664398,0.00532221794128418,-0.0011728405952453613,-0.014328956604003906
431,-1.7704312700636158,0.9251732962430973,1.4131023868465624,-0.5897458791732788,-0.7987250685691833,0.11932329088449478,0.41660377383232117,-0.16093389689922333,0.18570487201213837,0.0010617971420288086,-0.0017967820167541504,-0.024444103240966797
432,-1.829266651330608,0.9023105531918691,1.4725278547641196,-0.5992101430892944,-0.7847610712051392,0.15842173993587494,0.3068653643131256,-0.11104768514633179,0.10603972524404526,-0.018496215343475342,0.01326131820678711,0.01735951006412506
433,-1.8668773982708393,0.894357925078178,1.5013439825678403,-0.5987798571586609,-0.7798072695732117,0.18265630304813385,0.07436434179544449,-0.17297135293483734,-0.03811401128768921,-0.012120962142944336,0.00273817777633667,0.025168418884277344
434,-1.8744685418080897,0.8913008799945664,1.5025964303402253,-0.5996478796005249,-0.7778899073600769,0.187908336520195,-0.1165701374411583,-0.05477180331945419,-0.056186825037002563,-0.012855112552642822,0.0001952648162841797,0.014255255460739136
435,-1.864028207749701,0.8958044559410208,1.4865392186091442,-0.5982173085212708,-0.7807120084762573,0.18062326312065125,-0.04485873505473137,0.005263042636215687,0.030989477410912514,0.015575706958770752,0.0218314528465271,-0.03284193575382233
436,-1.8743529262495868,0.8779125066051132,1.502795818213542,-0.6095541715621948,-0.7694071531295776,0.19093522429466248,0.4136887490749359,0.15903930366039276,0.433695912361145,0.0504111647605896,-0.012849867343902588,-0.021486416459083557
437,-1.8896192831292433,0.827952080647835,1.5306064755886462,-0.642299234867096,-0.7365477085113525,0.21201243996620178,0.02022387646138668,-0.22209736704826355,0.056265756487846375,-0.027409017086029053,-0.03072524070739746,0.035103678703308105
438,-1.8817821841054494,0.8119307635377195,1.5153964132186073,-0.6550922393798828,-0.7256171107292175,0.21055638790130615,-0.0851762592792511,-0.050751205533742905,0.10500656068325043,-0.028882920742034912,0.03279179334640503,-0.023483648896217346
439,-1.8872417636483128,0.8112475641588733,1.5184974253394368,-0.6544039249420166,-0.7251468300819397,0.2142839878797531,-0.063848115503788,-0.009078267961740494,-0.12868255376815796,-0.03413361310958862,0.019427835941314697,0.02025890350341797
440,-1.8858556223215672,0.8307774106735035,1.5197396534884475,-0.6411116719245911,-0.7384558320045471,0.20894792675971985,-0.11943251639604568,0.040470000356435776,-0.2838950753211975,0.003828287124633789,0.011420190334320068,0.007940560579299927
441,-1.880004093082293,0.8528451673412732,1.5218127818148672,-0.6266448497772217,-0.7531551122665405,0.20018433034420013,-0.06567661464214325,0.0899868756532669,-0.18790894746780396,0.01231074333190918,0.0032924413681030273,0.00016355514526367188
442,-1.8759775979187754,0.8799882285889391,1.5198929357442872,-0.6077185869216919,-0.7707313895225525,0.1914450079202652,-0.11067426204681396,0.04880852624773979,-0.23990462720394135,0.00202101469039917,-0.0026602745056152344,0.007483825087547302
443,-1.868498524416913,0.9156899493655973,1.5129672225021265,-0.5824448466300964,-0.7929831147193909,0.17870594561100006,-0.15992969274520874,-0.028896119445562363,-0.42463210225105286,0.0041977763175964355,0.01542574167251587,-0.004450559616088867
444,-1.861864854888458,0.95440834383102,1.5073875836823027,-0.5537759065628052,-0.815971851348877,0.16589844226837158,-0.06492944806814194,0.04323413223028183,-0.19051669538021088,0.024036526679992676,-0.007865428924560547,-0.001729130744934082
445,-1.8538944847875702,0.9777086823926189,1.5014306638928496,-0.5366756319999695,-0.829218864440918,0.15612520277500153,-0.07503554224967957,0.05707833170890808,-0.11525297909975052,0.018700838088989258,-0.0055741071701049805,-0.006985798478126526
446,-1.8543715555354787,0.9918244760112337,1.4980689531005145,-0.5253105759620667,-0.8370256423950195,0.15309083461761475,-0.11587589234113693,-0.12703067064285278,-0.14168937504291534,0.0025750398635864258,2.008676528930664e-05,0.00921688973903656
447,-1.833642042569768,1.0377141306829256,1.434132112241638,-0.49073609709739685,-0.861244797706604,0.13204284012317657,-0.9357441663742065,-0.5800790786743164,-0.871657133102417,-0.08856377005577087,0.005287885665893555,0.07515619695186615
448,-1.7360527134493833,1.1409147475334334,1.2941890014743709,-0.4110853970050812,-0.9090151190757751,0.06855973601341248,-0.661554217338562,0.16021515429019928,-0.49508383870124817,0.015531808137893677,0.08650535345077515,-0.0030080080032348633
449,-1.6762625079178761,1.1748911432193292,1.253931547547667,-0.38350072503089905,-0.9226478934288025,0.040596991777420044,-0.012278405949473381,0.07363788783550262,-0.39194637537002563,0.032106101512908936,0.01706928014755249,-0.039452556520700455
450,-1.7096178495743541,1.2224908419264986,1.2869518283099046,-0.33802199363708496,-0.9399524331092834,0.047228507697582245,0.16467660665512085,0.08548635244369507,-0.2584622800350189,0.02933672070503235,-0.017094075679779053,0.010663390159606934
451,-1.7294698513672664,1.2322149354704062,1.317701307709349,-0.3279767632484436,-0.9432268142700195,0.052482426166534424,0.12946775555610657,0.09320765733718872,-0.16161245107650757,0.0008283555507659912,0.0036211609840393066,-0.019355539232492447
452,-1.7738116324251936,1.2393287120832102,1.3663204384572816,-0.3187478482723236,-0.9455657601356506,0.06561461836099625,0.11428245157003403,-0.10115980356931686,-0.07029533386230469,0.019126296043395996,-0.0026764273643493652,0.0011426210403442383
453,-1.7933201586256577,1.236373555626888,1.3869071589818658,-0.32013094425201416,-0.9445999264717102,0.07243633270263672,-0.024188289418816566,-0.06367744505405426,-0.01380046084523201,-0.0011428594589233398,0.009724557399749756,-0.0032224729657173157
454,-1.8220886966418945,1.2405573161085073,1.4150147928272876,-0.3140839636325836,-0.9459648728370667,0.080631323158741,0.10439357161521912,-0.013759513385593891,-0.08382526785135269,-0.0066099464893341064,0.014660120010375977,-0.0010262876749038696
455,-1.8660126791140488,1.2488907757763152,1.460554329348213,-0.30268824100494385,-0.9486342668533325,0.0920482724905014,0.11104347556829453,0.008672241121530533,-0.1310553103685379,0.006286263465881348,-0.0072067975997924805,0.012993216514587402
456,-1.8946266540388335,1.2579620297412004,1.4910941477506316,-0.2917604148387909,-0.9514651298522949,0.09792815148830414,0.11636066436767578,0.030776990577578545,-0.09228938072919846,0.0027132034301757812,0.004169046878814697,-0.005002148449420929
457,-1.9191808088902664,1.2609588718437739,1.5233059010242038,-0.2865867614746094,-0.9523831605911255,0.1040879637002945,0.044338010251522064,0.07994987815618515,-0.05237632989883423,-0.0007667243480682373,-0.0032137036323547363,0.0001448318362236023
458,-1.9077025576733533,1.2554640888712907,1.5237571084789605,-0.2926975190639496,-0.9506933689117432,0.1025201678276062,0.0011799782514572144,0.15251202881336212,0.04443842172622681,0.003940165042877197,0.0033971667289733887,0.003909841179847717
459,-1.9174667770893108,1.2562811612087896,1.5338807595255406,-0.2909517288208008,-0.9509464502334595,0.10510918498039246,0.015932422131299973,0.0668778121471405,0.026393387466669083,-0.008013725280761719,0.0020023584365844727,0.012154579162597656
460,-1.9235627267723236,1.2562716323691574,1.541565280788596,-0.29031386971473694,-0.9509435296058655,0.10688389092683792,0.09868443012237549,-0.027607671916484833,-0.06444332003593445,0.004928767681121826,0.005295395851135254,-0.010585673153400421
461,-1.954388064841225,1.2535449071695535,1.5720086886667748,-0.2892853021621704,-0.9500964283943176,0.11675076186656952,0.031634941697120667,0.007070109248161316,0.02567356266081333,0.00364077091217041,-0.022697091102600098,0.03580665588378906
462,-1.9362778663454152,1.2572469705226947,1.5556054290068626,-0.28806570172309875,-0.9512448310852051,0.11023525893688202,0.009651558473706245,0.0708342120051384,0.014156556688249111,-0.0005543231964111328,0.017605066299438477,-0.02829548716545105
463,-1.9420037229209504,1.2577624940984276,1.561820958193236,-0.2869722843170166,-0.9514036774635315,0.11170478165149689,0.013832420110702515,-0.011703118681907654,-0.03159484639763832,0.010650873184204102,0.0073729753494262695,-0.0038251876831054688
464,-1.9436679779851018,1.2570878100778125,1.563510973536296,-0.28738337755203247,-0.9511957168579102,0.11241590231657028,-0.056701771914958954,-0.003867208492010832,0.029476135969161987,0.011687606573104858,0.012459874153137207,0.008891448378562927
465,-1.9296792424842144,1.255155535171236,1.5466526327372236,-0.29064857959747314,-0.9505976438522339,0.10903043299913406,-0.004241161048412323,-0.02850944548845291,0.043164923787117004,0.008193135261535645,0.006078600883483887,-0.004171967506408691
466,-1.9269562703229361,1.2527466013863962,1.542553822343847,-0.29308921098709106,-0.9498471021652222,0.10903652757406235,-0.014188042841851711,-0.018359260633587837,-0.004967795684933662,-0.002641350030899048,0.014132499694824219,-0.0018130689859390259
467,-1.927377149113149,1.251614804037578,1.5428110218438655,-0.2940511405467987,-0.9494925737380981,0.10953529924154282,-0.012415606528520584,-0.008999139070510864,-0.005190078169107437,-0.0018168091773986816,0.005446434020996094,0.008003130555152893
468,-1.9256308816549816,1.2526607889338386,1.5419514783063408,-0.2933104634284973,-0.9498202800750732,0.1086765006184578,-0.009303479455411434,-0.017087822780013084,-0.06393074989318848,-0.0047089457511901855,0.008566617965698242,-0.010562539100646973
469,-1.946695272511229,1.2574970329813113,1.5574724778578848,-0.2866798937320709,-0.9513218998908997,0.11314257234334946,0.04986068233847618,-0.07221779972314835,-0.06956478953361511,0.0062233805656433105,0.0003483891487121582,0.009034514427185059
470,-1.9474508270191222,1.2601867124604553,1.5558125136913246,-0.28421419858932495,-0.9521474242210388,0.11241770535707474,-0.008911262266337872,0.017252236604690552,0.010181089863181114,0.0034829676151275635,0.004195034503936768,-0.0036530345678329468
471,-1.9554855430637719,1.2618346998153547,1.5633482729488342,-0.2818470895290375,-0.9526498317718506,0.11410868912935257,0.006902660243213177,-0.005383281037211418,-0.04575449973344803,-0.004011094570159912,-0.010851263999938965,0.01569785177707672
472,-1.9497397919113975,1.2654729214803138,1.5583368662886148,-0.27927571535110474,-0.9537497758865356,0.11120428144931793,-0.012312725186347961,0.0001659095287322998,-0.037382546812295914,0.0018098950386047363,0.0075217485427856445,-0.013456463813781738
473,-1.9563801722900362,1.266744500693255,1.565470224760632,-0.27740785479545593,-0.9541312456130981,0.11260037124156952,-0.010296722874045372,0.020164892077445984,0.026712041348218918,0.008807331323623657,-0.009812355041503906,0.016717925667762756
474,-1.951655151077473,1.2659017911455452,1.561037096271906,-0.27868232131004333,-0.95387864112854,0.11158687621355057,0.014896662905812263,-0.003204041626304388,0.03373875468969345,0.003841012716293335,0.015585243701934814,-0.017653711140155792
475,-1.9578158695264052,1.2638469913896346,1.5670625469804893,-0.2798042893409729,-0.9532597661018372,0.11404126137495041,0.00504326680675149,0.010266861878335476,0.009564336389303207,-0.0014915168285369873,-0.003924071788787842,0.01808452606201172
476,-1.9532648977856282,1.265352239997063,1.5628897798399106,-0.27898889780044556,-0.9537134766578674,0.11223107576370239,0.018290551379323006,0.013061083853244781,-0.0023317672312259674,0.0009890198707580566,0.01612192392349243,-0.024172663688659668
477,-1.9630646932478484,1.265122964246178,1.5727787088854646,-0.27807798981666565,-0.9536445140838623,0.11504337191581726,-0.0018267054110765457,0.003660313319414854,0.008113359101116657,0.011812090873718262,-0.004897475242614746,0.018394723534584045
478,-1.9534156271892757,1.2640177549354652,1.5637160557618737,-0.28015241026878357,-0.9533113241195679,0.11274819821119308,0.00044328346848487854,0.0038506591226905584,0.004630415700376034,-0.004622340202331543,0.01721513271331787,-0.022690773010253906
479,-1.963000550757976,1.2638913432966339,1.5739608054556293,-0.279170423746109,-0.9532731771469116,0.11547435820102692,-0.0053687915205955505,-0.0017624604515731335,-0.01817026361823082,0.0021471381187438965,-0.007252335548400879,0.020313620567321777
480,-1.9600403274771374,1.2626641506826628,1.5717891980230332,-0.28059282898902893,-0.9529017210006714,0.11509116739034653,0.022911913692951202,-0.001293483655899763,-0.0009855441749095917,0.00044146180152893066,0.006353259086608887,-0.01789271831512451
481,-1.9703812644660976,1.2590507191442197,1.5820166640776163,-0.28255775570869446,-0.9517996311187744,0.11932528764009476,0.03510605916380882,-0.006951907649636269,0.059154897928237915,0.007518112659454346,-0.0016762614250183105,0.015806540846824646
482,-1.9622278358234455,1.251984985080378,1.5755239278047848,-0.2897307872772217,-0.9496086835861206,0.11958038806915283,0.020689569413661957,0.026996737346053123,0.07042033970355988,-0.01173710823059082,0.011681437492370605,-0.014706730842590332
