,attitude.roll,attitude.pitch,attitude.yaw,gravity.x,gravity.y,gravity.z,rotationRate.x,rotationRate.y,rotationRate.z,userAcceleration.x,userAcceleration.y,userAcceleration.z
0,2.7107641858662297,0.2702972229444777,2.3913729859404635,0.40246057510375977,-0.2670178711414337,0.8756297826766968,0.19724121689796448,-0.05911015719175339,-0.172841876745224,0.028798669576644897,-0.02204468846321106,0.007869601249694824
1,0.2680707792780693,0.41637925484303134,-2.2718373751145284,0.2422408163547516,-0.40445172786712646,-0.8818946480751038,-0.0968935564160347,-0.04881516098976135,0.13837260007858276,0.05284890532493591,0.013872504234313965,0.09264904260635376
2,0.2582985457876861,0.4077793939489177,-2.2653005153910493,0.23449110984802246,-0.3965717852115631,-0.887549877166748,0.12202733755111694,0.41763609647750854,0.06623551994562149,0.013525247573852539,0.03358045220375061,0.010352611541748047
3,0.27259594955504574,0.4078546421225928,-2.2526642451327734,0.24714834988117218,-0.3966408669948578,-0.8840779066085815,0.14853909611701965,-0.17367811501026154,0.03240782395005226,0.006742656230926514,-0.001796633005142212,-0.006470799446105957
4,0.2547280476234124,0.41002804500247336,-2.265081010437897,0.2310953438282013,-0.39863505959510803,-0.88751620054245,0.00517410971224308,-0.12020353227853775,-0.09611265361309052,-0.002640768885612488,-0.00164872407913208,0.015140771865844727
5,0.2598650863026097,0.4075118206785919,-2.2450787003383517,0.23590846359729767,-0.39632612466812134,-0.8872839212417603,-0.01615959405899048,0.3573966324329376,0.25691765546798706,0.021095290780067444,0.007120221853256226,-0.03004390001296997
6,0.30303064140444436,0.43070786938454325,-2.217521133439403,0.2711600959300995,-0.4175141155719757,-0.8672682046890259,0.7992648482322693,-0.14191626012325287,-0.0445253849029541,-0.03898236155509949,0.016070663928985596,0.04097425937652588
7,0.2909566257712812,0.4418389156508801,-2.2183803513398503,0.25931987166404724,-0.42760249972343445,-0.8659730553627014,-0.0320001021027565,-0.5904802680015564,-0.18848636746406555,-0.05112895369529724,-0.019312143325805664,0.039648592472076416
8,0.2688750681705845,0.41636311751891303,-2.245717247699523,0.24295176565647125,-0.40443697571754456,-0.8817058205604553,-0.211378812789917,-0.20926116406917572,-0.20531083643436432,0.006788820028305054,-0.008328527212142944,-0.0018696188926696777
9,0.25688586972277533,0.4162625494788261,-2.2569461287676833,0.23237395286560059,-0.40434497594833374,-0.8845945596694946,0.1416851133108139,-0.014021893963217735,0.08170148730278015,0.043489694595336914,0.01404041051864624,-0.02051103115081787
10,0.2581223914443697,0.4243236163705758,-2.252993584704238,0.2326279878616333,-0.41170448064804077,-0.881126344203949,-0.19934764504432678,-0.04380828142166138,0.05585137754678726,-0.002342328429222107,-0.0017629265785217285,0.049491822719573975
11,0.25335447402016587,0.4218132133347984,-2.2487435501285655,0.22868254780769348,-0.4094153940677643,-0.8832232356071472,-0.00382076483219862,0.24979960918426514,0.15517771244049072,0.03096097707748413,0.01146620512008667,-0.002961456775665283
12,0.2715487154762866,0.42499857940136443,-2.224768335061465,0.24436235427856445,-0.41231948137283325,-0.8776558041572571,0.17081688344478607,0.011457342654466629,0.13580387830734253,-0.002754688262939453,0.0017512738704681396,-0.00651472806930542
13,0.26767449220069117,0.4247384348744675,-2.223331483724868,0.24098865687847137,-0.4120824635028839,-0.8786993622779846,-0.0735902413725853,-0.22062484920024872,-0.036744892597198486,0.01786142587661743,-0.002590358257293701,0.013586997985839844
14,0.24889268811621298,0.42066758721979236,-2.224936780478469,0.22485493123531342,-0.40836992859840393,-0.8846887946128845,-0.021400652825832367,-0.17384202778339386,-0.021070338785648346,-0.006104946136474609,0.003996759653091431,-0.0038152337074279785
15,0.21269988723133187,0.4334842844728221,-2.2564822235465445,0.19157461822032928,-0.42003536224365234,-0.8870566487312317,0.15973983705043793,-0.4729008972644806,-0.27797219157218933,0.008651211857795715,0.011588096618652344,0.02414160966873169
16,0.18772335815434582,0.4311770064651956,-2.285615301199664,0.16954198479652405,-0.4179403781890869,-0.8925140500068665,0.11483778059482574,-0.4869023561477661,-0.30804920196533203,0.012556403875350952,-0.033628225326538086,-0.0006439089775085449
17,0.13420675075915955,0.44617451861308716,-2.3019168862720276,0.12070540338754654,-0.43151772022247314,-0.89399254322052,0.5286906361579895,0.48641452193260193,-0.06900489330291748,-0.027870938181877136,0.10951149463653564,-0.01031959056854248
18,0.17946077305386474,0.4912337818707662,-2.361678080591067,0.15739180147647858,-0.4717141389846802,-0.8675907254219055,-0.2970806658267975,-0.3546558618545532,-0.6838942170143127,0.022433027625083923,0.058063626289367676,0.14888650178909302
19,0.20287723506389166,0.4295033720481106,-2.3556376201947136,0.18318773806095123,-0.4164193272590637,-0.8905263543128967,-0.22589510679244995,0.023422930389642715,-0.09256710112094879,-0.005132943391799927,-0.08963841199874878,-0.05210059881210327
20,0.22947255836371838,0.38771917460413524,-2.348603887399132,0.21058015525341034,-0.3780778646469116,-0.9015060067176819,-0.2925219237804413,0.4268508851528168,-0.031935520470142365,-0.040108948945999146,0.03605210781097412,0.03647005558013916
21,0.21419862222043803,0.36778783699718703,-2.3662423534244077,0.19834919273853302,-0.3595520853996277,-0.9118003845214844,-0.04490692913532257,-0.3385027348995209,-0.06378796696662903,0.01342754065990448,0.017526328563690186,-0.020236968994140625
22,0.18754273371930202,0.3564122885458867,-2.3509360028017063,0.17472806572914124,-0.348914235830307,-0.9207219481468201,-0.015681052580475807,0.0417461022734642,0.06604710221290588,0.0001071244478225708,-0.010323405265808105,0.0025396347045898438
23,0.17574708918440435,0.3674672317790521,-2.344308857943763,0.16317124664783478,-0.3592528998851776,-0.9188647866249084,0.035050202161073685,0.016482733190059662,0.2144831120967865,0.002264559268951416,0.018600434064865112,-0.018406331539154053
24,0.16052314092266862,0.37202445470595863,-2.3297200566051295,0.14890089631080627,-0.3635021448135376,-0.9196166396141052,-0.022461898624897003,-0.21077120304107666,0.15261989831924438,0.03864489495754242,-0.0034564733505249023,0.004089295864105225
25,0.14837535425697657,0.37878811626996856,-2.319345185705683,0.13735227286815643,-0.3697947561740875,-0.9189049005508423,0.0643029510974884,-0.13577766716480255,0.049988336861133575,-0.022514626383781433,-0.003679335117340088,0.002629876136779785
26,0.1475228921676086,0.4173188456354718,-2.318635527149417,0.13437367975711823,-0.40531086921691895,-0.9042493104934692,0.5284510850906372,-0.021219752728939056,0.09210474789142609,0.009730324149131775,0.019416064023971558,0.005903363227844238
27,0.11143048916429145,0.4407018262380693,-2.304483682661043,0.10057514160871506,-0.42657434940338135,-0.8988431096076965,0.10944397002458572,-0.27727052569389343,0.2361413538455963,-0.0028578713536262512,-0.010589927434921265,-0.007147431373596191
28,0.10155017695487106,0.44743426257234276,-2.288815374376916,0.09139631688594818,-0.4326537847518921,-0.8969154953956604,0.0519329234957695,-0.012075904756784439,0.11335007846355438,0.0005073696374893188,-0.013650506734848022,0.0289345383644104
29,0.08384166074119102,0.443566281343759,-2.278860108201851,0.07563935220241547,-0.4291633367538452,-0.9000541567802429,-0.13618645071983337,-0.16736005246639252,0.09323989599943161,-0.0011459514498710632,-0.009175866842269897,-0.009537458419799805
30,0.07636292059275263,0.45231083133071276,-2.2731524191686003,0.06861709803342819,-0.437045156955719,-0.8968183994293213,0.21405339241027832,-0.03559718653559685,0.09693992882966995,0.01788496971130371,0.016146719455718994,-0.003465414047241211
31,0.05836174499244178,0.47017763854331995,-2.255614174486102,0.051999256014823914,-0.4530446529388428,-0.8899700045585632,0.09771502017974854,-0.15599201619625092,0.1783512681722641,0.0025966912508010864,4.172325134277344e-05,0.025620639324188232
32,0.026869646126210886,0.4807473043468926,-2.24217432325051,0.023821095004677773,-0.46244189143180847,-0.8863295316696167,0.10988722741603851,-0.21220770478248596,0.13675729930400848,0.0037515461444854736,0.0026182830333709717,-0.0119401216506958
33,0.002578649396873568,0.48963936974890304,-2.225418707796538,0.0022756620310246944,-0.4703076481819153,-0.8824995756149292,0.02661479264497757,-0.1523778736591339,0.11347762495279312,-0.010820582509040833,-0.011763244867324829,0.0243300199508667
34,-0.008425178355587346,0.48531662151863825,-2.223231311130455,-0.0074522122740745544,-0.46648845076560974,-0.8844959139823914,0.07864661514759064,-0.058218929916620255,-0.010846015065908432,0.0029356032609939575,0.003216356039047241,-0.020624935626983643
35,-0.014397180427546747,0.49039129697947126,-2.2213738244612373,-0.012700014747679234,-0.47097110748291016,-0.882057249546051,0.007003267295658588,-0.03410370647907257,0.022859858348965645,0.001759454607963562,0.0014886856079101562,0.01422882080078125
36,-0.01918713987690462,0.4922697191360281,-2.2184184812441865,-0.016907867044210434,-0.47262731194496155,-0.8811001777648926,0.09418631345033646,-0.03867073357105255,0.023384610190987587,0.0016338247805833817,0.00013893842697143555,0.0066495537757873535
37,-0.024652622099161622,0.49117983765560397,-2.216564096019492,-0.021735912188887596,-0.4716665744781494,-0.8815090656280518,-0.031123217195272446,-0.04678303003311157,-0.006373649463057518,-0.0029527992010116577,-0.004667043685913086,0.002755403518676758
38,-0.029319886660193768,0.49058225839989056,-2.21926445058769,-0.025858156383037567,-0.4711395502090454,-0.8816795945167542,0.051809161901474,-0.02250375971198082,0.008026436902582645,0.014002084732055664,0.01142275333404541,0.0007286667823791504
39,-0.031537689123970584,0.4859879293090632,-2.2180813236261665,-0.02788144163787365,-0.467082142829895,-0.8837742805480957,-0.06615421175956726,-0.027777303010225296,-0.008887341246008873,-0.002636134624481201,-0.0037430524826049805,0.015747547149658203
40,-0.035050676485612844,0.48800442648191444,-2.219626607647217,-0.030952882021665573,-0.46886420249938965,-0.8827277421951294,0.11598404496908188,-0.13054227828979492,-0.02097197435796261,0.015526250004768372,0.013633489608764648,0.010123372077941895
41,-0.04080258304207614,0.4825421367259926,-2.217526870729405,-0.03613363951444626,-0.46403253078460693,-0.885080873966217,-0.08429019153118134,0.018583839759230614,-0.018425747752189636,-0.021086812019348145,-0.008013337850570679,-0.000417172908782959
42,-0.04534761931248507,0.47819431742033,-2.2204032244960916,-0.040247056633234024,-0.4601767957210541,-0.8869146108627319,-0.06440363079309464,-0.013979865238070488,0.007569241337478161,0.0018864721059799194,0.0016806721687316895,0.0007604360580444336
43,-0.05547632467689188,0.4702423526383291,-2.2208962584660146,-0.049429476261138916,-0.45310235023498535,-0.8900870680809021,-0.0347447507083416,-0.11087404191493988,0.006004780530929565,-0.012582242488861084,-0.0007703304290771484,-0.0145912766456604
44,-0.059718990036776644,0.4678674502398122,-2.222299193387002,-0.053269438445568085,-0.4509839415550232,-0.8909409642219543,-0.07299527525901794,-0.038378290832042694,0.02071276679635048,0.0020761974155902863,-0.008183509111404419,0.008952498435974121
45,-0.06698914949295973,0.45420047636646765,-2.2166397858503575,-0.06015224754810333,-0.4387439787387848,-0.8965965509414673,-0.1425972580909729,-0.045483604073524475,0.02793659269809723,-0.009900853037834167,-0.0030742287635803223,-0.014475226402282715
46,-0.0678469595827291,0.44512803500303044,-2.213330313477229,-0.06118868291378021,-0.430573433637619,-0.9004790186882019,-0.0655815452337265,0.0007832774426788092,0.08179658651351929,0.006562218070030212,0.004029273986816406,-0.0032380223274230957
47,-0.07328143264363127,0.4402595648951038,-2.2050343932067187,-0.06623407453298569,-0.4261742830276489,-0.9022131562232971,-0.020280461758375168,0.01888687163591385,0.03494669497013092,-0.016148120164871216,-0.0069158971309661865,-0.01596921682357788
48,-0.07707637751634797,0.4408246464937504,-2.2020792068091923,-0.06963888555765152,-0.4266854226589203,-0.9017150402069092,-0.0018368810415267944,-0.02089899219572544,0.04038354009389877,0.0033852234482765198,0.005191892385482788,-0.00541996955871582
49,-0.08423904371473058,0.4450866159089745,-2.19281055294105,-0.0759420245885849,-0.43053606152534485,-0.8993728160858154,0.01677093096077442,-0.088628850877285,0.10600988566875458,0.0087423175573349,0.008813649415969849,0.011341869831085205
50,-0.09465872444088279,0.4560682924431907,-2.1882042414204115,-0.08485689759254456,-0.4404216706752777,-0.8937718272209167,0.20480291545391083,-0.2595924437046051,-0.0947677493095398,-0.0033846721053123474,-0.00544014573097229,0.03511399030685425
51,-0.10272937567097119,0.46670911403850207,-2.1758113818181406,-0.09158158302307129,-0.44994980096817017,-0.8883456587791443,0.1314772367477417,-0.04822850227355957,0.1041949912905693,-0.01994490623474121,-0.003709256649017334,0.026819169521331787
52,-0.11156961437719881,0.47187025634820573,-2.1719919827710976,-0.0991712138056755,-0.45455294847488403,-0.885181725025177,0.04968314617872238,-0.025994746014475822,0.05447756499052048,0.008488230407238007,0.005517333745956421,-0.005626380443572998
53,-0.12216497515356885,0.484009432493929,-2.164484973808307,-0.1078638955950737,-0.4653317928314209,-0.8785395622253418,0.07348533719778061,-0.009105021134018898,0.055969905108213425,-0.011429324746131897,-0.0011599063873291016,0.012893199920654297
54,-0.12737955528491682,0.4938619640008899,-2.160852960685941,-0.11185575276613235,-0.47402989864349365,-0.8733749985694885,0.05987253040075302,-0.0693851113319397,0.043058477342128754,0.011391885578632355,0.009170889854431152,0.006401181221008301
55,-0.13477640085360154,0.49465450488238216,-2.155396173076836,-0.11826233565807343,-0.474727600812912,-0.8721511960029602,-0.025566674768924713,0.002251520985737443,0.005522687919437885,-0.01685424894094467,-0.010929137468338013,0.011265575885772705
56,-0.13923953118554624,0.49623391681621487,-2.1515245515739934,-0.12204945087432861,-0.4761171042919159,-0.8708710670471191,0.09815338253974915,-0.05196331813931465,0.022687086835503578,0.00696767121553421,-0.0069151222705841064,-0.007363736629486084
57,-0.14214099907983765,0.49896835585748506,-2.150886016950102,-0.12439084053039551,-0.47851991653442383,-0.8692212700843811,-0.045997120440006256,0.017611278221011162,0.013277566991746426,-0.008940458297729492,-0.002971142530441284,0.026493608951568604
58,-0.14121277558108192,0.4981271175681184,-2.151363627192864,-0.12364056706428528,-0.4777810871601105,-0.8697345852851868,0.07929059118032455,0.05255816876888275,-0.011012263596057892,-0.009538136422634125,0.011136800050735474,-0.008759677410125732
59,-0.1384670112498468,0.4993081653269509,-2.1494884301158605,-0.12117405235767365,-0.47881826758384705,-0.8695113062858582,-0.03046925738453865,0.07045488059520721,0.0021279016509652138,-0.013530537486076355,-0.014452606439590454,0.003910720348358154
60,-0.1387887551968814,0.5039162005557568,-2.1457557782794496,-0.1211472749710083,-0.4828586280345917,-0.8672778606414795,0.08519035577774048,0.03038148768246174,0.024941880255937576,-0.0176161527633667,0.002756088972091675,-0.005814790725708008
61,-0.13829906418783108,0.5094624254758535,-2.141585177453695,-0.12035151571035385,-0.4877080023288727,-0.8646712899208069,0.021115336567163467,0.0502893328666687,0.003849976696074009,-0.013315476477146149,-0.01694589853286743,0.023576319217681885
62,-0.13745636904779907,0.5071625406757894,-2.1414539394024836,-0.11977619677782059,-0.4856989085674286,-0.8658812046051025,-0.021556537598371506,0.0029181409627199173,0.012791895307600498,0.01128619909286499,0.005748957395553589,-0.011743307113647461
63,-0.13719836203932834,0.504558175895217,-2.1379047804633595,-0.11972538381814957,-0.483420729637146,-0.8671621680259705,-0.07103323936462402,0.07252980768680573,0.03639888018369675,-0.013804271817207336,-0.009544998407363892,0.02423614263534546
64,-0.13468247285948887,0.49789504223405445,-2.136111569854,-0.1179732233285904,-0.47757720947265625,-0.8706333041191101,-0.09490904957056046,0.013390488922595978,0.030240127816796303,-0.00041971355676651,0.007316619157791138,0.0018131136894226074
65,-0.1298243102932182,0.48959273695433997,-2.1345069030394455,-0.11425156146287918,-0.47026652097702026,-0.8750976920127869,-0.07719408720731735,0.05851595103740692,0.04000110179185867,-0.003332659602165222,0.0021879076957702637,-0.0007414817810058594
66,-0.12865175072340093,0.48013805616492566,-2.1317985309986867,-0.11379074305295944,-0.46190163493156433,-0.8796013593673706,-0.18825630843639374,0.009090573526918888,0.04321662709116936,0.003240808844566345,0.007616966962814331,0.017403483390808105
67,-0.13618118836358206,0.4685685843935997,-2.128839878956048,-0.12112778425216675,-0.45160961151123047,-0.883955180644989,-0.12452306598424911,-0.048897635191679,0.10423191636800766,0.005023650825023651,0.013575583696365356,0.011976420879364014
68,-0.14378453515295062,0.46141087256011976,-2.1275778010082362,-0.12830513715744019,-0.44521188735961914,-0.8861851692199707,-0.041235823184251785,-0.11956725269556046,-0.03357482701539993,-0.0042632222175598145,0.0038056373596191406,0.009323596954345703
69,-0.14588429661902022,0.4518807124637963,-2.1270261147523852,-0.13077649474143982,-0.43665823340415955,-0.8900713920593262,-0.20703545212745667,0.031287211924791336,0.013525852933526039,-0.0005559027194976807,-0.003786712884902954,0.025828838348388672
70,-0.14025256348400977,0.4279106770144367,-2.1263526128174437,-0.12718871235847473,-0.4149707853794098,-0.9009008407592773,-0.2849169969558716,0.07205219566822052,0.0515865683555603,-0.0038690268993377686,0.00281563401222229,-0.00013065338134765625
71,-0.13726785470211678,0.41841911275287696,-2.1262096030930007,-0.12503257393836975,-0.40631645917892456,-0.9051374197006226,-0.030336182564496994,0.05563195049762726,0.060268599539995193,-0.002851337194442749,0.0067192912101745605,0.005250334739685059
72,-0.1343471026176722,0.4144192600153224,-2.125060880645682,-0.12260507047176361,-0.4026584029197693,-0.907102108001709,-0.016264095902442932,-0.015354841947555542,0.013121440075337887,0.006745077669620514,0.013467729091644287,-0.007997989654541016
73,-0.13504184517171833,0.4201162843812053,-2.1208267381677737,-0.12292440235614777,-0.40786662697792053,-0.904728889465332,0.08517252653837204,0.0665334165096283,0.06592735648155212,-0.003631994128227234,0.008589893579483032,0.005620002746582031
74,-0.13131099273325417,0.419022008332636,-2.117791722707513,-0.11960650980472565,-0.40686726570129395,-0.9056231379508972,-0.018436912447214127,-0.031327713280916214,-0.017774537205696106,0.003761783242225647,0.0037910938262939453,0.004393279552459717
75,-0.13201898535636641,0.4218784436027033,-2.1143316208281155,-0.1200941801071167,-0.4094749093055725,-0.9043824672698975,0.019221201539039612,0.01799461618065834,0.03815487027168274,-0.009178265929222107,0.0041557252407073975,0.010995686054229736
76,-0.12951506666758522,0.41981482633999445,-2.1141433767708957,-0.11793818324804306,-0.4075913727283478,-0.9055163264274597,0.007207909598946571,-0.02271118573844433,0.0018858825787901878,0.012515224516391754,0.014601260423660278,-0.007935762405395508
77,-0.1325862272434353,0.42328398978198534,-2.112575540117393,-0.12053095549345016,-0.41075682640075684,-0.9037428498268127,0.023788992315530777,0.06814087927341461,0.04388505220413208,-0.005247235298156738,0.002309560775756836,0.008036673069000244
78,-0.13009450165490435,0.41924053009606593,-2.1127389465416693,-0.11849319934844971,-0.40706688165664673,-0.9056798219680786,-0.05439021438360214,-0.019370276480913162,-0.03653019666671753,-0.001562952995300293,0.0054860711097717285,-0.004674792289733887
79,-0.13228339373125894,0.42579544453510415,-2.110030095414926,-0.1201208233833313,-0.41304534673690796,-0.9027538299560547,0.07109090685844421,-0.0017090830951929092,0.042537130415439606,-0.009456798434257507,-0.000620424747467041,0.015516340732574463
80,-0.12918418279997435,0.42147987358460004,-2.1102686295434236,-0.11755096912384033,-0.40911126136779785,-0.9048810601234436,0.01462365873157978,0.016712849959731102,-0.023082930594682693,0.012463688850402832,0.010261774063110352,-0.023829877376556396
81,-0.13100358379016536,0.4392090516227504,-2.1073655822247983,-0.11823095381259918,-0.425223708152771,-0.8973328471183777,0.26617899537086487,-0.009989098645746708,0.06455519795417786,0.012899532914161682,0.011222243309020996,0.009011924266815186
82,-0.13079326764616594,0.45925764531541946,-2.099756670968812,-0.11690671741962433,-0.4432827830314636,-0.8887255787849426,0.07275727391242981,0.05859238654375076,0.08191219717264175,0.011025987565517426,0.01274082064628601,0.0451892614364624
83,-0.13912440584283298,0.4692206331609682,-2.0952188973834582,-0.12368806451559067,-0.4521912932395935,-0.8833030462265015,0.18411698937416077,-0.05223565921187401,0.02750958874821663,-0.00019804388284683228,0.002819955348968506,-0.023923516273498535
84,-0.1409537736508439,0.4814624562444644,-2.0847385671807315,-0.12451668828725815,-0.4630758762359619,-0.8775285482406616,0.07083380222320557,0.008216580376029015,0.05222992226481438,-0.003321446478366852,-0.003888845443725586,0.008677840232849121
85,-0.14313177625020154,0.48004401234999483,-2.0826293806951313,-0.12652121484279633,-0.46181821823120117,-0.87790447473526,0.022124072536826134,0.007658697664737701,0.0477837398648262,0.011897191405296326,0.00750306248664856,-0.012033820152282715
86,-0.13978354808356053,0.46885816688222415,-2.081282085881916,-0.12429308891296387,-0.4518679678440094,-0.883383572101593,-0.19299156963825226,0.03973006829619408,-0.01275203563272953,-0.022526979446411133,-0.0033932626247406006,0.012930691242218018
87,-0.1343250981630859,0.4595641849417303,-2.0806770876176075,-0.1200266107916832,-0.4435575604438782,-0.888172447681427,-0.0641639232635498,0.041829563677310944,0.008746574632823467,0.010376960039138794,0.016280949115753174,-0.004176795482635498
88,-0.1285938526318965,0.4359930527068605,-2.089480964669757,-0.11624304950237274,-0.4223107695579529,-0.8989667296409607,-0.18372610211372375,0.05274469032883644,-0.0518263503909111,0.005159072577953339,-0.00852113962173462,0.004649102687835693
89,-0.12942443142914717,0.43366242440969194,-2.0929665483889446,-0.11711638420820236,-0.4201970100402832,-0.8998434543609619,0.12108088284730911,-0.11257421970367432,0.024001967161893845,0.023991994559764862,0.01722767949104309,-0.030942678451538086
90,-0.15672886183869633,0.4957961315352904,-2.086360626390507,-0.1372934877872467,-0.47573205828666687,-0.8688092231750488,1.1080397367477417,-0.20354057848453522,0.03140712529420853,-0.006886810064315796,-0.016745328903198242,-0.07790708541870117
91,-0.18003674297556324,0.5714547183455866,-2.060849149396481,-0.1506148725748062,-0.5408561825752258,-0.8275202512741089,0.6784911751747131,-0.03183025121688843,0.08076129853725433,0.009455829858779907,-0.00888746976852417,-0.06780445575714111
92,-0.19750026083879738,0.6321576083710991,-2.049523791546957,-0.15830039978027344,-0.5908867716789246,-0.7910712957382202,0.4167937636375427,-0.031224749982357025,0.07766411453485489,0.004278197884559631,0.016835927963256836,0.06403577327728271
93,-0.19142792574642073,0.5840805926027604,-2.070122115371579,-0.15871937572956085,-0.5514326095581055,-0.8189812302589417,-1.0876635313034058,0.02590698003768921,-0.018573476001620293,-0.009752929210662842,-0.01811695098876953,0.03838735818862915
94,-0.1778387302337535,0.5272617183664597,-2.1088880901146556,-0.1528773009777069,-0.5031688213348389,-0.8505584597587585,-0.10154081135988235,0.07942715287208557,0.023145107552409172,0.022796139121055603,0.03516656160354614,-0.017147839069366455
95,-0.162659312835461,0.5004775395117023,-2.1136056910915624,-0.14208124577999115,-0.4798445701599121,-0.865772545337677,-0.30804917216300964,0.14301709830760956,0.06897714734077454,0.007132530212402344,0.0018019676208496094,0.030002892017364502
96,-0.1539353216028769,0.4831175359160004,-2.1288248670799095,-0.13577984273433685,-0.4645421802997589,-0.8750796318054199,-0.10568234324455261,0.1561688631772995,-0.03531145304441452,-0.015923023223876953,-0.010387629270553589,-0.007381856441497803
97,-0.1360962982810163,0.45593419849238026,-2.1509346163978558,-0.1218172088265419,-0.4403012692928314,-0.8895478248596191,-0.01088789664208889,-0.11648070067167282,-0.29535508155822754,0.0520082488656044,-0.03137841820716858,0.006033420562744141
98,-0.13574145757660167,0.42730190667027657,-2.1534101034443043,-0.12315753847360611,-0.4144168198108673,-0.9017155766487122,-0.2200823277235031,0.0993487685918808,0.08873869478702545,-0.03245159238576889,0.00688508152961731,-0.025881469249725342
99,-0.12946589342398954,0.42284645932490755,-2.153727777729002,-0.11773359030485153,-0.41035786271095276,-0.9042927026748657,0.08992094546556473,-0.05852019041776657,0.0494205579161644,0.021786317229270935,0.023730695247650146,-0.04886281490325928
100,-0.14245569198477429,0.4457124227868094,-2.1448180701855843,-0.12810400128364563,-0.4311008155345917,-0.8931637406349182,0.2255529761314392,-0.1626104712486267,0.06703890115022659,-0.02987024188041687,-0.022207289934158325,0.012640058994293213
101,-0.15588135328294062,0.5096074920152951,-2.1299523612003046,-0.13552404940128326,-0.4878346621990204,-0.8623517751693726,0.3031366169452667,-0.10803153365850449,0.009260205551981926,0.000468522310256958,0.034648627042770386,0.07136672735214233
102,-0.15918056510958203,0.49641411134683744,-2.1289920250725625,-0.13937650620937347,-0.47627556324005127,-0.8681795597076416,-0.4556207060813904,-0.0283181294798851,-0.009592128917574883,-0.015698552131652832,-0.01792609691619873,0.04557830095291138
103,-0.16081213009434828,0.483643250270685,-2.1363457961293584,-0.14175522327423096,-0.4650076627731323,-0.8738840818405151,0.3378189504146576,-0.03788629174232483,0.007247141562402248,0.021149754524230957,0.025249332189559937,-0.07364094257354736
104,-0.17270989497144487,0.5101438652521623,-2.125848304518602,-0.14997130632400513,-0.4883027970790863,-0.8596912026405334,0.13201996684074402,-0.08160348236560822,0.007770504802465439,-0.006782233715057373,-0.008691221475601196,0.012431681156158447
105,-0.1761940929729626,0.5074583520593902,-2.125119802663289,-0.15319502353668213,-0.48595747351646423,-0.8604514002799988,-0.014746550470590591,-0.12765319645404816,-0.03373704105615616,0.013882279396057129,-0.0035444796085357666,-0.01567775011062622
106,-0.21387270302030645,0.5303055285191756,-2.11897278651012,-0.18309451639652252,-0.5057969093322754,-0.8429981470108032,0.24304138123989105,-0.9219942688941956,0.13031035661697388,0.012974292039871216,-0.08009481430053711,-0.06920278072357178
107,-0.4269578603267237,0.4723099404489807,-2.0974002319679945,-0.36876749992370605,-0.45494455099105835,-0.8105775117874146,-0.9947420358657837,-1.5052978992462158,0.72849440574646,0.022805005311965942,-0.020351439714431763,0.19377154111862183
108,-0.5048358620183682,0.37230229254982616,-2.0482863137713414,-0.4505290985107422,-0.36376094818115234,-0.815292239189148,0.08241644501686096,-0.09315204620361328,0.21300329267978668,0.022260695695877075,0.04892638325691223,-0.10536199808120728
109,-0.4695659041576319,0.33427564293323686,-2.00245426837356,-0.42745256423950195,-0.3280850052833557,-0.8424040079116821,-0.38745594024658203,0.44106990098953247,0.48053616285324097,-0.00929972529411316,0.002279341220855713,0.017269790172576904
110,-0.5266798977350241,0.3951145105100047,-1.99733753139353,-0.46393680572509766,-0.3849138915538788,-0.7978746891021729,0.31825122237205505,-0.43609902262687683,-0.7805794477462769,0.024407386779785156,0.036891430616378784,0.10646843910217285
111,-0.6208819360026534,0.4455816515845577,-2.037144622589809,-0.5249505043029785,-0.4309827983379364,-0.733948826789856,1.001367449760437,-1.901322364807129,-1.0870321989059448,-0.19006109237670898,-0.0013749897480010986,-0.19532668590545654
112,-0.7445300904049486,0.5355873223906901,-2.035108822250238,-0.5827376842498779,-0.5103462338447571,-0.6324267983436584,0.5715542435646057,-2.09366774559021,-0.4274129867553711,0.04542994499206543,0.036637067794799805,-0.05168581008911133
113,-1.079117947338608,0.6977735961945539,-2.0135427803337227,-0.6755030155181885,-0.6425132155418396,-0.3617629110813141,1.8662365674972534,-3.6977453231811523,-2.0507090091705322,0.11248421669006348,0.16822433471679688,-0.08780676126480103
114,-1.551076888213827,0.9487651167265512,-1.8234411714676877,-0.5825740694999695,-0.8126965761184692,-0.011489522643387318,1.127127766609192,-2.3877556324005127,-1.9756673574447632,0.06646066904067993,0.05756950378417969,0.11880457401275635
115,-1.6457781231697197,1.0221877454710915,-1.8226977382997434,-0.5200352072715759,-0.8532509803771973,0.039066415280103683,-0.8215214610099792,-1.0474841594696045,-0.30462127923965454,0.020935475826263428,0.07206201553344727,-0.0010720491409301758
116,-1.6800050298799871,1.0089286548450995,-1.8982261882738485,-0.5295940637588501,-0.8462615609169006,0.05806731432676315,-0.37284520268440247,-0.36305946111679077,0.7294549345970154,0.14313465356826782,0.00014632940292358398,0.15259552001953125
117,-1.3532193103765018,0.9123704478374748,-2.112493617989279,-0.5974466800689697,-0.7909563779830933,-0.1320815086364746,-0.9005828499794006,-0.15924625098705292,0.8014633059501648,0.11343789100646973,-0.12960636615753174,-0.2254319190979004
118,-1.4002608594840906,0.9090316804555959,-2.1856211960397562,-0.6055960059165955,-0.7889090776443481,-0.10428854823112488,0.7962692975997925,-0.9480708241462708,-0.774075448513031,-0.11141449213027954,-0.061875224113464355,-0.20033788681030273
119,-1.7921684098735555,1.0223496175818232,-1.9420583230784803,-0.5086394548416138,-0.8533353805541992,0.11447467654943466,2.0286097526550293,-2.2974140644073486,-1.0387264490127563,-0.006558239459991455,0.030398547649383545,0.027187921106815338
120,-2.438131814513021,1.038786405908359,-1.4946193328396258,-0.32813072204589844,-0.8617892265319824,0.3868454098701477,2.182141065597534,-2.1901156902313232,-1.4479916095733643,0.07257655262947083,0.08536112308502197,-0.0923812985420227
121,-2.8685942325671787,0.837386045458136,-1.1596996112267444,-0.1804855763912201,-0.7428958415985107,0.6446169018745422,3.3613007068634033,-1.4939005374908447,-0.08517362177371979,0.1130417138338089,0.03383511304855347,0.09390860795974731
122,-2.8549435919933344,0.6824441180319899,-1.1693947734215062,-0.21941536664962769,-0.630691647529602,0.7443686723709106,-0.1418028026819229,2.3579261302948,0.9311066269874573,-0.03375841677188873,0.035873591899871826,-0.00749129056930542
123,-2.7307295878964246,0.5781565757643738,-1.2187857250606002,-0.33448663353919983,-0.5464810729026794,0.7677739262580872,1.1779520511627197,-0.7386845946311951,0.49979621171951294,0.04807925224304199,0.035372793674468994,0.06230407953262329
124,-2.754808172337788,0.45479849186007043,-1.1887741274916632,-0.338868647813797,-0.43928128480911255,0.8319857716560364,0.7734189629554749,-2.128533363342285,-0.006363371387124062,0.07159566879272461,-0.00046178698539733887,0.08624255657196045
125,-2.9020067803552725,0.4447228516701428,-1.1828763525333037,-0.2142181396484375,-0.4302076995372772,0.8769447207450867,-0.7306623458862305,-0.705375611782074,-0.04809511452913284,0.018783539533615112,0.057511717081069946,0.017006754875183105
126,-2.9410166971685756,0.44334003796979166,-1.2171235649232568,-0.17997261881828308,-0.4289589822292328,0.8852140307426453,1.2010598182678223,-0.11410354822874069,0.016997894272208214,-0.27495288848876953,-0.14913541078567505,0.04273390769958496
127,-2.9962670285490742,0.3614450464253716,-1.1864358781506998,-0.13545767962932587,-0.3536262810230255,0.9255266785621643,0.6618641018867493,-0.3207886815071106,0.04202618822455406,-0.019327446818351746,-0.0924796462059021,-0.00037109851837158203
128,-3.022936535508268,0.32071993889607087,-1.174413807732829,-0.11234165728092194,-0.31524986028671265,0.9423360228538513,0.7302848696708679,-0.13833577930927277,-0.17287811636924744,-0.03907131403684616,0.003940016031265259,-0.05935561656951904
129,-3.0476000594590866,0.2716771128449355,-1.1434739863942558,-0.09041186422109604,-0.2683474123477936,0.9590697884559631,0.08725880086421967,0.09624174237251282,-0.20075483620166779,-0.010692842304706573,0.009176939725875854,0.11406528949737549
130,-3.0448453123699246,0.2468763659583206,-1.1272218175815427,-0.09366775304079056,-0.24437622725963593,0.9651461839675903,0.5951732397079468,-0.23763708770275116,-0.1042412593960762,-0.01685164123773575,-0.001702234148979187,-0.07018744945526123
131,-3.0438910132221384,0.22298135381934742,-1.111716499781177,-0.09513124823570251,-0.2211381494998932,0.9705913066864014,0.21149519085884094,0.2138405591249466,-0.19907425343990326,-0.0496593713760376,-0.014091283082962036,-0.010432243347167969
132,-3.0774926358581607,0.19612295859238124,-1.0859660817951826,-0.06282814592123032,-0.1948680877685547,0.9788151979446411,0.21819496154785156,-0.43430042266845703,-0.27952927350997925,-0.060279764235019684,0.022199630737304688,0.05553233623504639
133,-3.121961936316543,0.1744278963046394,-1.076692482380822,-0.01933160051703453,-0.1735447496175766,0.9846363067626953,0.24845239520072937,-0.6051883697509766,0.07373975217342377,0.02349724993109703,-0.0033351480960845947,-0.05694770812988281
134,-3.1414667445904776,0.14272858056947316,-1.0828606170683412,-0.0001246287429239601,-0.14224447309970856,0.9898318648338318,0.39044734835624695,-0.056297823786735535,-0.028056137263774872,-0.035992927849292755,-0.0027751028537750244,-0.05700075626373291
135,-3.1340449652964466,0.11419711444597644,-1.0818181330605607,-0.007498456630855799,-0.11394906789064407,0.9934583902359009,-0.007346202619373798,-0.15701906383037567,-0.0025071240961551666,-0.0029385583475232124,-0.009799718856811523,0.15395689010620117
136,-3.1360039821241923,0.1370348798030586,-1.0850998431552261,-0.005536249838769436,-0.1366063952445984,0.9906097054481506,-0.10268942266702652,-0.24800214171409607,0.05994277819991112,-0.009463137947022915,-0.0022638142108917236,-0.051233112812042236
137,3.127313159752247,0.12641260596828455,-1.089301967447437,0.014165068045258522,-0.12607619166374207,0.9919193387031555,0.19001078605651855,0.031703390181064606,-0.01105530932545662,-0.026707792654633522,-0.01001693308353424,-0.06052291393280029
138,3.141394383721775,0.11368528495624297,-1.0927867787817072,0.00019699001859407872,-0.11344055831432343,0.9935449361801147,0.05511467158794403,0.009574314579367638,0.03269554674625397,0.0047773756086826324,0.011130362749099731,0.0758521556854248
139,-3.1378476371393362,0.12868479818390677,-1.1103190578632907,-0.0037140415515750647,-0.12832993268966675,0.99172443151474,-0.5883190631866455,0.3092651963233948,0.29741546511650085,0.009115651249885559,0.009250357747077942,0.07518517971038818
140,-3.1138273020355784,0.16313132357719323,-1.128132696173997,-0.027393201366066933,-0.1624087542295456,0.9863430857658386,0.06492773443460464,0.019508639350533485,0.04413919150829315,-0.01728452369570732,-0.009557768702507019,-0.14398181438446045
141,-3.093389397685114,0.15669941592215936,-1.1254929118923471,-0.04759422689676285,-0.1560589224100113,0.9866005182266235,-0.35220593214035034,0.7037965655326843,-0.010201385244727135,0.008012928068637848,-0.006737112998962402,0.09285199642181396
142,-3.0494773937223743,0.18455438873584915,-1.1234638837846942,-0.09042296558618546,-0.18350850045681,0.9788504838943481,0.09078831970691681,-0.17626291513442993,-0.013113901019096375,0.010039672255516052,0.013449326157569885,-0.04952925443649292
143,-3.0568947965506554,0.17380539825506702,-1.124609218658356,-0.08332207053899765,-0.17293165624141693,0.9814030528068542,0.021181432530283928,0.07672520726919174,0.025064337998628616,-0.010244809091091156,-0.004299163818359375,-0.014667272567749023
144,-3.0584017492053253,0.1607891768352798,-1.1253404721837523,-0.08202318102121353,-0.16009725630283356,0.983687698841095,0.003833198454231024,0.009564798325300217,0.022894669324159622,-0.012291423976421356,-0.004819780588150024,0.08660972118377686
145,-3.056786477957555,0.16948993670549298,-1.133031437766211,-0.08349083364009857,-0.1686796098947525,0.9821286797523499,-0.25093236565589905,-0.08785951137542725,0.07576960325241089,0.004312977194786072,0.005288511514663696,0.06352567672729492
146,-3.0437636372313053,0.20371558120026292,-1.149837355180321,-0.09565335512161255,-0.2023094743490219,0.974639356136322,-0.19442766904830933,0.10318963974714279,0.11092434823513031,-0.0007822141051292419,0.005303189158439636,-0.0736534595489502
147,-3.042061068966537,0.2074274728674532,-1.1560870264106207,-0.09723727405071259,-0.20594319701194763,0.9737207293510437,-0.2684965133666992,0.14138393104076385,0.04722033813595772,-0.01727992296218872,-0.01796424388885498,0.06186258792877197
148,-3.0322142699383985,0.22262484603629987,-1.1563589003383938,-0.10646647959947586,-0.22079044580459595,0.9694929122924805,0.08255219459533691,-0.011739896610379219,-0.10439048707485199,-0.02495747059583664,-0.0037578940391540527,-0.03126049041748047
149,-3.0183834673147905,0.24052637388802986,-1.1571911347562815,-0.1193598136305809,-0.23821388185024261,0.9638503789901733,-0.2611085772514343,0.09644748270511627,0.10566838085651398,0.05756170302629471,0.025552108883857727,-0.04791104793548584
150,-3.0293795063124294,0.22934570783656427,-1.1660528433216906,-0.10904573649168015,-0.22734041512012482,0.9676910042762756,0.21666687726974487,-0.11389923840761185,0.04208174720406532,-0.07961394637823105,-0.021057456731796265,0.02699911594390869
151,-3.0480427904010297,0.22270283737395227,-1.1669305863231678,-0.09110653400421143,-0.22086651623249054,0.9710394144058228,-0.2703843116760254,-0.05816017836332321,-0.04757723957300186,-0.03534303605556488,-0.028111129999160767,0.04612666368484497
152,-3.0345925442305632,0.23244088702263005,-1.1644435294726105,-0.1039239764213562,-0.230353444814682,0.9675416350364685,0.5026386976242065,0.05807678773999214,-0.04598712548613548,0.017269328236579895,0.02718271315097809,-0.15859711170196533
153,-3.0435746633055882,0.2002642665193344,-1.158694652376416,-0.09590526670217514,-0.1989283263683319,0.9753100872039795,-0.18961168825626373,0.07942884415388107,0.06469843536615372,0.01155468076467514,-0.007385760545730591,0.1774303913116455
154,-3.0444032282085423,0.23331153649235242,-1.1667233215557764,-0.09440742433071136,-0.23120060563087463,0.968315064907074,-0.12388548254966736,-0.20541569590568542,0.01074853166937828,-0.02143731713294983,0.0010675042867660522,-0.12671637535095215
155,-3.080212512413541,0.18800714333009388,-1.1546001006744642,-0.06026068329811096,-0.1869015246629715,0.9805286526679993,0.3613901436328888,-0.12671582400798798,-0.12766766548156738,0.011539369821548462,-0.03467133641242981,0.06845206022262573
156,-3.0555607335224146,0.20307115412481672,-1.1534445435238048,-0.0841602012515068,-0.2016783207654953,0.9758291840553284,-0.2218026965856552,0.19736725091934204,0.04540979117155075,0.015953429043293,0.023638814687728882,0.010071516036987305
157,-3.0515865759802607,0.21312702029971783,-1.1599212251898154,-0.08785088360309601,-0.21151719987392426,0.9734178185462952,-0.08554442226886749,0.08582759648561478,-0.005499010905623436,-0.0591064989566803,-0.03492747247219086,-0.06272774934768677
158,-3.0725636211225487,0.18503318421531917,-1.1382878672482817,-0.06779683381319046,-0.18397915363311768,0.9805891513824463,0.3861793577671051,-0.2065262347459793,-0.49100327491760254,-0.09708962589502335,-0.01473604142665863,0.01509249210357666
159,-3.0912996189375623,0.15660766454613123,-1.0930198206417663,-0.049656614661216736,-0.1559682935476303,0.9865131974220276,0.4334854483604431,-0.3695419728755951,-0.22598136961460114,0.025181517004966736,-0.02199496328830719,0.04298210144042969
160,-3.099324794919825,0.16465290410328276,-1.077895822742427,-0.04168378934264183,-0.1639099419116974,0.9855943322181702,-0.17428737878799438,0.02569296769797802,0.07595545053482056,0.10134565085172653,0.0651245266199112,-0.05705118179321289
161,-3.1201935953102042,0.13799878483541084,-1.0937067941024352,-0.02119400165975094,-0.13756120204925537,0.9902663230895996,0.580195426940918,-0.6084190011024475,0.051279544830322266,-0.10295149683952332,-0.05326518416404724,0.017362892627716064
162,3.132135028402886,0.13225825831687382,-1.0717155077483422,0.009374887682497501,-0.1318730115890503,0.9912222623825073,-0.45985767245292664,0.15938235819339752,-0.5085145235061646,-0.11137989163398743,-0.05104935169219971,0.023243069648742676
163,3.123820823165098,0.14441072545070555,-1.0213903355687541,0.017585916444659233,-0.14390932023525238,0.9894346594810486,0.22650477290153503,-0.14843006432056427,-0.30860957503318787,0.09677870571613312,0.06346495449542999,-0.06340920925140381
164,3.1137198694785315,0.11654325371241071,-1.025448119353943,0.027680115774273872,-0.11627960950136185,0.9928304553031921,0.1371229887008667,-0.03665933012962341,0.10557963699102402,0.011870656162500381,0.025505103170871735,0.07383489608764648
165,3.1151310709820903,0.1087959955724657,-1.0321151805247968,0.02630205638706684,-0.10858149081468582,0.9937393665313721,0.1308840811252594,0.06647306680679321,-0.060315512120723724,-0.06721087545156479,-0.019134551286697388,-0.019313275814056396
166,3.1088777357057142,0.08621465606894187,-1.0257337340629156,0.032587602734565735,-0.08610788732767105,0.9957529902458191,0.0338859036564827,-0.17188149690628052,-0.11289961636066437,-0.018259592354297638,-0.031247474253177643,0.06851732730865479
167,3.0979463508885696,0.08459226439043419,-0.9934367350600788,0.043476417660713196,-0.08449140936136246,0.9954750537872314,0.10153716802597046,0.02394815720617771,-0.3528984785079956,-0.03297837823629379,0.011508651077747345,-0.05441999435424805
168,3.0811220575081046,0.07615760923100037,-0.9755758240432753,0.06025857478380203,-0.07608401030302048,0.9952788949012756,-0.1073920726776123,-0.0698249340057373,-0.29368656873703003,-0.03111429512500763,0.01674259454011917,0.07202756404876709
169,3.06527428990883,0.05332277189914928,-0.9733607474688671,0.07613594830036163,-0.0532975047826767,0.9956722259521484,0.33620762825012207,-0.18695472180843353,0.11521223187446594,0.023626022040843964,-0.007539298385381699,0.038309335708618164
170,3.0680188500238796,0.04606733710162544,-0.9769948760766382,0.07342945784330368,-0.04605104401707649,0.9962365627288818,-0.10525564849376678,0.2580556273460388,-0.07803664356470108,-0.04663503170013428,-0.02107236534357071,-0.04074651002883911
171,3.077654955487707,0.04210797197549755,-0.9696918403390692,0.06383749097585678,-0.04209553077816963,0.9970718026161194,0.102552630007267,0.01883086748421192,0.007987014017999172,0.016316913068294525,0.009060263633728027,0.05917179584503174
172,3.0787816416366227,0.0351837901767132,-0.9806523609096118,0.06273085623979568,-0.03517653048038483,0.9974101185798645,0.06610694527626038,0.02812187187373638,0.13802528381347656,-0.006563276052474976,0.001591946929693222,-0.023823320865631104
173,3.0911395933636494,0.03312738544179458,-0.9880478497141348,0.05040399730205536,-0.03312132507562637,0.9981797337532043,0.07543205469846725,0.13202370703220367,0.013118940405547619,-0.023060239851474762,-0.009633805602788925,-0.0025740861892700195
174,3.0877201350846675,0.02781201788234695,-0.9906322746214359,0.05382565036416054,-0.027808433398604393,0.9981632232666016,-0.06493895500898361,-0.013550739735364914,-0.01710144430398941,-0.02726009115576744,-0.0028312187641859055,0.04865086078643799
175,3.0879587787720624,0.03542408279279561,-0.9873050273268018,0.053574543446302414,-0.03541667386889458,0.9979358315467834,-0.016084516420960426,-0.11150868237018585,-0.0054819658398628235,0.018248584121465683,0.0042734816670417786,0.002186417579650879
176,3.077555085186768,0.03324378582716994,-0.9940293573121171,0.06395847350358963,-0.03323766216635704,0.9973992109298706,0.03623577952384949,-0.12866999208927155,0.1465558558702469,0.04421110451221466,0.015918929129838943,-0.003853440284729004
177,3.0745186971303586,0.03659456706228951,-0.9998584695852224,0.0669788047671318,-0.036586400121450424,0.9970834255218506,-0.07208648324012756,-0.01902911625802517,-0.04369817674160004,-0.022438399493694305,-0.022297266870737076,0.003267526626586914
178,3.0659206077498524,0.034108841362953474,-0.990378760445234,0.07555588334798813,-0.03410222753882408,0.9965583682060242,0.012804344296455383,-0.05793274566531181,-0.2776246964931488,-0.05306442826986313,-0.02334711328148842,0.013619303703308105
179,3.0740188694965287,0.04069277160730291,-0.9544855326036771,0.06746647506952286,-0.040681540966033936,0.9968918561935425,0.1332278996706009,-0.1291363388299942,-0.31947213411331177,0.06340815871953964,0.057542502880096436,-0.04317176342010498
180,3.0232848297649895,-0.004771729563449343,-0.9403990041784251,0.11803065985441208,0.004771711304783821,0.9929983019828796,0.2054251879453659,-0.35366109013557434,-0.24300146102905273,-0.013630062341690063,-0.004878526087850332,0.01868969202041626
181,2.9863555475675287,-0.01435516653731874,-0.8983134789296068,0.1545984447002411,0.014354673214256763,0.9878732562065125,0.04017872363328934,-0.5357186198234558,-0.35660451650619507,0.0722692459821701,-0.0006827954202890396,-0.012668728828430176
182,2.8774895910583504,-0.06643643689052892,-0.8668737570697151,0.2604675889015198,0.06638757139444351,0.9631971716880798,0.6403791308403015,-1.072665810585022,-0.37296411395072937,-0.0005341768264770508,-0.024609029293060303,0.05152726173400879
183,2.858508382908538,-0.06355906063438414,-0.8468361126854769,0.2787545621395111,0.0635162740945816,0.9582599401473999,-0.2499346137046814,-0.049050621688365936,-0.10473997890949249,-0.016364365816116333,0.04839169979095459,-0.0138932466506958
184,2.8376962584663312,-0.06779818229886002,-0.8513401876926611,0.29855284094810486,0.06774625182151794,0.9519855976104736,0.2694147527217865,-0.004970534238964319,0.10702061653137207,0.008865952491760254,0.008730798959732056,0.008783996105194092
185,2.835934992104755,-0.08022509065503651,-0.864811154845225,0.2999526262283325,0.08013906329870224,0.9505822062492371,-0.009524947963654995,0.09677688777446747,0.09934337437152863,-0.0015516877174377441,0.023635990917682648,0.055048465728759766
186,2.83385462679688,-0.08245767891810307,-0.8793665193085117,0.30187445878982544,0.0823642686009407,0.9497828483581543,0.06857980787754059,0.006671597249805927,0.1097276508808136,-0.022257208824157715,-0.011044710874557495,0.0029451847076416016
187,2.8427925580329894,-0.08332083933396968,-0.886701369132657,0.29335251450538635,0.08322446793317795,0.9523751735687256,0.18110045790672302,0.008947066031396389,-0.035939425230026245,-0.05237039923667908,-0.008349567651748657,-0.024976253509521484
188,2.8410377980015817,-0.08948343556988324,-0.8878352345042919,0.2948656678199768,0.08936406672000885,0.9513505101203918,-0.1920507550239563,-0.01011637318879366,0.035420507192611694,0.00950130820274353,0.003958664834499359,0.06944698095321655
189,2.839357108415335,-0.07721525545690015,-0.8865275346366632,0.29676833748817444,0.07713855057954788,0.9518291354179382,0.17145617306232452,-0.14023585617542267,0.028190869837999344,0.003417879343032837,0.008798964321613312,-0.056366920471191406
190,2.8338821060108175,-0.09042231652589952,-0.8899331540991073,0.3016400933265686,0.09029915183782578,0.9491358399391174,0.028865868225693703,0.00041871354915201664,0.02221927046775818,0.02726304531097412,0.009325467050075531,0.04151028394699097
191,2.8454040790378903,-0.08796133470426439,-0.8941230993697127,0.2907484173774719,0.08784794807434082,0.9527580738067627,0.12558050453662872,0.21198932826519012,0.026985105127096176,-0.01914200186729431,-0.007312074303627014,-0.06256043910980225
192,2.873927327935024,-0.10833100081648955,-0.8964108753457952,0.2629302144050598,0.10811923444271088,0.9587376117706299,0.21999922394752502,0.13118529319763184,-0.020886411890387535,0.029809623956680298,0.012547262012958527,0.04106396436691284
193,2.8907818704415593,-0.08638214632302799,-0.9059800285128847,0.2472640872001648,0.08627475798130035,0.9650997519493103,-0.4137705862522125,0.12289035320281982,0.2491028606891632,0.03764808177947998,0.03817594796419144,0.05026602745056152
194,2.895141390562073,-0.05967845295845048,-0.9219456278022448,0.24352967739105225,0.059643033891916275,0.9680578708648682,-0.017795875668525696,0.12334554642438889,0.15248587727546692,-0.013961195945739746,-0.035610444843769073,-0.06960511207580566
195,2.9193270982860664,-0.07907107016307739,-0.9295189409841215,0.2197512835264206,0.0789887011051178,0.9723531007766724,0.42572808265686035,0.1754550188779831,-0.1863255649805069,-0.0645083338022232,0.007620193064212799,-0.04823493957519531
196,2.939467988336937,-0.07971537661340622,-0.9282403752768441,0.2001136839389801,0.07963097840547562,0.9765312671661377,-0.48870187997817993,0.1581823080778122,0.1618192195892334,0.0775352269411087,0.04352270066738129,0.19915837049484253
197,2.9556449756258907,-0.01806446929977878,-0.9419367041373288,0.18484778702259064,0.018063487485051155,0.9826011061668396,-0.4514908492565155,0.29082000255584717,0.20399755239486694,-0.03668496012687683,-0.006710946559906006,-0.09644699096679688
198,2.98700200871681,-0.01822215917216004,-0.9424013604224027,0.1539500653743744,0.01822115108370781,0.9879105687141418,0.09608099609613419,0.4820428788661957,-0.11078539490699768,-0.0052074044942855835,-0.03033663146197796,-0.001811385154724121
199,3.0389454686263098,0.01793734087709625,-0.9423202184938471,0.10245055705308914,-0.017936378717422485,0.9945765733718872,-0.3584267497062683,0.2756650745868683,0.16365768015384674,0.021679699420928955,0.04720273241400719,0.050864219665527344
200,3.0740744240896976,0.053790396743412225,-0.9571485815923759,0.06736937910318375,-0.0537644624710083,0.996278703212738,-0.27157866954803467,0.5985444188117981,0.1382548063993454,-0.019975565373897552,-0.027870066463947296,-0.07614302635192871
201,3.088183936764494,0.04950842033826081,-0.9569817117547581,0.05331790819764137,-0.04948819801211357,0.9973503947257996,-0.006151883862912655,-0.17663215100765228,0.06462874263525009,0.04081355407834053,0.03473295643925667,0.07110035419464111
202,3.100367381877074,0.07293441665701605,-0.9638781918826616,0.041104018688201904,-0.07286977022886276,0.9964938759803772,-0.2547149956226349,0.19167040288448334,0.11914104223251343,0.0169404037296772,0.00634147971868515,-0.0314062237739563
203,3.1101609282066165,0.06755395944908298,-0.968334272330425,0.031354863196611404,-0.06750258803367615,0.9972260594367981,0.21114689111709595,0.051326997578144073,-0.06569945067167282,-0.011671029031276703,0.009580239653587341,-0.0392032265663147
204,3.113386372947939,0.07444743526151465,-0.9665331038980843,0.02812441624701023,-0.07437868416309357,0.9968332052230835,-0.4531615972518921,0.11378584802150726,0.05603417754173279,0.017056848853826523,0.0018078982830047607,0.0934680700302124
205,3.1193722303144824,0.10220239899862861,-0.9757589963634764,0.022102659568190575,-0.10202457010746002,0.9945365190505981,0.11249278485774994,0.008769799023866653,0.06458207219839096,-0.023628534749150276,-0.008189685642719269,-0.14617812633514404
206,3.1177569336582716,0.05924496964082908,-0.9744513153052037,0.023791644722223282,-0.05921031907200813,0.9979618191719055,0.28915879130363464,-0.0690188780426979,-0.04462810605764389,0.01752915047109127,0.0026917755603790283,0.15601444244384766
207,3.1125801614854236,0.07537435660225159,-0.9776364714968706,0.02892606146633625,-0.07530300319194794,0.9967411756515503,-0.38109004497528076,-0.0352538526058197,0.1241239607334137,0.013752775266766548,0.02645961195230484,0.03899502754211426
208,3.103686929932781,0.08897945736094612,-0.9898287395175054,0.03774673491716385,-0.0888620913028717,0.9953286647796631,0.2722157835960388,-0.1178680881857872,0.007845712825655937,-0.025966942310333252,-0.016087882220745087,-0.15669012069702148
209,3.106724166787659,0.07391869802760807,-0.9880422336602452,0.03476622328162193,-0.07385139912366867,0.9966630935668945,-0.5149456262588501,0.42187365889549255,0.011765768751502037,0.046914078295230865,0.03375130146741867,0.13886547088623047
210,3.111057591031896,0.09580917178153445,-0.9937072379396801,0.030390294268727303,-0.0956626608967781,0.9949496388435364,0.03516105189919472,-0.13944999873638153,0.08663609623908997,-0.007914107292890549,-0.013590246438980103,-0.0377659797668457
211,3.1089043992308056,0.08663693017152815,-0.9950538471167899,0.03255985304713249,-0.08652859181165695,0.9957171082496643,0.2582903206348419,-0.06492601335048676,-0.07987657189369202,0.01054622232913971,0.010173611342906952,-0.06592285633087158
212,3.1080331023072,0.07229600148030106,-0.9897930222578986,0.03346559777855873,-0.07223303616046906,0.9968260526657104,-0.1731233298778534,0.12897442281246185,-0.03512944281101227,0.015194673091173172,0.021238170564174652,0.1035308837890625
213,3.0972725025070904,0.0796413445116437,-0.9925188912560271,0.04416520521044731,-0.07955718040466309,0.9958513975143433,0.13374122977256775,-0.28174933791160583,0.06588912755250931,0.005883615463972092,0.01705719530582428,-0.06753724813461304
214,3.0831872005422274,0.05138280403492962,-0.9964628473146468,0.05829521268606186,-0.051360197365283966,0.9969773292541504,0.2547864615917206,0.05374784767627716,-0.04360974580049515,-0.01953788846731186,-0.015824250876903534,-0.02346658706665039
215,3.0907723767802953,0.04126211545069703,-0.9946611641993269,0.05075516924262047,-0.041250407695770264,0.9978588819503784,-0.11885865032672882,0.04623265936970711,0.02794807031750679,0.022822722792625427,0.027685340493917465,0.12697327136993408
216,3.093324494823443,0.061723750969409984,-0.9989792373960703,0.04815752059221268,-0.06168456748127937,0.996932864189148,-0.07097882032394409,-0.07510159909725189,0.060297951102256775,-0.00877460092306137,-0.009940177202224731,-0.0700991153717041
217,3.083172213205536,0.04162368481286429,-0.9975997786138466,0.058336637914180756,-0.04161166772246361,0.9974292516708374,0.5718437433242798,-0.2535695433616638,-0.11792734265327454,-0.0044883787631988525,0.009781837463378906,-0.06832170486450195
218,3.074695161413472,0.02564102074913869,-0.9890613720013818,0.06682565063238144,-0.025638211518526077,0.997435450553894,-0.3616349399089813,0.10872141271829605,-0.02196519449353218,0.040458910167217255,0.01919899694621563,0.10939157009124756
219,3.066173637032843,0.04011726760721505,-0.9942073655258813,0.07528693228960037,-0.04010650888085365,0.9963552951812744,0.0006033238023519516,-0.02112342044711113,0.05991050601005554,-0.0008850619196891785,-0.0007717981934547424,-0.07818794250488281
220,3.0702092807166217,0.020965248483159428,-0.9974047120307834,0.07130709290504456,-0.02096371352672577,0.997234046459198,0.3091048300266266,0.00043793441727757454,-0.014877909794449806,-0.0030850470066070557,-0.004274323582649231,0.04506325721740723
221,3.072191479900181,0.02689910429092913,-0.9981363448199699,0.06932038068771362,-0.026895860210061073,0.9972317218780518,-0.3663272559642792,0.07178027182817459,0.059723496437072754,0.00022917985916137695,0.01835094392299652,0.09741842746734619
222,3.075314635609571,0.05188107328008233,-1.0057544356914974,0.06614040583372116,-0.051857803016901016,0.9964621067047119,0.31775322556495667,-0.35047242045402527,0.07214687019586563,-0.013375505805015564,0.007424194365739822,-0.1812610626220703
223,3.0516141409593183,0.008533663794391555,-1.0101381258145845,0.08985387533903122,-0.008533560670912266,0.9959183931350708,0.01607591100037098,0.1551946997642517,-0.01955718919634819,-0.0014292001724243164,0.0015145167708396912,0.1204451322555542
224,3.0517650784322727,0.009345720589926004,-1.0083222143989392,0.08970291167497635,-0.0093455845490098,0.9959247708320618,0.20756062865257263,-0.2731533348560333,-0.03151976317167282,-0.024746239185333252,-0.0036854231730103493,-0.004622220993041992
225,3.041385609374439,-0.0017915245761534093,-1.0033539298198049,0.1000392735004425,0.0017915236530825496,0.9949820041656494,0.007772272452712059,0.03991348296403885,-0.10166022181510925,0.005719408392906189,-0.005041647702455521,-0.019411206245422363
226,3.04257512953913,-0.01183890823416193,-0.9950922895369257,0.09884888678789139,0.011838631704449654,0.9950321912765503,0.19271129369735718,-0.0684683620929718,-0.0679791122674942,0.02157348394393921,0.029894156381487846,0.010827302932739258
227,3.0437609510976764,-0.013188375993921643,-0.9955614812742959,0.09766723215579987,0.013187993317842484,0.9951318502426147,-0.1883428394794464,0.12940770387649536,0.017842592671513557,-0.006206035614013672,-0.0006757881492376328,0.055817365646362305
228,3.0526244084439216,0.005071037888244202,-0.9922725366587404,0.08884977549314499,-0.005071016028523445,0.9960321187973022,-0.033606138080358505,0.007166936527937651,-0.03206261992454529,-0.001630544662475586,0.006886810064315796,-0.023177504539489746
229,3.0505686816564372,0.0030280843276549187,-0.9899198283478569,0.09089793264865875,-0.0030280796345323324,0.9958558082580566,1.2233853340148926e-05,-0.0007558711804449558,-0.016628175973892212,0.0003954097628593445,0.010199710726737976,0.01000368595123291
230,3.0497466372970083,0.0020151817795693227,-0.9869522544521757,0.09171676635742188,-0.0020151804201304913,0.995783269405365,0.0538100004196167,-0.06429389864206314,-0.0339561402797699,0.013217948377132416,-0.01277058944106102,0.004384756088256836
231,3.0506249162944075,0.003431993041869094,-0.9807153644307198,0.09084180742502213,-0.0034319863189011812,0.9958596229553223,0.0008021099492907524,0.025715090334415436,-0.03773929551243782,0.02674243599176407,0.018599219620227814,-0.00017762184143066406
232,3.049307049768794,0.0035785381134996147,-0.9816348573061452,0.09215407818555832,-0.003578530391678214,0.9957383275032043,-0.11768436431884766,0.0831611379981041,-0.008630571886897087,-0.02176528424024582,0.000496257096529007,0.007603287696838379
233,3.0506605271267624,0.0017728663359576763,-0.977412159099174,0.09080672264099121,-0.0017728654202073812,0.9958670139312744,-0.020805031061172485,0.05775008723139763,-0.0752028375864029,-0.005113363265991211,-0.020062461495399475,0.023694753646850586
234,3.0576286586699544,0.002849682850414012,-0.969835624252034,0.08386502414941788,-0.002849678974598646,0.996472954750061,0.05075310915708542,0.07373914122581482,-0.07714705169200897,0.008481152355670929,0.006420232355594635,-0.011075735092163086
235,3.0666618218456514,0.0023117374574485126,-0.9653970476033156,0.07486054301261902,-0.002311735413968563,0.9971914291381836,-0.27194109559059143,0.2425442636013031,0.04553072899580002,0.04185393452644348,0.03632357716560364,0.0933542251586914
236,3.0869352071212925,0.03728343643252593,-0.9778773488306695,0.05459227412939072,-0.0372748002409935,0.997812807559967,-0.22464783489704132,0.09440900385379791,0.17772945761680603,-0.012188099324703217,0.0094427689909935,-0.052484989166259766
237,3.078067186017196,0.030184155252050468,-0.9848382183578763,0.06345382332801819,-0.030179571360349655,0.9975281953811646,0.25296175479888916,-0.10139364004135132,-0.05019168555736542,-0.05525986850261688,-0.04469529911875725,-0.07475310564041138
238,3.078721159425693,0.014919554714137752,-0.9733857638427905,0.06282307952642441,-0.01491900160908699,0.9979130625724792,-0.05831943079829216,0.018359020352363586,-0.08459299802780151,0.0396549254655838,0.01723834127187729,0.1043207049369812
239,3.0873408112639407,0.03411107975863392,-0.9693474540969487,0.054193682968616486,-0.03410446643829346,0.9979477524757385,-0.3291018605232239,0.18067634105682373,0.05109035596251488,0.03673342987895012,0.019166119396686554,0.004936039447784424
240,3.103634161639616,0.04484001462686502,-0.9760609489114793,0.03791123256087303,-0.0448249913752079,0.9982752203941345,0.15619878470897675,0.12707215547561646,-0.06183907017111778,-0.04573899134993553,-0.009206384420394897,-0.0783076286315918
241,3.1152762594920023,0.041662807847075815,-0.9749732841681039,0.026290515437722206,-0.04165075719356537,0.9987860321998596,-0.2454531490802765,0.11991988122463226,0.07233434915542603,0.04591406509280205,0.037729259580373764,0.16266697645187378
242,3.115364407019632,0.08272253706068393,-0.9876301943003328,0.026135560125112534,-0.08262822031974792,0.9962376356124878,-0.574571967124939,0.17270147800445557,0.14669348299503326,0.003725888207554817,0.005739189684391022,-0.04090017080307007
243,3.1243542266540274,0.08152498239979808,-0.9941108698163077,0.017180319875478745,-0.0814347043633461,0.9965304732322693,0.7612879276275635,-0.19399085640907288,-0.040038153529167175,-0.024794457480311394,-0.029740825295448303,-0.17347151041030884
244,3.1185398704099248,0.05062821168778959,-0.9881844285825935,0.023021208122372627,-0.050606586039066315,0.9984533786773682,-0.34019139409065247,0.017378687858581543,-0.04267603158950806,0.012821685522794724,0.027703143656253815,0.20787596702575684
245,3.098643764077474,0.08334276205346748,-0.9904468611740601,0.04278666153550148,-0.08324631303548813,0.9956101775169373,-0.355815589427948,-0.13936680555343628,0.08139015734195709,0.00550740584731102,0.010141447186470032,-0.04065406322479248
246,3.0987228571357033,0.08535841909117169,-0.9924837083143933,0.0427006259560585,-0.08525480329990387,0.9954436421394348,0.2641697824001312,0.1393570750951767,-0.044565413147211075,-0.0159367136657238,-0.018871165812015533,-0.12746280431747437
247,3.111194610624624,0.06015692304525261,-0.9835548110675617,0.030338386073708534,-0.06012064591050148,0.997730016708374,0.005007452331483364,0.05322504788637161,0.012819870375096798,0.044460199773311615,0.011567182838916779,0.20249581336975098
248,3.1144155783557226,0.09315656610299801,-0.9875079544540739,0.027055909857153893,-0.09302188456058502,0.9952965378761292,-0.2726753354072571,-0.12750551104545593,0.04899156466126442,-0.021578006446361542,-0.003367885947227478,-0.06487655639648438
249,3.115949299534092,0.08764193042767948,-0.986657841608475,0.025542136281728745,-0.08752977848052979,0.9958345293998718,0.529065728187561,0.12008895725011826,-0.006775105372071266,-0.009596697986125946,-0.011637099087238312,-0.13610851764678955
250,3.1361224692012835,0.07419670455042614,-0.9777961663201942,0.005455107893794775,-0.0741286426782608,0.9972338676452637,-0.3249455392360687,0.17576134204864502,0.003914264962077141,0.029731659218668938,0.0385756641626358,0.19707167148590088
251,3.122929785473617,0.09814381758280596,-0.980132073305912,0.018571974709630013,-0.09798633307218552,0.9950142502784729,-0.09571866691112518,-0.2321336269378662,0.036056846380233765,0.0005777981132268906,0.005457065999507904,-0.0769084095954895
252,3.114266493973526,0.07330182604915765,-0.9821559082796677,0.02724938839673996,-0.07323619723320007,0.9969423413276672,0.4672985374927521,0.13464586436748505,-0.0402153804898262,-0.02485375665128231,-0.028356827795505524,-0.08196425437927246
253,3.1389184739539426,0.06611053142493124,-0.9691898729475176,0.0026683351024985313,-0.06606238335371017,0.997812032699585,-0.2795729339122772,0.2076636552810669,-0.04209732264280319,0.037599608302116394,0.04027502238750458,0.1611999273300171
254,3.1328930267451613,0.09721559873731656,-0.9706374106766348,0.008658438920974731,-0.09706254303455353,0.9952404499053955,-0.2090875804424286,-0.16477036476135254,0.06050761789083481,0.01078125648200512,0.009049862623214722,-0.060395658016204834
255,3.1294479715839407,0.09397903177872245,-0.9742174060901262,0.012090794742107391,-0.09384075552225113,0.995513916015625,0.39338043332099915,0.07602863758802414,0.033317551016807556,0.012674221768975258,-0.004456385970115662,-0.17993152141571045
256,-3.1364784578837055,0.07236907231077908,-0.9682634864885432,-0.0051007880829274654,-0.07230591773986816,0.997369647026062,-0.27078428864479065,0.21359463036060333,0.0016190940514206886,0.027088701725006104,0.002176523208618164,0.21175217628479004
257,-3.138724172534895,0.10311254257533231,-0.9706388479987785,-0.0028532412834465504,-0.10292991995811462,0.9946843981742859,-0.24818743765354156,-0.1230873167514801,0.037215325981378555,-0.00526443449780345,0.010125979781150818,-0.02433234453201294
258,-3.137211360886467,0.09957639393689953,-0.9727855400431878,-0.00435957545414567,-0.09941191971302032,0.995036780834198,0.5159022808074951,0.035623908042907715,-0.0024860985577106476,0.012126300483942032,0.006195977330207825,-0.14240622520446777
259,-3.1221611685447344,0.08035464393012175,-0.9744318949370587,-0.01936757005751133,-0.08026819676160812,0.9965853095054626,-0.2197818011045456,0.22588756680488586,-0.005146419629454613,-0.03239024430513382,0.01241234689950943,0.14341425895690918
260,-3.118196914819934,0.10321346729568957,-0.9761198210905688,-0.023269103839993477,-0.10303030908107758,0.9944058060646057,-0.2741444408893585,0.017811276018619537,-0.04828735068440437,-0.032623838633298874,-0.01702582836151123,-0.018240272998809814
261,-3.126896203509135,0.09004859236725893,-0.9689720290493481,-0.014636380597949028,-0.08992694318294525,0.9958409667015076,0.22709520161151886,0.05093108490109444,0.048766788095235825,0.05539260059595108,0.02611466497182846,0.020440340042114258
262,-3.10399546171083,0.08753641567776203,-0.9698901826945786,-0.03744442015886307,-0.08742466568946838,0.9954673647880554,-0.2028818279504776,0.6748481392860413,0.0228594858199358,-0.01495426893234253,-0.003258340060710907,0.1200113296508789
263,-3.016592953584114,0.1238450296736322,-0.9676623748818887,-0.12371953576803207,-0.12352868914604187,0.9845983386039734,-0.6866551637649536,1.7178919315338135,-0.004524510353803635,-0.012205734848976135,-0.003409154713153839,0.07066887617111206
264,-2.7409845284580094,0.25807640037269086,-0.9958583647222701,-0.3770633041858673,-0.2552211284637451,0.8903287053108215,-1.9120509624481201,3.7236745357513428,0.04870082437992096,0.10153540968894958,0.04606896638870239,0.09738785028457642
265,-2.202620383219565,0.45294657706763736,-1.161928733466612,-0.7255799174308777,-0.43761688470840454,0.5310607552528381,-4.024222373962402,6.17627477645874,-0.14821875095367432,0.2090698480606079,0.14028412103652954,0.36881113052368164
266,-1.3770963611317721,0.5122507772740188,-1.7173302670388262,-0.8553425669670105,-0.4901403486728668,-0.1677834838628769,-5.495520114898682,4.923103332519531,0.5351438522338867,0.20717984437942505,0.1658453345298767,0.01891876757144928
267,-0.9123542186940002,0.3538616605416817,-2.080465311110819,-0.7419406175613403,-0.3465227782726288,-0.5739738941192627,-2.485159158706665,1.190323829650879,0.014880187809467316,0.07307165861129761,0.06464722752571106,0.04276973009109497
268,-0.8602229126311379,0.11581730075943275,-2.2602354654332744,-0.7529099583625793,-0.11555854976177216,-0.6478987336158752,-1.8444124460220337,0.5213980078697205,0.48581984639167786,-0.042668044567108154,-0.08271414041519165,-0.03503882884979248
269,-0.9163670043698179,0.07817264293183478,-2.285354907484142,-0.7909724712371826,-0.07809305191040039,-0.6068476438522339,-0.8599798083305359,-1.2615834474563599,-0.24462439119815826,-0.08262372016906738,-0.006867885589599609,0.04150950908660889
270,-0.9709245833375532,0.0499696260644792,-2.3167338256507635,-0.8243777751922607,-0.049948833882808685,-0.5638319849967957,-0.3013416826725006,-2.0274605751037598,0.23012427985668182,-0.03948330879211426,-0.043053507804870605,-0.12450724840164185
271,-1.0916582478292767,0.03762669842677413,-2.3592582582775368,-0.8867644667625427,-0.037617821246385574,-0.46068814396858215,-0.3455032408237457,-0.7557325959205627,-0.05660240724682808,0.04437255859375,-0.01577267050743103,-0.08038848638534546
272,-1.1594178069070071,-0.03192682654510873,-2.3874445700626765,-0.9161033034324646,0.031921401619911194,-0.3996694087982178,-0.13626933097839355,-0.379061222076416,0.5242908000946045,-0.002002716064453125,0.019882168620824814,-0.03969213366508484
273,-1.165798575024856,-0.047393308139623454,-2.384336413903586,-0.9180713295936584,0.04737556725740433,-0.3935742974281311,-0.29940253496170044,-0.37579241394996643,-0.11414015293121338,-0.043247759342193604,-0.036587588489055634,0.012028217315673828
274,-1.1950281707623227,-0.045186765528582085,-2.3971941043504907,-0.9292765259742737,0.04517139121890068,-0.36661261320114136,0.08097286522388458,-0.08171571791172028,0.11122889816761017,0.020203590393066406,-0.008443474769592285,0.024174869060516357
275,-1.2285009686318713,-0.05289609981561374,-2.384092260973886,-0.9406691789627075,0.05287143588066101,-0.33518069982528687,0.3051162660121918,-0.5963836908340454,-0.03427568078041077,0.01591026782989502,0.05558803677558899,-0.062112390995025635
276,-1.278701675220374,-0.037264176228066895,-2.35313381204934,-0.9569780826568604,0.03725555166602135,-0.2877589166164398,-0.11990386247634888,-0.04640970751643181,0.06984725594520569,0.0169755220413208,-0.08588531613349915,0.08242133259773254
277,-1.3170682343817528,0.011345778028188322,-2.384903861930908,-0.9679210782051086,-0.011345534585416317,-0.25099828839302063,-0.16108845174312592,-0.4799129068851471,-0.4979301989078522,0.011362850666046143,0.0010305941104888916,0.031012296676635742
278,-1.3083469342540728,-0.00425512310696099,-2.382347188258057,-0.9657487273216248,0.004255110397934914,-0.2594445049762726,-0.000680629163980484,-0.0012090662494301796,-0.12240000069141388,-0.06533348560333252,0.0028249621391296387,-0.013779401779174805
279,-1.3169393612264126,0.016621805750187114,-2.39328030803865,-0.9678171873092651,-0.016621040180325508,-0.251104474067688,-0.02567392587661743,-0.043794866651296616,-0.22861924767494202,0.017530381679534912,-0.010600626468658447,-0.007898211479187012
280,-1.3232780303073148,0.015280512128231472,-2.3954463007388345,-0.9694101810455322,-0.015279917046427727,-0.24497002363204956,-0.024779541417956352,-0.22507984936237335,0.018111487850546837,0.0326274037361145,-0.024362415075302124,0.016118720173835754
281,-1.3258339969185327,0.013315935021476962,-2.396685854069918,-0.9700605273246765,-0.013315541669726372,-0.24249829351902008,-0.04270672798156738,0.0738041028380394,-0.03016791120171547,-0.08165162801742554,-0.004323603585362434,0.013280719518661499
282,-1.3189237181255773,0.0299413802446151,-2.3884837229248124,-0.9680134057998657,-0.029936905950307846,-0.24910622835159302,0.13027025759220123,0.03736601769924164,-0.03799603134393692,0.06554758548736572,-0.009400248527526855,0.001959562301635742
283,-1.3173801557389349,0.02085168892012014,-2.386165907322667,-0.9678511023521423,-0.020850177854299545,-0.25065797567367554,0.016754932701587677,0.02991415373980999,0.05746486783027649,-0.02166604995727539,-0.014092443510890007,-0.007017165422439575
284,-1.3168399612147965,0.021057308123082433,-2.3839726457625674,-0.9677115082740784,-0.02105575241148472,-0.25117969512939453,-0.011031746864318848,0.027558892965316772,0.07958892732858658,0.01414400339126587,-0.008866727352142334,0.005940437316894531
285,-1.3197923990268952,0.01849023210176091,-2.382867368299282,-0.9684979915618896,-0.018489178270101547,-0.2483340948820114,0.039226412773132324,-0.04383253678679466,0.04054395109415054,0.0042951107025146484,-0.0038191676139831543,-0.007479548454284668
286,-1.3187556089554713,0.016426074497566227,-2.3773512911733157,-0.9682750105857849,-0.01642533577978611,-0.24934710562229156,-0.010810364969074726,0.07826443761587143,0.04714376479387283,-0.028017163276672363,-0.007332593202590942,0.03070390224456787
287,-1.3199339609276086,0.02468139999553285,-2.3756194162162774,-0.968403697013855,-0.024678893387317657,-0.24816381931304932,0.07469481974840164,-0.08582914620637894,-0.17767471075057983,0.0056656599044799805,-0.0066321492195129395,-0.0027974843978881836
288,-1.328728921238937,0.03162054079670918,-2.3749601693372537,-0.9703591465950012,-0.03161527216434479,-0.23959043622016907,0.01973843201994896,-0.08664298057556152,0.00874057225883007,0.038443922996520996,-0.00987335667014122,0.0076720863580703735
289,-1.3309813608802659,0.030754937171266764,-2.375842320200076,-0.9709226489067078,-0.030750088393688202,-0.23741057515144348,-0.003185219131410122,0.025669872760772705,-0.09340560436248779,-0.049279987812042236,0.010226994752883911,-0.017975807189941406
290,-1.3269893696348447,0.04127568500236451,-2.374361882958132,-0.9695994257926941,-0.041263967752456665,-0.24119311571121216,0.0022593471221625805,0.0850415825843811,0.06667647510766983,0.11312365531921387,-0.0063739679753780365,0.04133351147174835
291,-1.3456019461458562,0.03183063535365046,-2.380304981900883,-0.9742569327354431,-0.03182525932788849,-0.22318272292613983,-0.05566108226776123,-0.2751685380935669,-0.009267818182706833,-0.04249715805053711,-0.010060098022222519,-0.014671310782432556
292,-1.3399301387000147,0.031925567519521345,-2.3820880708211263,-0.9729726314544678,-0.03192014619708061,-0.22870424389839172,-0.001997603103518486,0.15484242141246796,-0.024583637714385986,-0.03949391841888428,0.012663539499044418,0.006368368864059448
293,-1.3429585812932907,0.03835968344818894,-2.3829757483699794,-0.9734405279159546,-0.03835027664899826,-0.22570553421974182,0.01905275695025921,-0.1051180362701416,0.0009918948635458946,0.07172226905822754,-0.004206512123346329,-0.013704925775527954
294,-1.352949291612917,0.04260395554874711,-2.378742822379646,-0.9754791259765625,-0.042591068893671036,-0.2159319519996643,0.02152898907661438,0.08700142800807953,0.057087354362010956,-0.0492706298828125,0.0014838874340057373,0.015294134616851807
295,-1.3473465668845006,0.044877654753924176,-2.37546735036146,-0.9741570949554443,-0.04486259073019028,-0.2213718444108963,0.026736201718449593,-0.0548076257109642,-0.16765694320201874,0.012319207191467285,-0.010938797146081924,0.01031222939491272
296,-1.348307414042856,0.04583630871213932,-2.377977073414304,-0.9743269085884094,-0.04582025855779648,-0.22042612731456757,-0.043468743562698364,-0.05436989665031433,0.06983180344104767,0.045219242572784424,-0.008089035749435425,0.01859813928604126
297,-1.3471770440270077,0.039783576621376396,-2.381582590749857,-0.9743295311927795,-0.039773084223270416,-0.2215847373008728,-0.08994480222463608,0.08801000565290451,0.03965961933135986,-0.05501300096511841,0.003838632255792618,-0.013553187251091003
298,-1.3495678657049075,0.05549311859323682,-2.3848349391008066,-0.9741267561912537,-0.05546464025974274,-0.2190905213356018,-0.02789187803864479,0.11322268843650818,-0.07426255941390991,0.04533958435058594,-0.011185731738805771,0.0279131680727005
299,-1.3465217652486063,0.05522699363938259,-2.3854792734790546,-0.9734691977500916,-0.055198922753334045,-0.22206006944179535,0.010479993186891079,-0.08987217396497726,-0.05573146045207977,0.021015644073486328,-0.006614413112401962,-0.0014048665761947632
300,-1.3408291725316368,0.049422631178990636,-2.3863859114448798,-0.9724849462509155,-0.04940251260995865,-0.2276672124862671,0.005702298600226641,0.1313716024160385,0.13276013731956482,-0.0031009912490844727,0.0042365193367004395,0.00728452205657959
301,-1.3079631068711615,0.02770906716087162,-2.380089896569011,-0.9652871489524841,-0.027705522254109383,-0.25971782207489014,0.009829463437199593,0.4779937267303467,0.26938095688819885,-0.022505879402160645,-0.002705249935388565,-0.008882671594619751
302,-1.2783425590333592,0.030102012380873146,-2.3711673013850723,-0.9571056365966797,-0.030097465962171555,-0.2881720960140228,0.22326672077178955,0.41397401690483093,-0.18496936559677124,0.012479662895202637,-0.01775411143898964,0.006021767854690552
303,-1.237658173175346,0.03815266262823837,-2.351062729762704,-0.944333016872406,-0.03814340755343437,-0.3267722725868225,0.18935169279575348,0.8055498003959656,0.0024901339784264565,-0.0031919479370117188,-0.020374029874801636,0.04919964075088501
304,-1.1827660984798412,0.044375422003032426,-2.353615240022885,-0.9247449636459351,-0.04436086118221283,-0.3779933750629425,-0.16289004683494568,0.2716573476791382,-0.014004014432430267,-0.013441681861877441,-0.022442132234573364,0.004290342330932617
305,-1.0905782307388647,0.05682596927019253,-2.3685627501510136,-0.8854625821113586,-0.0567953921854496,-0.4612269103527069,-0.02500617504119873,1.4569228887557983,-0.30409738421440125,-0.007252871990203857,-0.0006692111492156982,0.0016627311706542969
306,-0.9126228478602577,0.13104782784903035,-2.37651330030964,-0.7843274474143982,-0.13067305088043213,-0.6064280867576599,0.49860161542892456,1.5580769777297974,-0.4929351806640625,0.006037652492523193,0.04041732847690582,0.019208908081054688
307,-0.7736403057774697,0.16699607243131412,-2.3459758161719577,-0.689023494720459,-0.16622096300125122,-0.7054198980331421,-0.26526662707328796,0.5335204005241394,0.24008898437023163,0.015134334564208984,0.021079376339912415,-0.00609743595123291
308,-0.7465876472055091,0.14191984963082926,-2.349941628975937,-0.6723101139068604,-0.14144392311573029,-0.7266310453414917,-0.020207159221172333,0.4613765478134155,0.08569377660751343,-0.017387092113494873,0.005701735615730286,0.017951905727386475
309,-0.7035733116981774,0.16116351604500032,-2.3395668374382246,-0.6385629773139954,-0.1604667603969574,-0.7526538372039795,0.24119900166988373,0.6003769636154175,0.03352246806025505,0.01782017946243286,0.004064157605171204,0.04829287528991699
310,-0.6166412442217546,0.15992714890534993,-2.307372726913371,-0.5709185600280762,-0.1592462807893753,-0.8054145574569702,0.17090962827205658,0.9942312240600586,0.39290571212768555,-0.031147480010986328,-0.063120037317276,0.0018104314804077148
311,-0.49379514618018,0.11902324549463879,-2.3413681988366615,-0.47061777114868164,-0.11874242126941681,-0.8743106722831726,-0.41933536529541016,1.0830694437026978,-0.030269581824541092,0.02048349380493164,0.002775624394416809,-0.028292477130889893
312,-0.427919392952944,0.09590801429116882,-2.3381376904065325,-0.4130716025829315,-0.09576104581356049,-0.9056498408317566,-0.05240114405751228,0.5310242176055908,0.12410151958465576,-0.02230742573738098,0.00780940055847168,-0.05025219917297363
313,-0.39760060380110934,0.11716678387749757,-2.3234643815611005,-0.3845524787902832,-0.11689888685941696,-0.9156713485717773,0.5430134534835815,-0.24472573399543762,0.08648128807544708,-0.025817394256591797,-0.006361603736877441,-0.02840512990951538
314,-0.37803640134216554,0.12370960827794442,-2.2956010263521303,-0.36627548933029175,-0.12339430302381516,-0.9222885370254517,0.0387212336063385,0.30136755108833313,0.07497379928827286,-0.06287795305252075,-0.013889022171497345,-0.01777493953704834
315,-0.38495921849209963,0.18750436363873438,-2.2941997116632535,-0.3689393997192383,-0.18640758097171783,-0.9105690121650696,0.2597677409648895,-0.17664802074432373,-0.22923588752746582,-0.013461112976074219,0.036566272377967834,0.11584550142288208
316,-0.3539276044800375,0.180588479404267,-2.3136504902350206,-0.34094852209091187,-0.1796085089445114,-0.922764778137207,0.26533806324005127,0.3897497057914734,-0.33955004811286926,0.002829045057296753,0.0024234652519226074,-0.0912427306175232
317,-0.24313342435427138,0.21203573336151038,-2.331632834557915,-0.2353534698486328,-0.21045047044754028,-0.9488515853881836,0.26098230481147766,2.4048471450805664,-0.5217785835266113,-0.027433395385742188,-0.05567806959152222,-0.0986185073852539
318,-0.1633803656079892,0.3421494370541994,-2.35002363890071,-0.1532263308763504,-0.3355126976966858,-0.9294906854629517,1.8162117004394531,-2.0804977416992188,0.11688727885484695,0.1275763064622879,0.08613833785057068,0.05388033390045166
319,-0.20539450421821456,0.48311364054185413,-2.3613010918392185,-0.1806114912033081,-0.46453872323036194,-0.8669390082359314,0.9565590620040894,1.1964268684387207,-0.5306618213653564,-0.1279517412185669,0.09880080819129944,0.026637494564056396
320,-0.18734597249457008,0.6136839690013918,-2.350702815155375,-0.1522669494152069,-0.575883150100708,-0.803226888179779,2.3061745166778564,-1.1872048377990723,-0.4604491591453552,-0.1500554382801056,0.026353120803833008,-0.15934330224990845
321,-0.2882715480423756,0.8718555469175395,-2.3769378887463213,-0.18291780352592468,-0.76552414894104,-0.616858184337616,1.2881884574890137,0.8776472806930542,-0.6137133240699768,0.06991121172904968,-0.004800558090209961,0.2714449167251587
322,-0.1576080950807615,0.9188522483148259,-2.406370583324682,-0.09523060917854309,-0.7949057817459106,-0.5992127656936646,0.5786807537078857,0.24670901894569397,-0.009807450696825981,0.07035879790782928,0.06526100635528564,0.04196178913116455
323,-0.14474743610631127,0.9454543649637664,-2.399731732975609,-0.08443588763475418,-0.8107630014419556,-0.5792528986930847,-0.0962444394826889,0.16082188487052917,-0.05673708766698837,-0.0019440874457359314,0.018221557140350342,0.11469906568527222
324,-0.1442322827646306,0.925430648441386,-2.4044520879277638,-0.086453877389431,-0.798879861831665,-0.5952450037002563,-0.5069109201431274,0.15130887925624847,0.03645222261548042,0.0221380814909935,0.017507851123809814,0.07443207502365112
325,-0.17462261505308777,0.8855295874190988,-2.38421807876255,-0.10995429009199142,-0.7742502689361572,-0.6232548952102661,-0.16771112382411957,-0.31863829493522644,0.24604962766170502,0.01728767156600952,-0.010158300399780273,-0.023137927055358887
326,-0.1902159164662864,0.8435745434174557,-2.375814786328785,-0.12569373846054077,-0.7470242381095886,-0.6528061628341675,-0.5075252652168274,0.12056145071983337,0.14040429890155792,0.02858680486679077,0.011367499828338623,-0.0017195940017700195
327,-0.18141083299927513,0.8035429884241558,-2.361523426391742,-0.12523868680000305,-0.7198200225830078,-0.6827695965766907,-0.5726838707923889,0.5008757710456848,0.08352316170930862,-0.04968804121017456,-0.027448594570159912,0.04563891887664795
328,-0.15705778067612475,0.7790331923631949,-2.36552590803006,-0.11130234599113464,-0.7025917768478394,-0.7028347253799438,-0.009925412014126778,-0.023960528895258904,-0.00660034641623497,-0.00979141891002655,-0.012465596199035645,0.04473841190338135
329,-0.13971780816416426,0.748271668550623,-2.371896356376495,-0.10206159949302673,-0.6803731322288513,-0.7257243990898132,-0.2723444402217865,0.029995940625667572,0.04023333638906479,-0.007465988397598267,-0.004471838474273682,-0.015593409538269043
330,-0.13884083082957488,0.7338466316906951,-2.367447157367702,-0.1027727797627449,-0.669731080532074,-0.7354576587677002,-0.16224345564842224,0.0811445415019989,0.06294199079275131,-0.0066785141825675964,0.00583648681640625,-0.00831669569015503
331,-0.13919182044272704,0.7377892443470278,-2.3692155968999087,-0.10266377031803131,-0.6726536750793457,-0.7328009605407715,0.09474214166402817,-0.01237314660102129,0.0828230157494545,0.008852735161781311,0.013428211212158203,-0.005526065826416016
332,-0.1456013512060129,0.7393710097708843,-2.362059227229236,-0.10720403492450714,-0.6738232970237732,-0.7310742139816284,-0.04793279618024826,-0.07814446091651917,-0.002478424459695816,-0.0013164877891540527,-0.0013781189918518066,0.03562438488006592
333,-0.1467370487045584,0.7441842514472331,-2.3829714718652815,-0.10755879431962967,-0.6773719191551208,-0.727735161781311,-0.09440921247005463,-0.0579366609454155,-0.2400004267692566,0.0036922097206115723,0.0013923048973083496,0.010938286781311035
334,-0.14172460291593625,0.7462204263098835,-2.389685289491317,-0.10371468216180801,-0.6788684129714966,-0.7268981337547302,0.042138613760471344,-0.044049981981515884,0.04849883168935776,0.014603354036808014,0.019169986248016357,0.035308837890625
335,-0.15324676295328377,0.7446337742517534,-2.384255384358043,-0.11224733293056488,-0.6777025461196899,-0.726718544960022,0.08552886545658112,-0.17691121995449066,0.060755398124456406,0.01097474992275238,0.001967132091522217,-0.018673300743103027
336,-0.1622980289892841,0.7472180626102989,-2.376838547938232,-0.11853697150945663,-0.6796005964279175,-0.72394198179245,0.05201055854558945,-0.1726827621459961,0.017545707523822784,-0.02072998881340027,0.0005692839622497559,0.02347201108932495
337,-0.17274689596255294,0.7421912639963274,-2.377110189334685,-0.12668034434318542,-0.6759044528007507,-0.726020097732544,-0.04969204589724541,-0.0557122565805912,0.0073781684041023254,0.006532639265060425,0.002640962600708008,-0.015572309494018555
338,-0.18059279989531815,0.7407150801442918,-2.3710930718678895,-0.13255175948143005,-0.6748157739639282,-0.7259846925735474,-0.05607259273529053,0.011990574188530445,0.06184887886047363,-0.0013746321201324463,0.009715676307678223,0.022615551948547363
339,-0.18544455437622853,0.7342811853047584,-2.366931362906552,-0.13687019050121307,-0.6700537204742432,-0.7295851707458496,-0.027814378961920738,-0.06896176189184189,0.07138897478580475,-0.0024730563163757324,-0.00021904706954956055,-0.009687840938568115
340,-0.1901452331802497,0.7347489236916231,-2.3609540246922243,-0.1402389407157898,-0.670400857925415,-0.7286258339881897,0.014957343228161335,0.011459952220320702,0.011312301270663738,-0.02158050239086151,0.0060027241706848145,0.008456826210021973
341,-0.19228977461101315,0.7305314109402068,-2.3571263902968878,-0.1423402726650238,-0.6672655344009399,-0.7310922741889954,-0.049880385398864746,-0.028300562873482704,0.04660265892744064,0.0028139203786849976,0.0017992854118347168,0.007993578910827637
342,-0.1989302412844559,0.7303833298366811,-2.3518552200136114,-0.14721141755580902,-0.6671552062034607,-0.7302278876304626,-0.0004949308931827545,0.0009233609307557344,0.01906171441078186,-0.013311028480529785,0.007044732570648193,0.001178145408630371
343,-0.2008720792395269,0.7285252196660317,-2.3492879863061007,-0.14887620508670807,-0.6657699346542358,-0.7311540246009827,0.04092501103878021,-0.037683695554733276,0.005628599785268307,-0.0055732280015945435,0.0026077628135681152,0.004912018775939941
344,-0.21802182262294542,0.7388130040662084,-2.3460411738214533,-0.15990279614925385,-0.6734108924865723,-0.7217679023742676,0.07476681470870972,-0.05995776131749153,-0.033781811594963074,-0.02420973777770996,-0.0023093223571777344,0.0047422051429748535
345,-0.22130872951123237,0.739932869685914,-2.3461953253060557,-0.1621086597442627,-0.6742383241653442,-0.7205021977424622,-0.006722556427121162,-0.03712345287203789,0.027896907180547714,0.013350725173950195,0.013166546821594238,0.025998413562774658
346,-0.23212685066821848,0.7376528371785047,-2.3416644618723597,-0.17024673521518707,-0.672552764415741,-0.7202005982398987,0.008934159763157368,-0.04159466549754143,0.05238228291273117,-0.005168303847312927,0.008810698986053467,-0.01901143789291382
347,-0.23018827521007637,0.7331140421267254,-2.3384790656822174,-0.169544979929924,-0.6691868901252747,-0.7234938740730286,-0.05532345920801163,0.062123462557792664,0.0440441332757473,0.0023544281721115112,0.010098755359649658,0.015318214893341064
348,-0.23714847510623224,0.7338352483466212,-2.332031280870478,-0.17446307837963104,-0.6697226762771606,-0.7218270301818848,-0.03175697848200798,0.05460523068904877,-0.019019892439246178,-0.023092463612556458,-0.002640664577484131,0.0023598670959472656
349,-0.2397186938948465,0.732401274008559,-2.3281398658212926,-0.17654559016227722,-0.6686570644378662,-0.7223083972930908,-0.015078908763825893,0.03508702665567398,0.019329871982336044,-0.006651431322097778,0.00035268068313598633,0.01518559455871582
350,-0.24047593502977407,0.7311645600869614,-2.3280319404048635,-0.17728930711746216,-0.6677370071411133,-0.7229771018028259,-0.010533845983445644,0.012877508997917175,-0.013110075145959854,-0.008059203624725342,-0.003939628601074219,-0.012389779090881348
351,-0.23715066041339972,0.7306698611282773,-2.3288800149137323,-0.17496182024478912,-0.6673686504364014,-0.7238836288452148,-0.020173698663711548,0.005757779814302921,-0.027282610535621643,-0.0015060752630233765,0.0012767314910888672,0.019736289978027344
352,-0.24166287260664174,0.7326339602056735,-2.3283259924328332,-0.17791229486465454,-0.6688300967216492,-0.7218126654624939,-0.010130892507731915,-0.013103688135743141,-0.015815861523151398,-0.006078183650970459,0.00102919340133667,0.0040850043296813965
353,-0.239985632699932,0.7321902763113153,-2.328487491338235,-0.17677190899848938,-0.6685001850128174,-0.7223982214927673,0.043427277356386185,-0.03419803828001022,0.01659986563026905,0.00501897931098938,0.004178285598754883,-0.003096163272857666
354,-0.23852353264576462,0.7331815899249036,-2.3284900019416077,-0.17555885016918182,-0.6692370772361755,-0.7220116257667542,0.09008312970399857,-0.0334574393928051,-0.00460221990942955,-0.00499841570854187,0.0004596114158630371,-0.00871652364730835
355,-0.232796262097086,0.7323181012433068,-2.3318589624542603,-0.1715540885925293,-0.6685952544212341,-0.7235673069953918,-0.030642585828900337,-0.019808568060398102,0.002051309682428837,0.012450695037841797,0.012085795402526855,0.021678268909454346
356,-0.23406708613952645,0.7287996044435944,-2.333473137288243,-0.17301802337169647,-0.6659746766090393,-0.7256324887275696,0.021391164511442184,-0.028821337968111038,-0.014799745753407478,-0.007356122136116028,-0.007227897644042969,-0.037520527839660645
357,-0.2195957262067832,0.7330089329051404,-2.356869999896379,-0.1618873029947281,-0.6691088080406189,-0.7253178358078003,-0.16138722002506256,0.27842551469802856,-0.32337138056755066,-0.023049235343933105,-0.017689287662506104,-0.03128921985626221
358,-0.17254954215173088,0.7485175502942141,-2.394422831468926,-0.12580037117004395,-0.6805533170700073,-0.7218181490898132,0.07560044527053833,0.08138813823461533,-0.21481457352638245,0.051947832107543945,0.041820406913757324,0.08244436979293823
359,-0.1853343978175307,0.7404227516659059,-2.381874313983181,-0.13602890074253082,-0.6746000647544861,-0.7255417704582214,-0.12293057888746262,-0.19553644955158234,0.2951410412788391,0.03147569298744202,0.041451871395111084,0.06501936912536621
360,-0.22337474355020132,0.7255130200165337,-2.3573114933287562,-0.16573353111743927,-0.6635193228721619,-0.7295714020729065,-0.01584126055240631,-0.13312497735023499,0.013206482864916325,-0.07765941321849823,-0.06842941045761108,-0.0969666838645935
361,-0.22172379849932267,0.7344080780548524,-2.367365547050635,-0.16322441399097443,-0.6701479554176331,-0.724057674407959,-0.0546615868806839,-0.10474428534507751,-0.2144983559846878,-0.010557949542999268,0.006772100925445557,0.043973445892333984
362,-0.25074924396132925,0.7043576857157066,-2.403089882847639,-0.18908178806304932,-0.6475445032119751,-0.7381965517997742,-0.5690756440162659,-0.9972138404846191,-0.19602718949317932,-0.0008138269186019897,-0.007133781909942627,0.038535356521606445
363,-0.33517508502589316,0.6427005019650813,-2.4549526272466218,-0.26330554485321045,-0.5993593335151672,-0.7559356093406677,-0.15545833110809326,-1.4027944803237915,0.08201949298381805,0.04719531536102295,-0.021475017070770264,-0.12503057718276978
364,-0.5341134973240257,0.6656760433902014,-2.4668220025564223,-0.400389701128006,-0.6175909638404846,-0.6769559979438782,-0.29134589433670044,-1.47679603099823,-0.3409966826438904,0.10365208983421326,0.041281819343566895,0.03691089153289795
365,-0.6958168332655736,0.5814204776393853,-2.712793488870291,-0.5356836318969727,-0.5492115616798401,-0.6414123773574829,-2.441737651824951,-1.8569365739822388,-1.974913477897644,0.02832883596420288,0.05841261148452759,0.2283874750137329
366,-0.8015703347982577,0.5909772308177574,-3.017057015134951,-0.5965978503227234,-0.5571727752685547,-0.577606737613678,-1.3310790061950684,-3.723154306411743,-1.6189286708831787,0.1430761218070984,0.04707139730453491,0.09965568780899048
367,-1.024959634389671,0.6003212581463259,-3.1261383420512434,-0.7052537202835083,-0.5649076104164124,-0.4283650815486908,0.21257323026657104,-0.8085682988166809,-0.12706342339515686,0.1030808687210083,-0.028247356414794922,0.029393553733825684
368,-1.1348115117795867,0.5518952503829772,-3.05661776390632,-0.7718753218650818,-0.524302065372467,-0.3596048653125763,-0.03371308743953705,-1.0314154624938965,0.694358229637146,0.10676008462905884,-0.009572446346282959,0.010651618242263794
369,-1.2114026661830686,0.5352142854815418,-3.051308002543828,-0.8052040338516235,-0.5100253820419312,-0.30252382159233093,0.33031296730041504,-1.0782195329666138,-0.2518802285194397,0.014081597328186035,0.04112279415130615,0.00915837287902832
370,-1.2941119665816598,0.5469655119032357,-3.0158432728907822,-0.8216220736503601,-0.5200978517532349,-0.23331432044506073,0.24459373950958252,-0.016697850078344345,0.7163816094398499,0.03846460580825806,-0.029462754726409912,-0.01696041226387024
371,-1.2958834525713567,0.5373688160559836,-2.9922169189060197,-0.8267999291419983,-0.5118774175643921,-0.23320269584655762,0.19579178094863892,0.006373588927090168,-0.22856514155864716,0.010073184967041016,0.030020058155059814,0.0054499804973602295
372,-1.2939140418683424,0.537783646166321,-2.9712624566825068,-0.8261346817016602,-0.5122337341308594,-0.2347724586725235,0.08141039311885834,0.16775336861610413,0.25412315130233765,0.018349647521972656,-0.01691049337387085,0.0066077858209609985
373,-1.2915313674131959,0.5259604898897631,-2.94809009344419,-0.8313366770744324,-0.5020439028739929,-0.23839299380779266,0.20834507048130035,0.09646281599998474,-0.062141962349414825,-0.028694450855255127,0.008696794509887695,0.008839800953865051
374,-1.288499477373134,0.5322892079772841,-2.9354041203783643,-0.8275418877601624,-0.5075071454048157,-0.24002252519130707,0.1671006828546524,0.10856711119413376,0.2199227660894394,0.011013627052307129,-0.01298534870147705,-0.009168729186058044
375,-1.2892967880263817,0.5348878834055222,-2.922014504394639,-0.8264632225036621,-0.5097445845603943,-0.23899544775485992,-0.0021951720118522644,-0.055982302874326706,-0.3680788576602936,0.00782930850982666,0.009073257446289062,-0.007159337401390076
376,-1.2853810435838169,0.5391813032279766,-2.921559330781089,-0.8234134316444397,-0.5134336352348328,-0.24161139130592346,-0.02760026790201664,0.06171075627207756,0.11395169794559479,-0.005092978477478027,-0.008416891098022461,-0.003963574767112732
377,-1.2838336140168864,0.5414907710071054,-2.9176895672484986,-0.8218992948532104,-0.5154140591621399,-0.24254906177520752,0.06752068549394608,0.02040897123515606,-0.0807875245809555,0.0019682645797729492,0.013705074787139893,-0.00941932201385498
378,-1.282929282479376,0.5423904221967587,-2.912728722634757,-0.8212345242500305,-0.5161848068237305,-0.2431604564189911,0.054904259741306305,-0.04179220646619797,-0.010531773790717125,0.023138880729675293,0.0022382736206054688,0.0015223026275634766
379,-1.2840629658246518,0.5458230708376034,-2.9138590549637216,-0.8198055028915405,-0.5191217660903931,-0.2417268007993698,-0.043781619518995285,0.006393510848283768,-0.00569562241435051,-0.013660192489624023,-0.010724484920501709,-0.002841085195541382
380,-1.2785209820273695,0.5415379749188652,-2.9165583760885125,-0.8205758333206177,-0.5154545307159424,-0.24690505862236023,-0.026375610381364822,0.033909767866134644,0.13658669590950012,0.026981472969055176,0.005215883255004883,-0.005353271961212158
381,-1.2755705659431855,0.5560473787862311,-2.9242879051471915,-0.8126024007797241,-0.5278331637382507,-0.24712282419204712,-0.004109539091587067,0.059813473373651505,-0.24028632044792175,-0.0025374889373779297,0.012620091438293457,-0.0016412436962127686
382,-1.262669715953973,0.5724885537978142,-2.9238214410174845,-0.8009681105613708,-0.5417255163192749,-0.2549186050891876,0.19085583090782166,0.19195154309272766,-0.2279442548751831,0.019809722900390625,-0.0024486184120178223,-0.016245275735855103
383,-1.2314219123292938,0.6526999960339541,-2.9419651224276535,-0.7491341233253479,-0.6073336005210876,-0.2644692063331604,0.11208666861057281,0.323142409324646,-1.2275512218475342,-0.032771944999694824,0.021960675716400146,-0.0024222731590270996
384,-1.1567903843799316,0.789876189236402,-2.941683256225487,-0.6444626450538635,-0.71026611328125,-0.28317832946777344,1.011008620262146,0.9487256407737732,-1.2852678298950195,0.032112181186676025,0.068389892578125,0.0077571868896484375
385,-1.1325741181541906,0.900564974290668,-2.9577835518096216,-0.5624718070030212,-0.7836779952049255,-0.26358020305633545,0.0022892127744853497,-0.1155288964509964,-0.9664309620857239,0.015032172203063965,0.019777119159698486,0.01913437247276306
386,-1.0837688410923976,0.9687775270531115,-3.019453100816875,-0.5004616379737854,-0.8241940140724182,-0.26503247022628784,-0.2605857849121094,0.09131520986557007,-0.3763000965118408,-0.0035361051559448242,-0.09279811382293701,0.030932128429412842
387,-1.0333354728760011,0.9564056130542489,-3.0554662258037952,-0.495186448097229,-0.8171248435974121,-0.295122891664505,-0.1147240698337555,-0.0011465661227703094,0.07358603924512863,0.050743699073791504,0.05909872055053711,-0.024991273880004883
388,-1.0454009356827503,0.9621001219344846,-3.047424332666326,-0.4946776032447815,-0.8203942179679871,-0.2867884635925293,0.013964153826236725,-0.06064816936850548,-0.03399715572595596,-0.02152729034423828,-0.03846210241317749,0.006972759962081909
389,-1.0368167946700189,0.9348091212079342,-3.0504326294926654,-0.5112841725349426,-0.8044857382774353,-0.30230966210365295,-0.13823460042476654,0.07343760132789612,0.22134017944335938,0.005317986011505127,0.025661945343017578,-0.016644805669784546
390,-1.0441303956622912,0.942509965261378,-3.0416836271147054,-0.5081105828285217,-0.8090358972549438,-0.2954394221305847,0.1571115404367447,-0.04584652557969093,-0.05637983977794647,0.001457810401916504,-0.012100517749786377,-0.013184815645217896
391,-1.011203979704493,0.9415739230559165,-3.067255642516135,-0.4987509548664093,-0.8084853887557983,-0.3124085068702698,-0.792553722858429,0.25479021668434143,0.39954879879951477,0.061357736587524414,-0.20486605167388916,0.12007147073745728
392,-0.947261201312054,0.8769660055555499,-3.138237343938948,-0.5191475749015808,-0.7688022255897522,-0.3734017610549927,-0.3539431393146515,-0.16893145442008972,-0.04188811406493187,0.09457182884216309,0.20550882816314697,-0.043529361486434937
393,-0.969355888827601,0.8626595295327684,-3.1324186207367095,-0.536284863948822,-0.7595750689506531,-0.36802738904953003,0.2608376443386078,-0.19560672342777252,-0.09429952502250671,-0.0729832649230957,0.05957818031311035,-0.08041313290596008
394,-0.9855741705216825,0.8894660736276652,-3.1187716180868743,-0.5250169634819031,-0.7767356038093567,-0.34790661931037903,0.014220191165804863,0.120547354221344,-0.09654378890991211,-0.049735844135284424,-0.10111773014068604,0.02394726872444153
395,-0.974240927099316,0.8808747356380243,-3.1181704978711053,-0.5265416502952576,-0.7712959051132202,-0.3575701415538788,0.09177632629871368,0.023921051993966103,0.006508322432637215,0.05664724111557007,0.10541772842407227,-0.024647265672683716
396,-1.0056510220789043,0.9093762081078692,-3.0871489890439765,-0.5187308192253113,-0.7891207337379456,-0.3289482593536377,0.3874932527542114,-0.1367161124944687,-0.28521624207496643,0.004799544811248779,0.008740484714508057,-0.0037848949432373047
397,-1.0328317126470348,0.9274933299952565,-3.0587991356357316,-0.5151159763336182,-0.8001188635826111,-0.30735233426094055,0.02010534703731537,-0.0026551298797130585,0.052110686898231506,-0.025914907455444336,-0.07005941867828369,0.016092538833618164
398,-1.030497350182512,0.9391613644118776,-3.060693328737977,-0.5063562393188477,-0.8070632219314575,-0.30373072624206543,0.00727776437997818,0.03598865866661072,-0.03157874569296837,0.04122251272201538,0.02729332447052002,0.00871729850769043
399,-1.0454145415491396,0.9315778234442607,-3.042939691586996,-0.5161107778549194,-0.8025622367858887,-0.29920494556427,0.2441968321800232,-0.05782834067940712,-0.09312707185745239,-0.008913576602935791,0.05134153366088867,-0.02693641185760498
400,-1.050974568861082,0.9550431819694442,-3.0390565147382924,-0.5012803673744202,-0.8163386583328247,-0.28689539432525635,-0.047722287476062775,0.05235784128308296,-0.1130889281630516,-0.025101959705352783,-0.09216952323913574,0.035949379205703735
401,-1.0395071101243134,0.9420520057382793,-3.050306882126497,-0.5070586800575256,-0.8087666630744934,-0.29797306656837463,-0.07562727481126785,-0.011321743950247765,0.035026490688323975,0.029031336307525635,0.07884728908538818,-0.03501942753791809
402,-1.052725369740707,0.952088595509605,-3.041174357585886,-0.5038752555847168,-0.8146286010742188,-0.28721049427986145,0.10887860506772995,-0.0746431052684784,-0.11373543739318848,-0.025696218013763428,-0.025291383266448975,0.0018558800220489502
403,-1.0456404505557293,0.9557567455879646,-3.047905951279252,-0.4992389976978302,-0.8167505860328674,-0.289273202419281,-0.2359660267829895,0.055771492421627045,-0.025638578459620476,0.0018787384033203125,-0.07002925872802734,0.031231790781021118
404,-1.0310112398336466,0.94605336950423,-3.060501995121973,-0.501728892326355,-0.8111134767532349,-0.30060461163520813,0.06588078290224075,0.015217997133731842,0.02312309294939041,0.03734290599822998,0.11812031269073486,-0.04157376289367676
405,-1.0482037508293713,0.9473922202771947,-3.036332760059938,-0.5058809518814087,-0.8118958473205566,-0.2913922071456909,0.2002071589231491,0.010596043430268764,-0.03652238845825195,-0.03292208909988403,-0.04869973659515381,0.004603296518325806
406,-1.047153542496336,0.9553271594079547,-3.0351504149735122,-0.49997979402542114,-0.8165026903152466,-0.28869280219078064,-0.13510382175445557,0.03430526703596115,0.02030784636735916,0.01912960410118103,-0.04932677745819092,0.04104268550872803
407,-1.0494467274434935,0.9509832058789547,-3.0362582658367145,-0.5037113428115845,-0.8139870166778564,-0.28930923342704773,0.0662013590335846,-0.09687155485153198,0.058447666466236115,0.03688395023345947,0.0817025899887085,-0.031201571226119995
408,-1.065407582354706,0.9571739865546607,-3.019357983714668,-0.5038458704948425,-0.8175675272941589,-0.27878808975219727,0.181305393576622,0.03551078960299492,-0.033435266464948654,-0.03373652696609497,-0.04078519344329834,0.011301517486572266
409,-1.0624003539620246,0.9494831535148951,-3.0168997463953,-0.5084826350212097,-0.8131147623062134,-0.28335434198379517,-0.0839843600988388,0.026964060962200165,0.07582280039787292,0.023756682872772217,0.00661158561706543,0.010084658861160278
410,-1.0714147609736009,0.9579104192115326,-3.012189245210795,-0.5049828290939331,-0.8179913759231567,-0.27546802163124084,0.06897611916065216,-0.05568622425198555,-0.02566695585846901,0.0008171200752258301,0.015607833862304688,-0.01222124695777893
411,-1.0698662008410966,0.9565931082434606,-3.0113702559106805,-0.5055001974105835,-0.8172329068183899,-0.2767668068408966,-0.10656008124351501,0.03039727173745632,0.015165825374424458,-0.0034719109535217285,-0.05224335193634033,0.024050742387771606
412,-1.065308099873653,0.9576388691989647,-3.01802434420396,-0.5034855008125305,-0.8178351521492004,-0.2786541283130646,0.04018464684486389,-0.022415271028876305,-0.04618285596370697,0.025992214679718018,0.056589365005493164,-0.014863967895507812
413,-1.0740483415306519,0.9591555204718069,-3.008239410250282,-0.504810631275177,-0.8187069296836853,-0.27365148067474365,0.0960906371474266,-0.015263405628502369,-0.008371995761990547,-0.004802346229553223,-0.026004374027252197,0.014038443565368652
414,-1.0659654239419643,0.9575181431349902,-3.0174793097900996,-0.5037549138069153,-0.8177656531333923,-0.27837082743644714,-0.12677320837974548,0.04232477396726608,0.033352553844451904,0.0001843571662902832,0.012742459774017334,-0.005320549011230469
415,-1.0783158092237544,0.9577837366060638,-3.0009185873278996,-0.5069628953933716,-0.8179184794425964,-0.2720254361629486,0.26796257495880127,-0.015223836526274681,0.0688367486000061,0.018803775310516357,0.04693770408630371,-0.019997209310531616
416,-1.0960327666691931,0.96640922362765,-2.980008963370738,-0.5054091215133667,-0.8228505253791809,-0.25976675748825073,0.04224221408367157,-0.03481140360236168,-0.22385449707508087,-0.0250016450881958,-0.10875958204269409,0.04824942350387573
417,-1.080075808908302,0.9625730120910314,-3.002053020011017,-0.503980278968811,-0.8206645250320435,-0.2692837119102478,-0.172723650932312,-0.012264970690011978,0.07074146717786789,0.03393322229385376,0.06851303577423096,-0.018390238285064697
418,-1.0866307109009332,0.9639488444491184,-3.000477507346758,-0.5047346949577332,-0.8214499354362488,-0.26544857025146484,0.14536815881729126,-0.030321486294269562,-0.027732372283935547,-0.02527928352355957,0.014153122901916504,-0.022271156311035156
419,-1.0878203797747672,0.9714014736279404,-2.9965507719434785,-0.4996144473552704,-0.8256771564483643,-0.2619974613189697,-0.028064683079719543,-0.008695051074028015,-0.10377959907054901,0.0028798580169677734,-0.06403231620788574,0.04071450233459473
420,-1.0833397613597697,0.9740816843258668,-3.011982705807639,-0.4964783787727356,-0.8271862268447876,-0.26319587230682373,-0.0371389240026474,-0.15729671716690063,-0.14459426701068878,0.012805312871932983,0.05826538801193237,-0.025240987539291382
421,-1.11760274060844,0.9943403979600539,-3.0054183782389394,-0.49003466963768005,-0.8383996486663818,-0.23864686489105225,0.24418964982032776,-0.16357287764549255,-0.3025244176387787,-0.007874906063079834,0.08226549625396729,0.03729185461997986
422,-1.1519522282518055,1.0215738501263754,-2.9788616904327476,-0.476900190114975,-0.8529306650161743,-0.21230968832969666,0.037983253598213196,-0.017678910866379738,-0.21098794043064117,-0.02169594168663025,-0.06917315721511841,0.05468644201755524
423,-1.137099458757358,1.0311148887673647,-3.000771429341142,-0.46628856658935547,-0.8578724265098572,-0.2159396857023239,0.00780651718378067,-0.12494222074747086,-0.25646957755088806,0.0066175758838653564,0.08324474096298218,-0.026553019881248474
424,-1.154202356149211,1.0654360655398314,-2.998030066016643,-0.4427168071269989,-0.8750001192092896,-0.19589929282665253,0.176957905292511,-0.1445777714252472,-0.3379272520542145,0.006544321775436401,-0.021545231342315674,0.004981294274330139
425,-1.1550611136511184,1.0924997720197045,-3.0122282687935993,-0.4210619032382965,-0.8877802491188049,-0.18588490784168243,0.028894692659378052,-0.15624581277370453,-0.21878781914710999,0.008998334407806396,0.011605322360992432,0.00697559118270874
426,-1.1552296735086343,1.097470786044576,-3.027622713621784,-0.41705045104026794,-0.8900572657585144,-0.18402999639511108,0.017843671143054962,-0.053646355867385864,-0.11022656410932541,-0.012377619743347168,0.005322158336639404,-0.001776278018951416
427,-1.142377387246069,1.111375651019534,-3.0497021060888976,-0.40335366129875183,-0.8963095545768738,-0.18421515822410583,-0.16983629763126373,-0.06389235705137253,-0.05797910690307617,0.028551936149597168,-0.02419227361679077,0.03226815164089203
428,-1.128468433473102,1.1036077202449182,-3.077603701164528,-0.40703245997428894,-0.8928380012512207,-0.19278176128864288,-0.039405204355716705,-0.1520843505859375,-0.08926299214363098,-0.011210918426513672,0.09985405206680298,-0.04226462543010712
429,-1.1420955213087056,1.1303959302303217,-3.0706500598252084,-0.3877241015434265,-0.9045810699462891,-0.17720910906791687,0.0784299224615097,-0.025904444977641106,-0.2851884365081787,-0.005067646503448486,-0.08965110778808594,0.04258084297180176
430,-1.1007636683617261,1.1235349552383265,-3.119935535497805,-0.3855952322483063,-0.901634931564331,-0.1958850771188736,-0.32637572288513184,-0.1233658641576767,0.0035987738519906998,0.020864397287368774,0.015343427658081055,0.0022357702255249023
431,-1.0716905086103587,1.1291442699524816,3.1122930543118206,-0.3752911686897278,-0.9040467739105225,-0.2045869678258896,-0.05945094674825668,-0.1205354705452919,-0.020086044445633888,-0.008314728736877441,0.08468043804168701,-0.02994057536125183
432,-1.073420278672377,1.1285704188211116,3.1085416723162385,-0.3761006295681,-0.9038013219833374,-0.2041851431131363,-0.07145775854587555,-0.051985736936330795,-0.11869759857654572,-0.0030192136764526367,-0.0841442346572876,0.0351330041885376
433,-1.0292356003022343,1.119089497741647,3.047174957958828,-0.37404072284698486,-0.8997033834457397,-0.2250053733587265,-0.36098912358283997,-0.17428898811340332,-0.045269329100847244,0.026582837104797363,0.039351820945739746,0.008300065994262695
434,-1.0215674330146407,1.1032279635841842,3.0109084707328733,-0.3844287693500519,-0.8926669359207153,-0.2352876216173172,-0.004741603508591652,-0.1372392326593399,0.08464407920837402,-0.00621148943901062,0.03466522693634033,-0.016879141330718994
435,-1.0268984288926997,1.0997848952129887,3.0112138181279495,-0.38830554485321045,-0.8911097645759583,-0.23482410609722137,-0.17096422612667084,-0.029587160795927048,0.07439728081226349,0.0011442601680755615,-0.0663946270942688,0.02655687928199768
436,-1.0154884310696122,1.085570526604819,2.9968820805590086,-0.3963247835636139,-0.8845696449279785,-0.2458926886320114,-0.0686640590429306,-0.034483037889003754,0.03731345012784004,0.01148289442062378,0.058870792388916016,-0.024508357048034668
437,-1.0415239986774534,1.0839807293145292,3.030591629811031,-0.4038049578666687,-0.8838270306587219,-0.23620164394378662,0.2795553207397461,0.0629814863204956,0.010135889053344727,-0.013065099716186523,0.005882143974304199,-0.006077378988265991
438,-1.0429423220531469,1.0830857643674958,3.0355583805010267,-0.4048229157924652,-0.8834080100059509,-0.23602712154388428,-0.18386182188987732,-0.008965912275016308,0.14666298031806946,0.01981315016746521,-0.07514911890029907,0.03143727779388428
439,-1.0323647786781243,1.0833848259030585,3.0178930568716775,-0.4020768702030182,-0.8835481405258179,-0.24016036093235016,0.01269858330488205,-0.017272301018238068,-0.06573864072561264,-0.013130038976669312,0.08816850185394287,-0.029904961585998535
440,-1.0386478436575473,1.0813993399312956,3.030454926231158,-0.4050886332988739,-0.8826165199279785,-0.23851890861988068,0.05490715056657791,0.05361570045351982,-0.00730009563267231,-0.0021226704120635986,-0.043805599212646484,0.012612581253051758
441,-1.0297793288037629,1.0783352418129473,3.0231518815516982,-0.40527382493019104,-0.8811719417572021,-0.24349375069141388,-0.12274783849716187,-0.016625365242362022,-0.02570330910384655,0.01228371262550354,-0.0040514469146728516,0.011178672313690186
442,-1.027471090955714,1.069818383258832,3.018858025812724,-0.4111199676990509,-0.8771132826805115,-0.2482994943857193,0.0032013151794672012,-0.00020128954201936722,0.23629963397979736,0.011797487735748291,0.07727807760238647,-0.026816487312316895
443,-1.0489137359671064,1.043953798478808,3.0489317131993605,-0.43587419390678406,-0.8643989562988281,-0.2506556808948517,-0.1046375036239624,0.03575760871171951,0.13704803586006165,-0.032356977462768555,-0.07126998901367188,0.019713878631591797
444,-1.0206063227240973,1.0214843773560773,3.026730606534017,-0.4450515806674957,-0.8528839349746704,-0.2729797959327698,-0.39212656021118164,0.08620560169219971,0.3226831555366516,0.03558197617530823,-0.0076811909675598145,0.018570035696029663
445,-1.0237106142152292,0.982733027258798,3.029790816738763,-0.47378143668174744,-0.83201664686203,-0.288581520318985,0.10815553367137909,-0.1900661587715149,0.09698010236024857,0.0559958815574646,0.1130683422088623,-0.024299949407577515
446,-1.0388171014434495,1.002474243980811,3.035272878702917,-0.46383941173553467,-0.8428052663803101,-0.27300602197647095,-0.06402707099914551,0.050871413201093674,0.04778418317437172,-0.04783356189727783,-0.11857473850250244,0.030345499515533447
447,-1.0209802646336652,0.9794644002369095,3.024207502799058,-0.47530806064605713,-0.8301988840103149,-0.29129359126091003,-0.09797734767198563,0.0482989102602005,-0.0244993157684803,0.017544418573379517,0.06982296705245972,-0.012417346239089966
448,-1.029036939802288,0.9853894697486374,3.02851670895833,-0.47341662645339966,-0.833487331867218,-0.2849133610725403,0.121048703789711,-0.09063701331615448,0.009259299375116825,0.030865967273712158,0.04628640413284302,-0.002150237560272217
449,-1.0423361103906135,0.9933364772282502,3.041098355769101,-0.4714285731315613,-0.8378520011901855,-0.2752437889575958,0.03664596378803253,0.03573329746723175,-0.1493644416332245,-0.07007536292076111,-0.08196300268173218,0.005651503801345825
450,-1.0256526479331909,0.9899060471559189,3.02982019866148,-0.46922582387924194,-0.835974395275116,-0.28455880284309387,-0.14522138237953186,0.05460678040981293,0.13092967867851257,0.05856606364250183,0.030752956867218018,0.014035791158676147
451,-1.0339004009968562,0.9917258649485516,3.0335658386582183,-0.47024884819984436,-0.8369717001914978,-0.27990058064460754,0.07468003779649734,-0.09715151786804199,-0.08122170716524124,-0.020809471607208252,0.028057515621185303,-0.02262014150619507
452,-1.0286373770265058,0.9974593181215614,3.0307126653058414,-0.46465110778808594,-0.8400955200195312,-0.2798910140991211,-0.06330633163452148,0.09162294864654541,-0.016126232221722603,-0.01490214467048645,-0.05927276611328125,0.026076316833496094
453,-1.0196651365124092,0.9916431277799541,3.0237542474156274,-0.46627601981163025,-0.8369264006614685,-0.2866024971008301,-0.011673690751194954,-0.012034235522150993,-0.024603839963674545,0.018262743949890137,0.059765756130218506,-0.022037029266357422
454,-1.024876814269766,0.9963902408749692,3.030811331884174,-0.4643626809120178,-0.8395151495933533,-0.2821025848388672,0.1358005553483963,0.022853359580039978,-0.04631275311112404,-0.02709248661994934,-0.006477952003479004,0.0095195472240448
455,-1.016990685871947,0.9981654715821834,3.0292242350048304,-0.4608549475669861,-0.8404783606529236,-0.28497135639190674,-0.11670535057783127,0.09592107683420181,0.06649050116539001,0.005212306976318359,-0.035803258419036865,0.010328441858291626
456,-1.0180687011222505,0.9908600322564175,3.034021664462535,-0.46637532114982605,-0.8364975452423096,-0.28769034147262573,0.10540845990180969,-0.05988747254014015,0.09023725241422653,0.06862449645996094,0.11501634120941162,-0.016157835721969604
457,-1.049642328715555,1.0042370796181153,3.0602656171960554,-0.4654785096645355,-0.8437527418136597,-0.26722896099090576,0.20213688910007477,-0.06258811056613922,-0.2151852548122406,-0.06317755579948425,-0.09745526313781738,0.023622363805770874
458,-1.0335110412244135,0.9951404993115923,3.0487612153258254,-0.4676818251609802,-0.8388354778289795,-0.27861931920051575,-0.23060284554958344,0.09891893714666367,0.10751780867576599,0.023986786603927612,0.029326200485229492,0.01125478744506836
459,-1.0315191912007984,0.9960513873053624,3.041949358485006,-0.46647000312805176,-0.8393309712409973,-0.2791577875614166,0.09517131000757217,-0.08675164729356766,0.014431415125727654,0.030495941638946533,0.058737218379974365,-0.020830005407333374
460,-1.0161990593766508,1.0068992427586714,3.020450177820352,-0.4543715715408325,-0.8451786041259766,-0.281459778547287,-0.12537159025669098,0.07030075788497925,-0.13192631304264069,-0.05235755443572998,-0.08048057556152344,0.019130706787109375
461,-1.0016072385874044,0.9920287848844807,3.0110277781786294,-0.4607527554035187,-0.8371374607086182,-0.29480117559432983,-0.03834420442581177,-0.00674978643655777,0.10085485875606537,0.05903467535972595,0.11478638648986816,-0.02088788151741028
462,-1.0024358058035323,1.003435446825701,3.0046940399928816,-0.45291951298713684,-0.843322217464447,-0.2892606258392334,0.025089245289564133,-0.00890684686601162,-0.15254387259483337,-0.04309797286987305,-0.01455754041671753,0.01069614291191101
463,-0.9785652545275765,1.0100438618481875,2.988393220466501,-0.44125255942344666,-0.8468551635742188,-0.2968710958957672,-0.10279428213834763,0.14787666499614716,-0.0130741186439991,-0.02085980772972107,-0.07175439596176147,0.024791628122329712
464,-0.972094023354352,0.9998470346881537,2.987915294001421,-0.4464324414730072,-0.8413883447647095,-0.30457112193107605,-0.07876194268465042,-0.008504543453454971,0.0847211629152298,0.06032410264015198,0.08409470319747925,-0.006769150495529175
465,-0.9645922293399628,1.014373195692394,2.982034216229293,-0.4340445101261139,-0.8491496443748474,-0.3009159564971924,0.06924011558294296,0.06439526379108429,-0.20277974009513855,-0.01709693670272827,-0.09362995624542236,0.029217928647994995
466,-0.9510680438773982,1.005212485057571,2.968750457209339,-0.4362492561340332,-0.8442758321762085,-0.3112633526325226,-0.17232033610343933,-0.13580931723117828,0.15574301779270172,0.1175847053527832,0.06977027654647827,0.02474910020828247
467,-0.9585857616170309,1.014478649492516,2.953480045092421,-0.43215566873550415,-0.8492053747177124,-0.30346590280532837,-0.04751007258892059,-0.13167306780815125,-0.03676944971084595,-0.07849490642547607,-0.05301618576049805,-0.013825327157974243
468,-0.9511037719176814,0.9975374675494705,2.944932134514768,-0.4415223300457001,-0.8401378989219666,-0.315001904964447,-0.06372609734535217,0.035741887986660004,0.0551411509513855,0.0015046894550323486,0.05330324172973633,-0.01463368535041809
469,-0.9713871768003821,1.0008073930557224,2.961198114818102,-0.4455498456954956,-0.8419069647789001,-0.30443075299263,0.17035681009292603,-0.13621214032173157,-0.02214430458843708,0.014931559562683105,0.03692948818206787,-0.015866518020629883
470,-0.9664107327106406,1.0017780720619056,2.957457982214989,-0.4433567225933075,-0.8424303531646729,-0.3061797022819519,-0.1320093274116516,0.06939608603715897,0.07359405606985092,-0.009692013263702393,-0.07778143882751465,0.039868056774139404
471,-0.9745643218959046,1.0020616553373396,2.9628035172908485,-0.4456407129764557,-0.8425831198692322,-0.302420437335968,0.1265922635793686,-0.10915503650903702,0.014327002689242363,0.07088488340377808,0.11241954565048218,-0.012765109539031982
472,-0.9875150867438711,1.0102455210902148,2.971335807533348,-0.44374924898147583,-0.8469623923301697,-0.29281604290008545,0.096271812915802,0.031314343214035034,-0.056846633553504944,-0.08724135160446167,-0.09600019454956055,0.02636706829071045
473,-0.9677795543586858,1.0029405594418355,2.956274776129265,-0.4429682791233063,-0.8430561423301697,-0.30501678586006165,-0.19841276109218597,0.10939258337020874,0.07367156445980072,0.0005092322826385498,-0.0050882697105407715,0.011590272188186646
474,-0.9678570532858711,1.0047083879156133,2.959030883571461,-0.4417637586593628,-0.8440055847167969,-0.30413690209388733,0.17656412720680237,-0.03578446805477142,0.08301965147256851,0.07987108826637268,0.11726003885269165,-0.02392706274986267
475,-0.9959969307963639,1.0194272331051724,2.9813263618034056,-0.4396713376045227,-0.8518081307411194,-0.28480181097984314,0.07741349935531616,-0.06254957616329193,-0.16790910065174103,-0.0807296633720398,-0.10478061437606812,0.017177939414978027
476,-0.9796064385028678,1.0164048477829069,2.972549708262112,-0.4370800256729126,-0.8502209186553955,-0.2934032380580902,-0.10899019986391068,0.12527091801166534,0.001107613556087017,0.011283576488494873,0.017381012439727783,-0.0005878210067749023
477,-0.98518477970317,1.015623913787044,2.9842545418933724,-0.43926313519477844,-0.8498095870018005,-0.2913273870944977,0.13923119008541107,-0.07733143866062164,0.06461000442504883,0.07547837495803833,0.09272950887680054,-0.002892613410949707
478,-1.005290848656828,1.0279256868383448,2.997858435725317,-0.4361712336540222,-0.8562292456626892,-0.27681419253349304,-0.05196642130613327,0.017962761223316193,0.0016221227124333382,-0.09077578783035278,-0.1328454613685608,0.01926112174987793
479,-0.9918456517081706,1.0147191485977043,2.9984488411596817,-0.4418374001979828,-0.849332332611084,-0.2888157367706299,0.02697228267788887,0.11380411684513092,0.004467573948204517,0.059635162353515625,0.08637750148773193,-0.008394986391067505
480,-1.0026141185710715,1.0312139544988512,3.005151185981083,-0.43305328488349915,-0.8579233288764954,-0.27646422386169434,0.1330917775630951,-0.1588602513074875,-0.23773974180221558,0.015374481678009033,-0.01979273557662964,0.009465962648391724
481,-0.998902116604935,1.0460359904802712,2.9914718228912025,-0.42128416895866394,-0.8654440641403198,-0.2711571156978607,-0.03736260533332825,-0.011826172471046448,-0.19570451974868774,-0.07061338424682617,-0.038868069648742676,-0.0025550127029418945
482,-0.9383666252298224,1.1092372700895756,2.919539464556687,-0.35921207070350647,-0.8953592777252197,-0.26324594020843506,0.18167179822921753,-0.011971818283200264,-0.8815867304801941,0.01129642128944397,0.0026438236236572266,0.004166960716247559
