,attitude.roll,attitude.pitch,attitude.yaw,gravity.x,gravity.y,gravity.z,rotationRate.x,rotationRate.y,rotationRate.z,userAcceleration.x,userAcceleration.y,userAcceleration.z
0,-1.8393536105740107,-0.1685390453045492,0.8352082243532655,-0.950493574142456,0.1677422672510147,0.26158109307289124,-0.1564192771911621,0.24132654070854187,0.010420475155115128,0.025460004806518555,0.025250911712646484,0.06614720821380615
1,-0.1390861781289517,0.432618034809648,-1.8903203339489023,-0.1258656084537506,-0.4192490875720978,-0.8991040587425232,0.07445622980594635,0.38258644938468933,0.49791082739830017,0.054317161440849304,0.11904767155647278,-0.1640825867652893
2,-0.15255553347983863,0.4480021392828274,-1.7963015638700377,-0.1369677633047104,-0.43316569924354553,-0.8908463716506958,-0.5971086621284485,0.5463525056838989,0.8435071110725403,0.04216490685939789,0.06211775541305542,0.046302974224090576
3,-0.09802995376574498,0.37587991581772784,-1.7297393544882522,-0.09104001522064209,-0.3670911490917206,-0.9257190823554993,-0.5891874432563782,1.2381231784820557,1.5416160821914673,0.1568816751241684,0.13115978240966797,0.04606515169143677
4,-0.08170359528659678,0.4116563316366477,-1.6788595709357004,-0.07479474693536758,-0.4001278281211853,-0.9134021401405334,1.001243233680725,-0.11392253637313843,1.1379270553588867,0.274990051984787,0.1820492148399353,-0.06015437841415405
5,0.02093215161441836,0.3973639698859252,-1.5445081302807535,0.01929979957640171,-0.3869890570640564,-0.9218823313713074,-0.642248272895813,1.203108787536621,0.5941738486289978,-0.14565783739089966,0.0936083197593689,0.06508606672286987
6,-0.004364183920656811,0.3885742141075043,-1.4101834168292824,-0.004038821905851364,-0.37886929512023926,-0.9254413843154907,-0.7295246124267578,1.1472800970077515,1.3905506134033203,0.10067273676395416,0.11028409004211426,-0.031071066856384277
7,-0.038356350703339245,0.30659005069232853,-1.2467709903828588,-0.036558762192726135,-0.3018094599246979,-0.9526670575141907,0.3140435814857483,0.33563846349716187,2.410454511642456,0.23751701414585114,0.14038673043251038,-0.3327485918998718
8,0.07434125705000728,0.3988170068037081,-1.0688768595990288,0.06844394654035568,-0.3883284628391266,-0.9189757704734802,-0.054932430386543274,3.4638850688934326,2.169602632522583,0.15103848278522491,-0.09377297759056091,0.2998504042625427
9,0.2413227839541751,0.3576108771860085,-0.8338287528326153,0.22386793792247772,-0.35003724694252014,-0.9095917344093323,-1.7001346349716187,1.8909149169921875,2.165475368499756,0.3436521887779236,0.20393440127372742,0.010681211948394775
10,0.22540066074232887,0.23394653953534827,-0.6266205649947524,0.21740864217281342,-0.23181834816932678,-0.9481527805328369,-1.0200716257095337,0.8061425685882568,1.7222522497177124,0.07812356948852539,0.12792126834392548,-0.05405968427658081
11,0.2462066765515548,0.2062901876677497,-0.4490684340610355,0.23855918645858765,-0.20483016967773438,-0.949280858039856,-0.4849706292152405,0.12890911102294922,1.6177270412445068,-0.03720419108867645,0.058422088623046875,-0.17944228649139404
12,0.26981668379351725,0.24060223386626695,-0.3463443989296099,0.2588765621185303,-0.238287553191185,-0.9360566139221191,0.6187359690666199,0.4734141230583191,1.1766096353530884,-0.06069540977478027,0.016684159636497498,-0.10967397689819336
13,0.23263715586102776,0.3126769249316409,-0.2832851219817341,0.2193661481142044,-0.30760687589645386,-0.9258814454078674,0.5599387884140015,-0.3497190475463867,0.7447960376739502,-0.0168515145778656,0.010640323162078857,0.07795053720474243
14,0.17953873714592813,0.375545147699575,-0.253900857071219,0.1661304086446762,-0.36677974462509155,-0.9153541922569275,0.38882192969322205,-0.4251624643802643,0.44446951150894165,0.0344005823135376,0.010914266109466553,0.03982013463973999
15,0.17047531940029242,0.433018767725224,-0.2702951309979111,0.15399256348609924,-0.419612854719162,-0.894545316696167,0.5012558102607727,-0.07408592849969864,-0.310478150844574,0.03890904784202576,0.07909771800041199,0.10261416435241699
16,0.18572058656275903,0.42617211229079954,-0.3231227383842945,0.1681382954120636,-0.41338834166526794,-0.8948964476585388,-0.014209132641553879,0.3888721466064453,-0.4826127886772156,0.0199720561504364,0.15931424498558044,0.3102406859397888
17,0.42895694876518764,0.5081843164306483,-0.46704860898416695,0.3633621335029602,-0.48659181594848633,-0.794478714466095,2.0751092433929443,4.018354415893555,-1.6593400239944458,-0.023564189672470093,0.3125806152820587,0.25813227891921997
18,0.9823636689065978,0.5230203550575572,-0.7894343800739337,0.7206104397773743,-0.49949899315834045,-0.48085471987724304,0.12816599011421204,2.612316370010376,-2.4468462467193604,0.14073294401168823,0.17207595705986023,0.19607996940612793
19,1.2679900604589511,0.2994085998320774,-0.9247044629140898,0.9120385050773621,-0.29495516419410706,-0.2849333584308624,0.35022297501564026,2.7667393684387207,-2.609576463699341,0.1588231921195984,0.25235265493392944,0.12669971585273743
20,1.4635457917627837,0.02717627996287127,-0.9226210052578029,0.9938870072364807,-0.027172934263944626,-0.10700550675392151,-2.4163897037506104,0.8647370934486389,-3.609349250793457,0.010934710502624512,0.5409210920333862,0.15980090200901031
21,1.5914102506064265,-0.4416131596266446,-0.5483598329015047,0.9038714170455933,0.4273984134197235,0.0186349768191576,-4.6000752449035645,0.4039725363254547,-4.673178195953369,0.7660505771636963,0.5805667638778687,-0.23434841632843018
22,1.9138883658920773,-0.7121943261010162,-0.08024009677740826,0.7128152251243591,0.653496265411377,0.2546316087245941,-1.0696872472763062,0.4182524085044861,-1.5541086196899414,0.8001852631568909,-0.36313676834106445,-0.7587209939956665
23,1.8693390741471874,-0.6840358398797981,-0.1223970278663185,0.740746259689331,0.6319260597229004,0.22795745730400085,1.0621256828308105,-0.5070062875747681,1.1595001220703125,0.24642115831375122,-0.19061130285263062,-0.37409088015556335
24,1.7509330379680066,-0.6089495206391984,-0.24797230603391815,0.8069769144058228,0.572006106376648,0.14695918560028076,0.39997172355651855,-0.35995882749557495,0.8383529782295227,0.1104118824005127,-0.18873590230941772,-0.13467587530612946
25,1.6785428515979461,-0.521424995661444,-0.2931053352346931,0.8620817065238953,0.49811628460884094,0.0932474285364151,0.2953336834907532,-0.5503734946250916,1.0861899852752686,0.16114205121994019,-0.07067185640335083,-0.08343613892793655
26,1.6033310913480983,-0.38952648247331007,-0.3717289259310158,0.9245995283126831,0.37975040078163147,0.03009224683046341,0.757709264755249,-0.2801302671432495,1.5425481796264648,0.1027289628982544,0.11696895956993103,0.07520866394042969
27,1.559256406786989,-0.25004025611255964,-0.4582537355905564,0.9688379764556885,0.24744296073913574,-0.011180808767676353,0.8566228747367859,-0.05858384817838669,1.2684426307678223,-0.07558846473693848,0.24672818183898926,0.1660727858543396
28,1.5498836572898322,-0.16063467657677447,-0.5199351436527601,0.9869102239608765,0.15994474291801453,-0.020641937851905823,0.33846068382263184,0.07202795892953873,0.3592356741428375,-0.2500479221343994,0.291028767824173,0.19044172763824463
29,1.5583982448521296,-0.18074118641349435,-0.5272880404947241,0.9836352467536926,0.17975874245166779,-0.012195815332233906,-0.15417253971099854,0.1592041403055191,-0.7567666172981262,-0.23981493711471558,0.2400410771369934,0.14154458045959473
30,1.5891225503697952,-0.29854367095707746,-0.4943981842814315,0.9556054472923279,0.2941285967826843,0.017514599487185478,-0.47458529472351074,0.23314876854419708,-1.4680687189102173,-0.061516642570495605,0.1271360218524933,0.039049744606018066
31,1.641402307473416,-0.4546970195350237,-0.44884270696789325,0.8961557745933533,0.439190149307251,0.06337931007146835,-0.10072241723537445,0.49437814950942993,-1.4868671894073486,0.16104942560195923,-0.03745675086975098,-0.06579018384218216
32,1.6970479447215154,-0.5536517747599389,-0.407230792755747,0.8438399434089661,0.5257969498634338,0.10710583627223969,-0.3541794717311859,0.09079991281032562,-0.2882687449455261,0.33128517866134644,-0.20337873697280884,-0.12135756015777588
33,1.6924398258333664,-0.5285059713522944,-0.37851115278041414,0.8571802377700806,0.5042437314987183,0.10478776693344116,0.011409169062972069,-0.28211328387260437,0.6237582564353943,0.1795935034751892,-0.13833796977996826,-0.08031272888183594
34,1.654274563360707,-0.47049073736940683,-0.40886623089253293,0.8882420659065247,0.45332375168800354,0.07432159781455994,0.216350719332695,-0.18042132258415222,0.5752913355827332,0.03428906202316284,-0.10266152024269104,0.017673611640930176
35,1.642270682740782,-0.4163810141444158,-0.4328179078778301,0.9122235178947449,0.4044533371925354,0.06531184166669846,0.21312332153320312,0.14841054379940033,0.4715348184108734,0.0024034976959228516,0.021877199411392212,-0.010746367275714874
36,1.6377490182142036,-0.37922482096676335,-0.45863356062858884,0.9268704652786255,0.3702004849910736,0.06214936450123787,0.24151043593883514,-0.011308746412396431,0.33611172437667847,-0.001867532730102539,0.053429245948791504,-0.0285036638379097
37,1.645743980931129,-0.3411052900827174,-0.49668669986688624,0.9397398233413696,0.3345288932323456,0.07056346535682678,0.20493273437023163,0.2209024727344513,0.4494163691997528,-0.012066662311553955,0.09239670634269714,0.0019310563802719116
38,1.659970480308743,-0.3032321793113673,-0.5052835636132652,0.9505842924118042,0.2986064851284027,0.08499296009540558,-0.05746135488152504,0.16374029219150543,0.23960943520069122,-0.0788191556930542,0.14812511205673218,-0.01051485538482666
39,1.6895127410573465,-0.301445390988788,-0.5021473689900521,0.9481871724128723,0.2969007194042206,0.11309719830751419,-0.06270052492618561,0.4587588906288147,-0.15225133299827576,-0.04990231990814209,0.10182663798332214,0.01890658587217331
40,1.7382985461794391,-0.3274337513288841,-0.4911029522627214,0.9336187243461609,0.32161417603492737,0.1578623503446579,-0.1940837949514389,0.4805649220943451,-0.27782002091407776,0.010625720024108887,0.03443440794944763,-0.021341919898986816
41,1.778540263314854,-0.34761356259014076,-0.4769041007216246,0.9199731945991516,0.3406550884246826,0.19391655921936035,-0.22411760687828064,-0.008744191378355026,0.013911554589867592,0.12616950273513794,-0.09384414553642273,-0.11177846789360046
42,1.785998696914363,-0.36244826415716475,-0.49229542221903333,0.9134635329246521,0.35456448793411255,0.19967147707939148,0.38849079608917236,0.40001311898231506,0.16748324036598206,0.07823580503463745,-0.10551050305366516,0.03287246823310852
43,1.7979663705299367,-0.34313121978652583,-0.5746581316886783,0.9175112843513489,0.3364374339580536,0.21209211647510529,0.5458303093910217,0.02512635849416256,0.1949409544467926,0.011398017406463623,-0.03680059313774109,0.08414196968078613
44,1.8169319625787217,-0.3136237191756346,-0.6121712684002566,0.9225534200668335,0.30850762128829956,0.2317727655172348,0.04613369703292847,0.7925668954849243,0.6042456030845642,0.035042524337768555,-0.028463035821914673,0.1736532747745514
45,1.8641143329900043,-0.2659078092355499,-0.6266763710494305,0.9236452579498291,0.26278528571128845,0.2789684534072876,0.029431020841002464,0.07525790482759476,0.30983227491378784,-0.0845186710357666,0.048783957958221436,0.030632376670837402
46,1.8663506111293824,-0.2636231994175351,-0.6453569109470517,0.9235910773277283,0.26058027148246765,0.281207412481308,0.26708129048347473,0.06023736298084259,-0.21970093250274658,-0.1110910177230835,0.05228593945503235,0.02627241611480713
47,1.8087097976883741,-0.32287886440785735,-0.6807962970054077,0.9216132164001465,0.31729796528816223,0.22349704802036285,0.8321827054023743,-0.8044523000717163,-0.4799376130104065,0.059206366539001465,0.004036813974380493,0.05125269293785095
48,1.7629511554417214,-0.37159318363514887,-0.7323924678300229,0.9146013259887695,0.3631003499031067,0.17794053256511688,0.029534580186009407,-0.03432658314704895,-0.09600816667079926,0.09276872873306274,-0.09923011064529419,0.0517195463180542
49,1.7540523795177643,-0.3527669649077469,-0.7118009300677874,0.9227070808410645,0.34549570083618164,0.17101028561592102,-0.04195132106542587,-0.14392071962356567,0.2871544063091278,0.005897164344787598,-0.024786442518234253,-0.05902610719203949
50,1.7421527591851018,-0.3246359619006713,-0.7521689861505927,0.9338861703872681,0.31896379590034485,0.16161231696605682,0.48871782422065735,0.10772484540939331,0.4111059606075287,-0.015505552291870117,-0.008874684572219849,0.07125197350978851
51,1.7402178731022069,-0.29774462201931395,-0.8039104030330108,0.9423129558563232,0.29336482286453247,0.1611933559179306,0.21734878420829773,-0.007120327092707157,0.1597718894481659,-0.0034702420234680176,0.05246034264564514,0.12208603322505951
52,1.7407644041420103,-0.2637810390679494,-0.8059669558092836,0.9514995217323303,0.26073265075683594,0.16330011188983917,-0.46894264221191406,-0.215368390083313,0.3677578270435333,-0.08281677961349487,0.09020420908927917,0.07354675233364105
53,1.7325236931606538,-0.2335257193878325,-0.7584289834635259,0.9601612687110901,0.2314089685678482,0.1566525250673294,-0.6963242292404175,-0.1850181519985199,-0.08034513145685196,-0.18802088499069214,0.1249447613954544,0.03780554234981537
54,1.7303129448545589,-0.2485484055693387,-0.6831192508722645,0.9569647908210754,0.24599723517894745,0.15395987033843994,-0.8747297525405884,-0.36718687415122986,-0.3995858430862427,-0.061334967613220215,0.10789985954761505,-0.010084763169288635
55,1.7078424137408441,-0.2793048041677464,-0.6000211612817941,0.9522345662117004,0.27568745613098145,0.1313232034444809,-0.6989339590072632,-0.5058063864707947,-0.5200050473213196,-0.06136542558670044,0.054650068283081055,0.01601576805114746
56,1.6855439482842625,-0.3363051485562474,-0.5446093747998864,0.9377725720405579,0.33000147342681885,0.10808195918798447,-0.4709623157978058,-0.4218384027481079,-0.9136340022087097,0.06552332639694214,0.09118688106536865,0.06447970867156982
57,1.6717377346867635,-0.4152024195957732,-0.4949123305195212,0.910377025604248,0.40337514877319336,0.0922081246972084,-0.634458601474762,-0.3215114176273346,-0.589244544506073,0.06461381912231445,-0.13756704330444336,0.034271955490112305
58,1.6658689359054966,-0.46387640927664864,-0.43164434146281255,0.8902862071990967,0.4474182426929474,0.08489777892827988,-0.19433069229125977,-0.19224774837493896,-0.3632391393184662,0.11860978603363037,-0.1773223578929901,-0.05480741709470749
59,1.6519561524290378,-0.468402444366676,-0.4534752224595046,0.8893536329269409,0.4514613747596741,0.07233868539333344,0.5611403584480286,0.11164078116416931,0.26714104413986206,0.12012207508087158,-0.13363605737686157,-0.05053389072418213
60,1.6455918127159812,-0.4241660893393084,-0.4940149287367933,0.9088340401649475,0.41156092286109924,0.06810373067855835,-0.23854321241378784,-0.061088092625141144,0.7244001030921936,0.18721991777420044,-0.010590463876724243,0.01667415350675583
61,1.6233121118387572,-0.3266647241475554,-0.4249061661912557,0.9458121657371521,0.32088592648506165,0.04971577972173691,-0.884740948677063,-0.7804974913597107,1.0146278142929077,-0.0687980055809021,0.06406280398368835,-0.09791827201843262
62,1.5872098996916846,-0.2587860270571937,-0.3850884715576872,0.9665711522102356,0.25590717792510986,0.015866311267018318,0.026900306344032288,-0.011455674655735493,0.2549969255924225,-0.13281571865081787,0.20702919363975525,-0.02383136935532093
63,1.5868602575163901,-0.26304869207709747,-0.37225730645979593,0.9654770493507385,0.26002559065818787,0.01551069039851427,-0.40268468856811523,-0.2627637982368469,-0.20845696330070496,-0.031379878520965576,0.17103517055511475,-0.02739727683365345
64,1.576294167452477,-0.296717226301942,-0.3746967625655288,0.9562869071960449,0.29238247871398926,0.0052575659938156605,0.4834655523300171,0.15130579471588135,-0.48903635144233704,-0.07081949710845947,0.09839507937431335,-0.011178016662597656
65,1.586079675587796,-0.3604864877707321,-0.4239616621324331,0.935616135597229,0.3527294993400574,0.014300460927188396,0.3051888644695282,0.2256472259759903,-0.8053641319274902,-0.02581077814102173,0.041847556829452515,0.00967109389603138
66,1.5981894831141155,-0.4586821339073148,-0.4624574939245573,0.8963004946708679,0.44276684522628784,0.024558642879128456,0.6249977946281433,0.4262106120586395,-1.0074174404144287,0.07350236177444458,-0.10153454542160034,-0.0324474573135376
67,1.6199327321242507,-0.5361495943176512,-0.5380058089165204,0.858644425868988,0.5108296871185303,0.042224686592817307,0.4836646616458893,0.5740001797676086,-0.37680748105049133,0.25373655557632446,-0.1948811411857605,0.010860681533813477
68,1.6403759564801454,-0.5175757148392076,-0.5436738702971958,0.8669184446334839,0.49477484822273254,0.06041739508509636,-0.07163890451192856,0.012982834130525589,0.648510754108429,0.17089277505874634,-0.15946298837661743,-0.08338189125061035
69,1.6497199069678778,-0.42653095932266694,-0.5462399585317022,0.907572329044342,0.41371506452560425,0.07177795469760895,-0.2353389412164688,0.02654019370675087,1.1439093351364136,0.10593158006668091,-0.015125036239624023,-0.04223693162202835
70,1.652562326495735,-0.30578373254536306,-0.5157611087420394,0.9504252672195435,0.3010406494140625,0.07788612693548203,-0.48723727464675903,-0.15739640593528748,1.113016128540039,0.011503994464874268,0.1723327338695526,-0.05513525754213333
71,1.6429213442333717,-0.2072575037942251,-0.504376136720557,0.9760546088218689,0.2057768702507019,0.07052028179168701,0.1500241756439209,-0.005785975605249405,0.777015745639801,-0.13645511865615845,0.1972534954547882,-0.01639736443758011
72,1.6672218426250325,-0.15763470628655152,-0.5697475468674049,0.9830136299133301,0.1569826751947403,0.09508246183395386,0.6529068350791931,0.596973180770874,0.25114038586616516,-0.13596773147583008,0.2617337703704834,0.08428454399108887
73,1.699624552757222,-0.18394109459685706,-0.5943657375940404,0.9749833345413208,0.18290559947490692,0.12630489468574524,-0.21139729022979736,-0.005586178973317146,-0.6569017171859741,-0.11808031797409058,0.1885238140821457,0.0642925351858139
74,1.6965086300841803,-0.26262797047527614,-0.6013267690879369,0.9580901265144348,0.2596192955970764,0.12108223140239716,0.7800725698471069,0.4277265667915344,-0.8102481365203857,-0.10614627599716187,0.033959776163101196,0.13846980035305023
75,1.7374335512643444,-0.3705633885932017,-0.5938777715275426,0.9192119240760803,0.36214062571525574,0.15460863709449768,-0.6184448003768921,-0.2568126618862152,-1.2374838590621948,0.06459861993789673,-0.015735596418380737,-0.011435374617576599
76,1.733349663282051,-0.47627664353873245,-0.5572905801211647,0.8769925832748413,0.4584733843803406,0.14382711052894592,0.5572546124458313,0.35795554518699646,-0.8604867458343506,0.1315675973892212,-0.20661181211471558,0.055361151695251465
77,1.742731030976376,-0.532913807109607,-0.5915710794997059,0.8486305475234985,0.5080452561378479,0.14736400544643402,0.1386021226644516,-0.05185043066740036,0.013011103495955467,0.22690045833587646,-0.3105812668800354,0.06694567203521729
78,1.7385979194800618,-0.4939388684376931,-0.6233233858632211,0.8681051731109619,0.4740976095199585,0.14705222845077515,0.24792814254760742,0.28740644454956055,0.6470369696617126,0.14895397424697876,-0.15157276391983032,0.05482146143913269
79,1.7374418356562782,-0.4101923463718286,-0.6494126111325244,0.9043400883674622,0.3987857401371002,0.15211494266986847,0.0804077759385109,0.08111468702554703,1.054298758506775,0.09746044874191284,-0.04867285490036011,0.02215564250946045
80,1.7378827846542608,-0.2937950649645357,-0.679237643061433,0.9438220858573914,0.28958675265312195,0.1591840237379074,0.01424713246524334,0.0635894238948822,1.229643702507019,0.004923701286315918,0.12362128496170044,0.004741206765174866
81,1.7379863667028288,-0.187818362093281,-0.7080041634467268,0.9687154293060303,0.18671606481075287,0.16348569095134735,0.16066719591617584,0.18989703059196472,0.7965042591094971,-0.12797141075134277,0.20604515075683594,0.03506171703338623
82,1.7483675156864056,-0.12600053226894203,-0.7384154819316265,0.9764727354049683,0.12566739320755005,0.17523916065692902,-0.6590661406517029,-0.6258133053779602,0.7318133115768433,0.13776981830596924,-0.04442960023880005,0.1015857458114624
83,1.4294757241715923,-0.00021084912729473648,-0.46747707301230673,0.990030825138092,0.00021084913169033825,-0.14085066318511963,-4.763567924499512,-6.17215633392334,2.161658763885498,0.6090750098228455,-0.26012903451919556,-0.001895308494567871
84,0.7719576288173042,0.06983522831273133,-0.06146377975634283,0.6958390474319458,-0.06977847963571548,-0.7147999405860901,-1.0971567630767822,-5.896925926208496,1.9314348697662354,0.2002943754196167,0.2985992729663849,-0.12360942363739014
85,0.329765630626546,0.1549306142413371,-0.02405920957126089,0.3199426531791687,-0.15431153774261475,-0.9347859025001526,1.256744146347046,-3.1331357955932617,0.15179722011089325,0.2292974591255188,0.28304994106292725,0.2741261124610901
86,0.1121731053626238,0.28076624395811006,-0.0390717003045593,0.10755489766597748,-0.27709197998046875,-0.9548046588897705,1.6197503805160522,-1.236806035041809,-0.016454335302114487,0.19864320755004883,0.19719696044921875,0.3370221257209778
87,0.0238974198823678,0.417539550906785,-0.0504396317266342,0.02184230089187622,-0.40551260113716125,-0.913828432559967,0.5873004794120789,-0.761347770690918,-0.2863176167011261,0.11974400281906128,0.07107046246528625,0.37156158685684204
88,-0.03168428086382623,0.4429603335956665,-0.05639439338476751,-0.02862153947353363,-0.4286159574985504,-0.9030333161354065,-0.17340554296970367,-0.27215415239334106,-0.17464472353458405,0.07171235978603363,-0.023807138204574585,0.225527822971344
89,-0.03085105309948181,0.4440121696517175,-0.06596221705451555,-0.027855174615979195,-0.42956605553627014,-0.9026057124137878,-0.19297297298908234,-0.022570479661226273,-0.12040634453296661,0.07270075380802155,-0.03420957922935486,0.10107678174972534
90,-0.03353086549095822,0.4468148894215689,-0.07109554008760455,-0.03023340553045273,-0.43209531903266907,-0.9013210535049438,-0.09669958055019379,-0.0074568986892700195,-0.12517470121383667,0.03906824439764023,0.011059552431106567,0.09753382205963135
91,-0.033128871063427844,0.43972819307595146,-0.08191871673629227,-0.02997175231575966,-0.425693541765213,-0.904370903968811,-0.009631291031837463,-0.04054877534508705,-0.18159885704517365,0.02286115661263466,0.04080584645271301,0.06820452213287354
92,-0.019610070050485866,0.4323512730010955,-0.08505041181319221,-0.017804469913244247,-0.419006884098053,-0.9078084826469421,-0.12394466996192932,-0.016221921890974045,-0.04850560799241066,0.04078420251607895,0.02459770441055298,0.02433985471725464
93,-0.019269125535519637,0.41271531809714757,-0.08091415278954198,-0.017650103196501732,-0.4010981321334839,-0.9158650636672974,0.025436848402023315,0.10814962536096573,-0.0032822396606206894,0.009654495865106583,0.011342883110046387,0.018465161323547363
94,-0.009696381761406372,0.3987587267263696,-0.07444828775941559,-0.008935499005019665,-0.38827475905418396,-0.9215003252029419,-0.14561353623867035,-0.02253866009414196,0.026231003925204277,0.015145826153457165,0.00601157546043396,-0.0044640302658081055
95,-0.00562036865729496,0.38458284072354176,-0.060241894259767094,-0.005209801718592644,-0.37517249584198,-0.926940381526947,-0.2030000537633896,0.07140004634857178,0.12938985228538513,0.0012119980528950691,0.026814311742782593,-0.0004888176918029785
96,-0.0023450042026699485,0.3601143690559653,-0.047682037695257744,-0.0021945855114609003,-0.35238125920295715,-0.9358539581298828,-0.28415271639823914,0.06776422262191772,0.08055318146944046,-0.029665766283869743,0.025644809007644653,0.0038928985595703125
97,-0.004030598415948353,0.3312835698645192,-0.04446826117695011,-0.0038114269264042377,-0.3252570629119873,-0.9456179738044739,-0.3249688744544983,-0.08931469172239304,0.0036145225167274475,-0.03093283623456955,0.008026868104934692,-0.020599067211151123
98,-0.0020210561062793536,0.3150521118417314,-0.043855521728507756,-0.001921578892506659,-0.3098660111427307,-0.9507783055305481,-0.11378934979438782,0.005048156250268221,0.07360635697841644,-0.022187307476997375,-0.0207156240940094,-0.014904677867889404
99,-0.011857613612391415,0.3021757426150302,-0.03389049155431871,-0.01132009457796812,-0.29759806394577026,-0.9546241164207458,0.042397551238536835,0.1549496203660965,0.08775485306978226,-0.020128268748521805,0.01741620898246765,-0.029369354248046875
100,0.008964665624895552,0.31957536561320393,-0.024521193184352624,0.008510660380125046,-0.3141634464263916,-0.949330747127533,0.24585624039173126,0.6226699948310852,0.011494522914290428,-0.034679483622312546,0.02542141079902649,0.05153411626815796
101,0.24364630342652374,0.4600736781751049,-0.035182084924574045,0.21615834534168243,-0.44401413202285767,-0.869555652141571,3.095801591873169,4.203686237335205,-0.03203744813799858,-0.18008658289909363,0.11321887373924255,0.16260069608688354
102,0.6140697769583913,0.6312700724637378,-0.24952280143416078,0.46515271067619324,-0.5901705622673035,-0.6597967147827148,1.012913703918457,-0.336535781621933,-1.8090176582336426,-0.20311355590820312,0.05672323703765869,-0.07611942291259766
103,0.42359901563257774,0.5071603396554142,-0.34650342638532694,0.3593047857284546,-0.4856969714164734,-0.7968679666519165,-1.1929190158843994,-2.34755539894104,-0.6320674419403076,-0.11015927791595459,-0.1715753674507141,0.092934250831604
104,0.25515855005689475,0.41035560810132654,-0.39277463661600154,0.23144443333148956,-0.3989354372024536,-0.8872902393341064,-0.19808505475521088,-0.17604760825634003,-0.8669008612632751,-0.08123691380023956,-0.058492511510849,0.21018153429031372
105,0.30301571848390846,0.42031454790962647,-0.44857996925394117,0.27242735028266907,-0.4080476462841034,-0.8713670372962952,-0.5053377151489258,-1.407705545425415,-0.8594699501991272,-0.40539246797561646,0.02180194854736328,-0.10635513067245483
106,0.30701758823261244,0.4243364486245971,-0.5657005167479684,0.27541404962539673,-0.41171616315841675,-0.8686983585357666,-0.4413876533508301,-1.915270447731018,-0.9963516592979431,0.3585733473300934,-0.015484124422073364,-0.3824917674064636
107,0.2164109582077916,0.3896568297935083,-0.6668656554862682,0.1986297369003296,-0.3798709809780121,-0.9034623503684998,1.3938146829605103,0.4623148441314697,-1.9188088178634644,-0.06310117244720459,0.18316993117332458,0.15186017751693726
108,0.3620941190085611,0.3994042079427464,-0.7485624202606453,0.32635265588760376,-0.3888695240020752,-0.8615535497665405,-0.22048474848270416,-0.3005072772502899,-0.1505429446697235,0.22073596715927124,-0.1694495677947998,0.04058492183685303
109,0.16610689684001617,0.4389811945093084,-0.7372512798783523,0.14966702461242676,-0.42501747608184814,-0.8927261233329773,0.16962531208992004,-1.9730061292648315,0.11174409836530685,0.09506869316101074,-0.0040138959884643555,-0.058644115924835205
110,0.06782120527750289,0.40524746618288515,-0.7949741626936915,0.06228024512529373,-0.3942461907863617,-0.9168921113014221,-0.13219857215881348,-1.2807729244232178,0.02377650886774063,0.17333070933818817,0.16339600086212158,-0.22516721487045288
111,-0.08635525809702428,0.36904081940468747,-0.7560774647507954,-0.08044122159481049,-0.36072099208831787,-0.9291983842849731,-1.059525489807129,-1.4326757192611694,-0.5515958666801453,-0.058154359459877014,-0.003964066505432129,-0.24391257762908936
112,-0.18738743944501624,0.22844276410069186,-0.7827958099837146,-0.18145287036895752,-0.2264610230922699,-0.9569693207740784,-0.7299946546554565,-0.9393061399459839,0.09313851594924927,-0.03720557689666748,0.1314445436000824,-0.05365079641342163
113,-0.23832290210908766,0.16354149712616545,-0.8067673521840553,-0.23292331397533417,-0.1628134697675705,-0.9587692618370056,0.5990862250328064,-0.9013264179229736,0.05110202357172966,0.051038533449172974,-0.0430428683757782,-0.054170191287994385
114,-0.3080388129844509,0.1958580176233133,-0.8148665123853648,-0.29739367961883545,-0.19460822641849518,-0.9347109794616699,-0.10685751587152481,-0.21990379691123962,-0.31432387232780457,0.07269272208213806,0.032666683197021484,0.08603239059448242
115,-0.3419158099042981,0.1969231938663077,-0.8274708029461206,-0.32881247997283936,-0.19565291702747345,-0.9239059686660767,-0.0025492962449789047,0.7942134141921997,-0.012096919119358063,-0.013121694326400757,0.024205178022384644,0.21576088666915894
116,-0.27346940397280783,0.19723092478061302,-0.8604196810954022,-0.2648375928401947,-0.19595469534397125,-0.9441730976104736,-0.12625978887081146,0.4295662045478821,-0.4599037170410156,0.00540769100189209,0.017426863312721252,-0.04532885551452637
117,-0.2134831492449522,0.19687390248555012,-0.8857686961958148,-0.2077726274728775,-0.1956045776605606,-0.9584202766418457,-0.05343388393521309,0.023721879348158836,-0.2589717209339142,-0.0387178510427475,0.05131746828556061,-0.2622981071472168
118,-0.07683981401765326,0.19304707683580644,-0.9032031893793776,-0.07533826678991318,-0.19185025990009308,-0.9785283207893372,-0.5335221886634827,8.295567512512207,-0.30101221799850464,0.03555859625339508,0.12805326282978058,1.0346500873565674
119,0.0023005872528805323,0.17934159965177632,-0.8976188724466664,0.002263686852529645,-0.1783817708492279,-0.9839587211608887,-0.01245787926018238,0.09373324364423752,0.0006813425570726395,0.0019935143645852804,0.0204838365316391,-0.0018963217735290527
120,0.002343350526667925,0.1792583643831311,-0.8975684593150337,0.0023057989310473204,-0.17829987406730652,-0.983973503112793,0.006191373337060213,-0.012642447836697102,-0.00038413144648075104,0.02081126719713211,0.02513214945793152,-0.004658699035644531
121,0.003473360207072759,0.17758690231745766,-0.897739521322934,0.0034187273122370243,-0.17665494978427887,-0.9842669367790222,-0.0019859904423356056,0.00288941478356719,0.0007917732000350952,0.019972994923591614,0.01904691755771637,0.0018450617790222168
122,0.004767942700539429,0.17591277904353472,-0.8979499505837105,0.0046943421475589275,-0.1750068962574005,-0.9845560193061829,-0.00016367528587579727,-0.0015070601366460323,-0.0006683152168989182,0.018209099769592285,0.022235900163650513,-0.007585704326629639
123,0.0058165190332040585,0.1741261628156169,-0.8981204307929108,0.005728531163185835,-0.1732475757598877,-0.9848616719245911,-0.001643078401684761,-0.0034181978553533554,-0.0007114224135875702,0.01157493144273758,0.01411367952823639,-0.0017105937004089355
124,0.0069009037477870865,0.17269374165976506,-0.8983193824558319,0.00679820217192173,-0.17183664441108704,-0.9851019978523254,0.0030052075162529945,-0.0030739777721464634,0.002915439195930958,0.01317555457353592,0.015571385622024536,-0.0022942423820495605
125,0.007947512305435831,0.17112041856893953,-0.8985087893376202,0.007831352762877941,-0.17028650641441345,-0.9853634834289551,0.0023023821413517,6.934348493814468e-05,0.0002526305615901947,0.009746771305799484,0.013517707586288452,-0.00017118453979492188
126,0.008800603397181356,0.16997504623639134,-0.8985882282056162,0.008673666045069695,-0.16915775835514069,-0.9855508208274841,-0.0028547877445816994,0.0015058773569762707,0.00044887326657772064,0.004174236208200455,0.008803144097328186,0.003403604030609131
127,0.0096384304284021,0.16884004065631725,-0.8987729052637152,0.009501228109002113,-0.1680389940738678,-0.9857345819473267,-0.00023293308913707733,0.0017104125581681728,7.74972140789032e-05,0.005162470042705536,0.011377006769180298,-0.0005325078964233398
128,0.010463143998670725,0.16767475851950112,-0.8988937996633802,0.010316215455532074,-0.16689017415046692,-0.9859215021133423,0.002099919132888317,0.0010482757352292538,-0.0008524823933839798,0.006117495708167553,0.007252737879753113,-0.00014716386795043945
129,0.011199272472673449,0.1667908957519587,-0.8989925102747692,0.011043624952435493,-0.16601863503456116,-0.9860607981681824,-0.0005914811044931412,0.002253443468362093,-0.0007060188800096512,0.005710527300834656,0.009417697787284851,0.001792609691619873
130,0.011837545298713793,0.16574779764570896,-0.8990588740521231,0.011675042100250721,-0.16498993337154388,-0.9862261414527893,0.0006495863199234009,0.00013542897067964077,-0.001061081886291504,0.005811531096696854,0.008541569113731384,-0.00040715932846069336
131,0.012428557339914813,0.16506371689764784,-0.8991937952691252,0.01225931104272604,-0.16431517899036407,-0.9863317012786865,-0.0005677696317434311,-0.0023651770316064358,0.0010419748723506927,0.0060664936900138855,0.006478264927864075,0.0015447139739990234
132,0.012898301464874376,0.16434221764347054,-0.8992297848773222,0.01272415928542614,-0.16360343992710114,-0.9864441156387329,-0.0003916984423995018,-0.0014904080890119076,0.00018330663442611694,0.008332967758178711,0.010206848382949829,0.00039064884185791016
133,0.013434369378835674,0.16361123612214432,-0.8993163454356266,0.013254561461508274,-0.1628822684288025,-0.9865564703941345,-0.0009380774572491646,0.002383036771789193,-1.8766149878501892e-05,0.0067344531416893005,0.00428241491317749,6.0498714447021484e-05
134,0.013795951429394878,0.1631903512958266,-0.8993543188935114,0.013612226583063602,-0.16246698796749115,-0.9866200685501099,-9.266100823879242e-05,1.2846197932958603e-05,0.00201544351875782,0.003386065363883972,0.00635431706905365,0.0013905763626098633
135,0.014116442360236172,0.1625463761027873,-0.8993321130405475,0.013929902575910091,-0.1618315428495407,-0.986720085144043,-0.0006244191899895668,-0.00041845208033919334,0.0006805583834648132,0.0052198804914951324,0.005673080682754517,0.00036144256591796875
136,0.014517361842482653,0.16224071324528133,-0.8993353725626844,0.014326213859021664,-0.16152989864349365,-0.9867638349533081,0.0007681204006075859,-0.0006369249895215034,-0.0007607471197843552,0.00267207995057106,0.0027316808700561523,0.0015190839767456055
137,0.014744745036304978,0.16183444768736965,-0.8994014991416464,0.014551553875207901,-0.1611289530992508,-0.9868260622024536,-0.000256967730820179,-0.0008803517557680607,0.0006366483867168427,0.0008445680141448975,0.0052909404039382935,0.0012608766555786133
138,0.015054276749482745,0.16145675281462457,-0.8994093604501635,0.014857921749353409,-0.1607561856508255,-0.9868823289871216,0.0011032791808247566,-0.00022347690537571907,-0.0009923558682203293,0.0020945966243743896,0.0021410733461380005,0.001835942268371582
139,0.015411003282634055,0.16123535108307702,-0.8994638133322252,0.015210515819489956,-0.16053766012191772,-0.9869124889373779,-0.0016571804881095886,0.0018683371599763632,-0.0006138365715742111,0.001299489289522171,0.005203187465667725,0.0006606578826904297
140,0.015575555461981765,0.16080922839069564,-0.8994864369102336,0.01537397876381874,-0.160117045044899,-0.98697829246521,-0.0005313744768500328,0.0011980074923485518,-0.001029936596751213,0.0024635493755340576,0.003882303833961487,0.0009553432464599609
141,0.015795434788561564,0.16056705268518034,-0.8994899552708971,0.015591606497764587,-0.1598779857158661,-0.9870136380195618,-0.000618230551481247,-0.0024212002754211426,-0.00017721019685268402,0.002703680656850338,0.0013849586248397827,-6.210803985595703e-05
142,0.015985731099694932,0.16033131205784498,-0.8995324079376854,0.01578003354370594,-0.15964527428150177,-0.987048327922821,0.0008808374404907227,-0.002439287956804037,0.0013140607625246048,0.002225339412689209,0.00444813072681427,0.001483142375946045
143,0.016127308906500007,0.16003322669932293,-0.8995826962764161,0.015920544043183327,-0.15935100615024567,-0.9870936274528503,-0.0005373591557145119,-0.002535251434892416,0.00031446851789951324,0.0006199851632118225,-0.0011561959981918335,0.0008570551872253418
144,0.01609080233334189,0.1600394845904497,-0.8995997687869413,0.01588449254631996,-0.1593571901321411,-0.9870932102203369,-0.0019826646894216537,-0.003120528534054756,0.00019132159650325775,0.0018919967114925385,0.00853930413722992,0.003435373306274414
145,0.01633127585397714,0.15955261887900465,-0.8996521838786304,0.016123127192258835,-0.15887652337551117,-0.9871668219566345,0.0072196535766124725,-0.0037009334191679955,0.001094212755560875,0.011083289980888367,0.0022450536489486694,-0.009827196598052979
146,0.015958361066954866,0.15950813298868916,-0.8996838176000395,0.01575510948896408,-0.1588326096534729,-0.9871798157691956,0.04094615578651428,-0.020497553050518036,0.0019446555525064468,0.021354269236326218,0.022296950221061707,-0.014086663722991943
147,0.01623820951218745,0.15937012705975087,-0.8997206548044878,0.016031725332140923,-0.15869635343551636,-0.9871972799301147,0.004043655935674906,-0.02651217021048069,0.003182818181812763,0.0022330433130264282,-0.0037639737129211426,-0.004425644874572754
148,0.016675476090397823,0.15941712668933136,-0.8997094914041752,0.0164632685482502,-0.158742755651474,-0.9871827363967896,-0.002238706685602665,0.0018456019461154938,0.0013437271118164062,-0.0185537189245224,-0.007898479700088501,-0.0008238554000854492
149,0.01650979154197741,0.15880562775603735,-0.8997097784888851,0.01630130596458912,-0.15813897550106049,-0.9872822761535645,0.005054467357695103,0.007848069071769714,0.00039496272802352905,0.003168907016515732,0.015423521399497986,-0.008445262908935547
150,0.017059337040878142,0.15876800147508283,-0.8998170379868635,0.01684396155178547,-0.15810182690620422,-0.9872791171073914,0.000945650041103363,0.006343054585158825,-0.0019675884395837784,0.00012381188571453094,-0.019357874989509583,0.007985353469848633
151,0.01646384524353758,0.15892925473165592,-0.8996883009811473,0.01625562272965908,-0.15826104581356049,-0.9872635006904602,0.000245475210249424,-0.0007716566324234009,0.0009484551846981049,-0.009114507585763931,0.012417539954185486,-0.002253711223602295
152,0.01692161119649909,0.15852210077289675,-0.8997458369164875,0.01670864410698414,-0.15785901248455048,-0.9873203039169312,0.004373389761894941,-0.002155264839529991,0.0008675549179315567,-3.078579902648926e-05,-0.0006950646638870239,-0.006026864051818848
153,0.01711738630725446,0.15866600514196685,-0.8997107267270067,0.016901548951864243,-0.158001109957695,-0.9872942566871643,0.001727021299302578,0.004430638160556555,0.00014003925025463104,0.014516295865178108,0.007961452007293701,0.00043213367462158203
154,0.017702520622145057,0.1586139600857091,-0.8997828409310583,0.017479389905929565,-0.15794971585273743,-0.9872924089431763,-0.003994775004684925,-0.0014111739583313465,-0.0012473519891500473,0.009681249037384987,0.0035002678632736206,0.010409533977508545
155,0.017214856461911048,0.1584117174801109,-0.8997263819711006,0.016998471692204475,-0.15775001049041748,-0.9873327612876892,0.002171264961361885,-0.0031283963471651077,-7.81528651714325e-05,-0.007614314556121826,-0.0068618059158325195,-0.001558840274810791
156,0.016886296949565914,0.15845584933270243,-0.8997157335514416,0.01667395420372486,-0.15779359638690948,-0.9873313307762146,0.010635697282850742,-0.004476258531212807,5.6101009249687195e-05,-0.0008200705051422119,0.004610612988471985,-0.0141792893409729
157,0.017263200320874857,0.15834905087834603,-0.8998483105666701,0.017046373337507248,-0.15768812596797943,-0.9873418211936951,0.0026943469420075417,-0.00597248924896121,-0.00012731552124023438,0.023374155163764954,0.001789093017578125,0.0030278563499450684
158,0.01782213015921234,0.1584255948618033,-0.8998867880314585,0.01759801059961319,-0.15776371955871582,-0.987320065498352,-0.005543071776628494,0.003002188168466091,-0.0015292391180992126,-0.01987157203257084,-0.0008361339569091797,0.008514583110809326
159,0.01664903759468667,0.15822846190408563,-0.8996544059067525,0.016440298408269882,-0.1575690507888794,-0.9873710870742798,-0.0008443761616945267,-0.0017604618333280087,0.0036943014711141586,-0.016364002600312233,0.00022041797637939453,0.0044152140617370605
160,-0.012154850793359168,0.1684383474238558,-0.8890740851512899,-0.011982537806034088,-0.1676429957151413,-0.9857749342918396,-0.0691358745098114,0.2919764816761017,0.7741830945014954,0.340153306722641,0.055796071887016296,0.2806205153465271
161,-0.12687439625741223,0.16372386849704362,-0.6385955526618733,-0.12484215945005417,-0.1629934012889862,-0.978696882724762,0.5404179096221924,-1.6458971500396729,4.264355659484863,0.24799585342407227,-0.035599738359451294,-0.12114137411117554
162,-0.3276771475777025,0.15556665348382703,-0.23646578385593128,-0.3179579973220825,-0.1549399346113205,-0.9353589415550232,0.8927486538887024,-0.45890891551971436,3.1154122352600098,-0.10915073752403259,0.2253439873456955,0.0812634825706482
163,-0.4649737689089685,0.10378399828071687,0.18220140415055838,-0.44598662853240967,-0.10359779000282288,-0.8890238404273987,1.4014394283294678,-1.6927495002746582,6.101982593536377,0.28631868958473206,0.19347205758094788,-0.004530787467956543
164,-0.4853720608612661,0.01602388369261471,0.5353359429301001,-0.4664776027202606,-0.016023198142647743,-0.8843879103660583,0.3172816038131714,-0.20454825460910797,3.3380582332611084,0.03933832049369812,0.05558924376964569,0.02632516622543335
165,-0.4880050239392275,-0.02002119812572129,0.6951811300575754,-0.46877074241638184,0.020019860938191414,-0.883092999458313,0.35287365317344666,0.6522706151008606,0.027799930423498154,0.16948485374450684,0.08528104424476624,0.08489048480987549
166,-0.34550778798311366,0.003649690532826177,0.7656522773328331,-0.3386722505092621,-0.003649682505056262,-0.9408973455429077,0.18967732787132263,0.3178098499774933,0.1315319836139679,-0.025494009256362915,0.014300316572189331,-0.058721184730529785
167,-0.3370395448511037,0.003095798705611959,0.777528205539517,-0.3306930661201477,-0.0030957937706261873,-0.943733274936676,-0.0010683480650186539,-0.003493114374577999,-0.0005880612879991531,0.003071606159210205,-0.00566275417804718,0.020118772983551025
168,-0.3377810124112251,0.0032281712580881656,0.77754540493036,-0.3313925862312317,-0.003228165674954653,-0.9434874057769775,-0.0008623497560620308,0.005146492272615433,-0.0020545460283756256,0.003954261541366577,-0.0019445640500634909,0.0031340718269348145
169,-0.33788764729202453,0.003007092337737636,0.7775517695908636,-0.33149340748786926,-0.003007087856531143,-0.9434527158737183,7.376633584499359e-05,0.0018392829224467278,-0.00044993311166763306,-0.0025977492332458496,0.004136241972446442,0.004899859428405762
170,-0.33761746872738224,0.0027908273932640117,0.7775356092288397,-0.331238716840744,-0.0027908238116651773,-0.9435428380966187,-0.0002702483907341957,0.0014325955417007208,-0.00027182698249816895,0.0054483115673065186,0.0011428745929151773,9.196996688842773e-05
171,-0.33738834446323857,0.002906257954365918,0.7775522078691859,-0.3310224115848541,-0.002906253794208169,-0.9436184167861938,-0.001745208166539669,0.001725133042782545,0.0020157983526587486,0.001402050256729126,0.00043432414531707764,0.0019985437393188477
172,-0.33740286500275746,0.002835198196342134,0.7775360807192818,-0.33103618025779724,-0.0028351943474262953,-0.9436138272285461,0.0002672271803021431,-0.001660593319684267,0.0029390286654233932,0.0010343492031097412,0.000912591814994812,0.0034587979316711426
173,-0.3371649664083668,0.002840713473714921,0.777521679632768,-0.33081167936325073,-0.002840709639713168,-0.9436925053596497,-0.0009150765836238861,-0.0002624243497848511,-0.0015786997973918915,0.0010387301445007324,-0.0003636404871940613,0.002911865711212158
174,-0.3371234338135085,0.0028424842727951044,0.7775292136561268,-0.3307724893093109,-0.0028424805495887995,-0.9437062740325928,0.00014481786638498306,0.0016820963937789202,-0.0014668796211481094,0.002281278371810913,0.0020185038447380066,0.0008962154388427734
175,-0.336983459344905,0.0027691353473615656,0.777519957722536,-0.3306404650211334,-0.002769131911918521,-0.9437527060508728,-0.000583745539188385,-0.002037602476775646,-0.00028315000236034393,-4.801154136657715e-05,-0.0011523738503456116,0.002193927764892578
176,-0.3369446658080155,0.0028434565185578883,0.7775396303796926,-0.33060377836227417,-0.0028434526175260544,-0.9437653422355652,0.0011099977418780327,-0.0010770023800432682,0.0019013434648513794,0.0024635493755340576,-0.0023903099354356527,0.002237081527709961
177,-0.3368135404047984,0.002854297462891987,0.7775920981268764,-0.33048000931739807,-0.002854293677955866,-0.9438086748123169,0.0018989741802215576,-8.495617657899857e-05,-0.003025652840733528,0.004079252481460571,-0.0016165375709533691,0.0013190507888793945
178,-0.33676416338244297,0.0028306878615932058,0.7776083055430174,-0.3304334282875061,-0.002830684185028076,-0.9438250660896301,0.002305882051587105,0.0006636506877839565,-8.568912744522095e-05,-0.00013297796249389648,-0.002692997455596924,0.002083122730255127
179,-0.3367678375252186,0.0029229017830751007,0.7775909867661742,-0.3304367959499359,-0.002922897692769766,-0.9438235759735107,0.0008436646312475204,-0.0027681696228682995,0.0009465888142585754,0.0037308931350708008,0.0011376144830137491,0.0023258328437805176
180,-0.336549539194251,0.0028068679990388115,0.7775730577117412,-0.33023086190223694,-0.0028068642131984234,-0.9438959956169128,0.00017121247947216034,0.0020396332256495953,-0.00014985725283622742,0.0007631182670593262,-0.0012367144227027893,0.0017573237419128418
181,-0.33669882837849746,0.0029562005475533885,0.7776243521122489,-0.3303716480731964,-0.0029561962001025677,-0.9438462853431702,-0.001352624036371708,0.002264379756525159,0.0004779677838087082,0.002033025026321411,-0.00038548558950424194,0.001051485538482666
182,-0.3364293201347524,0.0028577636756777665,0.7776092192550268,-0.3301173448562622,-0.002857759827747941,-0.9439355731010437,0.002084227278828621,-0.0018876558169722557,0.0019902242347598076,0.0013362467288970947,0.001774385804310441,2.6941299438476562e-05
183,-0.33660548936415124,0.002892060514448338,0.7776317553542084,-0.33028361201286316,-0.002892056480050087,-0.9438773393630981,0.0013033794239163399,-0.0013423869386315346,0.001329595223069191,0.0005411803722381592,-0.0025095567107200623,0.0037223100662231445
184,-0.3366133798654674,0.0030047560833978415,0.7775984186565353,-0.33029094338417053,-0.0030047516338527203,-0.9438744187355042,0.0012865783646702766,0.0038041521329432726,-0.0011346973478794098,0.0016471445560455322,0.0006091147661209106,0.00426870584487915
185,-0.3365750441328952,0.002960037516735937,0.7776107165231456,-0.33025479316711426,-0.0029600332491099834,-0.9438871741294861,-0.0003674514591693878,0.0005732299759984016,-0.0014728736132383347,0.0012905597686767578,-0.0031129643321037292,0.003259122371673584
186,-0.33667038537299,0.003132354669073743,0.777618677746507,-0.33034461736679077,-0.0031323495786637068,-0.9438551664352417,0.0019062291830778122,-0.0017344038933515549,-0.0018330104649066925,0.0009531676769256592,0.0020947533193975687,0.0017775893211364746
187,-0.33664471716038286,0.0028849273995046206,0.7776246873564981,-0.3303206264972687,-0.002884923480451107,-0.9438643455505371,0.0008532023057341576,-0.002790233585983515,0.002617284655570984,0.0020277798175811768,-0.0014943554997444153,-0.0013260841369628906
188,-0.3366811423460289,0.003084149183063256,0.7776446976680431,-0.33035480976104736,-0.0030841443222016096,-0.9438517689704895,-0.0027347300201654434,-0.004465874750167131,-0.0012141484767198563,-0.002012103796005249,-0.006086386740207672,-0.0025593042373657227
189,-0.33667130992839006,0.0030635048313753057,0.7776278482618779,-0.3303455710411072,-0.003063499927520752,-0.9438551068305969,0.001155543141067028,0.0005054741632193327,-0.001974288374185562,0.008278340101242065,0.0009120109025388956,0.00028210878372192383
190,-0.33642902466276475,0.002919289526750282,0.7776466300188885,-0.33011701703071594,-0.002919285325333476,-0.9439355134963989,-0.000317196361720562,0.005639612674713135,0.0005730893462896347,-0.004477709531784058,0.004277318716049194,0.0020104646682739258
191,-0.33670698840662766,0.002861259466060782,0.7776626827140893,-0.3303794264793396,-0.00286125554703176,-0.9438438415527344,0.0003906944766640663,0.0016942587681114674,0.00011678412556648254,-0.000522613525390625,-0.0016095635946840048,0.0014000535011291504
192,-0.3364110550771548,0.0030188978480443353,0.7776191941032006,-0.3300999701023102,-0.003018893301486969,-0.9439411759376526,-2.012588083744049e-05,-0.0023695803247392178,-0.0018921960145235062,0.004401117563247681,0.003751315176486969,-0.0016917586326599121
193,-0.33635633242781,0.0028234117596298313,0.7776700614862584,-0.33004847168922424,-0.002823407994583249,-0.9439597725868225,-0.0005807019770145416,-0.0005285367369651794,0.0021987343207001686,-0.004866689443588257,0.0030675530433654785,0.0020042061805725098
194,-0.33647270991549494,0.0029862287055648236,0.7776719470490264,-0.33015817403793335,-0.0029862243682146072,-0.943920910358429,0.0011281762272119522,0.002977372147142887,0.0001471061259508133,0.00433725118637085,0.002696305513381958,0.004666149616241455
195,-0.33615907540804474,0.002956322453070857,0.7777283750287658,-0.32986214756965637,-0.0029563182033598423,-0.9440245032310486,-0.0009708534926176071,0.0032568080350756645,-0.002741502597928047,-0.00033801794052124023,0.0007132738828659058,-0.001516878604888916
196,-0.3365203641066855,0.0030429562491376895,0.7777126004704276,-0.330203115940094,-0.0030429514590650797,-0.9439049959182739,-0.0010100016370415688,0.0014577216934412718,0.0010213479399681091,-0.007000863552093506,-0.006692156195640564,0.0025445222854614258
197,-0.3365425525374523,0.0030102914012062167,0.7777297645790544,-0.33022409677505493,-0.0030102869495749474,-0.9438977837562561,-0.0010336795821785927,0.004427777603268623,-0.0009623151272535324,0.011376440525054932,-0.00036190450191497803,0.0058179497718811035
198,-0.33608521074440867,0.002753087978875999,0.7777097426671011,-0.3297926187515259,-0.0027530845254659653,-0.9440493583679199,0.00013490859419107437,0.0034750187769532204,-0.0033391304314136505,-0.004878371953964233,-0.015771083533763885,0.010104715824127197
199,-0.3367030029752175,0.0031292987243063453,0.7777497686391155,-0.33037540316581726,-0.0031292936764657497,-0.9438444375991821,-0.0020270496606826782,0.004415774252265692,-0.0011122971773147583,0.005149573087692261,-0.005293555557727814,0.004955887794494629
200,-0.3359021908137891,0.002680982206583033,0.7777731754922058,-0.3296198844909668,-0.0026809789706021547,-0.9441099166870117,-0.00028502941131591797,0.0031430688686668873,-0.0023699477314949036,-1.5735626220703125e-05,0.004908762872219086,0.007052421569824219
201,-0.33656237988845206,0.0025528146781330476,0.7777622746405978,-0.33024322986602783,-0.002552811987698078,-0.9438924193382263,-0.001268891617655754,-0.0016916594468057156,-0.0008798539638519287,-0.006899744272232056,0.012913532555103302,0.0034627318382263184
202,-0.3361501400329478,0.002359559313816174,0.7777979137849932,-0.32985424995422363,-0.0023595571983605623,-0.944028913974762,-0.0005859043449163437,-0.0012266715057194233,0.0001109149307012558,0.007756471633911133,0.005304507911205292,0.0003338456153869629
203,-0.3361134918128389,0.0026392859408895532,0.7778126479463693,-0.3298194110393524,-0.002639282960444689,-0.9440403580665588,6.865616887807846e-05,0.0033243554644286633,0.0004238169640302658,-0.005645066499710083,0.0062556192278862,0.007944166660308838
204,-0.3363992122280165,0.0025790316781062793,0.777816078379243,-0.33008918166160583,-0.002579028718173504,-0.9439462423324585,0.00046561844646930695,-0.0010491055436432362,0.0013510603457689285,0.002116769552230835,0.00704985111951828,0.0006173849105834961
205,-0.33597141707857425,0.002516334112711612,0.7778118644869508,-0.32968538999557495,-0.002516331383958459,-0.9440875053405762,0.0008080583065748215,-7.829954847693443e-05,0.0006024930626153946,0.0012704730033874512,0.002775728702545166,0.0004534721374511719
206,-0.3361950121059985,0.002613040591420043,0.7778508105996746,-0.32989639043807983,-0.0026130375918000937,-0.9440135359764099,-0.0001441584900021553,-0.000493035651743412,0.001531790941953659,-0.000898897647857666,-0.006618529558181763,0.004636704921722412
207,-0.3360920186632253,0.00278872524711775,0.7778433109507599,-0.32979899644851685,-0.0027887215837836266,-0.9440470337867737,-0.0009641703218221664,0.004791031591594219,0.0012363716959953308,0.004405349493026733,-0.003345310455188155,0.004883885383605957
208,-0.33618814057389085,0.002609720690551286,0.7778258221035159,-0.3298898935317993,-0.002609717659652233,-0.9440158009529114,2.27438285946846e-05,-0.0015253792516887188,-0.0007594004273414612,-0.0019582509994506836,-0.0007929876446723938,0.004211723804473877
209,-0.33617739377984723,0.0027049293354293323,0.7777673147257157,-0.32987967133522034,-0.0027049260679632425,-0.9440191388130188,-0.001648186706006527,0.0008862914983183146,0.0007878206670284271,0.005737215280532837,-0.008830718696117401,0.0009649395942687988
210,-0.33595210938158243,0.002877539572922334,0.7777888181747247,-0.3296668529510498,-0.002877535531297326,-0.9440929293632507,0.002158033661544323,-0.002490977756679058,-0.000557195395231247,-0.0009453296661376953,-0.004797637462615967,0.0021221041679382324
211,-0.33621673650469097,0.0027009993305462136,0.7778145230291222,-0.3299168050289154,-0.002700996119529009,-0.9440061450004578,-0.0005860887467861176,0.0009868696797639132,2.7064234018325806e-05,0.001685023307800293,0.001938052475452423,0.0029661059379577637
212,-0.33606407497482116,0.0026094438853581444,0.777776268824125,-0.3297727704048157,-0.0026094408240169287,-0.9440567493438721,0.0014142300933599472,-0.0026583378203213215,0.00021907873451709747,0.0010374486446380615,0.001159854233264923,0.0018417835235595703
213,-0.33618964773505505,0.0026321219198714614,0.7777707107875306,-0.32989129424095154,-0.002632118994370103,-0.9440152645111084,0.0007669953629374504,-0.0019008019007742405,-0.0007368884980678558,0.0004692971706390381,0.0030288472771644592,0.0027005672454833984
214,-0.33616791568310717,0.0026057644469408415,0.7777437150735143,-0.3298708200454712,-0.0026057614013552666,-0.9440224766731262,0.0011817095801234245,-0.0019680974073708057,0.0017766021192073822,0.0002351999282836914,0.0025904998183250427,0.0028298497200012207
215,-0.3361597792411322,0.0026684147353480837,0.7777295346117451,-0.3298630714416504,-0.00266841147094965,-0.9440250396728516,8.14441591501236e-06,-0.0017802165821194649,0.0008235964924097061,-0.0002913475036621094,0.0008373558521270752,0.0040836334228515625
216,-0.3362177438995173,0.0026974587881263053,0.7777781990972119,-0.3299177885055542,-0.0026974554639309645,-0.9440057873725891,0.002329181879758835,0.001121546607464552,0.0017686542123556137,0.0012587308883666992,0.0008816644549369812,0.0024775266647338867
217,-0.3361388301625064,0.00272116277009161,0.7777887120008709,-0.3298432528972626,-0.0027211594861000776,-0.9440317749977112,-0.0007875394076108932,-0.0011988161131739616,0.0024916604161262512,0.0018708407878875732,0.0001882016658782959,-0.0018605589866638184
218,-0.3360938814007621,0.002698597573172691,0.7777493835477278,-0.3298008441925049,-0.0026985942386090755,-0.944046676158905,0.00012957490980625153,-0.0003288392908871174,-0.0010101571679115295,-0.003756284713745117,-0.0029319003224372864,0.0021368861198425293
219,-0.3362589932388221,0.0027573114664452263,0.7777364035708235,-0.32995665073394775,-0.0027573080733418465,-0.9439920783042908,-0.0008700890466570854,0.0017116861417889595,0.00012158975005149841,0.003967881202697754,0.0031387731432914734,0.0015177130699157715
220,-0.3359462246451889,0.0026050803825604972,0.7777286979377879,-0.3296615183353424,-0.0026050773449242115,-0.9440956115722656,0.0005269348621368408,-0.0006207702681422234,-0.0008597671985626221,0.002299487590789795,0.0020252466201782227,0.003147125244140625
221,-0.336064039186567,0.00278220034316764,0.7777669825983304,-0.32977259159088135,-0.0027821967378258705,-0.9440562725067139,0.0006539030000567436,0.00223374692723155,-0.0010099280625581741,-0.004654258489608765,-0.004450470209121704,0.002650022506713867
222,-0.3361579307919141,0.002883628611173959,0.7778267446062755,-0.3298611342906952,-0.002883624518290162,-0.9440250396728516,3.7321820855140686e-05,-0.0008744616061449051,0.003311517648398876,0.0018124580383300781,0.0016018899623304605,0.0003910660743713379
223,-0.33587730481755435,0.002657841368525936,0.7778611483774447,-0.3295964002609253,-0.0026578381657600403,-0.9441182017326355,0.0005845623090863228,0.0008747759275138378,0.003059590235352516,0.003683924674987793,-0.0034761950373649597,0.002071082592010498
224,-0.33599316270715013,0.002796049385606114,0.7778951214608455,-0.32970568537712097,-0.0027960457373410463,-0.9440796375274658,-0.0007978500798344612,0.003093732986599207,-2.333521842956543e-05,-0.005484133958816528,0.006351344287395477,0.0023224353790283203
225,-0.3361988812541634,0.002626718914300232,0.7779040650658197,-0.32990002632141113,-0.002626715926453471,-0.9440122246742249,0.0011091465130448341,-0.0005044946447014809,-0.0005055200308561325,0.002125978469848633,0.0071738362312316895,0.0031705498695373535
226,-0.33593046450463465,0.002654546348134098,0.7778894709854399,-0.32964661717414856,-0.0026545431464910507,-0.9441006779670715,-0.001813691109418869,0.0016918557230383158,0.0015434660017490387,-0.0015301406383514404,0.0005640909075737,0.006219208240509033
227,-0.3359103159388214,0.0028105984220290394,0.7779193790523167,-0.32962745428085327,-0.0028105946257710457,-0.9441068768501282,0.0024281423538923264,0.0024728006683290005,-5.1179900765419006e-05,-0.0018544793128967285,-0.0010498836636543274,0.002258121967315674
228,-0.33353821205398115,0.0019074428357326609,0.8084423005402543,-0.3273876905441284,-0.0019074416486546397,-0.944888174533844,0.3235988914966583,-0.04729946702718735,1.315877914428711,0.00010192394256591797,-0.14854422211647034,-0.060193002223968506
229,-0.35538340007949765,-0.03049061469825246,1.044670425216862,-0.34778809547424316,0.030485890805721283,-0.9370774030685425,0.46745821833610535,-0.0820392295718193,3.2199277877807617,0.06284546852111816,-0.06419254839420319,-0.05741417407989502
230,-0.3003999118248982,-0.1169848511593452,1.4186746493159086,-0.29387974739074707,0.11671820282936096,-0.9486894011497498,0.45270538330078125,0.8355653882026672,3.8181920051574707,-0.0016677379608154297,-0.010837472975254059,0.14801496267318726
231,-0.08634571491199322,-0.1649790820269967,1.917884441893904,-0.0850674957036972,0.16423170268535614,-0.9827468991279602,0.04203154146671295,0.8704752326011658,4.707216739654541,0.1084134429693222,0.009016603231430054,-0.008433520793914795
232,-0.012156848006259317,-0.18610113949828075,2.1786912331691215,-0.011946642771363258,0.1850287765264511,-0.9826604723930359,-0.01720491796731949,-0.0011958437971770763,1.3094569444656372,-0.07183936983346939,0.08741690218448639,-0.011815786361694336
233,0.0015148143195119485,-0.17313633815833565,2.356873451744516,0.001492166193202138,0.17227263748645782,-0.9850481748580933,0.030141692608594894,0.09034227579832077,0.5374218225479126,-0.4031645357608795,0.20873932540416718,0.0023974180221557617
234,-0.00012470291496625922,-0.17120926414604426,2.362717342028528,-0.00012287969002500176,0.1703740507364273,-0.9853794574737549,-0.009443185292184353,0.02162284590303898,0.00019670464098453522,-0.0023948214948177338,0.008382663130760193,0.013882875442504883
235,-9.519779184769885e-05,-0.171472016455977,2.362727510115958,-9.38016819418408e-05,0.1706329584121704,-0.9853346347808838,0.00035718176513910294,-0.0002937209792435169,0.0016705840826034546,0.000902518630027771,0.006399497389793396,0.0023329854011535645
236,-0.00025980644865372904,-0.17189762086128332,2.3627349788759613,-0.0002559774147812277,0.17105230689048767,-0.9852619171142578,0.0016620969399809837,-0.002702082507312298,0.0009562075138092041,0.0001796819269657135,0.004454284906387329,0.0015277862548828125
237,-0.00040099711997010253,-0.17248950926133352,2.362678954698786,-0.000395046517951414,0.1716354489326477,-0.9851604700088501,5.33154234290123e-05,0.0009156204760074615,-0.0011835265904664993,-0.002321019768714905,0.008265689015388489,0.0021282434463500977
238,-0.0006417461821335024,-0.17298530787228658,2.362615803626852,-0.0006321682594716549,0.17212386429309845,-0.9850751161575317,0.0018267137929797173,-0.0011049197055399418,-0.0013635549694299698,-0.0025569163262844086,0.0019026249647140503,0.0006543397903442383
239,-0.0007146118827292384,-0.17335321893564695,2.3625791440176873,-0.0007039011688902974,0.17248627543449402,-0.9850116968154907,-0.0004978431388735771,-0.00213578250259161,0.001613415777683258,0.0005970895290374756,0.0055380165576934814,0.0022388696670532227
240,-0.0008485352230941605,-0.17383790809242475,2.3624963430857018,-0.0008357461774721742,0.1729636788368225,-0.9849278330802917,-0.0001521538943052292,-0.00029294751584529877,-0.0009649824351072311,-0.0037571489810943604,0.0002998560667037964,0.0013463497161865234
241,-0.0009790349252280248,-0.17399280604798437,2.362493724919328,-0.0009642527438700199,0.17311623692512512,-0.984900951385498,0.001589914783835411,0.0005904762074351311,-0.000964779406785965,0.0007353723049163818,0.004267185926437378,0.0014567375183105469
242,-0.0009617447223735756,-0.17458677016161625,2.3624714470751598,-0.0009471244993619621,0.1737011969089508,-0.9847979545593262,0.0022885706275701523,-0.0011294009163975716,0.00034913234412670135,-0.002745501697063446,0.0053149014711380005,0.0016894340515136719
243,-0.001323785221646045,-0.1747243337911572,2.3624384809207792,-0.001303629600442946,0.17383667826652527,-0.9847736358642578,-0.002606581896543503,0.001164374640211463,-0.0020322464406490326,-0.006371542811393738,-0.0039148032665252686,-0.0012340545654296875
244,-0.0014750353688655214,-0.17490046477633114,2.362444027860055,-0.0014525315491482615,0.17401012778282166,-0.9847428202629089,0.0033742105588316917,4.5754946768283844e-05,-0.001879774034023285,0.0033751390874385834,0.006333500146865845,0.0034806132316589355
245,-0.0013446134208854191,-0.1755268687214559,2.3624533661248233,-0.0013239525724202394,0.1746269315481186,-0.9846338033676147,-0.0024028830230236053,0.00090948143042624,-0.0016549509018659592,0.00463511049747467,0.002252936363220215,-0.003281235694885254
246,-0.0015278802552003328,-0.1754025360401084,2.3624527163196936,-0.0015044364845380187,0.17450451850891113,-0.9846552014350891,-0.0017627682536840439,-0.0007902244105935097,0.0006447713822126389,-0.0022034496068954468,-0.002919435501098633,-0.0038396120071411133
247,-0.0016316865701396371,-0.17556998338294827,2.3624599598410208,-0.0016066022217273712,0.17466938495635986,-0.9846258163452148,7.144082337617874e-05,-0.0010591447353363037,-7.054582238197327e-05,-0.004817347973585129,0.005292773246765137,0.004096031188964844
248,-0.0019499205552781448,-0.1761042546856516,2.3624793890061455,-0.001919761300086975,0.17519542574882507,-0.984531819820404,-0.015508519485592842,0.00844494067132473,-0.004701601341366768,0.028180137276649475,0.02170400321483612,-0.14141422510147095
249,-0.001335098582767389,-0.17591944808835755,2.362527056650723,-0.0013144923141226172,0.175013467669487,-0.9845651388168335,0.01960774138569832,-0.02057677134871483,-0.000567099079489708,0.006334632635116577,-0.013544976711273193,0.03102821111679077
250,-0.0014818643143817364,-0.1760420869028559,2.362500413116488,-0.0014589609345421195,0.17513421177864075,-0.98454350233078,0.00474984897300601,-0.002983707934617996,-0.0007016770541667938,-0.007330100983381271,0.015112370252609253,0.00972050428390503
251,-0.0017308831649005228,-0.17633891560786272,2.3624810994253065,-0.0017040406819432974,0.1754264533519745,-0.9844910502433777,0.0004001595079898834,-0.0005845045670866966,-0.0007710102945566177,-0.005131896585226059,-0.009502395987510681,-5.9604644775390625e-06
252,-0.0016677347264819565,-0.17593186778907136,2.362526318756366,-0.0016419906169176102,0.17502570152282715,-0.9845625162124634,0.001097257249057293,-0.0005981326103210449,0.0018055103719234467,0.0035493411123752594,0.0018236637115478516,0.001499772071838379
253,-0.001585589777777035,-0.17643349012852924,2.362577732068713,-0.0015609742840752006,0.17551955580711365,-0.9844747185707092,0.0004428485408425331,0.008008548989892006,-0.00015108101069927216,-0.0008499138057231903,0.0065483152866363525,-0.0007089972496032715
254,-0.001774134148776975,-0.17644888261960465,2.3625776799208786,-0.0017465866403654218,0.1755347102880478,-0.9844716787338257,-0.005187319591641426,-0.003199315629899502,-0.002017078921198845,0.0020059868693351746,-0.0044379085302352905,-0.003717958927154541
255,-0.0017196522862741397,-0.17658884358662086,2.362606595956703,-0.0016929085832089186,0.1756724864244461,-0.984447181224823,0.002211024984717369,0.006377126090228558,0.00010966509580612183,0.003401894122362137,0.0103626549243927,0.0055196285247802734
256,-0.001692829823837401,-0.17673790914466203,2.3626255384975248,-0.0016664589056745172,0.17581923305988312,-0.9844210743904114,0.00040983036160469055,0.00025090971030294895,0.0030350303277373314,0.003741651773452759,-0.0073011815547943115,-0.000945746898651123
257,-0.0016056562823894105,-0.17644811869365645,2.3626788434946553,-0.0015807251911610365,0.1755339503288269,-0.9844720959663391,0.0022139372304081917,0.00019097188487648964,0.0029133427888154984,0.004006870090961456,0.0012085884809494019,-0.0021306276321411133
258,-0.0016074759240465842,-0.17638648364292195,2.3626208456247455,-0.0015825339360162616,0.17547327280044556,-0.9844829440116882,0.01934470422565937,-0.022426199167966843,-0.0006722044199705124,-0.015568345785140991,-0.004941046237945557,0.014847934246063232
259,-0.0020127419980091226,-0.1766406504744677,2.362571786184738,-0.0019814216066151857,0.17572349309921265,-0.9844375848770142,-0.003002779558300972,0.00013260450214147568,-0.0032009314745664597,-0.013841945677995682,0.0016599297523498535,-0.00390470027923584
260,-0.0019180871139909937,-0.17676013292307313,2.3625625788837907,-0.0018881993601098657,0.17584112286567688,-0.9844167232513428,0.00048255082219839096,-0.0021500298753380775,-0.0011392012238502502,-0.004077985882759094,-0.0010211914777755737,0.006984531879425049
261,-0.0016647524410323797,-0.17663871019689467,2.362610436620231,-0.001638847985304892,0.17572158575057983,-0.9844385385513306,0.0001313788816332817,0.0017897302750498056,-0.0018411781638860703,0.009161431342363358,-0.001847684383392334,0.0017267465591430664
262,-0.0014974234074091597,-0.17674198432033722,2.362652033067626,-0.001474095624871552,0.17582325637340546,-0.984420657157898,0.0026689060032367706,-0.0006566760130226612,0.0011247210204601288,0.005624487996101379,0.0044135600328445435,0.0035399198532104492
263,-0.00165341491233272,-0.17681343621237014,2.362665610762386,-0.0016276361420750618,0.17589358985424042,-0.9844078421592712,-0.0005329130217432976,3.2963231205940247e-05,0.0011785440146923065,0.007563304156064987,0.0002843886613845825,0.0014213919639587402
264,-0.0015552529002084616,-0.17683637004702665,2.3627341431410125,-0.0015309983864426613,0.1759161651134491,-0.9844039678573608,-0.0007907906547188759,-0.0035374085418879986,0.0004970356822013855,0.007741324603557587,0.0016198456287384033,0.00041043758392333984
265,-0.0016243089239454402,-0.17689607977570798,2.3627561240026176,-0.001598960254341364,0.17597495019435883,-0.9843933582305908,0.000153467059135437,-0.0004658307880163193,-0.0035774987190961838,0.002819664776325226,0.0017441809177398682,-0.0005004405975341797
266,-0.0017049342990889558,-0.17689837700889047,2.3627199278031608,-0.0016783267492428422,0.1759772002696991,-0.9843928217887878,-0.0010752566158771515,0.001990808639675379,-0.002079542726278305,-0.001220840960741043,-4.336237907409668e-05,0.0004145503044128418
267,-0.0017761730824845763,-0.17693120535208282,2.362702657328388,-0.0017484433483332396,0.17600952088832855,-0.9843869209289551,-0.0019004959613084793,-0.0013434975408017635,0.002548597753047943,-0.0036836862564086914,-0.0006097406148910522,0.0006985664367675781
268,-0.001787068434249491,-0.17696432923199734,2.362711376743043,-0.0017591582145541906,0.1760421246290207,-0.9843810796737671,-0.0008830567821860313,-0.002623187843710184,0.000511491671204567,-0.001643553376197815,0.001112416386604309,0.0009368658065795898
269,-0.0017608108774467294,-0.1770368425339795,2.3626876969020536,-0.0017332882853224874,0.17611350119113922,-0.9843683242797852,-0.0013841409236192703,0.0011248297523707151,0.00019301660358905792,-0.0015168339014053345,-0.001140981912612915,0.0006952285766601562
270,-0.0017400135032155982,-0.17693027873516842,2.362630193862996,-0.0017128486651927233,0.17600861191749573,-0.9843871593475342,0.0007812045514583588,0.0004915879108011723,0.0012048445641994476,-0.000102948397397995,1.677870750427246e-05,0.0012481212615966797
271,-0.001787615202845985,-0.17701214573364477,2.3626317452620125,-0.0017596813850104809,0.17608919739723206,-0.984372615814209,0.00013467390090227127,-0.0026054284535348415,0.00015730224549770355,-0.00055965397041291,-0.0002011507749557495,0.0005469918251037598
272,-0.0017287916917663323,-0.17693853910813032,2.3626774315179007,-0.001701799570582807,0.17601673305034637,-0.9843857288360596,-0.0007820539176464081,4.045246168971062e-05,0.0010302811861038208,0.000816788524389267,-0.0019444823265075684,0.0012924671173095703
273,-0.0016860809158931844,-0.17695838966778132,2.3627043467221993,-0.001659749774262309,0.1760362833738327,-0.9843822717666626,0.0011924179270863533,0.0010759965516626835,-0.0004882439970970154,0.00017964467406272888,0.0023542195558547974,0.0023571252822875977
274,-0.0017418406799818847,-0.17704227486881877,2.362688800893263,-0.0017146129393950105,0.1761188507080078,-0.9843674302101135,-4.993285983800888e-05,0.00018179509788751602,7.871724665164948e-05,0.00011244043707847595,7.43865966796875e-05,-0.0019149184226989746
275,-0.0018134791423606307,-0.17704094622511343,2.3626766859620365,-0.0017851319862529635,0.17611755430698395,-0.9843675494194031,0.0005884682759642601,-0.0019747386686503887,-0.0012116283178329468,-0.00457778200507164,-0.004761353135108948,-0.0014265179634094238
276,-0.0019101607934399103,-0.17699923892143055,2.3626762360083906,-0.001880316180177033,0.1760764867067337,-0.9843747019767761,-0.0037391679361462593,0.0012301220558583736,-0.0017959773540496826,0.002444889396429062,0.0019935667514801025,0.001525580883026123
277,-0.001726013330747179,-0.17719935438165965,2.362705960621661,-0.001698985230177641,0.17627348005771637,-0.9843397736549377,0.002016260288655758,-0.0006802855059504509,0.002016824670135975,-0.0026497691869735718,-0.0016213804483413696,0.00043779611587524414
278,-0.001917107770781065,-0.17702907354947162,2.3626560486603947,-0.0018871446372941136,0.17610585689544678,-0.9843693971633911,-2.8320588171482086e-05,-0.0008638640865683556,0.0006147045642137527,0.0018413701327517629,0.0005451291799545288,-0.00012761354446411133
279,-0.0017527204349473385,-0.1771334176514359,2.362662479059736,-0.001725294510833919,0.17620857059955597,-0.9843513369560242,-0.0016410816460847855,0.0001260752324014902,-0.0017882958054542542,0.0008097664685919881,-0.002334684133529663,-0.0010154247283935547
280,-0.0018245164293414651,-0.1770725601255814,2.362669126460778,-0.001795986550860107,0.1761486679315567,-0.9843619465827942,0.00149543397128582,-0.001496154349297285,0.0020882505923509598,0.000239592045545578,0.0009295791387557983,0.0009940266609191895
281,-0.0017174250074124162,-0.17722324398310446,2.362693398229079,-0.0016905241645872593,0.17629699409008026,-0.9843355417251587,0.00115911103785038,0.0005955344531685114,-0.002099350094795227,0.0032926946878433228,-0.001477062702178955,0.0018832087516784668
282,-0.0018365475308794721,-0.1770559157182506,2.36271877807726,-0.001807834836654365,0.17613227665424347,-0.9843648672103882,-0.0020462321117520332,0.0001276535913348198,-0.0006568189710378647,-0.0018084980547428131,-0.0005951821804046631,0.0002950429916381836
283,-0.0019013077587724165,-0.1772129800357667,2.362737341079884,-0.0018715299665927887,0.17628689110279083,-0.9843370318412781,0.001174047589302063,-0.0019087395630776882,-0.0002296101301908493,0.005747262388467789,0.0009134113788604736,0.0022814273834228516
284,-0.001691116081072607,-0.1771800531036976,2.3627678392307274,-0.0016646402655169368,0.1762544810771942,-0.9843432307243347,0.0007204795256257057,0.001189981121569872,-0.0005569588392972946,0.00012350082397460938,0.00045755505561828613,0.0006548762321472168
285,-0.0018534286085194252,-0.17721552386123196,2.3627178499780364,-0.001824399922043085,0.1762893944978714,-0.9843366742134094,-0.0015701334923505783,-0.0001809028908610344,-8.764117956161499e-05,-0.0035161785781383514,-0.00021824240684509277,-3.826618194580078e-05
286,-0.0017573209282820141,-0.17721323716727452,2.3627461351855406,-0.0017297982703894377,0.17628714442253113,-0.9843372702598572,0.00040313880890607834,0.0015301280654966831,-0.0005415976047515869,0.0014703981578350067,-0.000994175672531128,0.0015949606895446777
287,-0.0016701854086785407,-0.1771906976348807,2.3628014629412246,-0.0016440341714769602,0.1762649565935135,-0.9843413829803467,-0.0007689325138926506,0.0020529949106276035,-0.0017123650759458542,-0.0038491301238536835,0.00046233832836151123,0.0011260509490966797
288,-0.0018264256859279204,-0.17723950630289292,2.3627771061654856,-0.001797812175936997,0.17631299793720245,-0.9843325018882751,-0.002941163256764412,0.0017224475741386414,0.0002164933830499649,0.0005771071882918477,-0.0014472901821136475,0.0005831718444824219
289,-0.0017294171684772528,-0.1772524211122856,2.3628076943711482,-0.001702319597825408,0.1763257086277008,-0.984330415725708,0.0009408844634890556,-0.0011285347864031792,0.0005236491560935974,-0.00040339305996894836,0.0006915032863616943,0.0010540485382080078
290,-0.0018418199467415063,-0.17732533456111887,2.362794508932759,-0.0018129374366253614,0.17639748752117157,-0.9843173623085022,-0.0017435336485505104,-0.0010304213501513004,-0.0009997263550758362,-0.0004453621804714203,-0.0004789084196090698,-0.0009273886680603027
291,-0.001737221517799582,-0.17724713980730344,2.362828314208645,-0.0017100032418966293,0.17632050812244415,-0.9843313097953796,-0.0003465944901108742,0.0007549466099590063,-0.005285302177071571,0.00427347794175148,-0.0011648833751678467,0.00044459104537963867
292,-0.0017042445169749292,-0.17728530239709758,2.362783788071567,-0.0016775315161794424,0.17635807394981384,-0.9843246340751648,-0.0015909019857645035,3.918679431080818e-05,-0.0020567048341035843,-0.0007638743845745921,0.0017424970865249634,0.0007889270782470703
293,-0.0018992614075920883,-0.17732556200538632,2.362738555785138,-0.0018694779137149453,0.17639771103858948,-0.9843171834945679,0.0008878372609615326,0.0006517667789012194,0.001478869467973709,0.000770844635553658,-0.0023712366819381714,0.00020164251327514648
294,-0.0017905064033282667,-0.17719777910873205,2.3627680042326813,-0.001762468833476305,0.1762719303369522,-0.9843399524688721,0.0021550217643380165,-0.0015365402214229107,-0.0007874276489019394,0.0024185962975025177,0.0018134117126464844,0.0004532337188720703
295,-0.0017940923759561475,-0.17723886579606055,2.362715020301794,-0.0017659856239333749,0.1763123720884323,-0.9843326807022095,4.871748387813568e-06,0.0011958889663219452,-0.000880114734172821,-0.0017587952315807343,0.000384405255317688,0.0007969141006469727
296,-0.0017839279395459688,-0.17717844556971277,2.362709301010813,-0.0017559995176270604,0.17625290155410767,-0.9843433499336243,-0.0006071990355849266,0.0011533340439200401,0.00022199936211109161,0.0005810745060443878,-4.4405460357666016e-05,0.0018909573554992676
297,-0.001725002678059514,-0.17724536519067055,2.3627532489553476,-0.0016979763749986887,0.17631876468658447,-0.9843316674232483,0.0006946949288249016,0.000624899985268712,-0.00028344616293907166,-0.000911276787519455,0.0010799169540405273,0.001467287540435791
298,-0.0017880604688245616,-0.17724327069665688,2.3627457574845048,-0.0017600468127056956,0.17631670832633972,-0.9843319058418274,0.0011077309027314186,0.0017988178879022598,0.0020256005227565765,-0.0017647333443164825,-0.0016340762376785278,0.0010555386543273926
299,-0.0017203924149333141,-0.177250103884063,2.3628363373230044,-0.001693436992354691,0.17632342875003815,-0.9843308329582214,0.001280084252357483,-6.692949682474136e-06,0.0013509634882211685,-0.00019865110516548157,0.002112850546836853,0.0007492899894714355
300,-0.0016541789809887588,-0.17729632193480951,2.3628558074841655,-0.0016282475553452969,0.17636892199516296,-0.9843227863311768,-0.0004141759127378464,0.0008836346678435802,-0.0010811183601617813,0.00034650787711143494,-0.0016863048076629639,0.0008480548858642578
301,-0.0016463320878778792,-0.17725730670757797,2.3628335335588733,-0.0016205350402742624,0.17633052170276642,-0.9843297004699707,-0.0008110655471682549,-0.0008479775860905647,0.0004170052707195282,0.0015289820730686188,0.0015564411878585815,0.0010685920715332031
302,-0.001638319491946451,-0.17726715352094405,2.3628236879965754,-0.0016126451082527637,0.17634020745754242,-0.9843279719352722,0.0012507922947406769,-0.002744636032730341,-0.0006278026849031448,0.0035352520644664764,-0.0025731176137924194,-0.0017102360725402832
303,-0.0016076865830898536,-0.17720838285480697,2.3627915336455585,-0.0015825089067220688,0.1762823611497879,-0.9843383431434631,-0.0006254268810153008,0.0005468244198709726,0.0030542146414518356,0.00022447865922003984,0.0032372772693634033,0.00322878360748291
304,-0.0017000836885334137,-0.17727783229838226,2.36276397402127,-0.0016734381206333637,0.17635072767734528,-0.9843259453773499,-0.0003559580072760582,0.0020601588767021894,-0.0007818713784217834,-0.00032546359580010176,-0.0012408643960952759,0.0004087686538696289
305,-0.0016086179425107885,-0.17723894437144633,2.3627913772006193,-0.0015834170626476407,0.17631244659423828,-0.9843329787254333,-0.00010295026004314423,-0.0002396036870777607,-0.0001992844045162201,-0.00023237988352775574,0.0013914108276367188,0.0006141066551208496
306,-0.0016142021283989106,-0.17719560918936397,2.3628116230848817,-0.001588926068507135,0.1762697845697403,-0.9843406081199646,-0.0016711587086319923,0.00028279866091907024,-0.00036217086017131805,-0.0022715479135513306,-0.004608407616615295,-0.0010109543800354004
307,-0.0016669407904153569,-0.17699724163374028,2.36277047132724,-0.0016408971277996898,0.17607451975345612,-0.9843754768371582,0.0011430177837610245,-0.0019080382771790028,0.0009029805660247803,0.0017324499785900116,0.0010952651500701904,0.003921985626220703
308,-0.0015792689171261686,-0.17735419904614458,2.3627549800377095,-0.0015544957714155316,0.17642588913440704,-0.9843127131462097,-0.0002733813598752022,0.00010782387107610703,-0.0005733203142881393,-0.0005664750933647156,0.0009422600269317627,0.0008074641227722168
309,-0.0016636951573806775,-0.17705190761586279,2.3627135254686062,-0.0016376861603930593,0.1761283427476883,-0.9843658804893494,0.0009142188355326653,-0.0009094197303056717,0.00024254433810710907,-0.0015666595427319407,-0.004589051008224487,-0.0008178353309631348
310,-0.0017364872748955949,-0.17715245156862344,2.362737742533269,-0.0017093095229938626,0.17622731626033783,-0.9843479990959167,0.0002304762601852417,0.0009833977092057467,0.0028522182255983353,-0.003142986446619034,0.00465036928653717,0.0029790401458740234
311,-0.0017141404999483033,-0.17731271400180448,2.362751897842827,-0.0016872640699148178,0.1763850599527359,-0.984319806098938,-9.132269769906998e-05,0.0021133318077772856,0.0002677943557500839,5.457550287246704e-05,-2.397596836090088e-05,-0.00016200542449951172
312,-0.001627373655141179,-0.1771360680333402,2.3627805910318274,-0.001601908472366631,0.1762111783027649,-0.9843510985374451,-0.0011843042448163033,0.0007539601065218449,0.0020168088376522064,-0.0005343221127986908,-0.00015527009963989258,-0.00025278329849243164
313,-0.0016525037908224028,-0.1772534706323105,2.362763408546819,-0.0016266111051663756,0.17632675170898438,-0.9843303561210632,-0.0008437056094408035,0.0015533906407654285,-0.001919534057378769,-0.00212705135345459,-0.001644134521484375,0.0005657076835632324
314,-0.001679589887097211,-0.1771963778867565,2.362816580548947,-0.0016532896552234888,0.17627054452896118,-0.9843403697013855,-0.0007677590474486351,-0.00570397824048996,0.0008906684815883636,8.163601160049438e-05,7.528066635131836e-05,0.003093421459197998
315,-0.00162626888155712,-0.17725727385315856,2.3628183646162153,-0.0016007862286642194,0.17633049190044403,-0.9843297004699707,0.0005269553512334824,0.001120355911552906,3.997795283794403e-05,-0.00019975006580352783,-0.0012358874082565308,0.0008397102355957031
316,-0.0015815690119987149,-0.17721793330302713,2.362848173410978,-0.0015567977679893374,0.17629176378250122,-0.9843367338180542,-0.0009209765121340752,-0.0007637785747647285,-0.0008228998631238937,-0.0007015019655227661,0.0006644129753112793,0.0014265775680541992
317,-0.0015928814942348618,-0.1772514393518382,2.3628298954713824,-0.0015679236967116594,0.1763247400522232,-0.9843307733535767,-0.0003585927188396454,0.002324977656826377,-0.0010795053094625473,-0.000797189655713737,-0.0015048235654830933,0.0022293925285339355
318,-0.0015760228586797066,-0.1771943292495827,2.3627871277643804,-0.0015513449907302856,0.1762685328722,-0.9843409061431885,-0.0007202886044979095,0.00045296340249478817,0.001397501677274704,0.0018412619829177856,0.0004740208387374878,0.0015985965728759766
319,-0.0014802158087340953,-0.17722694106370276,2.362815535302274,-0.0014570297207683325,0.17630062997341156,-0.9843353033065796,8.043088018894196e-05,0.00018138461746275425,0.0008747819811105728,-0.0022050775587558746,-0.0005041211843490601,0.0009216070175170898
320,-0.0015111604596583282,-0.1772289578344393,2.3628116405231183,-0.001487489091232419,0.17630261182785034,-0.9843348860740662,0.0011144494637846947,0.002873866120353341,0.00030283816158771515,0.00054144486784935,0.002438843250274658,-0.0015812516212463379
321,-0.0014666877734357668,-0.17729490902948727,2.362817674177962,-0.0014436959754675627,0.17636753618717194,-0.9843233227729797,0.0021819593384861946,0.002255838131532073,-0.0004660859704017639,0.0014742128551006317,0.000497087836265564,-0.0006772875785827637
322,-0.001445499164794631,-0.17722032740012772,2.362798433263725,-0.001422858564183116,0.17629411816596985,-0.9843364953994751,-0.0005932115018367767,0.00019591255113482475,-0.001322796568274498,0.00040052086114883423,-0.0006959885358810425,0.00012934207916259766
323,-0.0015113034281211692,-0.1772393956507746,2.3628010776363952,-0.001487627043388784,0.1763128936290741,-0.9843330383300781,8.499156683683395e-05,-0.0008607120253145695,-0.0017468668520450592,-0.0008317083120346069,-0.00015017390251159668,0.000858306884765625
324,-0.0015814018589356842,-0.17728606594402485,2.3627934409767013,-0.0015566141810268164,0.17635883390903473,-0.9843246936798096,-0.0001705605536699295,0.0004022603388875723,-0.0006408821791410446,-0.00021340686362236738,-0.0010963976383209229,5.65648078918457e-05
325,-0.0016102047306312353,-0.1772500551709193,2.3628097511124637,-0.0015849758638069034,0.17632338404655457,-0.9843310117721558,-0.0011230455711483955,0.0014417662750929594,-0.00046333856880664825,0.0006847083568572998,0.0006938278675079346,0.0012682676315307617
326,-0.0016556749906141124,-0.17728370421953196,2.3628061575270562,-0.0016297238180413842,0.1763565093278885,-0.9843249917030334,-0.0015014493837952614,0.001942185452207923,-0.0007665101438760757,-0.0012847072212025523,0.0007827579975128174,0.0009723901748657227
327,-0.0016531403900586703,-0.1772640233434028,2.3628390117423135,-0.0016272346256300807,0.1763371378183365,-0.9843285083770752,-0.0001816367730498314,0.0028986381366848946,-0.00032606348395347595,-0.004110071808099747,-0.0005864053964614868,0.0004723072052001953
328,-0.0017044723576379816,-0.1772228728770606,2.3627999783091465,-0.001677774591371417,0.17629662156105042,-0.9843356609344482,0.00010647717863321304,-0.0024810503236949444,-0.0005446430295705795,-0.0027014948427677155,-0.0011104792356491089,0.0006625652313232422
329,-0.0016059293412338457,-0.17724619784337392,2.3628165027034496,-0.0015807684976607561,0.17631958425045013,-0.9843317270278931,0.00037560705095529556,0.00012821145355701447,-0.0036253854632377625,0.002374224364757538,-0.00017213821411132812,0.0010248422622680664
330,-0.0015222755961644585,-0.17718848259408282,2.3627826794026214,-0.0014984409790486097,0.1762627810239792,-0.9843419790267944,0.00212301779538393,-0.00012363260611891747,0.0009990036487579346,0.00015566509682685137,-0.000222131609916687,0.002026975154876709
331,-0.00157313439535241,-0.17723398522872838,2.362781518476748,-0.0015484908362850547,0.1763075590133667,-0.9843339323997498,-0.0013544941321015358,-0.0017822319641709328,8.463673293590546e-05,0.0010602101683616638,0.001182660460472107,0.0012406706809997559
332,-0.0013608893981990472,-0.17730203432976893,2.362797624135814,-0.0013395545538514853,0.17637455463409424,-0.984322190284729,-0.02190488390624523,0.05663050711154938,-0.0009768884629011154,0.003735184669494629,0.003724917769432068,-0.006186783313751221
333,0.0023545056684224695,-0.18240630480167228,2.3854823718688434,0.0023154423106461763,0.181396484375,-0.9834073185920715,-0.06566930562257767,-0.1417515128850937,1.239133358001709,0.1750374585390091,-0.1179656982421875,-0.017248809337615967
334,0.05773737880284769,-0.17697754713236713,2.5402173694220185,0.05680396780371666,0.17605513334274292,-0.9827399849891663,0.46389085054397583,0.730718195438385,0.8956230282783508,-0.04810645803809166,0.15841752290725708,-0.14827197790145874
335,0.22540546600729375,-0.09884659834512022,2.8630778122459803,0.22241060435771942,0.09868571162223816,-0.9699457287788391,-0.43578261137008667,1.493209719657898,4.74732780456543,-0.0040725767612457275,0.07251790165901184,0.05646306276321411
336,0.28365267055109156,-0.05242190662155346,-2.928435209955635,0.2794797718524933,0.05239789932966232,-0.9587208032608032,-0.8187845945358276,-0.9430029392242432,5.581561088562012,-0.0384824275970459,-0.04597394913434982,0.13810312747955322
337,0.26763730506670763,0.0595171503672292,-2.414566686336909,0.2639853358268738,-0.059482019394636154,-0.9626908302307129,-0.2056306153535843,0.36125338077545166,3.197990894317627,-0.2716299891471863,0.035388387739658356,0.05418252944946289
338,0.2537759627476137,0.0436251117913221,-2.266796238177009,0.25082188844680786,-0.043611276894807816,-0.9670503735542297,0.15689139068126678,0.9098957180976868,0.20921353995800018,0.13003748655319214,-0.054853688925504684,0.21119099855422974
339,0.2985306594956484,0.017709218034292994,-2.2910965685972755,0.2940700650215149,-0.017708292230963707,-0.9556198120117188,0.034384287893772125,-0.1410379707813263,-0.7382742166519165,-0.013949215412139893,-0.011161334812641144,0.10208892822265625
340,0.28119000759622537,0.012336006606732019,-2.3406114410510823,0.27747800946235657,-0.012335693463683128,-0.960652768611908,0.025953037664294243,-0.04415145143866539,-0.09817877411842346,0.08690190315246582,0.027426637709140778,0.01790374517440796
341,0.28219793586238506,0.011893493871143702,-2.3410586911791498,0.27844762802124023,-0.011893213726580143,-0.9603777527809143,0.0008108150213956833,-0.0015678186900913715,0.0007306691259145737,-0.0005088150501251221,0.004660547710955143,0.000584721565246582
342,0.2821350299201302,0.011524977290960048,-2.3410979480643617,0.2783884108066559,-0.01152472198009491,-0.9603994488716125,-0.0005406215786933899,-0.00043806107714772224,-0.0008128099143505096,0.0007100999355316162,0.0035901516675949097,0.0009725689888000488
343,0.28218291743786145,0.011053331914196043,-2.3410881115798863,0.2784358859062195,-0.011053106747567654,-0.9603912234306335,-0.001552872359752655,0.002165078418329358,0.0007156357169151306,-0.0010921359062194824,0.005193732678890228,0.001513659954071045
344,0.28217520396178164,0.010559498173492464,-2.341074848393309,0.27842995524406433,-0.01055930182337761,-0.9603984951972961,0.0011566607281565666,0.0005684220232069492,0.0007870979607105255,-0.00012490153312683105,0.004699930548667908,0.0008037686347961426
345,0.2821408650399527,0.010131590877822205,-2.3411039466430665,0.27839821577072144,-0.010131417773663998,-0.960412323474884,0.0008125798776745796,-0.0005919169634580612,-0.0008177235722541809,-0.0014359354972839355,0.005294382572174072,-6.74128532409668e-05
346,0.2821921461652322,0.00971415913291761,-2.341138152547176,0.27844861149787903,-0.009714006446301937,-0.9604020118713379,0.0014990931376814842,0.00037526851519942284,2.9150396585464478e-06,0.0003599822521209717,0.0021456480026245117,0.0018448829650878906
347,0.28224326761545954,0.009414316339163365,-2.34118976328742,0.27849850058555603,-0.009414177387952805,-0.9603905081748962,0.0001058969646692276,0.00025980640202760696,-0.0023949481546878815,-0.002375483512878418,0.003219112753868103,0.0008262991905212402
348,0.28218740558067806,0.009089356388332366,-2.341254070657556,0.27844569087028503,-0.009089231491088867,-0.9604089856147766,-0.0018942775204777718,0.0016087926924228668,-0.0002381410449743271,0.0003476142883300781,0.003870725631713867,0.00029546022415161133
349,0.2822274644728664,0.008793276218809145,-2.341249951889542,0.27848491072654724,-0.008793163113296032,-0.9604003429412842,-7.257796823978424e-06,0.002905665896832943,-0.0003367941826581955,-0.0012327134609222412,0.000995919108390808,0.0008208751678466797
350,0.28217604580966205,0.008608571530413037,-2.341217638031343,0.27843597531318665,-0.00860846508294344,-0.9604161977767944,0.0016497811302542686,0.000651828246191144,0.0017383471131324768,-0.0008328258991241455,0.004076600074768066,-0.0002924203872680664
351,0.2822332354837647,0.008308599255696067,-2.3411978283532626,0.2784916162490845,-0.008308503776788712,-0.9604027271270752,0.0006120549514889717,0.00039599835872650146,6.288290023803711e-05,-0.00026285648345947266,0.001533597707748413,-0.0001380443572998047
352,0.28222095689677446,0.008154448771267756,-2.3412286549846466,0.2784801721572876,-0.008154358714818954,-0.9604073762893677,-0.001686149276793003,-0.002314575482159853,-0.0014383848756551743,-0.00015985965728759766,0.001806698739528656,0.0020638704299926758
353,0.28226950575748544,0.007935004274890724,-2.341249025470266,0.27852728962898254,-0.00793492142111063,-0.9603955149650574,0.0008819838985800743,-0.0009411773644387722,0.0006435196846723557,-0.00016123056411743164,0.00352513138204813,9.894371032714844e-05
354,0.2822578141834098,0.007779964080695015,-2.3412905087415243,0.27851641178131104,-0.007779885549098253,-0.9603999853134155,0.00166328065097332,-0.003842479083687067,-0.0006980132311582565,-0.0008217096328735352,0.0010660216212272644,0.00021016597747802734
355,0.2821793893840019,0.007624337086162014,-2.341312100152188,0.2784413993358612,-0.007624263409525156,-0.960422933101654,-0.0009515704587101936,0.0003517945297062397,0.001426519826054573,-0.00047206878662109375,0.0004068543203175068,-0.0002551078796386719
356,0.2821324489835415,0.007556294419184376,-2.34128095527054,0.27839648723602295,-0.007556222379207611,-0.9604365229606628,-0.003663717769086361,-0.002499510534107685,0.0015547946095466614,0.0002595484256744385,0.0009186491370201111,0.0002772212028503418
357,0.28214017530432334,0.007456576146995374,-2.3412546315209846,0.2784041166305542,-0.007456507068127394,-0.9604350924491882,-0.000516718253493309,0.0001656869426369667,7.510557770729065e-05,8.407235145568848e-05,0.0024974048137664795,9.268522262573242e-05
358,0.28212383279195874,0.00730762803443747,-2.341217501563071,0.27838870882987976,-0.007307562977075577,-0.9604406952857971,0.0008972091600298882,-0.0025183078832924366,0.00034233182668685913,9.945034980773926e-05,0.0007920563220977783,0.0005865693092346191
359,0.28208151032314854,0.0072293420615543195,-2.341151871979332,0.2783482074737549,-0.007229279261082411,-0.9604530334472656,0.001003696583211422,-0.0006408756598830223,-0.0006949398666620255,0.0009639263153076172,0.0018734410405158997,0.000980377197265625
360,0.2820304063110576,0.007058546537965834,-2.3411307513715873,0.278299480676651,-0.007058487739413977,-0.9604684114456177,-0.00014063715934753418,-0.00103393429890275,0.0010635368525981903,-0.003168255090713501,0.0017484277486801147,0.0005379915237426758
361,0.28197662742215246,0.0070470694315394695,-2.3410858545706175,0.2782478332519531,-0.00704701105132699,-0.9604834318161011,-0.0002659643068909645,0.0014802070800215006,-0.00048197805881500244,0.0011710822582244873,-0.0008417889475822449,0.0022772550582885742
362,0.282009430905324,0.006922421616348123,-2.341094216315679,0.2782796025276184,-0.006922366097569466,-0.9604751467704773,-0.0004163021221756935,-0.0009405221790075302,0.0006816554814577103,-0.0004017949104309082,4.0650367736816406e-05,0.0009109377861022949
363,0.2819560381880796,0.006858717049398405,-2.341013856158237,0.27822843194007874,-0.00685866316780448,-0.9604904651641846,-0.000321829691529274,0.0005089696496725082,0.0024236300960183144,-0.00022855401039123535,-0.0018541067838668823,-0.0011336803436279297
364,0.28198215251206044,0.006829680406348384,-2.341016916152224,0.27825358510017395,-0.006829627323895693,-0.9604833722114563,-0.0011427560821175575,-0.0004536430351436138,-0.00048696063458919525,0.0003414154052734375,0.0004667118191719055,0.0009801983833312988
365,0.28196808961900816,0.006743242110902277,-2.3410268788938295,0.27824023365974426,-0.006743190810084343,-0.9604878425598145,0.000241108238697052,-0.0003245607949793339,-0.0007288679480552673,-0.0010185539722442627,0.0007922649383544922,0.0010151863098144531
366,0.2819526699725588,0.006744499345055197,-2.341025891808754,0.2782254219055176,-0.006744448095560074,-0.9604921340942383,0.0005286466330289841,0.0023432057350873947,-0.0007665753364562988,-0.0006222724914550781,6.109476089477539e-05,8.869171142578125e-05
367,0.2819579998035715,0.006651943791572022,-2.3410125873750265,0.2782306969165802,-0.0066518946550786495,-0.9604912400245667,-0.002591637894511223,-0.0007012244313955307,-0.001103648915886879,-7.826089859008789e-05,0.0022421106696128845,0.0011864304542541504
368,0.28200235965985343,0.006567140729360213,-2.341002987674293,0.27827346324920654,-0.006567093543708324,-0.9604794383049011,-0.0007591759786009789,0.0013980250805616379,0.0019184146076440811,-0.001082301139831543,0.0015011802315711975,0.000579535961151123
369,0.2819517475856024,0.006596351179410021,-2.3409959787113834,0.27822479605674744,-0.006596303544938564,-0.9604933261871338,0.0007289433851838112,0.0006783776916563511,0.0030350694432854652,-0.0004538297653198242,0.0002639074809849262,0.0005782246589660645
370,0.2819969272276243,0.0065971504854933855,-2.3409697685714366,0.2782681882381439,-0.006597102619707584,-0.9604807496070862,-0.0008874190971255302,0.0004147931467741728,0.0007577892392873764,-0.0011686086654663086,0.0018668770790100098,0.0018625855445861816
371,0.28187491772034606,0.006597053864751529,-2.3410022438177474,0.2781510055065155,-0.006597006227821112,-0.9605147242546082,0.00118987075984478,-0.0013590985909104347,-0.0007604844868183136,-0.0008072555065155029,0.0008139312267303467,0.0005385279655456543
372,0.28189967816811246,0.006567255116326943,-2.341010417167127,0.27817484736442566,-0.006567208096385002,-0.9605079889297485,-0.0005574142560362816,0.0021357405930757523,0.0003860834985971451,0.002510577440261841,0.0019132792949676514,0.002866387367248535
373,0.28192069531922564,0.006568410534504673,-2.3410055428860788,0.27819502353668213,-0.006568363402038813,-0.9605021476745605,0.0005539599806070328,-0.0006613964214920998,-0.0017119664698839188,-0.005489945411682129,0.00019018352031707764,-0.0014119148254394531
374,0.28174513528950934,0.00655379320891943,-2.3410079282173704,0.27802643179893494,-0.006553746294230223,-0.9605510830879211,0.0005856594070792198,0.000349933747202158,0.002036930061876774,0.0042611658573150635,0.00115213543176651,0.0014598965644836426
375,0.2820137611316244,0.006540208622900733,-2.3410158407572785,0.2782844603061676,-0.006540162023156881,-0.9604764580726624,-0.0009110206738114357,-8.249003440141678e-05,0.0009173806756734848,-0.0009407401084899902,-0.004156246781349182,0.0007444024085998535
376,0.28179385233642057,0.006568685556493383,-2.3410209403870867,0.27807319164276123,-0.006568638142198324,-0.9605374336242676,-0.0018124254420399666,-0.0003050672821700573,-0.00017984211444854736,0.0005370378494262695,-0.0018694698810577393,0.002285480499267578
377,0.2819382855653403,0.006600809120180904,-2.3410093504707494,0.2782118618488312,-0.006600761320441961,-0.9604970216751099,-0.002326158806681633,-0.00022399518638849258,-0.0009044613689184189,0.00015419721603393555,-0.0026308069936931133,0.00039881467819213867
378,0.28188118673468304,0.006569903110151901,-2.341026367293523,0.2781570851802826,-0.006569855846464634,-0.9605131149291992,0.0008901804685592651,-0.0018623308278620243,-0.0001011136919260025,-0.0021713972091674805,0.0015649725683033466,0.0011168122291564941
379,0.28190495871318405,0.006505348805824684,-2.3409848668227498,0.2781800329685211,-0.006505303084850311,-0.9605069160461426,0.0013098185881972313,0.0013778845313936472,0.0014369767159223557,9.447336196899414e-05,0.0003560115583240986,0.00016456842422485352
380,0.2818786719478253,0.006513353252155204,-2.340937183346075,0.27815476059913635,-0.006513307336717844,-0.9605141878128052,-0.0006791641935706139,0.0005568491760641336,-0.0004058796912431717,-0.0008873045444488525,0.0011727288365364075,0.0009499788284301758
381,0.2818001610376127,0.006503817436024538,-2.3409969040476044,0.2780793607234955,-0.006503771524876356,-0.9605360627174377,-0.0009072544053196907,-0.0026284605264663696,0.000708460807800293,4.2557716369628906e-05,7.98259861767292e-05,-0.0015915632247924805
382,0.28178763294792725,0.006488853864579648,-2.341002689913537,0.27806738018989563,-0.0064888084307312965,-0.9605396389961243,0.0006580417975783348,-0.00021688127890229225,-0.0006788074970245361,-0.0006625950336456299,0.0012550433166325092,0.00044143199920654297
383,0.28171984725280746,0.0064608189327102885,-2.341023244563698,0.2780022919178009,-0.006460773758590221,-0.9605586528778076,-0.0017171120271086693,-0.001116117462515831,-0.0020794514566659927,-0.000673830509185791,-0.00043620122596621513,0.0002773404121398926
384,0.28174976250357037,0.0064865197122321245,-2.341072615327135,0.27803099155426025,-0.006486474070698023,-0.9605501890182495,-8.082669228315353e-05,0.0007359958253800869,-0.0018837489187717438,-0.0002295076847076416,-0.000990330707281828,0.0009250044822692871
385,0.281745603550485,0.006472636920494992,-2.3410590545511485,0.2780270278453827,-0.0064725917764008045,-0.9605514407157898,0.00037082377821207047,0.0004343732725828886,-0.0006810557097196579,-0.0005154311656951904,0.0005674436688423157,-5.036592483520508e-05
386,0.28176258733863074,0.006482520742174606,-2.3410622777192853,0.27804332971572876,-0.006482475437223911,-0.9605466723442078,-0.00034347083419561386,-0.0009864475578069687,0.0020782211795449257,0.0014671683311462402,0.0008367225527763367,0.0017606616020202637
387,0.281769106704324,0.006425662994386273,-2.3411017431134646,0.27804967761039734,-0.006425618659704924,-0.9605451822280884,0.0012871650978922844,-0.00010883621871471405,-0.0010188799351453781,-0.002063959836959839,1.6689300537109375e-06,-1.0848045349121094e-05
388,0.2817443608296082,0.006498010250583439,-2.341092172226927,0.2780257761478424,-0.006497964728623629,-0.9605516195297241,-0.00015665683895349503,0.001697498606517911,0.00012975186109542847,0.0005844235420227051,0.00021134363487362862,0.00019401311874389648
389,0.281911948531182,0.006477204190470829,-2.3411072550574255,0.2781867980957031,-0.006477158982306719,-0.9605051279067993,0.0005344999954104424,-0.001644583884626627,-0.001403898000717163,-0.0012245476245880127,0.0010145162232220173,0.0007120966911315918
390,0.28185819579239396,0.006474773619792573,-2.3411011523189105,0.27813518047332764,-0.006474728230386972,-0.9605201482772827,0.0006478726863861084,7.121032103896141e-05,0.0012298226356506348,-0.0004099607467651367,-0.0003459453582763672,0.00045239925384521484
391,0.2819758156729858,0.006522283480197233,-2.341074351627084,0.2782480716705322,-0.0065222373232245445,-0.9604871273040771,0.0013888673856854439,0.0023934212513267994,0.00025981850922107697,-0.0007975101470947266,-0.0007867217063903809,0.0005109310150146484
392,0.2819658302832326,0.006556549696058861,-2.341068125979372,0.2782384157180786,-0.006556502543389797,-0.9604896903038025,0.001283363439142704,-0.0021908688358962536,0.0027450351044535637,-0.0005131959915161133,0.0010328218340873718,0.0006355643272399902
393,0.2819908576893771,0.006571651010391388,-2.3410634868410396,0.2782624065876007,-0.006571603938937187,-0.9604825973510742,-0.00045635737478733063,-0.0005524801090359688,4.421360790729523e-05,0.0014006495475769043,-0.0021106451749801636,0.0026578903198242188
394,0.2820314373940107,0.0065771829708554915,-2.341038833363389,0.2783013880252838,-0.006577135529369116,-0.9604712724685669,0.0014478834345936775,-9.856652468442917e-05,-0.0002276189625263214,0.0023230016231536865,0.001587510108947754,0.0013190507888793945
395,0.28207824461712516,0.006515632790716983,-2.341040368584082,0.278346449136734,-0.006515586748719215,-0.9604586362838745,0.0005822442471981049,-0.0012786365114152431,-0.0020469725131988525,-0.004283338785171509,-0.0016326084733009338,0.0010012388229370117
396,0.2818953913332304,0.006582110550511853,-2.3410310150495057,0.27817070484161377,-0.006582063157111406,-0.9605091214179993,0.00012065283954143524,-0.00020925141870975494,-0.00023924373090267181,0.0025604963302612305,0.0045831650495529175,0.00024300813674926758
397,0.2821291004274847,0.006428223005481109,-2.341036374602944,0.2783954441547394,-0.006428178865462542,-0.9604450464248657,0.0022317003458738327,0.003446917748078704,0.0010080169886350632,-0.00327947735786438,0.0005230307579040527,0.0005756616592407227
398,0.2819944901712394,0.006500378578711416,-2.3410429827404724,0.278266042470932,-0.0065003326162695885,-0.9604820609092712,-0.00020638294517993927,-0.003018510527908802,0.0004749726504087448,0.002633005380630493,-0.003677278757095337,0.0026420950889587402
399,0.2820687012933162,0.0065094430665967795,-2.3410810481037307,0.278337299823761,-0.006509397178888321,-0.9604613184928894,-0.002566268667578697,-5.106348544359207e-05,0.000874856486916542,-0.0012071728706359863,-0.0022033751010894775,0.0007750391960144043
400,0.2819819804712961,0.0064632768706565915,-2.341125297680781,0.27825409173965454,-0.006463231984525919,-0.9604857563972473,0.00035892799496650696,0.0022244846913963556,-0.0021613985300064087,-0.001062929630279541,-0.00017433613538742065,-0.0014435648918151855
401,0.2820250574194278,0.006422276564857495,-2.3411861219082146,0.2782955467700958,-0.006422232370823622,-0.9604740142822266,-0.0015579108148813248,-0.0016453503631055355,0.00027042999863624573,-0.0006313323974609375,0.0007764846086502075,0.0005130767822265625
402,0.2820278324148339,0.006375834105142065,-2.341131125579639,0.2782982885837555,-0.006375791039317846,-0.9604735374450684,-0.00087716244161129,0.0018633627332746983,-0.0006442759186029434,-0.0013970434665679932,0.0004401206970214844,0.0008330345153808594
403,0.282049992656653,0.006402857828699679,-2.3411044229099103,0.27831950783729553,-0.006402814295142889,-0.9604672193527222,0.0013649119064211845,-0.0013484260998666286,0.0008849389851093292,-0.0003348886966705322,-0.00011268258094787598,-0.00016510486602783203
404,0.28204879701208757,0.006391035729225493,-2.34109225240636,0.2783184051513672,-0.00639099208638072,-0.9604676365852356,-0.0016172174364328384,0.0017621107399463654,-0.00014493055641651154,-0.0015544891357421875,0.002805173397064209,0.0005372166633605957
405,0.28207013383172924,0.006374395746228963,-2.3410406193896747,0.2783389091491699,-0.006374352611601353,-0.9604617953300476,0.0021284855902194977,0.0032230541110038757,0.00037480704486370087,-0.0016818344593048096,0.0006370474584400654,0.0011264681816101074
406,0.2820927852589683,0.006470596741796226,-2.3410328844681643,0.2783604860305786,-0.006470551714301109,-0.9604548811912537,-7.146038115024567e-05,-0.0013123168610036373,0.0019115479663014412,0.0012568235397338867,-0.0017081648111343384,0.0003260970115661621
407,0.2821503887412264,0.006456205263371073,-2.341053418265452,0.27841585874557495,-0.006456160452216864,-0.9604389071464539,-0.0008972976356744766,-0.001329165417701006,-0.0007043983787298203,-0.0011331439018249512,0.0003068670630455017,0.0007068514823913574
408,0.2821044989731047,0.006418538293802599,-2.341102072816159,0.2783718407154083,-0.006418494042009115,-0.9604519009590149,-0.00010271836072206497,0.002353335963562131,-0.0008631981909275055,-0.0003414452075958252,-0.0007836520671844482,0.000857234001159668
409,0.282162616341597,0.006393167226225346,-2.3411283145098785,0.27842772006988525,-0.006393123883754015,-0.9604359269142151,-6.336160004138947e-05,0.002370961010456085,0.0009132605046033859,-0.0006109476089477539,0.0004421919584274292,0.0007038712501525879
410,0.2820874305078347,0.00633050192935566,-2.3411109338511715,0.27835559844970703,-0.0063304598443210125,-0.9604572057723999,-0.0015839915722608566,0.0026999046094715595,-3.390572965145111e-05,0.00040718913078308105,-0.0005207355134189129,0.0009998679161071777
411,0.2821585234634695,0.006334269157033314,-2.341181877716839,0.27842387557029724,-0.006334226578474045,-0.9604374170303345,-0.0016018971800804138,0.0029410608112812042,-0.002215854823589325,0.0004610121250152588,0.0009783878922462463,0.0008121728897094727
412,0.28210932042197745,0.006288756134816938,-2.3411627284914416,0.2783766984939575,-0.006288714706897736,-0.9604513645172119,0.0006289873272180557,-0.0013500023633241653,0.0004500877112150192,-0.0024062693119049072,0.001680560875684023,0.0008109211921691895
413,0.2820490413145615,0.006306491926769778,-2.341204715295434,0.27831876277923584,-0.0063064503483474255,-0.960468053817749,0.0024063577875494957,0.0016609642188996077,-0.0019541624933481216,0.00016939640045166016,0.0011032000184059143,0.00046133995056152344
414,0.2821368896167553,0.006287798842598866,-2.341219305975991,0.2784031927585602,-0.006287757307291031,-0.9604437351226807,-0.0013766735792160034,-0.0014510289765894413,-0.00015578791499137878,-0.00014391541481018066,0.0016490817070007324,-0.00024962425231933594
415,0.2820701338075355,0.0062307283988325655,-2.3412295816525726,0.2783391773700714,-0.006230688188225031,-0.9604626297950745,-0.0019928840920329094,0.0014920285902917385,0.0007705632597208023,-0.0014837086200714111,0.0004781261086463928,-3.236532211303711e-05
416,0.2820643946687114,0.006296882776299564,-2.3412361956477357,0.27833354473114014,-0.006296840962022543,-0.96046382188797,0.0013693803921341896,-0.00043369922786951065,0.0005238447338342667,6.306171417236328e-05,-0.0003559887409210205,0.0006249547004699707
417,0.28211385606465794,0.006306942778457368,-2.341226954138162,0.27838101983070374,-0.006306901108473539,-0.9604499936103821,0.0001321975141763687,0.0024071577936410904,-0.0007140450179576874,-0.00015228986740112305,-1.0236632078886032e-05,0.0007942914962768555
418,0.2820893643327427,0.006317280188543494,-2.341215044529935,0.27835747599601746,-0.006317238323390484,-0.9604567885398865,0.00010375306010246277,0.0035345815122127533,0.0005831364542245865,-0.003699272871017456,-6.0930848121643066e-05,0.0001906752586364746
419,0.28203548267825795,0.006283379722436154,-2.3411953943637163,0.2783057987689972,-0.0062833381816744804,-0.9604719877243042,0.0009537152945995331,0.0012333141639828682,0.0013263635337352753,0.0020286738872528076,-0.0003694891929626465,0.0005110502243041992
420,0.2822017941889658,0.006331115313783328,-2.3411903236969662,0.2784654498100281,-0.006331073120236397,-0.9604253768920898,0.0005747321993112564,0.001119466731324792,0.0015274379402399063,-0.00046557188034057617,-0.0034955888986587524,0.0010900497436523438
421,0.28214067199134135,0.0063374695227316835,-2.341156909254044,0.2784067392349243,-0.006337427068501711,-0.9604423642158508,7.945112884044647e-06,-0.0021604178473353386,0.0010923780500888824,-0.0021921396255493164,0.0019123777747154236,0.0005577206611633301
422,0.2820368376816162,0.006156718333259556,-2.34123322645547,0.27830731868743896,-0.00615667924284935,-0.9604723453521729,-0.0006397850811481476,0.002658671699464321,-0.000590302050113678,-0.002046942710876465,0.0048749446868896484,7.867813110351562e-06
423,0.28207207691748404,0.006116018298148255,-2.3412182151078866,0.27834123373031616,-0.006115979980677366,-0.9604628086090088,-0.0020760009065270424,0.0016931372229009867,0.0013595670461654663,0.00011640787124633789,-0.0011472031474113464,-0.001146078109741211
424,0.2820708391346433,0.006276677839548787,-2.341208162320852,0.27833977341651917,-0.006276636850088835,-0.9604621529579163,-0.0021135639399290085,0.001148896524682641,0.0016842018812894821,0.00017890334129333496,-0.001703709363937378,-0.0006279349327087402
425,0.28211763299024556,0.006190480035315431,-2.341190835413315,0.27838486433029175,-0.006190440617501736,-0.9604496359825134,0.0004398403689265251,-0.0002301265485584736,-0.0017907172441482544,-0.0005528628826141357,-0.0009659300558269024,0.0018315315246582031
426,0.2820627111027722,0.006280290698243803,-2.3412225705553698,0.2783319354057312,-0.006280249450355768,-0.9604644179344177,0.0008561043068766594,0.0027977661229670048,0.0002750791609287262,-0.003277003765106201,0.0012601092457771301,0.00010675191879272461
427,0.2820590187985773,0.006190372764500403,-2.34122598118615,0.2783285677433014,-0.006190333049744368,-0.9604659676551819,-0.0003765113651752472,0.00047164992429316044,-0.0006132163107395172,0.0021737515926361084,0.0016279593110084534,0.00042873620986938477
428,0.28209406409882104,0.006235910869634741,-2.341192981857238,0.2783621549606323,-0.006235870532691479,-0.9604559540748596,-0.0018795765936374664,0.00020563811995089054,0.001984677277505398,-0.0019186437129974365,-0.002934657037258148,0.00029665231704711914
429,0.2820537789999125,0.006270490111203537,-2.3412501618330523,0.27832338213920593,-0.0062704491429030895,-0.9604669809341431,0.000987054780125618,0.0009930196683853865,0.00031518377363681793,-3.358721733093262e-05,-0.0001992732286453247,0.0005518198013305664
430,0.28199554217207273,0.006189054731250467,-2.341248198884618,0.27826759219169617,-0.006189015228301287,-0.9604836702346802,-0.0015437081456184387,0.0019676154479384422,-0.00036746636033058167,0.000312119722366333,8.550286293029785e-05,-0.00016391277313232422
431,0.2819967524263663,0.006230559355701253,-2.3412075927464477,0.2782686948776245,-0.006230519153177738,-0.9604830741882324,-0.00034863967448472977,-0.0003463504835963249,-0.00115969218313694,-0.0025576353073120117,-1.0326504707336426e-05,-0.0008511543273925781
432,0.2819361819538423,0.006261363352279716,-2.341253997845232,0.27821046113967896,-0.006261322647333145,-0.9604997634887695,0.00026501063257455826,0.0018774261698126793,-0.000146498903632164,0.001376330852508545,-0.0003152191638946533,0.0011949539184570312
433,0.28197383927429037,0.006276424157116824,-2.3413150170800763,0.27824661135673523,-0.006276383064687252,-0.9604891538619995,-0.001260564662516117,-0.000147293321788311,0.0013849753886461258,-0.0010707080364227295,9.657489135861397e-05,0.0005282759666442871
434,0.28179039564430675,0.006216659271903215,-2.3413249944337378,0.27807050943374634,-0.006216619163751602,-0.9605405330657959,-5.0609931349754333e-05,7.321638986468315e-05,0.0006645433604717255,-0.0012913346290588379,-0.0030302032828330994,0.00016760826110839844
435,0.28189306686916493,0.006273118570793295,-2.3413637450022757,0.27816900610923767,-0.006273077335208654,-0.9605116248130798,0.0009705880656838417,-0.0016344157047569752,-0.0011249929666519165,0.0026079416275024414,0.0002916306257247925,0.0023360252380371094
436,0.2819148277073693,0.006166060225615701,-2.3413407294163204,0.27819010615348816,-0.006166021339595318,-0.96050626039505,0.0019319457933306694,-0.0026085819117724895,-0.0006867274641990662,-0.003180950880050659,-0.001127675175666809,-0.0009500384330749512
437,0.2817884917198814,0.0062325011223400804,-2.3413816300764263,0.2780686318874359,-0.0062324609607458115,-0.9605410099029541,0.00041653960943222046,-0.0003253309987485409,-0.0018283911049365997,0.0012282133102416992,-0.0006645098328590393,0.0015108585357666016
438,0.2818535918111949,0.006189381488109688,-2.3413849108590714,0.27813124656677246,-0.006189342122524977,-0.9605231285095215,-0.0022606151178479195,-0.0017968304455280304,-0.0006523169577121735,-0.0007569789886474609,0.0006961748003959656,0.0007452964782714844
439,0.2817502616510802,0.006178489035341615,-2.341285606290908,0.27803200483322144,-0.006178449839353561,-0.960551917552948,-0.0006555821746587753,0.001579363364726305,0.00041214749217033386,-0.00042888522148132324,-0.0009016240946948528,-0.00020241737365722656
440,0.2817463291524857,0.006214842062876439,-2.3412919381389337,0.2780281901359558,-0.006214802153408527,-0.9605528116226196,-0.0015456443652510643,-0.0026861699298024178,5.867332220077515e-07,0.0005820393562316895,0.0005995705723762512,0.0008360147476196289
441,0.281710979356457,0.006239022145745563,-2.341290886005946,0.27799418568611145,-0.006238981615751982,-0.960562527179718,-0.00027261674404144287,-0.0010080691426992416,-0.0008205585181713104,-0.0014438927173614502,-0.000810578465461731,-8.505582809448242e-05
442,0.28167337500642536,0.006321291866648937,-2.3413022048036116,0.2779579162597656,-0.00632124999538064,-0.9605724811553955,-3.286637365818024e-05,0.0005733410362154245,-0.0017777588218450546,0.000316619873046875,-0.001582801342010498,0.0004436969757080078
443,0.28171566996573594,0.006306221982860201,-2.3413100365708535,0.27799856662750244,-0.006306180264800787,-0.9605607986450195,0.0017731385305523872,-0.0001602177508175373,0.0017829835414886475,0.0007489919662475586,-0.00013303011655807495,0.0024309158325195312
444,0.2817368237508363,0.0063625001937929375,-2.3412637590359693,0.2780187726020813,-0.0063624572940170765,-0.9605545401573181,0.0010518580675125122,-0.0008641458116471767,0.0008592512458562851,-0.00020202994346618652,-0.001282199751585722,0.0005936622619628906
445,0.2817072644626459,0.006408584151839119,-2.3412770923852047,0.27799031138420105,-0.006408540066331625,-0.960562527179718,-0.0011623203754425049,0.0015463335439562798,-0.0008777007460594177,-0.0006160438060760498,-0.00018325448036193848,0.0002964138984680176
446,0.28172793181364764,0.006395523424334928,-2.341285722213349,0.27801018953323364,-0.006395479664206505,-0.9605568051338196,-0.0003648456186056137,0.00316463690251112,0.0008496828377246857,-0.0004070401191711426,-0.00031838566064834595,0.0005654096603393555
447,0.28171426793722903,0.006437007012959291,-2.3412667847129787,0.2779969871044159,-0.0064369626343250275,-0.9605603814125061,-5.509424954652786e-05,0.0016305656172335148,-0.0010577421635389328,0.00012496113777160645,0.00011982768774032593,0.0005384087562561035
448,0.2817703138804568,0.0063800917733226525,-2.3412585762402114,0.2780509293079376,-0.006380048580467701,-0.9605451226234436,0.00020143110305070877,0.00047282781451940536,-0.0007336921989917755,-0.0008445084095001221,0.0012683495879173279,0.0002180337905883789
449,0.28176801078298686,0.0063950922309534515,-2.341250392957488,0.27804869413375854,-0.006395048461854458,-0.9605457186698914,-0.0003186892718076706,-0.00011690380051732063,-0.0003143828362226486,0.0005462765693664551,-0.00028830021619796753,0.0015003085136413574
450,0.28182300299708196,0.006347397809451258,-2.3412581248672337,0.2781015932559967,-0.006347354967147112,-0.960530698299408,-0.00012090150266885757,-5.582766607403755e-05,-0.0006222929805517197,-0.001093536615371704,-0.0010836794972419739,0.000340878963470459
451,0.2817576845567258,0.006358572965033756,-2.3412749230199554,0.2780388295650482,-0.006358529906719923,-0.9605487585067749,0.0017727706581354141,0.00010869069956243038,8.446909487247467e-05,0.0005255937576293945,0.0002855365164577961,0.0008930563926696777
452,0.2818426665889971,0.0063674687746255575,-2.3412141758512925,0.2781204581260681,-0.00636742589995265,-0.9605250954627991,-0.0003394223749637604,-0.00018528709188103676,0.0006388910114765167,0.00032192468643188477,-0.00017859786748886108,0.0016475319862365723
453,0.28183445961902204,0.006342169506819253,-2.3411747967363286,0.27811262011528015,-0.006342126987874508,-0.9605275392532349,0.00014404859393835068,-0.0006990102119743824,4.7538429498672485e-05,-0.0011503100395202637,-0.0009057968854904175,0.0005055665969848633
454,0.2817745233300095,0.006371609584002746,-2.341200392131764,0.27805498242378235,-0.0063715665601193905,-0.9605440497398376,-0.0008076922968029976,-0.0015322854742407799,-0.001879911869764328,0.0005857646465301514,0.00048167258501052856,0.0020937323570251465
455,0.28183798255523274,0.006252586997441736,-2.3411553341194797,0.2781161367893219,-0.006252546329051256,-0.9605271220207214,-0.002176809124648571,-0.0003960891626775265,0.003753303550183773,-0.0011538863182067871,0.0011408552527427673,-5.942583084106445e-05
456,0.2818314207855716,0.0062295702505061265,-2.3411894837895617,0.2781098783016205,-0.0062295300886034966,-0.960529088973999,-0.0005490127950906754,0.0018963408656418324,-0.00067109614610672,-0.0001252591609954834,-0.00024019181728363037,-0.0006067752838134766
457,0.28172142184644533,0.0062968754452707686,-2.341213538264342,0.27800410985946655,-0.006296833977103233,-0.9605592489242554,0.0009852377697825432,-0.013319785706698895,-0.0004149489104747772,0.0020251870155334473,-0.0034230127930641174,0.002154707908630371
458,0.281749855450501,0.006273055625002996,-2.341212093911649,0.27803146839141846,-0.006273014470934868,-0.9605515003204346,-0.0015778793022036552,0.0007171030156314373,0.0015364456921815872,-0.001801609992980957,-0.0010664686560630798,0.0001785755157470703
459,0.2817224406984538,0.006300471771151733,-2.3398832197671138,0.27800509333610535,-0.006300430279225111,-0.9605589509010315,-0.09664536267518997,-0.026653721928596497,0.3302536606788635,-0.005437314510345459,-0.0112319216132164,-0.00036329030990600586
460,0.22138237991742946,0.061015318415575184,-2.1230258977595153,0.21916987001895905,-0.06097746640443802,-0.9737793803215027,0.44474342465400696,-1.5291122198104858,3.938082695007324,0.07839177548885345,-0.07436799257993698,-0.050482094287872314
461,0.1465781013233185,0.12091873965456316,-1.839950730866322,0.1449873447418213,-0.12062428891658783,-0.9820531606674194,-0.046388864517211914,-0.06908505409955978,1.8853950500488281,0.013688817620277405,0.13733266294002533,-0.011538147926330566
462,0.10908733043945634,0.14026178572624037,-1.7073019081621637,0.10780192911624908,-0.13980233669281006,-0.9842936992645264,-0.07905600965023041,-0.045888036489486694,1.1431115865707397,0.005616664886474609,-0.03903067111968994,0.013254880905151367
463,0.10339643700605797,0.1407028220300319,-1.6297861692058875,0.10219232738018036,-0.14023903012275696,-0.9848297834396362,-0.059274762868881226,0.10177382826805115,0.32074180245399475,0.013072557747364044,-0.008473113179206848,0.004757821559906006
464,0.13689561127082328,0.12231395981664346,-1.6165817904362794,0.1354488730430603,-0.12200920283794403,-0.9832432866096497,-0.25073447823524475,0.5218141674995422,-0.00836603157222271,0.0030704140663146973,0.007659837603569031,-0.14625805616378784
465,0.14212096825725803,0.11981382617949114,-1.6163882306212225,0.14062756299972534,-0.11952736973762512,-0.982820987701416,-0.029069315642118454,0.06422366201877594,-0.0013785194605588913,0.002118408679962158,0.003682643175125122,-0.019650936126708984
466,0.14061832471635435,0.12028195520270822,-1.6165187696422176,0.1391427218914032,-0.11999212950468063,-0.9829756617546082,-0.010093406774103642,0.023749705404043198,-0.001968441531062126,0.0020773708820343018,0.004986628890037537,-0.009501755237579346
467,0.1397669741523861,0.12049347623849138,-1.6166199896873086,0.1383022665977478,-0.12020211666822433,-0.9830686450004578,0.005107586272060871,-0.007852142676711082,0.0012300722301006317,0.00012546777725219727,0.0038538575172424316,-0.003991901874542236
468,0.13928445802178432,0.12056462697844558,-1.6166334522484924,0.13782672584056854,-0.12027275562286377,-0.9831267595291138,0.009728895500302315,-0.016145549714565277,-0.0020409952849149704,0.0022794902324676514,0.0028563663363456726,-0.0025604963302612305
