,attitude.roll,attitude.pitch,attitude.yaw,gravity.x,gravity.y,gravity.z,rotationRate.x,rotationRate.y,rotationRate.z,userAcceleration.x,userAcceleration.y,userAcceleration.z
0,0.06726975804013086,0.2977972746422921,2.950726013284336,0.06426039338111877,-0.2934151589870453,-0.953822910785675,-0.25156375765800476,0.5684902667999268,0.010088198818266392,5.5402517318725586e-05,0.013370603322982788,0.02079373598098755
1,0.030392626951720614,0.2895392555691169,2.9585619932727028,0.02912306599318981,-0.28551068902015686,-0.9579329490661621,0.40975502133369446,-1.0845155715942383,0.13331978023052216,0.02062058635056019,0.01956525444984436,0.0008254051208496094
2,0.0012529899086346336,0.29529378796549305,2.957739506025205,0.001198756042867899,-0.291020929813385,-0.9567159414291382,0.07486116886138916,-0.3264962136745453,-0.04816771671175957,0.006445897743105888,0.00963360071182251,-0.07970678806304932
3,-0.039849215528491126,0.3323192505359245,2.960369061870283,-0.03765902668237686,-0.3262362778186798,-0.9445378184318542,0.25955623388290405,-0.7362021803855896,-0.07986592501401901,-0.01739468425512314,-0.01491972804069519,0.005740821361541748
4,-0.09279059802344262,0.36917519748103944,2.944064494219503,-0.08641472458839417,-0.36084631085395813,-0.9286131858825684,0.151139497756958,-0.073282390832901,-0.22084888815879822,-0.004268258810043335,-0.01574060320854187,-0.01776742935180664
5,-0.08661318342165036,0.3653007051549293,2.917549115479547,-0.08079702407121658,-0.35723018646240234,-0.9305151700973511,-0.2111291140317917,0.3654150664806366,0.015540073625743389,0.018495380878448486,-0.035683631896972656,0.029361605644226074
6,-0.07491082011743078,0.3013994132399249,2.927319109370886,-0.07146710157394409,-0.2968568205833435,-0.9522439241409302,0.2648221552371979,-2.167603015899658,0.696025550365448,-0.1785176396369934,-0.042773306369781494,-0.3079184293746948
7,-0.39955887806766,0.40557197546996254,3.000029399738856,-0.3574541509151459,-0.394544392824173,-0.8464994430541992,1.1382081508636475,-2.156763792037964,0.8601489663124084,-0.11273020505905151,0.08961275219917297,0.06892681121826172
8,-0.7935060015440681,0.4165574415423577,-2.9439816806532364,-0.6518616676330566,-0.4046146869659424,-0.6413760781288147,2.474138021469116,-3.587218999862671,3.3471717834472656,0.15572220087051392,0.36475878953933716,-0.026028096675872803
9,-1.3241175628375594,0.05926826497379709,-2.392846400375098,-0.9680260419845581,-0.05923357233405113,-0.24375586211681366,1.819926142692566,-0.8911466002464294,7.462162017822266,0.16443723440170288,0.47949114441871643,0.019833102822303772
10,-1.19662657026975,-0.596090904801325,-2.032361422856071,-0.7702803611755371,0.5614118576049805,-0.30246445536613464,0.6304293274879456,0.5150622725486755,6.642215728759766,-0.3534225821495056,0.12222760915756226,-0.10543343424797058
11,-0.8339227664607932,-0.951342674350731,-1.551585039401536,-0.42996954917907715,0.8141958117485046,-0.39014267921447754,1.080100655555725,0.32935604453086853,2.319566488265991,-0.8630602359771729,-0.06982636451721191,-0.05318614840507507
12,-0.6840622753778745,-0.9441728462218028,-1.4128542746923092,-0.3705817461013794,0.81001216173172,-0.4544771909713745,0.3906363844871521,-0.3879716396331787,-1.242640733718872,-0.4926995038986206,-0.03980952501296997,0.184900164604187
13,-0.9190326335563076,-0.8111662166976943,-1.5901184896612834,-0.5474899411201477,0.7250908017158508,-0.4177299439907074,0.15113063156604767,-1.222456932067871,-2.265519857406616,0.06366419792175293,-0.14122843742370605,0.01398235559463501
14,-1.0977913003428141,-0.567784691715903,-1.7883711289515147,-0.7505253553390503,0.5377656817436218,-0.38408294320106506,-0.472500741481781,0.6079629063606262,-2.4563028812408447,0.4651707410812378,0.2579649090766907,0.08053988218307495
15,-1.2078545624081567,-0.4543383238141627,-1.9380633800940794,-0.840016782283783,0.43886786699295044,-0.31900909543037415,-1.9110915660858154,0.31725752353668213,-3.2491884231567383,-0.22687774896621704,0.07393425703048706,0.34301120042800903
16,-1.3607308052225442,-0.3715661796500117,-2.289763880798834,-0.911277174949646,0.3630751669406891,-0.1942942589521408,-2.618351459503174,-0.7307640910148621,0.03743034973740578,0.44359534978866577,0.08576205372810364,-0.23150227963924408
17,-1.369819020974803,-0.4298712795457951,-2.4650443214739117,-0.8907225728034973,0.4167537987232208,-0.18146486580371857,-1.0296573638916016,1.1067583560943604,0.3506391644477844,-0.12360537052154541,0.08295628428459167,-0.12189507484436035
18,-1.3391209209758996,-0.4387297509209064,-2.4823507388592447,-0.8811054825782776,0.4247898757457733,-0.2078627496957779,-0.1285654902458191,-0.596603512763977,0.15150965750217438,-0.014768660068511963,-0.06037941575050354,0.1274031102657318
19,-1.4575735117924808,-0.43912654275764246,-2.564365713666201,-0.8993279337882996,0.4251490533351898,-0.10226178914308548,-0.7366259098052979,-0.5882382988929749,-0.20154964923858643,-0.08799195289611816,0.06680953502655029,0.0021641328930854797
20,-1.5969868441844826,-0.4363207566357925,-2.6017213569532793,-0.9060017466545105,0.42260777950286865,0.02373408153653145,-0.5575629472732544,-1.494935154914856,0.26046887040138245,-0.003681361675262451,-0.10015913844108582,-0.009955409914255142
21,-1.7356798650864977,-0.4776885547671264,-2.6929765017396803,-0.8760155439376831,0.4597277045249939,0.14576388895511627,-0.7375321984291077,-1.3876513242721558,0.01687401905655861,-0.06833559274673462,0.09219792485237122,-0.14448215067386627
22,-1.8405324435565926,-0.46708573799134623,-2.696862659609264,-0.860598623752594,0.4502860903739929,0.2379332035779953,-0.14994363486766815,-0.8904536366462708,0.12910780310630798,0.038287341594696045,0.04171821475028992,-0.09054866433143616
23,-1.9049375580272994,-0.4994884412121954,-2.6944224617180663,-0.8292768597602844,0.4789765477180481,0.28789055347442627,0.13687172532081604,-0.38345983624458313,1.6520973443984985,0.39003753662109375,-0.30328696966171265,0.20286256074905396
24,-2.0888851135376996,-0.5868040897302131,-2.8309832611121766,-0.7234352827072144,0.5537025928497314,0.4123775064945221,0.04976404458284378,-2.5514233112335205,1.07913076877594,-0.16479426622390747,0.015450358390808105,-0.6870509386062622
25,-2.1046222978765963,-0.6213352885354518,-2.765505123328917,-0.6999722719192505,0.5821214318275452,0.4137312173843384,-0.0012073544785380363,-0.6356840133666992,-0.0880897045135498,0.134283185005188,-0.013380587100982666,-0.18355250358581543
26,-2.168720950129638,-0.6882093000759484,-2.7065795976405216,-0.6383805274963379,0.6351550817489624,0.43479737639427185,0.2296094000339508,-0.3840770125389099,0.38463395833969116,-0.08995217084884644,0.06684094667434692,0.14175602793693542
27,-2.1537309013043786,-0.6968863671294223,-2.6361636973513223,-0.6402007937431335,0.6418331265449524,0.42212969064712524,0.9534000754356384,-0.36188963055610657,-0.4039171636104584,-0.037259042263031006,0.03922772407531738,-0.07793718576431274
28,-2.1007701122765807,-0.7214260188166063,-2.5399636574292135,-0.6478615403175354,0.6604560613632202,0.3795703053474426,0.5110231637954712,-0.16814079880714417,-0.0853399857878685,-0.0031090378761291504,0.013219594955444336,0.01882156729698181
29,-2.0781758301333575,-0.7415541866834546,-2.4811570701266374,-0.6445198655128479,0.6754348278045654,0.35830363631248474,0.2636238932609558,-0.09883976727724075,0.06106556951999664,0.0072977542877197266,0.015101492404937744,0.06758430600166321
30,-2.0913135705701023,-0.7399583736893828,-2.4832386273247313,-0.640691876411438,0.6742571592330933,0.3672758638858795,-0.20671352744102478,-0.37511634826660156,-0.01809476502239704,-0.012323319911956787,0.048093974590301514,0.01771870255470276
31,-2.1024599044720533,-0.7176561862397643,-2.5143428920867543,-0.6493605375289917,0.6576207876205444,0.3819239139556885,-0.63145911693573,0.31707897782325745,0.06960616260766983,0.0814894437789917,-0.0016912221908569336,-0.06570088863372803
32,-2.118035176065778,-0.7201212244327819,-2.553642407875945,-0.6419469714164734,0.6594758033752441,0.39114636182785034,0.42019790410995483,-0.020470689982175827,0.025580083951354027,-0.09114623069763184,-0.012228548526763916,-0.2239711880683899
33,-2.0701557640519295,-0.7749124802413146,-2.478416711200959,-0.6272363662719727,0.6996535658836365,0.34213927388191223,0.3739852011203766,-0.04296622425317764,0.34834223985671997,-0.004752099514007568,0.029838621616363525,0.10239502787590027
34,-2.1003219930156867,-0.8376428737479443,-2.480520128683508,-0.5775646567344666,0.743067741394043,0.33803707361221313,0.5958139896392822,-0.09865105897188187,1.0916856527328491,0.0661512017250061,-0.10087120532989502,-0.0838409960269928
35,-2.005514500607489,-1.1107930062091405,-2.510718760281102,-0.4026588201522827,0.8960510492324829,0.18697220087051392,1.2958176136016846,3.2367234230041504,3.101803779602051,0.058939337730407715,-0.26757198572158813,0.1473630666732788
36,-2.0083763056666135,-1.2295136485294191,-2.6363693365383156,-0.3031606376171112,0.9423261284828186,0.14182688295841217,-0.17093488574028015,0.02684732899069786,0.1141534149646759,-0.1223611831665039,-0.22612446546554565,0.21231435239315033
37,-2.011034518380088,-1.2478710094476722,-2.627494722336589,-0.287083238363266,0.9483111500740051,0.1352367401123047,-0.021286271512508392,-0.0004279804416000843,0.10533037781715393,0.02940806746482849,-0.0028004050254821777,0.04257391393184662
38,-2.0627383539168274,-1.259253871354259,-2.669635734309509,-0.27017879486083984,0.9518619179725647,0.1447848379611969,-0.0592375248670578,-0.2620449662208557,0.06779037415981293,0.002539604902267456,0.038799822330474854,0.029989376664161682
39,-2.1311348806848924,-1.2559783485440061,-2.742520160656616,-0.26229140162467957,0.9508527517318726,0.16456721723079681,-0.217869371175766,0.2837986946105957,0.013415085151791573,-0.020896464586257935,0.0031419992446899414,0.022200345993041992
40,-2.14593686367209,-1.2442500899178968,-2.775570542733234,-0.2691664397716522,0.9471558928489685,0.17448581755161285,-0.04070620611310005,0.06085304543375969,-0.10199365764856339,0.01271200180053711,0.016512930393218994,-0.00021517276763916016
41,-2.162844123068927,-1.2358112170307953,-2.789023405410407,-0.27280092239379883,0.9444152116775513,0.1834656000137329,-0.0898621454834938,-0.07781200110912323,-0.1005505919456482,0.029392719268798828,0.01151740550994873,0.01030576229095459
42,-2.1765505086973223,-1.2259625132035037,-2.7861128226775107,-0.2778937816619873,0.9411316514015198,0.1924741417169571,0.002657857723534107,-0.20593209564685822,-0.14976295828819275,0.053742170333862305,0.0037536025047302246,0.0293581485748291
43,-2.183313039292628,-1.2161365158842619,-2.7844151874365766,-0.2841385304927826,0.9377647042274475,0.19965606927871704,-0.06797224283218384,0.020966822281479836,-0.09877099841833115,0.07030192017555237,0.034036993980407715,0.07082127034664154
44,-2.205918096036298,-1.2085274368228371,-2.8244136049033055,-0.2852889597415924,0.9350951313972473,0.2102547585964203,-0.1432979255914688,0.27596741914749146,-0.02736402116715908,0.04549714922904968,0.03324270248413086,0.015270188450813293
45,-2.214759953948058,-1.1960931890022655,-2.8755745109266293,-0.29269522428512573,0.9306163191795349,0.21973301470279694,-0.2555617094039917,0.45596182346343994,-0.045800089836120605,0.03968927264213562,0.013383805751800537,0.01276513934135437
46,-2.227548660028123,-1.172779159027496,-2.948966071718148,-0.30696454644203186,0.9218313097953796,0.23664331436157227,-0.40924975275993347,0.60829097032547,0.012275115586817265,0.02331891655921936,0.005140244960784912,-0.06009909510612488
47,-2.248461814160409,-1.156509057778606,-3.0356553302828,-0.3135918974876404,0.915403425693512,0.2523811161518097,-0.34599825739860535,0.5366780161857605,0.13521017134189606,0.00045111775398254395,-0.0013106465339660645,-0.09660428762435913
48,-2.27528264696238,-1.1466539521267105,-3.1334713354627843,-0.31357043981552124,0.9113920331001282,0.26653069257736206,-0.39800456166267395,0.6219332814216614,0.14746035635471344,-0.11028823256492615,0.012176871299743652,-0.0844322144985199
49,-2.2890498772831473,-1.1284951698150802,3.074236755494918,-0.32228028774261475,0.9037691354751587,0.2816673815250397,-0.2166685312986374,0.5148850083351135,0.055422864854335785,-0.11673030257225037,0.0031978487968444824,-0.15355461835861206
50,-2.263151208196483,-1.1275054344748157,3.066634564732503,-0.33015456795692444,0.9033450484275818,0.2737981081008911,0.013418956659734249,0.27154913544654846,0.025605302304029465,-0.07575967907905579,-0.013818800449371338,-0.0789739191532135
51,-2.2343914818206367,-1.1308002714263323,3.081846071792023,-0.3355448842048645,0.9047533273696899,0.26235640048980713,0.04760050028562546,0.13095930218696594,-0.03829314559698105,-0.09473767876625061,0.016862213611602783,-0.030132919549942017
52,-2.1962541521093373,-1.12106123334528,3.1140436005917613,-0.35243090987205505,0.9005622863769531,0.2545188367366791,0.046928614377975464,0.15055206418037415,-0.09720571339130402,-0.02386602759361267,-0.0205879807472229,-0.08810654282569885
53,-2.1344752786532326,-1.1250755734479132,-3.105387534566297,-0.3644137978553772,0.9023001790046692,0.23034101724624634,0.23466816544532776,0.05207515507936478,-0.02581503614783287,-0.024898946285247803,0.031278252601623535,-0.05529212951660156
54,-2.080809587782155,-1.135728598753206,-3.0441080676388452,-0.3678347170352936,0.906841516494751,0.2057579606771469,0.158620223402977,-0.05044940114021301,0.03180663287639618,-0.032769590616226196,0.0015295743942260742,-0.04082569479942322
55,-2.045516690353797,-1.1442380218362445,-2.990755780124336,-0.3679889738559723,0.910395085811615,0.18911635875701904,0.2032296508550644,-0.04680470749735832,0.020903294906020164,-0.041572242975234985,0.016423821449279785,-0.0038441121578216553
56,-2.0250896360557937,-1.1495924393708552,-2.962116199600861,-0.3673892319202423,0.9125973582267761,0.1794186532497406,0.02583857998251915,-0.05465042591094971,0.05244196578860283,-0.03588530421257019,-0.004958927631378174,-0.02362634241580963
57,-2.030988783556614,-1.1516121320007202,-2.957483172876312,-0.36467239260673523,0.9134212732315063,0.18076390027999878,0.027329295873641968,-0.1603410542011261,0.05181404948234558,-0.03669482469558716,0.0028995275497436523,-0.06456828117370605
58,-2.032314624123132,-1.1607360186573528,-2.9323860865635067,-0.3569551408290863,0.9170967936515808,0.1775285005569458,0.1316981464624405,-0.3868919312953949,0.06948086619377136,-0.03536352515220642,0.001360177993774414,-0.072517529129982
59,-2.0464693420049027,-1.1702454874274884,-2.89663560183829,-0.346638023853302,0.9208463430404663,0.17856135964393616,0.17345908284187317,-0.5088784694671631,-0.0032272483222186565,-0.032512396574020386,0.008108735084533691,-0.06352531909942627
60,-2.037857124587822,-1.1771513003845038,-2.845421202297839,-0.342476487159729,0.923517107963562,0.1727019101381302,0.2590465545654297,-0.4089926779270172,-0.04572972655296326,0.018059372901916504,0.013738751411437988,-0.03267204761505127
61,-2.036902491722927,-1.1822840820856366,-2.8058459608826203,-0.33840200304985046,0.925473690032959,0.17024224996566772,0.14144247770309448,-0.39077579975128174,-0.003274405375123024,0.019645899534225464,0.00801318883895874,-0.045074477791786194
62,-2.0213949535825617,-1.2007548828209875,-2.7448507723597064,-0.32555603981018066,0.9323123693466187,0.1575019210577011,0.4185295104980469,-0.42371973395347595,0.12793748080730438,0.04975345730781555,0.08814960718154907,-0.009323731064796448
63,-1.9937379398028086,-1.2235479589200533,-2.6785885875574733,-0.3103255033493042,0.9403126835823059,0.1396792083978653,0.0788317620754242,-0.24443943798542023,0.09994526952505112,0.0584486722946167,0.002054870128631592,0.1043393611907959
64,-2.013896023682169,-1.2312148654814359,-2.6802989202709946,-0.3009244501590729,0.9428941607475281,0.14281055331230164,0.07058403640985489,-0.108742356300354,0.05786226689815521,0.009008556604385376,0.020789802074432373,0.005230173468589783
65,-2.0163269097474923,-1.241250511844702,-2.668229485177794,-0.2920224666595459,0.9461894035339355,0.13945667445659637,0.04324572905898094,-0.08226485550403595,0.06979367136955261,0.07795697450637817,0.028862297534942627,0.07148084044456482
66,-2.058279619183632,-1.2496460223683743,-2.7055637134094974,-0.27888908982276917,0.9488729238510132,0.14785577356815338,-0.07089806348085403,-0.03613760694861412,0.05542618781328201,0.025532126426696777,-0.0004323124885559082,0.007860198616981506
67,-2.083719010473505,-1.2561515916631882,-2.7277035359951807,-0.26965299248695374,0.9509063959121704,0.15186914801597595,0.04924508184194565,-0.017339881509542465,0.06253744661808014,0.022750556468963623,0.032339394092559814,0.021546944975852966
68,-2.091474996240726,-1.2624075711239013,-2.7325397933423576,-0.2633013129234314,0.9528238773345947,0.15099366009235382,-0.006003945134580135,-0.007107877172529697,0.006641689222306013,0.017161816358566284,0.012599706649780273,0.026557549834251404
69,-2.090304993625261,-1.2641277148782424,-2.730109573508996,-0.26205524802207947,0.9533445239067078,0.14987191557884216,0.03471376374363899,0.011550075374543667,-0.01575380750000477,0.04313734173774719,0.002389848232269287,0.056213393807411194
70,-2.0838994234458625,-1.2688977416829044,-2.7394113664412116,-0.259044885635376,0.9547737240791321,0.14595620334148407,-0.0014577796682715416,0.310539186000824,0.040179941803216934,0.02634832262992859,0.00999385118484497,0.029824987053871155
71,-2.12536237582681,-1.2432473045712003,-2.7787106176655962,-0.2735060155391693,0.9468337297439575,0.1694110929965973,-0.00397858489304781,0.2057281732559204,-0.14690564572811127,0.0208357572555542,0.04333949089050293,0.052360162138938904
72,-2.111650647250273,-1.2216406670965307,-2.7923154914915354,-0.2932755649089813,0.9396619200706482,0.17613881826400757,-0.1382836550474167,0.33600980043411255,-0.19904567301273346,0.010942220687866211,0.014210760593414307,-0.002493739128112793
73,-2.1142142363635066,-1.1981624249405756,-2.807379065472958,-0.31162455677986145,0.9313716292381287,0.18824778497219086,-0.047992005944252014,0.2142658531665802,-0.2658407390117645,0.11432841420173645,0.09859669208526611,0.07470694184303284
74,-2.207915010769343,-1.19162836597699,-2.8951513421205357,-0.29752928018569946,0.9289729595184326,0.22019393742084503,-0.11988857388496399,-0.5895057320594788,0.033514540642499924,-0.15193358063697815,0.11446869373321533,-0.1017400324344635
75,-2.317648439770346,-1.1861572177501458,-2.9533044313470422,-0.2753513753414154,0.9269338846206665,0.25490209460258484,-0.12516814470291138,-0.45668959617614746,0.2647954821586609,-0.08765515685081482,0.03237086534500122,-0.13457134366035461
76,-2.402879034754614,-1.1873372263952289,-3.0006953959860776,-0.25191614031791687,0.9273760318756104,0.2766079604625702,-0.20340262353420258,-0.17573930323123932,0.047210223972797394,-0.09306982159614563,-0.04866814613342285,-0.015133380889892578
77,-2.4318352495686044,-1.186757699366117,-3.023705304859742,-0.24415214359760284,0.9271590709686279,0.2841929793357849,-0.08061343431472778,-0.3083771765232086,0.07690442353487015,-0.07687750458717346,-0.01099097728729248,-0.07609358429908752
78,-2.433284387271069,-1.1883713714734354,-2.998697195813647,-0.2427663803100586,0.9277624487876892,0.28340980410575867,0.22131748497486115,-0.3450334072113037,-0.05611547827720642,-0.06321805715560913,0.06254810094833374,-0.12995225191116333
79,-2.4545652955496067,-1.194055328038601,-2.9408767021216033,-0.23333236575126648,0.9298685193061829,0.28442999720573425,0.18169566988945007,-0.660589873790741,-0.13018739223480225,-0.06195570528507233,-0.007749438285827637,5.480647087097168e-05
80,-2.496645088480438,-1.1820701469448702,-2.90979717077978,-0.2278440147638321,0.9253926277160645,0.30287832021713257,-0.4422908425331116,0.1348356455564499,-0.12442371249198914,-0.15977497398853302,-0.05469578504562378,0.24851316213607788
81,-2.506084045390282,-1.1719084609084407,-2.9463726235498484,-0.2305452972650528,0.9214935302734375,0.3125673830509186,-0.2168327420949936,0.21118849515914917,0.13664360344409943,-0.10871857404708862,-0.02603161334991455,-0.06358975172042847
82,-2.486279176467446,-1.1560581794642721,-2.9600972720572485,-0.24556098878383636,0.9152218699455261,0.31948184967041016,-0.1084478348493576,0.44843265414237976,-0.15514421463012695,-0.025267258286476135,-0.0010526180267333984,-0.06401923298835754
83,-2.4498002933194627,-1.154715750801763,-2.9323363958847417,-0.257832795381546,0.9146801233291626,0.3112592399120331,0.14094474911689758,-0.745861291885376,-0.13035555183887482,0.07678735256195068,0.09905266761779785,-0.0650433897972107
84,-2.4941741775355895,-1.1610555340328905,-2.943999407792097,-0.24026983976364136,0.917224109172821,0.31775882840156555,-0.22291094064712524,-0.3075982630252838,0.25154465436935425,-0.09293638169765472,-0.02040386199951172,-0.0366460382938385
85,-2.5252939322294803,-1.164289960403891,-2.9557419687612416,-0.22855043411254883,0.9185078144073486,0.3226582109928131,0.0789942592382431,-0.41727933287620544,-0.02984996885061264,0.02896544337272644,0.027171015739440918,-0.048854559659957886
86,-2.5548527055424812,-1.1706482782752006,-2.972317837199991,-0.21567651629447937,0.9210033416748047,0.32440149784088135,-0.0012292629107832909,-0.07316064089536667,0.08098950237035751,0.021737337112426758,-0.005201399326324463,-0.011504799127578735
87,-2.564578896424577,-1.1709940796824312,-2.9869886584903362,-0.21233774721622467,0.9211379885673523,0.3262174129486084,-0.056872010231018066,0.11199168115854263,-0.0433078296482563,-0.013782262802124023,-0.0018721222877502441,0.01840236783027649
88,-2.5283194404047467,-1.1640087845014728,-2.9737580589310166,-0.22772155702114105,0.9183965921401978,0.323559045791626,-0.06460751593112946,0.40349939465522766,-0.08964131772518158,0.002059370279312134,-0.0007789134979248047,0.045520514249801636
89,-2.4871457412161084,-1.1571337045069767,-2.9514764231987747,-0.24468468129634857,0.915654718875885,0.3189133107662201,0.07801561802625656,-0.15384916961193085,-0.02833612821996212,0.14055870473384857,0.016214728355407715,-0.002598673105239868
90,-2.505877525022462,-1.1637517801803843,-2.9448149672731985,-0.2350647896528244,0.9182949066162109,0.3185570538043976,-0.05130903422832489,-0.36392512917518616,-0.051460251212120056,0.02264721691608429,0.022500813007354736,0.06250053644180298
91,-2.576788546120691,-1.1502223147282333,-2.934044838728563,-0.21853436529636383,0.9128547310829163,0.34487515687942505,0.02385817840695381,-0.8964996337890625,-0.1574936956167221,0.10053816437721252,0.049013495445251465,0.05337926745414734
92,-2.6000334124590534,-1.1453266543713,-2.8980780362822105,-0.2127607762813568,0.9108449816703796,0.3536869287490845,-0.031245730817317963,-0.2668205201625824,-0.06864219158887863,-0.017875850200653076,-0.018327772617340088,0.06267967820167542
93,-2.5851774187817833,-1.145107892422019,-2.8873337529669056,-0.21809642016887665,0.9107546806335449,0.35065600275993347,-0.04201345518231392,0.22744761407375336,-0.06923951208591461,0.011049941182136536,-0.011615395545959473,0.022665470838546753
94,-2.565796666723087,-1.1423954078078637,-2.887713221720416,-0.22619545459747314,0.9096311926841736,0.34843453764915466,-0.0027923407033085823,0.19054491817951202,0.03570479154586792,-0.013443797826766968,-0.01258230209350586,0.0068663060665130615
95,-2.548210257454936,-1.1438383108887324,-2.8849758608462497,-0.23155370354652405,0.9102296829223633,0.34331437945365906,0.0010361894965171814,0.17195773124694824,-0.05605625733733177,0.015489280223846436,0.007998406887054443,0.027321666479110718
96,-2.531488761093402,-1.1398825630640521,-2.889156312004759,-0.23932284116744995,0.908584475517273,0.34234288334846497,-0.05664288252592087,0.29938000440597534,-0.021056363359093666,0.03294774889945984,0.006378173828125,0.016711682081222534
97,-2.518152152088247,-1.1335995207447371,-2.908250062238924,-0.24719542264938354,0.9059420824050903,0.34374910593032837,0.02796918898820877,0.461570680141449,0.15959450602531433,0.05594171583652496,0.04802221059799194,0.003708750009536743
98,-2.5218539489536145,-1.1417356824253357,-2.9497806579012336,-0.24163208901882172,0.909356951713562,0.33865052461624146,-0.05065082013607025,0.33948957920074463,-0.004120903089642525,-0.09909670054912567,-0.05837416648864746,-0.05479118227958679
99,-2.4969600953185895,-1.1423523551096737,-2.965900902368664,-0.24964968860149384,0.909613311290741,0.3320828080177307,0.056389302015304565,0.6722400784492493,-0.012521493248641491,-0.06326234340667725,0.007226526737213135,-0.025167495012283325
100,-2.410416677910189,-1.157851489151295,-2.8898052121301454,-0.2679719030857086,0.9159430265426636,0.29872986674308777,0.599224328994751,-0.14266203343868256,-0.054350703954696655,-0.016055196523666382,0.039028286933898926,-0.06809329986572266
101,-2.321607208740815,-1.1966550474023228,-2.7907156997014937,-0.26721078157424927,0.9308217763900757,0.24933764338493347,0.07158104330301285,-0.21026164293289185,-0.022043798118829727,-0.03495901823043823,0.02137237787246704,0.01877450942993164
102,-2.418190616092942,-1.200654982325427,-2.8383399588042733,-0.239454448223114,0.9322762489318848,0.2711505889892578,-0.2738804221153259,-0.5361968278884888,0.499949187040329,-0.1338212937116623,-0.12789392471313477,0.0039195716381073
103,-2.486684440933648,-1.2077861850027978,-2.888499772756742,-0.21628044545650482,0.9348322153091431,0.28162315487861633,0.2537083923816681,0.12983131408691406,-0.037413328886032104,-0.23644781112670898,0.007230162620544434,-0.13281941413879395
104,-2.3433842569521954,-1.199502650280181,-2.7752831954326664,-0.2598188817501068,0.9318587779998779,0.2532460391521454,0.15334124863147736,0.041551943868398666,-0.37046974897384644,0.03884109854698181,-0.012058913707733154,-0.04546713829040527
105,-2.3314401077456863,-1.1987076954381228,-2.7200042245365657,-0.26336178183555603,0.9315700531005859,0.2506355047225952,0.06431247293949127,-0.29219889640808105,-0.1068866103887558,-0.10220831632614136,-0.012655138969421387,0.026235252618789673
106,-2.3316005657403296,-1.1869769704096722,-2.6927852345955103,-0.27121806144714355,0.9272412061691284,0.25819510221481323,0.06062043085694313,-0.24820300936698914,-0.16440659761428833,0.011330366134643555,0.003178834915161133,-0.05018720030784607
107,-2.3117677598657176,-1.1873609737277813,-2.6538608346767445,-0.2760220170021057,0.9273849129676819,0.2525249421596527,0.08601056784391403,-0.11407874524593353,-0.052594687789678574,0.0198880136013031,0.017652809619903564,0.030403465032577515
108,-2.3294704445637033,-1.182486954527139,-2.6619519234482105,-0.27478641271591187,0.9255505204200745,0.26047855615615845,-0.0626649409532547,-0.08730257302522659,-0.02203897386789322,-0.0006347894668579102,0.04216212034225464,0.009968221187591553
109,-2.3454396716631867,-1.1801017110322825,-2.671911153057051,-0.2721686065196991,0.9246447682380676,0.26637643575668335,-0.019171185791492462,-0.06790956854820251,0.022986561059951782,0.033200740814208984,0.001563727855682373,-0.020862460136413574
110,-2.358013277230468,-1.1862053363890352,-2.68122171728789,-0.26480913162231445,0.9269519448280334,0.2657741606235504,0.03902662545442581,0.08137938380241394,0.05374862626194954,0.02654320001602173,0.0049479007720947266,0.0026889443397521973
111,-2.356150283965081,-1.1941605256179921,-2.6867594555734033,-0.260081022977829,0.9299072027206421,0.2600580155849457,-0.016350386664271355,0.09087305516004562,0.04490770772099495,0.006754666566848755,0.016244351863861084,0.02125304937362671
112,-2.3584188115352407,-1.1949635063714827,-2.701688791709947,-0.258963406085968,0.9302022457122803,0.2601180374622345,0.03173083811998367,0.14816126227378845,0.02649257332086563,0.014777064323425293,-0.0021018385887145996,-0.011689841747283936
113,-2.34443364124104,-1.1987857007326623,-2.7048957834412377,-0.2600306570529938,0.9315983653068542,0.25398510694503784,-0.005109705962240696,0.20339086651802063,0.010350321419537067,0.010198533535003662,0.010982692241668701,0.020932525396347046
114,-2.330192847818263,-1.1981935383307534,-2.711903331627827,-0.26402124762535095,0.931382954120636,0.2506362795829773,-0.007642005570232868,0.23561197519302368,-0.011262289248406887,-0.005235344171524048,0.021223247051239014,0.01698756217956543
115,-2.31426599395987,-1.1965889318809195,-2.717339130438829,-0.26907962560653687,0.9307976365089417,0.24741123616695404,-0.010446916334331036,0.20269115269184113,-0.0052853962406516075,-0.02221071720123291,0.010532557964324951,0.003489077091217041
116,-2.3039787860857515,-1.1934810554138966,-2.727919227411368,-0.27375802397727966,0.9296571016311646,0.24656431376934052,-0.0878649652004242,0.19971585273742676,0.04992574080824852,-0.01814255118370056,-0.002487480640411377,-0.008130475878715515
117,-2.3049580479191456,-1.1923907671663132,-2.744798001337013,-0.2742689847946167,0.9292548894882202,0.2475113868713379,-0.08048738539218903,0.06459484994411469,0.04309661686420441,-0.0547105073928833,-0.006677985191345215,-0.04234170913696289
118,-2.301128377872193,-1.1896447401570873,-2.7504695274914175,-0.2771148383617401,0.9282369017601013,0.24816067516803741,-0.004613224416971207,0.08426995575428009,0.04692009463906288,-0.06236270070075989,-0.010039269924163818,-0.047385573387145996
119,-2.2683949224250455,-1.1911979002288968,-2.728447599405818,-0.28398266434669495,0.9288135170936584,0.23803186416625977,0.03144701197743416,0.10678866505622864,-0.005458385217934847,-0.044218599796295166,-0.015788674354553223,-0.0052132755517959595
120,-2.253678536339556,-1.1857767462397573,-2.7225095518295697,-0.2913566529750824,0.9267910718917847,0.23700101673603058,-0.0060186441987752914,0.03258824348449707,-0.01018921472132206,-0.041437506675720215,0.01934528350830078,-0.0348067581653595
121,-2.240286431705272,-1.183502337477834,-2.711139805639577,-0.2961563467979431,0.9259344935417175,0.2343854159116745,-0.03683019429445267,0.003097865730524063,-0.003022541292011738,-0.033509761095047,0.005950212478637695,-0.017710715532302856
122,-2.2409818780772173,-1.1788815757479394,-2.710231370927258,-0.2993435263633728,0.9241793751716614,0.237246572971344,-0.07338167726993561,-0.04460037499666214,-0.021337253972887993,-0.04433014988899231,0.006606698036193848,-0.026751533150672913
123,-2.239560515757385,-1.1749767904010013,-2.7044363373657023,-0.30250924825668335,0.9226809144020081,0.2390563189983368,-0.04699056223034859,-0.07770325988531113,-0.0007057645707391202,-0.055385589599609375,-0.0003940463066101074,-0.02970580756664276
124,-2.237444758515483,-1.1719506376029794,-2.6987493015339856,-0.30520734190940857,0.921509861946106,0.24014121294021606,0.015155666507780552,-0.05532267689704895,0.0016518831253051758,-0.06483352184295654,0.003493070602416992,-0.04759064316749573
125,-2.221289142125294,-1.1726656211138735,-2.6785941594433296,-0.3085225820541382,0.9217873215675354,0.2347802370786667,0.059070564806461334,-0.04781661555171013,0.028772948309779167,-0.05599460005760193,-0.010318934917449951,-0.04813471436500549
126,-2.211030168542724,-1.1767242788086858,-2.6606306575106653,-0.3079124093055725,0.9233532547950745,0.2293662279844284,-0.0089113125577569,-0.13408109545707703,0.0608602836728096,-0.03951498866081238,0.007692396640777588,-0.018642276525497437
127,-2.217698661604593,-1.1821083376579036,-2.6550721264490047,-0.3024046719074249,0.9254070520401001,0.22841471433639526,0.09465960413217545,-0.12670861184597015,0.06577032059431076,-0.04152846336364746,-0.009757637977600098,-0.006689190864562988
128,-2.2210261543948207,-1.1854620764147508,-2.6475851281721843,-0.29917052388191223,0.9266728758811951,0.2275392711162567,0.02408847026526928,-0.11252906173467636,0.006938477046787739,-0.02964109182357788,0.006127297878265381,-0.01051357388496399
129,-2.2131174317513915,-1.1832288514600724,-2.634279881503678,-0.3026174306869507,0.925831139087677,0.22640562057495117,-0.0551285594701767,-0.0643262043595314,-0.0027259141206741333,0.037053465843200684,-0.001102745532989502,0.03502321243286133
130,-2.2437356122815513,-1.1797204982378453,-2.651911573546835,-0.29808294773101807,0.92449951171875,0.2375868707895279,-0.03572108969092369,-0.15546441078186035,-0.02217654511332512,0.004793703556060791,-0.0003508329391479492,0.0063249170780181885
131,-2.254266549316104,-1.1806946714589879,-2.6527011788898602,-0.2948657274246216,0.9248704314231873,0.24014367163181305,0.019535847008228302,0.027140449732542038,-0.005844011437147856,0.08517947793006897,0.021952688694000244,0.01486121118068695
132,-2.2964880835073815,-1.1854918453776966,-2.7205645329062054,-0.2811448872089386,0.9266840219497681,0.24942857027053833,-0.27966922521591187,0.45029908418655396,0.27039259672164917,0.1265275776386261,0.038190364837646484,-0.04290077090263367
133,-2.3197360225689385,-1.1982224649276134,-2.819960758059983,-0.26660802960395813,0.9313935041427612,0.24784359335899353,-0.004988345317542553,1.021479606628418,0.4906255900859833,0.20494723320007324,0.03389286994934082,-0.02939876914024353
134,-2.329228310947382,-1.2358893802948034,-2.9465363772604527,-0.23859457671642303,0.9444409012794495,0.22606153786182404,-0.2581378221511841,1.0187228918075562,0.5086289048194885,0.02350670099258423,0.021455585956573486,0.043744295835494995
135,-2.391042794553576,-1.2379931429204623,-3.1346652195265587,-0.22281846404075623,0.9451302886009216,0.23891563713550568,-0.45702430605888367,1.0111232995986938,0.3312940001487732,-0.04645337164402008,0.01960664987564087,0.008368253707885742
136,-2.441797581335233,-1.2248941538338523,3.0035970182940126,-0.21836571395397186,0.9407699704170227,0.25936076045036316,-0.2253311574459076,0.7632102370262146,0.2245963215827942,0.0037661194801330566,-0.012898385524749756,-0.029059916734695435
137,-2.4035787536367623,-1.236391925834399,2.949354328785298,-0.22082410752773285,0.9446059465408325,0.2428094893693924,0.02815396338701248,0.9202021956443787,0.1690167486667633,0.016630977392196655,0.02049720287322998,0.03856253623962402
138,-2.3841912895350363,-1.2352560532849186,2.8697447394520657,-0.2262265980243683,0.9442325234413147,0.23926220834255219,-0.25953209400177,0.9432673454284668,0.2003643959760666,0.04391460120677948,0.009426474571228027,0.024287566542625427
139,-2.3645172715464207,-1.2314634993346176,2.782988521855453,-0.23339934647083282,0.9429769515991211,0.23731710016727448,-0.16312049329280853,0.9009778499603271,0.12029357999563217,0.012833565473556519,0.004639625549316406,-0.010464668273925781
140,-2.346781871167141,-1.2218453301829353,2.7147121702501664,-0.24403329193592072,0.9397318959236145,0.23948201537132263,-0.33283552527427673,0.7934818863868713,0.04164259508252144,-0.02795460820198059,0.03390085697174072,-0.0030013620853424072
141,-2.3304238097951977,-1.202525112341366,2.668535009333787,-0.2610355615615845,0.9329510927200317,0.24791662395000458,-0.38637682795524597,0.5448735356330872,-0.011228556744754314,0.02006879448890686,-0.03115665912628174,0.010674118995666504
142,-2.306432140704329,-1.1845745208149132,2.639432151073602,-0.2792803943157196,0.9263388514518738,0.25278183817863464,-0.03499376401305199,0.4191100299358368,-0.06276050209999084,-0.018311738967895508,0.028586626052856445,-0.02754691243171692
143,-2.3030073149948342,-1.1651516006260727,2.6106107934782607,-0.29347139596939087,0.9188481569290161,0.26380354166030884,-0.15960299968719482,0.30795782804489136,-0.012886276468634605,0.041701436042785645,0.01614922285079956,-0.05938154458999634
144,-2.26467608843365,-1.1658499661966772,2.61457807798322,-0.302871972322464,0.9191235303878784,0.25195303559303284,0.02886873483657837,0.5479878187179565,0.02853075973689556,0.05406218767166138,-0.004771232604980469,0.014312833547592163
145,-2.2530216866915675,-1.1577809987354162,2.5779833096511444,-0.3115341067314148,0.9159147143363953,0.2530742883682251,-0.23468056321144104,0.5877173542976379,0.05599024146795273,0.014659136533737183,0.06788039207458496,-0.030830055475234985
146,-2.229008085339498,-1.1545376318444016,2.5518573623963334,-0.31986960768699646,0.9146081209182739,0.24733708798885345,-0.3510838747024536,0.6967722177505493,0.0981651246547699,0.0012355446815490723,-0.020442962646484375,0.04706600308418274
147,-2.2261562773165533,-1.1439698089117785,2.492227278031397,-0.32821887731552124,0.9102841019630432,0.2523007392883301,-0.23823904991149902,0.6319326758384705,0.045832883566617966,-0.028684288263320923,0.0012609362602233887,-0.0326351523399353
148,-2.1962420509020446,-1.1330580558807768,2.458961941644389,-0.3436501920223236,0.9057127237319946,0.24817124009132385,-0.22975210845470428,0.6772931218147278,-0.014983023516833782,-0.04126802086830139,0.003100752830505371,-0.017809391021728516
149,-2.140535209226741,-1.1249251211686977,2.450550748588276,-0.36312562227249146,0.9022353291511536,0.23261834681034088,0.14269031584262848,0.7292868494987488,0.0075880419462919235,-0.020938068628311157,0.02011275291442871,-0.05941581726074219
150,-2.0177140113209227,-1.139883975984249,2.5065283202588846,-0.3766745626926422,0.9085850119590759,0.18052473664283752,0.15347830951213837,0.935889720916748,0.0958046093583107,0.010784119367599487,0.006255507469177246,0.02859698235988617
151,-1.9808860994589474,-1.1437194666092814,2.466629729015668,-0.37986743450164795,0.9101804494857788,0.16514278948307037,-0.4010504484176636,0.9614659547805786,0.19105234742164612,-0.03599557280540466,0.000296175479888916,-0.023327603936195374
152,-1.962076304372608,-1.1559302863715257,2.409911991821485,-0.37260428071022034,0.9151703119277954,0.15371862053871155,-0.08560917526483536,0.7300724387168884,0.2191285938024521,-0.10420233011245728,-0.00460207462310791,-0.04599165916442871
153,-1.9353528406245875,-1.1730459245374092,2.359674637947002,-0.3618895709514618,0.9219347238540649,0.13810209929943085,-0.224236860871315,0.7889926433563232,0.26208484172821045,-0.05592656135559082,0.010484039783477783,-0.02302028238773346
154,-1.943181827858345,-1.1883796588265738,2.278760483170826,-0.347587913274765,0.9277655482292175,0.13577133417129517,-0.32170599699020386,0.6594536900520325,0.27645736932754517,-0.08165708184242249,-0.02743595838546753,-0.04450857639312744
155,-1.943438384490136,-1.2085205804867911,2.203981905093986,-0.3300800025463104,0.9350926876068115,0.12903018295764923,-0.08599889278411865,0.8281987309455872,0.31146907806396484,-0.061857253313064575,-0.03320670127868652,-0.010225296020507812
156,-1.9486601193694904,-1.231234498378291,2.093924992945229,-0.30957725644111633,0.9429007172584534,0.12288292497396469,-0.49211353063583374,1.0784205198287964,0.37573403120040894,0.005225479602813721,0.047333717346191406,0.0032919645309448242
157,-2.0595265393707,-1.2373804323352908,1.8820238122085093,-0.288959264755249,0.9449299573898315,0.153656467795372,-0.8623958826065063,0.8095791935920715,0.392244428396225,-0.005184441804885864,-0.028517425060272217,-0.07095383107662201
158,-2.14118090667297,-1.2498628250415342,1.6979418336970946,-0.2655148208141327,0.9489413499832153,0.17033074796199799,-0.09289737045764923,1.2669111490249634,0.446997731924057,0.044735342264175415,0.02742290496826172,0.039767518639564514
159,-2.188796758446266,-1.2730726223169775,1.5416163285285784,-0.23908796906471252,0.9560067057609558,0.16996635496616364,-0.43597573041915894,0.5607555508613586,0.45120975375175476,0.05418194830417633,0.029573917388916016,0.03996409475803375
160,-2.3701390723776057,-1.2696153637961556,1.2992719227712726,-0.2068166583776474,0.9549868106842041,0.2126665562391281,-0.43061190843582153,0.4194561243057251,0.4140995144844055,0.023848533630371094,-0.0260927677154541,-0.08711719512939453
161,-2.412792104980545,-1.2854023685370308,1.1889318927284314,-0.18749575316905975,0.9595507979393005,0.21001815795898438,0.03226226195693016,0.6482328772544861,0.27965274453163147,-0.010837987065315247,0.020261824131011963,0.017047882080078125
162,-2.448004206666345,-1.2898801257835828,1.0916970525796572,-0.17723704874515533,0.9608018398284912,0.21318238973617554,-0.27756384015083313,0.5485492944717407,0.231380432844162,0.030615344643592834,0.004499554634094238,0.01086243987083435
163,-2.485209423469477,-1.2859914665019316,0.9872549774147074,-0.17146363854408264,0.9597164988517761,0.22258585691452026,-0.1573370397090912,0.6374476552009583,0.1800922304391861,-0.006392806768417358,0.009353935718536377,-0.012319803237915039
164,-2.473639814406583,-1.2861462364081477,0.9406133153759739,-0.17393529415130615,0.9597599506378174,0.2204705774784088,-0.05723794549703598,0.5478824377059937,0.016874972730875015,-0.022216424345970154,-0.004163086414337158,0.02429567277431488
165,-2.4401351197954844,-1.27592206995092,0.9274750904959306,-0.1875458061695099,0.9568386673927307,0.2220047116279602,-0.06603789329528809,0.43709853291511536,-0.06432174146175385,0.01860050857067108,0.008752644062042236,0.011668309569358826
166,-2.3887432504410175,-1.2670416916239353,0.9355213118193306,-0.20450469851493835,0.954220175743103,0.21827036142349243,-0.04879447817802429,0.38172730803489685,-0.08217209577560425,0.05428189039230347,0.0021703243255615234,0.02541258931159973
167,-2.3358859637524514,-1.2573318303961423,0.952376770311385,-0.22242377698421478,0.9512709975242615,0.21356821060180664,0.0019695619121193886,0.31030744314193726,-0.14451326429843903,0.03196355700492859,-0.00019055604934692383,0.03681328892707825
168,-2.273203968412742,-1.2441317423361837,0.9846442559573015,-0.24492831528186798,0.9471179246902466,0.20731037855148315,-0.03262386471033096,0.28143566846847534,-0.18907026946544647,0.04859350621700287,0.010660886764526367,0.04813703894615173
169,-2.2293393146649456,-1.2249601689687228,1.0038844758116245,-0.2680967450141907,0.9407923221588135,0.20744600892066956,-0.15272016823291779,0.25687217712402344,-0.22299665212631226,0.04775986075401306,0.04976242780685425,0.05492888391017914
170,-2.228106631554618,-1.1937271321757215,0.9798850994045957,-0.2914789617061615,0.9297477602958679,0.22496464848518372,-0.3210800588130951,0.14132900536060333,-0.2166517823934555,0.0683039128780365,-0.01165693998336792,-0.05585157871246338
171,-2.2221678922366297,-1.164148524692589,0.9508031141506686,-0.3145488202571869,0.9184519052505493,0.23980285227298737,-0.2868378758430481,0.3076489269733429,-0.14864803850650787,0.030643731355667114,0.062352657318115234,-0.037471264600753784
172,-2.2091531961362416,-1.139267121556066,0.9243117743294801,-0.335894912481308,0.9083272218704224,0.24923165142536163,-0.18355226516723633,0.4740653336048126,-0.12748949229717255,0.039798080921173096,0.008680224418640137,-0.056650519371032715
173,-2.202629809744432,-1.1155358025182671,0.884517581776414,-0.3548109531402588,0.8981465101242065,0.2596955895423889,-0.28125590085983276,0.14073504507541656,-0.16321872174739838,-0.03827068209648132,-0.030714988708496094,-0.15300622582435608
174,-2.228617778596698,-1.0979793365171047,0.8505388463515579,-0.3603668212890625,0.8902889490127563,0.2784266173839569,-0.06121912971138954,0.2089749127626419,0.024906162172555923,-0.11218264698982239,0.03860503435134888,-0.1065363883972168
175,-2.183253728932855,-1.103165501758152,0.8766761459392334,-0.36883947253227234,0.8926387429237366,0.25914034247398376,0.03529835492372513,0.39538103342056274,-0.0038629022892564535,-0.04539087414741516,-0.0025019049644470215,0.0022884905338287354
176,-2.142826601644941,-1.1075230242524587,0.858832993284258,-0.37573716044425964,0.8945945501327515,0.24191336333751678,0.030415210872888565,0.7088221907615662,0.16143809258937836,0.05830860137939453,-0.00805896520614624,-0.03381408751010895
177,-2.0632267849607904,-1.1381577944975738,0.8785849940080065,-0.36945322155952454,0.907862663269043,0.19821687042713165,0.39673709869384766,0.4703562259674072,0.21033763885498047,-0.08268001675605774,0.023091435432434082,-0.008092373609542847
178,-2.012833941195411,-1.1538562034073572,0.9063193623386276,-0.36604028940200806,0.914332389831543,0.1732366681098938,-0.3622170686721802,0.1882247030735016,-0.007838664576411247,-0.06801122426986694,0.0030260682106018066,0.11307930946350098
179,-2.05201574337619,-1.13482948937135,0.8491046428363053,-0.3743283152580261,0.9064621925354004,0.19545993208885193,-0.20416992902755737,0.08542465418577194,-0.09146064519882202,-0.06188994646072388,-0.02801370620727539,-0.037562012672424316
180,-2.062231009245616,-1.1223974690702576,0.8361764677415655,-0.3822183310985565,0.901142418384552,0.20457562804222107,0.09570681303739548,-0.14798995852470398,-0.08002316951751709,-0.0671224296092987,0.0038562417030334473,-0.08561816811561584
181,-2.057550010444029,-1.1194921608958543,0.8896715622800629,-0.3854846954345703,0.8998790979385376,0.2040083110332489,0.20376741886138916,-0.6483041048049927,-0.12282267957925797,-0.0510081946849823,0.007744252681732178,-0.02541947364807129
182,-2.0928768980949912,-1.1156937037213512,0.9489836776301098,-0.380998432636261,0.8982159495353699,0.21919897198677063,0.28572437167167664,-1.0134223699569702,-0.1935674250125885,-0.060087352991104126,-0.0022809505462646484,-0.09169653058052063
183,-2.114916124394217,-1.1188982899757147,1.045114559444265,-0.37361106276512146,0.8996198773384094,0.2260509878396988,0.3111534118652344,-1.2141010761260986,-0.13656483590602875,0.009933024644851685,-0.0015637874603271484,-0.07579776644706726
184,-2.1577184745749287,-1.1256774290488025,1.148942509244768,-0.35850998759269714,0.9025594592094421,0.23844756186008453,0.46819254755973816,-1.331544041633606,-0.1911684274673462,0.06644150614738464,0.05676072835922241,-0.04430994391441345
185,-2.209159479625595,-1.1344849780922948,1.2490932405554191,-0.33937788009643555,0.9063166379928589,0.25181928277015686,0.38433903455734253,-1.292629599571228,-0.1310833990573883,0.09900611639022827,0.05335444211959839,-0.033694833517074585
186,-2.234422445464331,-1.1474472229684525,1.3567102258796049,-0.3236258327960968,0.9117181897163391,0.2530532777309418,0.22069481015205383,-1.2436912059783936,-0.17206548154354095,0.04768595099449158,0.04818153381347656,0.051695287227630615
187,-2.3102192912977992,-1.1340110427122467,1.4103700787130167,-0.3125579059123993,0.906116247177124,0.2850627899169922,0.0928700640797615,-1.2378946542739868,-0.3338039815425873,0.03229972720146179,0.012371242046356201,-0.08250236511230469
188,-2.2785641453920285,-1.1342048697069007,1.5634612074756635,-0.32128989696502686,0.906198263168335,0.2749132513999939,0.5490098595619202,-0.8768376708030701,-0.43359076976776123,0.09082117676734924,0.03943455219268799,0.00569579005241394
189,-2.25232515124647,-1.1273355427988259,1.699300857311438,-0.33321863412857056,0.9032721519470215,0.2703046500682831,0.3376692533493042,-0.7776548266410828,-0.36548876762390137,0.12830838561058044,0.021746039390563965,-0.008235007524490356
190,-2.2088648971058746,-1.1214424293530239,1.8263376050271625,-0.3489176034927368,0.9007279276847839,0.2587384581565857,0.39000993967056274,-0.4412592351436615,-0.3425304889678955,0.1469981074333191,0.03460526466369629,0.025196999311447144
191,-2.141450988722751,-1.1206242969992972,1.9397593755218514,-0.36617451906204224,0.9003722667694092,0.2350446879863739,0.18915274739265442,-0.19896019995212555,-0.21862563490867615,0.09304219484329224,0.12950438261032104,0.05375836789608002
192,-2.118395947255002,-1.1118722709218198,1.9949646065195357,-0.3782089054584503,0.8965296149253845,0.23063457012176514,0.059068210422992706,-0.26362982392311096,-0.11982262134552002,0.058003246784210205,-0.016250252723693848,-0.018003389239311218
193,-2.0929645503338623,-1.1096630271650714,2.052133758448288,-0.3856675922870636,0.8955488204956055,0.22193028032779694,0.23469185829162598,-0.33344781398773193,-0.1766684353351593,-0.05851578712463379,-0.04096496105194092,-0.036444395780563354
194,-2.1021278489912802,-1.1004216270051113,2.0842791738241,-0.39073625206947327,0.891398549079895,0.22963844239711761,0.17852835357189178,-0.3934590816497803,-0.13011401891708374,-0.058619797229766846,-0.03290855884552002,-0.09026467800140381
195,-2.0425217129399145,-1.1049246706791602,2.1865928239512127,-0.4001423418521881,0.8934303522109985,0.2041279673576355,0.4431838095188141,-0.2976056635379791,-0.19095362722873688,-0.10127672553062439,-0.0018288493156433105,0.05157874524593353
196,-2.033597416706805,-1.098046459024938,2.256819846211509,-0.40743735432624817,0.8903195261955261,0.203287735581398,0.36099570989608765,-0.6269159913063049,-0.21158045530319214,-0.05919164419174194,0.002777397632598877,-0.06698095798492432
197,-2.0048242198667383,-1.0974612710344263,2.357646264579551,-0.4135896861553192,0.8900529146194458,0.19170095026493073,0.3711605668067932,-0.5677085518836975,-0.17428265511989594,-0.02693149447441101,0.010062992572784424,0.008692726492881775
198,-2.0080043691449743,-1.0970056746216301,2.4197814822033115,-0.4133452773094177,0.8898451328277588,0.1931869238615036,0.23127800226211548,-0.4971119463443756,-0.07354047149419785,-0.021102964878082275,-0.0040114521980285645,-0.040614381432533264
199,-2.018272954658711,-1.102688777042943,2.4744860238480006,-0.40677395462989807,0.8924237489700317,0.19522981345653534,0.22641177475452423,-0.554082989692688,-0.04004712030291557,-0.06833890080451965,-0.0035230517387390137,-0.04151274263858795
200,-2.023370542838654,-1.1105799112848804,2.5341554165624647,-0.39942771196365356,0.8959563970565796,0.1942152976989746,0.2041824758052826,-0.4957573115825653,-0.013508489355444908,-0.056871116161346436,-0.01253354549407959,-0.03279256820678711
201,-2.0261976961291626,-1.1217349044265836,2.586486781372338,-0.3898767828941345,0.9008549451828003,0.19093602895736694,0.353674978017807,-0.4578300416469574,0.00046619807835668325,-0.04049736261367798,-0.000616908073425293,-0.05482769012451172
202,-2.0186432957453695,-1.1387895693905026,2.6378499791633665,-0.3774028718471527,0.9081273674964905,0.18130524456501007,0.15152707695960999,-0.3621751070022583,0.12302085012197495,0.006553351879119873,-0.00903385877609253,-0.034073129296302795
203,-2.0078859307183063,-1.1598073660217454,2.6810296009975483,-0.3619568645954132,0.9167261719703674,0.16911709308624268,0.3982175290584564,-0.14836625754833221,0.10711784660816193,0.013339310884475708,0.005270957946777344,-0.0030099153518676758
204,-2.0179998005554056,-1.1780756343569856,2.697047240259889,-0.3450681269168854,0.9238712787628174,0.16549833118915558,0.03914416953921318,-0.24852964282035828,0.1263599693775177,-0.002786487340927124,0.017809510231018066,-0.0022444874048233032
205,-2.0370763351211494,-1.188934909477093,2.7017391571791416,-0.3328668475151062,0.9279726147651672,0.16753016412258148,0.12040336430072784,-0.29341384768486023,0.09880069643259048,0.06200811266899109,0.029119551181793213,-0.02809537947177887
206,-2.0626712150326405,-1.195301100980969,2.7084514621506934,-0.32325664162635803,0.9303261041641235,0.17320053279399872,-0.02421291172504425,-0.3161765933036804,0.0025324728339910507,0.08720317482948303,0.05616980791091919,-0.0035990625619888306
207,-2.0915020197361507,-1.195971892891522,2.7116829663123236,-0.3175884187221527,0.9305719137191772,0.18213671445846558,0.011253018863499165,-0.3206193447113037,0.0024337824434041977,0.08258777856826782,0.006485700607299805,-0.018821820616722107
208,-2.101075509999653,-1.1980279853338207,2.724754018572289,-0.31417837738990784,0.9313226938247681,0.18420030176639557,0.05391600728034973,-0.11313923448324203,0.0012291123857721686,0.09457391500473022,0.07792401313781738,0.03523634374141693
209,-2.129164121082209,-1.2034231213436763,2.705129935310475,-0.30461564660072327,0.9332740306854248,0.19028672575950623,-0.10253743827342987,-0.06599043309688568,-0.036490458995103836,0.01912367343902588,0.013335585594177246,0.003957659006118774
210,-2.1478327756611866,-1.203319443202243,2.6934375129276646,-0.3010914921760559,0.9332367777824402,0.19599279761314392,0.12645292282104492,0.018152950331568718,-0.04387974366545677,0.03629043698310852,-0.00266420841217041,-0.011681914329528809
211,-2.1235457861037603,-1.2075858277335874,2.721979950738517,-0.3023706078529358,0.9347610473632812,0.18653078377246857,0.021599056199193,-0.11684282124042511,-0.04924650490283966,0.006731599569320679,0.036888062953948975,0.010948404669761658
212,-2.1239746053545288,-1.2042258302503093,2.7343413919160855,-0.3049611747264862,0.9335620403289795,0.1883094757795334,-0.03029482252895832,-0.1457727551460266,-0.12163539975881577,0.021819084882736206,-0.006666958332061768,0.035445436835289
213,-2.1240326504985303,-1.1882562789081634,2.747857334978021,-0.3175956606864929,0.9277194738388062,0.19613657891750336,-0.025241872295737267,-0.09067067503929138,-0.2416805475950241,0.025527209043502808,0.029052376747131348,0.04908740520477295
214,-2.1291492243007966,-1.1693611129181742,2.749495218888534,-0.3313978910446167,0.920501172542572,0.2070101499557495,-0.02840709686279297,-0.001788899302482605,-0.15595097839832306,-0.0030137300491333008,0.02946525812149048,-0.04751002788543701
215,-2.11596789257526,-1.1593289204936303,2.7600272308540363,-0.3419768214225769,0.9165349006652832,0.2074025720357895,-0.14352601766586304,0.12588228285312653,-0.10191097110509872,0.015453994274139404,-0.008881092071533203,0.027796387672424316
216,-2.1240109622782124,-1.1480163754296167,2.73503432541202,-0.3490973711013794,0.9119518399238586,0.2155805379152298,-0.1083562970161438,0.23113374412059784,-0.04848203808069229,0.015799641609191895,0.011723756790161133,-0.03377196192741394
217,-2.1154544053054036,-1.1388369424114273,2.713087402724673,-0.35807403922080994,0.9081472158432007,0.21691380441188812,-0.15984293818473816,0.30476999282836914,-0.024134155362844467,-0.021137356758117676,0.01563507318496704,-0.04371131956577301
218,-2.1109495876306874,-1.1306669864137138,2.682032906234634,-0.36539870500564575,0.9046965837478638,0.21910694241523743,-0.1782204508781433,0.3463065028190613,0.008248712867498398,-0.01863446831703186,-0.002368152141571045,-0.04781176149845123
219,-2.104109288587581,-1.12515589623377,2.6498045736977556,-0.37117648124694824,0.9023348093032837,0.2191336750984192,-0.12942053377628326,0.4009552299976349,0.046340931206941605,-0.011849582195281982,0.026116549968719482,-0.045488759875297546
220,-2.095048580702743,-1.1212099390742825,2.6201057566605694,-0.3762264549732208,0.9006269574165344,0.2175423800945282,-0.16385149955749512,0.1806125044822693,0.028363211080431938,-0.0516451895236969,-0.0369642972946167,-0.08495882153511047
221,-2.0880076487610895,-1.117834280422967,2.6039227427883036,-0.38038909435272217,0.899154782295227,0.2163899689912796,-0.026929009705781937,0.30906856060028076,0.0032227470073848963,-0.15397363901138306,0.0233457088470459,-0.03857937455177307
222,-2.0609879314903297,-1.1190098332539489,2.599380620669868,-0.3851638734340668,0.8996685743331909,0.2055366486310959,-0.0239793099462986,0.2911722958087921,0.047631099820137024,-0.04173123836517334,-0.025217890739440918,-0.020004987716674805
223,-2.047279264924175,-1.121714874877498,2.577961248312076,-0.3857814073562622,0.9008462429046631,0.19912056624889374,-0.19321325421333313,0.3447929322719574,0.09226671606302261,-0.08496758341789246,-0.007642388343811035,-0.02677246928215027
224,-2.0476257736205237,-1.1234185765169769,2.5422326105040467,-0.3843480944633484,0.9015845656394958,0.19854946434497833,-0.17758797109127045,0.3493605852127075,0.11007614433765411,-0.126027911901474,0.0008050203323364258,-0.034013956785202026
225,-2.053476884845367,-1.1267394898206686,2.499186582595153,-0.38052546977996826,0.9030162692070007,0.19940398633480072,-0.13168826699256897,0.3673132359981537,0.14588084816932678,-0.03320127725601196,0.004118740558624268,-0.04432894289493561
226,-2.0556471194323698,-1.1374240693334734,2.450160158157081,-0.37153419852256775,0.9075548052787781,0.19572125375270844,-0.10213244706392288,0.4385702610015869,0.22703693807125092,0.003217548131942749,0.0007551908493041992,-0.03522932529449463
227,-2.0657891575964067,-1.149236567486515,2.389203449394495,-0.36007067561149597,0.9124518036842346,0.19437286257743835,-0.13506999611854553,0.4121842086315155,0.1776110976934433,-0.02902841567993164,0.0045098066329956055,-0.021750211715698242
228,-2.097029290433882,-1.1557151956357616,2.315228706212912,-0.3487049341201782,0.9150835871696472,0.2025514841079712,-0.3046288788318634,0.33367103338241577,0.23863628506660461,0.037242501974105835,0.005357146263122559,-0.034750550985336304
229,-2.1328062196506643,-1.1674836437678695,2.2413306157543933,-0.3321002721786499,0.9197659492492676,0.20914113521575928,-0.0879581868648529,0.31440600752830505,0.2636967897415161,0.00034365057945251465,0.031192302703857422,-0.004520773887634277
230,-2.1662467366448563,-1.179737001901105,2.1754971797054368,-0.31556734442710876,0.9245057702064514,0.21379008889198303,-0.11950600147247314,0.33796095848083496,0.2103181928396225,0.041321128606796265,0.03643167018890381,-0.022765278816223145
231,-2.179560542095404,-1.1873591362788507,2.1240573928076496,-0.30690330266952515,0.9273842573165894,0.2139364629983902,-0.22869150340557098,0.3940192759037018,0.15144053101539612,0.032321393489837646,0.0070792436599731445,0.028312087059020996
232,-2.1936626703140014,-1.1861515858178167,2.0626210864602794,-0.3047654330730438,0.9269317984580994,0.21889628469944,-0.11709604412317276,0.3492633104324341,0.1081332191824913,0.015977591276168823,0.019250452518463135,-0.0030606985092163086
233,-2.2084269383577078,-1.184895588492262,2.0104832730144193,-0.30243563652038574,0.926459789276123,0.22406470775604248,-0.09396807104349136,0.324200838804245,0.06286334246397018,0.015967130661010742,0.008049488067626953,-0.03484046459197998
234,-2.195770752497278,-1.1814715968931069,1.9883247769690657,-0.3078177273273468,0.925165593624115,0.2220737189054489,-0.11604136973619461,0.31566840410232544,-0.003363169962540269,0.021379739046096802,0.013265132904052734,0.01828262209892273
235,-2.1909706987473645,-1.1724369641083787,1.9644647251061256,-0.3156696856021881,0.9216986298561096,0.2254425287246704,-0.09986920654773712,0.17791132628917694,-0.02562735788524151,0.0026966333389282227,0.03011411428451538,-0.00757753849029541
236,-2.1970477718567865,-1.1607678500071874,1.9391151887246785,-0.32298651337623596,0.917109489440918,0.23364490270614624,-0.2226843386888504,0.12482401728630066,-0.04207443818449974,0.00419992208480835,-0.009303092956542969,-0.033358097076416016
237,-2.21285034877051,-1.1470919972627953,1.9113211077403354,-0.3292687237262726,0.9115722179412842,0.2462078481912613,-0.14341174066066742,0.07246674597263336,-0.07008553296327591,-0.01840275526046753,0.01823735237121582,-0.027534127235412598
238,-2.2423664368630587,-1.131485378595409,1.884681526629748,-0.33295679092407227,0.9050449132919312,0.26463836431503296,-0.18363232910633087,-0.058783628046512604,-0.03951799124479294,-0.025578975677490234,0.006164133548736572,-0.040318965911865234
239,-2.249607295428986,-1.1246389736578954,1.8830294314354137,-0.3358466625213623,0.9021118879318237,0.2709263861179352,-0.009471455588936806,-0.0032848287373781204,-0.03656487911939621,-0.028640002012252808,-0.0019501447677612305,-0.043967247009277344
240,-2.2298989017537663,-1.1201424237676678,1.8992535726283066,-0.3443240821361542,0.9001624584197998,0.26673680543899536,-0.1186872124671936,0.04771857336163521,-0.046698592603206635,-0.04974943399429321,0.03326338529586792,-0.007673144340515137
241,-2.227632059473283,-1.1128850196305737,1.9010045761145102,-0.35009193420410156,0.8969778418540955,0.2699373662471771,0.0539492629468441,-0.0251008290797472,-0.026975078508257866,-0.00198933482170105,-0.01816326379776001,-0.0699557363986969
242,-2.1944527700839367,-1.118425673149348,1.9336490088097877,-0.3548148274421692,0.8994134068489075,0.25526922941207886,0.08377872407436371,0.011176414787769318,-0.028524814173579216,-0.019925802946090698,0.00158768892288208,-0.0016680657863616943
243,-2.1831361987285614,-1.1184793075769959,1.9505174387310387,-0.3576408922672272,0.899436891078949,0.2512096166610718,0.09792448580265045,-0.06326433271169662,-0.03277745470404625,-0.014566749334335327,-0.008079469203948975,-0.028767019510269165
244,-2.1640132712687548,-1.1210873888709643,1.9790254411202943,-0.3604326844215393,0.9005736708641052,0.24301265180110931,0.07841705530881882,-0.08080564439296722,-0.03163401037454605,-0.009760737419128418,0.0036773085594177246,-0.007188126444816589
245,-2.1563520134122807,-1.1208918613655798,2.00300602953932,-0.3624308109283447,0.9004886746406555,0.2403416484594345,0.042847681790590286,-0.18061818182468414,-0.040874071419239044,-0.007030218839645386,-0.0028293728828430176,-0.018799319863319397
246,-2.139759833702097,-1.1222321076807258,2.0369903332290957,-0.3653513491153717,0.9010707139968872,0.23364481329917908,0.08241458237171173,-0.17996437847614288,-0.07292183488607407,0.002649933099746704,0.018484890460968018,0.016355261206626892
247,-2.145146325432604,-1.1168676038515937,2.0463871932730786,-0.36814069747924805,0.8987312912940979,0.23823226988315582,-0.019935276359319687,-0.1952783465385437,-0.09828383475542068,-0.002007007598876953,0.0179099440574646,-0.00808405876159668
248,-2.152019576381645,-1.1124829968323942,2.0578225637686245,-0.36978423595428467,0.8968000411987305,0.2429179847240448,0.08868052810430527,-0.20174531638622284,-0.08438069373369217,-0.036206334829330444,-0.00948631763458252,-0.015638381242752075
249,-2.1406549956559218,-1.1090037428660138,2.104784883817614,-0.3751458525657654,0.8952552676200867,0.2403818964958191,0.22513723373413086,-0.43903324007987976,-0.18360136449337006,-0.07480528950691223,-0.006552934646606445,-0.01987721025943756
250,-2.1210197714189563,-1.1052935305132894,2.1875787335989516,-0.3826224207878113,0.8935959935188293,0.23470544815063477,0.3742501139640808,-0.6797552108764648,-0.2529565691947937,-0.032142043113708496,-0.009165942668914795,-0.029749363660812378
251,-2.100733308488394,-1.1068089538919548,2.299825112145143,-0.38613587617874146,0.8942751884460449,0.22621089220046997,0.4844490885734558,-0.8416761755943298,-0.23760151863098145,-0.016848832368850708,0.01829206943511963,-0.012511461973190308
252,-2.0855549409432537,-1.107184791859963,2.4165902197081826,-0.3892318606376648,0.8944433331489563,0.22015847265720367,0.24674272537231445,-0.6809585094451904,-0.2092311680316925,0.050395190715789795,0.0157586932182312,0.024882420897483826
253,-2.125595224896807,-1.093239325528888,2.438799246024742,-0.3906725347042084,0.8881204128265381,0.24211052060127258,-0.3195457458496094,-0.2922707498073578,0.07423542439937592,0.0905015766620636,0.009996771812438965,0.030045300722122192
254,-2.4014507654841477,-1.0926431422563334,2.317617940447921,-0.3103153705596924,0.8878462314605713,0.33975523710250854,-0.3149523138999939,-1.036414384841919,0.2912481725215912,0.0646946132183075,0.07490718364715576,0.05025938153266907
255,-2.4505609788941993,-1.134724670536157,2.3463345218141094,-0.2691980302333832,0.9064179062843323,0.32548317313194275,0.21847647428512573,-0.24144312739372253,0.0765887126326561,-0.1367620825767517,-0.034515321254730225,0.010454446077346802
256,-2.466565038215139,-1.1490754745344862,2.3480694093400887,-0.2557986080646515,0.912385880947113,0.3195604085922241,0.17149600386619568,-0.6664143204689026,-0.1099170595407486,0.022690117359161377,-0.006456434726715088,-0.002513319253921509
257,-2.474466060356556,-1.1453875296875815,2.398579758365415,-0.2553459405899048,0.9108700752258301,0.3242126405239105,0.20987409353256226,-0.3284252882003784,-0.28604915738105774,-0.09054023027420044,0.04098832607269287,-0.028955131769180298
258,-2.4115749697236284,-1.1372948421974425,2.503938475336182,-0.2801245450973511,0.9075005054473877,0.3130060136318207,0.19366276264190674,-0.3293478488922119,-0.2986469566822052,0.01393502950668335,0.0035558342933654785,0.018277466297149658
259,-2.3932272508379144,-1.126170784800469,2.590950223399852,-0.29267144203186035,0.9027717709541321,0.3151926100254059,0.15525400638580322,-0.700316846370697,-0.32047757506370544,-0.02431461215019226,-0.01074308156967163,-0.039145857095718384
260,-2.383998001888106,-1.1222842722690134,2.685519428380051,-0.29797691106796265,0.9010933041572571,0.3150249123573303,0.3367130756378174,-0.8251983523368835,-0.3423610031604767,-0.031246691942214966,-0.01059037446975708,-0.03243207931518555
261,-2.3647483279947807,-1.1232859561772068,2.806169049434012,-0.30335232615470886,0.9015272259712219,0.30858689546585083,0.3405217230319977,-0.7485104203224182,-0.3420143127441406,-0.019035309553146362,0.007301390171051025,-0.00632554292678833
262,-2.3452017639237726,-1.1202389263397379,2.9102628076583774,-0.31128808856010437,0.9002045392990112,0.3045184016227722,0.21802836656570435,-0.6454079747200012,-0.25066956877708435,0.0023128390312194824,0.01144707202911377,-0.018110990524291992
263,-2.33256555015859,-1.1235621026424765,2.9938178692544852,-0.31294482946395874,0.9016466736793518,0.29849445819854736,0.3435385525226593,-0.5272312760353088,-0.17521043121814728,0.011003881692886353,0.022379815578460693,-0.026445508003234863
264,-2.3203533521235316,-1.1346526765950324,3.05906843572932,-0.30922776460647583,0.9063875079154968,0.2878197133541107,0.1638951301574707,-0.3623462915420532,-0.04010823369026184,0.01192551851272583,0.02616870403289795,0.020179033279418945
265,-2.324877802838239,-1.140289398766727,3.0892234384124113,-0.3041931092739105,0.908754289150238,0.28571316599845886,0.04623929783701897,-0.24147649109363556,-0.030372895300388336,-0.007162421941757202,-0.010698378086090088,0.025566071271896362
266,-2.3314052972019534,-1.1424680963083484,3.102464603995188,-0.3008866012096405,0.9096614122390747,0.2863270938396454,0.11740463972091675,-0.17646053433418274,-0.039164673537015915,-0.01922750473022461,0.004690945148468018,-0.02129724621772766
267,-2.324941915868739,-1.1451457820519204,3.1275984460905715,-0.3009547293186188,0.9107702970504761,0.2827078402042389,0.046192020177841187,-0.2503388822078705,-0.030212875455617905,0.004674851894378662,0.0025750398635864258,-0.006340622901916504
268,-2.328751728329687,-1.1473549687708826,-3.136362860293871,-0.2984137535095215,0.911680281162262,0.2824687361717224,0.11079321801662445,-0.24854589998722076,-0.050511185079813004,0.005139797925949097,0.016557753086090088,-0.0131358802318573
269,-2.333220205047839,-1.1531879699297696,-3.1114222525993096,-0.293297678232193,0.9140615463256836,0.28012147545814514,0.11688130348920822,-0.3862038552761078,-0.044089846312999725,0.0062035322189331055,0.005417823791503906,-0.004975080490112305
270,-2.343760148443061,-1.1578723571636877,-3.085807986817494,-0.2872602045536041,0.9159513711929321,0.28020378947257996,0.11765872687101364,-0.429459810256958,-0.07564260065555573,0.012663066387176514,0.013033926486968994,-0.01804262399673462
271,-2.3566775884531697,-1.1586802153468485,-3.060875536473919,-0.28309446573257446,0.9162752628326416,0.2833681106567383,0.09057937562465668,-0.43454229831695557,-0.11589045822620392,0.037885695695877075,0.03802478313446045,-0.012494057416915894
272,-2.362134283849303,-1.1575965332657665,-3.040292133772566,-0.28224122524261475,0.9158406853675842,0.2856141924858093,0.05649985745549202,-0.31572309136390686,-0.05018472298979759,0.11378422379493713,0.056418776512145996,0.010573774576187134
273,-2.3852827872261932,-1.1656217400194906,-3.048846338912586,-0.27050238847732544,0.9190335869789124,0.2867155075073242,0.026353277266025543,-0.2333252727985382,0.08446184545755386,0.05863410234451294,0.010547101497650146,0.05058002471923828
274,-2.4206663965830497,-1.1676883845138695,-3.07369237217999,-0.25893542170524597,0.91984623670578,0.2946774363517761,-0.020373690873384476,-0.17187123000621796,-0.014403287321329117,0.009057551622390747,-0.004792213439941406,0.01733413338661194
275,-2.436855827357951,-1.165689914593674,-3.077521766784197,-0.255321741104126,0.919060468673706,0.3002307713031769,0.05788935348391533,-0.2937796413898468,-0.09017318487167358,0.008007317781448364,0.02666395902633667,-0.007353693246841431
276,-2.42728641050872,-1.167732668669753,-3.0471926274903707,-0.2569527328014374,0.9198636412620544,0.29635483026504517,0.1202751100063324,-0.22649362683296204,-0.11511524766683578,0.061258792877197266,0.019253790378570557,0.02531573176383972
277,-2.4137402241210792,-1.161825905618071,-3.0263932981350945,-0.26455333828926086,0.9175307154655457,0.29689821600914,0.03800114989280701,0.020151948556303978,-0.12968920171260834,0.10461077094078064,0.0053969621658325195,0.006064951419830322
278,-2.413322958281309,-1.1619834484573928,-3.036125852933323,-0.2645811140537262,0.9175933599472046,0.2966800332069397,-0.022385962307453156,0.08146022260189056,-0.05976216867566109,0.013177365064620972,0.04844045639038086,0.01116594672203064
279,-2.400782634143864,-1.1676358791392352,-3.0359489730974407,-0.2647760510444641,0.9198256731033325,0.2895068824291229,0.13586831092834473,0.07903680950403214,-0.0264421459287405,0.067678302526474,0.011143505573272705,0.0027446448802948
280,-2.3833465715335094,-1.1791394272122013,-3.051659064791089,-0.2624897360801697,0.9242778420448303,0.27714553475379944,-0.12709063291549683,0.3432215452194214,0.06366294622421265,0.023872792720794678,0.03549998998641968,0.05329883098602295
281,-2.3836749043594323,-1.1793290523965798,-3.0999498369220366,-0.2622780203819275,0.9243502020835876,0.2771041989326477,-0.025592245161533356,0.3814273476600647,0.0846218690276146,0.021555393934249878,0.009487569332122803,0.0036117732524871826
282,-2.3832413999998128,-1.1782634609279314,3.1315988595066147,-0.26307523250579834,0.9239431023597717,0.27770525217056274,-0.20507733523845673,0.3752480745315552,0.1334691196680069,-0.0065322816371917725,0.028266191482543945,-0.015589863061904907
283,-2.3838303711767717,-1.1740375131543297,3.0861795650118844,-0.26559340953826904,0.9223183393478394,0.2806944251060486,-0.08700630068778992,0.40657004714012146,0.09298792481422424,-0.023820042610168457,-0.009537458419799805,-0.01838061213493347
284,-2.377797752583216,-1.1720071836817132,3.0562161489604422,-0.26857641339302063,0.9215318560600281,0.28043875098228455,-0.07848966866731644,0.30236726999282837,0.058995798230171204,-0.030328065156936646,0.021766602993011475,-0.015027374029159546
285,-2.380757656253458,-1.1649603320049136,3.029482299978407,-0.27221614122390747,0.9187726974487305,0.2859286963939667,-0.16670183837413788,0.17129825055599213,0.03816276788711548,-0.05642768740653992,-0.02277660369873047,-0.04091835021972656
286,-2.3659565581697746,-1.1625294605263408,3.035204229756926,-0.27798083424568176,0.9178102612495422,0.28346186876296997,0.12299927324056625,0.07873618602752686,-0.04378426447510719,-0.04600897431373596,-0.010141313076019287,-0.08412113785743713
287,-2.3098060982703243,-1.1692459077535249,3.0912428662851195,-0.28888824582099915,0.9204561114311218,0.2632567584514618,0.08175932615995407,0.0999891385436058,-0.04034855589270592,-0.005453735589981079,0.012420415878295898,0.025988906621932983
288,-2.299753575708826,-1.1659149936133473,3.0966966704887633,-0.2938048541545868,0.9191491603851318,0.26237988471984863,-0.04842047020792961,0.09222021698951721,-0.02392563782632351,-0.0018493831157684326,0.010736525058746338,0.011530578136444092
289,-2.3048525149289305,-1.1615237320988536,3.085780295066158,-0.2954573929309845,0.9174105525016785,0.2665761113166809,-0.004258749075233936,0.027811743319034576,-0.008201844058930874,-0.008772283792495728,0.014611542224884033,-0.02855423092842102
290,-2.292847497390125,-1.1621446082190565,3.0936714616804846,-0.29820868372917175,0.9176574349403381,0.26263341307640076,-0.02300213649868965,0.08743183314800262,-0.017938392236828804,0.01515817642211914,0.011511266231536865,0.008194804191589355
291,-2.279767166589853,-1.1645241806893774,3.092739455351138,-0.29996034502983093,0.9186003804206848,0.25728821754455566,0.03305631875991821,0.21302230656147003,0.05267726629972458,0.05055537819862366,0.01937270164489746,-0.007593363523483276
292,-2.275451600526154,-1.1741077697033426,3.0703032378867565,-0.29434746503829956,0.9223454594612122,0.2502770721912384,-0.053136277943849564,0.30320417881011963,0.12134043872356415,0.010701805353164673,0.006945431232452393,-0.007784456014633179
293,-2.259574798727746,-1.181704166489958,3.0484560594799155,-0.29286593198776245,0.9252538084983826,0.24111200869083405,-0.025762462988495827,0.4960293769836426,0.09844318777322769,0.013385951519012451,0.01853281259536743,0.012565374374389648
294,-2.24183838835061,-1.1868260064229175,3.001372773987703,-0.2933806777000427,0.9271846413612366,0.23293009400367737,-0.18121308088302612,0.6776065230369568,0.18944872915744781,0.008056551218032837,0.007233083248138428,-0.01321876049041748
295,-2.227311318901101,-1.1939033303321893,2.936947246031023,-0.29152804613113403,0.9298126101493835,0.22463279962539673,-0.08353126049041748,0.7842985391616821,0.22525908052921295,0.009698241949081421,-0.00397038459777832,-0.05182696878910065
296,-2.20726383502364,-1.2064434393153982,2.9019689914277724,-0.28657248616218567,0.9343545436859131,0.21179641783237457,-0.09490025788545609,0.7946102023124695,0.26814407110214233,-0.0034818053245544434,0.02026575803756714,-0.023182526230812073
297,-2.213254195897384,-1.2169148798801046,2.841206365540763,-0.27745017409324646,0.93803471326828,0.20763571560382843,-0.1774415671825409,0.6623502373695374,0.2264557033777237,-0.06025737524032593,0.0442500114440918,-0.03904125094413757
298,-2.2175631394984,-1.2233690208625112,2.792644277845798,-0.2717151641845703,0.9402517676353455,0.20517626404762268,-0.19973717629909515,0.5586826205253601,0.21403050422668457,-0.0484294593334198,-0.03479534387588501,0.0012141168117523193
299,-2.229820217442314,-1.2306104986587014,2.7488857169980414,-0.2637902498245239,0.9426926970481873,0.204316645860672,0.07975799590349197,0.3367179334163666,0.136905699968338,-0.052387118339538574,0.01560509204864502,-0.06723165512084961
300,-2.208899901090034,-1.2401803829007183,2.7544238509629517,-0.2607482075691223,0.9458425641059875,0.19337095320224762,-0.0720755010843277,0.3125930428504944,0.06123672053217888,-0.048837363719940186,-0.0019338130950927734,0.026523500680923462
301,-2.195988023472944,-1.2394279917864337,2.7574452829680824,-0.2638002336025238,0.9455980658531189,0.19040466845035553,0.0012526661157608032,0.171274796128273,-0.03836650773882866,-0.060540616512298584,-0.006297409534454346,-0.017583578824996948
302,-2.158372246606357,-1.2299811211107938,2.7940828880963746,-0.2781961262226105,0.9424824714660645,0.18529267609119415,-0.02527608349919319,0.10762736946344376,-0.07662582397460938,-0.02046409249305725,-0.007256209850311279,0.009485691785812378
303,-2.157650610331783,-1.221574626712355,2.81040126582082,-0.28491777181625366,0.9396393299102783,0.189472958445549,0.010372744873166084,-0.11644040793180466,-0.0615990124642849,-0.06330302357673645,0.01015925407409668,-0.02975916862487793
304,-2.139513646727058,-1.2181888824946607,2.863005479542043,-0.29098594188690186,0.9384754300117493,0.1859866827726364,0.15225070714950562,-0.283172070980072,-0.07186215370893478,-0.04218968749046326,0.004410862922668457,-0.04075348377227783
305,-2.118322305665049,-1.2140008393544108,2.9366912912812237,-0.29821455478668213,0.9370208978652954,0.18182331323623657,0.09206008911132812,-0.4226720631122589,-0.1708807796239853,-0.04194959998130798,0.01914048194885254,-0.011626854538917542
306,-2.103331900521239,-1.204517939394146,3.0129351863805107,-0.3085480332374573,0.9336667060852051,0.18183603882789612,0.2382599413394928,-0.48293787240982056,-0.22575689852237701,-0.02371203899383545,-0.006237626075744629,-0.043072715401649475
307,-2.0669966498837025,-1.1986819330800238,3.114930950851358,-0.319737046957016,0.9315606355667114,0.17309892177581787,0.26502567529678345,-0.4235481321811676,-0.21143177151679993,-0.0021776556968688965,0.01298898458480835,-0.008822783827781677
308,-2.0382127037299034,-1.193193017978826,-3.080889505880149,-0.3291458785533905,0.9295509457588196,0.16612645983695984,0.14879953861236572,-0.4660925269126892,-0.1468319147825241,0.0032944679260253906,-0.011750102043151855,-0.01694120466709137
309,-2.02340823987067,-1.1904903630157033,-3.0072698140248337,-0.33382681012153625,0.9285510778427124,0.16233347356319427,0.30439627170562744,-0.4841730296611786,-0.1778912991285324,-0.028142094612121582,0.01699012517929077,-0.033946067094802856
310,-2.0002955659574564,-1.1878386109657741,-2.926141141011706,-0.3397269546985626,0.927563488483429,0.15560007095336914,0.2681001126766205,-0.4883842468261719,-0.1400160789489746,-0.015177220106124878,0.014422476291656494,-0.034323230385780334
311,-1.9817807184298486,-1.187496140001054,-2.8498431462843676,-0.34284093976020813,0.9274354577064514,0.14941078424453735,0.23622174561023712,-0.5397993326187134,-0.0676894411444664,0.014090359210968018,0.001840054988861084,-0.01701033115386963
312,-1.9891819134929793,-1.191559483756641,-2.8021257348208217,-0.33827900886535645,0.9289474487304688,0.15041156113147736,0.18614989519119263,-0.48806461691856384,-0.042979806661605835,-0.01314610242843628,0.032646000385284424,-0.010015517473220825
313,-1.999458083617429,-1.1964520307401187,-2.7740853173225757,-0.33257856965065,0.9307475686073303,0.1519891768693924,0.02875198796391487,-0.3530884385108948,0.07332822680473328,0.03777870535850525,-0.0031351447105407715,0.012470021843910217
314,-2.0512230032358105,-1.2069153671805257,-2.803548848225899,-0.31561484932899475,0.9345226287841797,0.1644837111234665,-0.055578432977199554,-0.3490663468837738,0.16198456287384033,-0.04832255840301514,0.06146430969238281,-0.05336916446685791
315,-2.0738860309945166,-1.216611867411704,-2.797329922920162,-0.3038526177406311,0.937929630279541,0.16721650958061218,0.06401669979095459,-0.46552157402038574,0.06941809505224228,-0.011531263589859009,-0.007342040538787842,-0.029002323746681213
316,-2.0810065302535756,-1.227379650560571,-2.7618132351913256,-0.29382407665252686,0.9416097402572632,0.16443414986133575,0.20649847388267517,-0.4481487274169922,-0.030098646879196167,-0.0029746294021606445,0.021937012672424316,0.037744760513305664
317,-2.0913005880811464,-1.2299490858065214,-2.7464766157883336,-0.29001590609550476,0.9424718022346497,0.16624628007411957,0.039686936885118484,-0.4505847692489624,-0.022578829899430275,0.03176093101501465,-0.018948853015899658,0.007475018501281738
318,-2.119060136144103,-1.230401580437441,-2.73727417092417,-0.2849258780479431,0.9426229596138,0.17400963604450226,0.14363139867782593,-0.5496110320091248,-0.08678261190652847,-0.0007033944129943848,0.007419764995574951,-0.02613663673400879
319,-2.1190761927588433,-1.2289040895381107,-2.6920109420436433,-0.2861276865005493,0.9421219229698181,0.17474991083145142,0.08926010876893997,-0.4369221329689026,-0.0900304839015007,0.07079562544822693,0.019654929637908936,0.018441691994667053
320,-2.1418179062411977,-1.22543421709464,-2.6720762730817977,-0.28482818603515625,0.9409528970718384,0.18297670781612396,0.02329077571630478,-0.41211631894111633,-0.056125227361917496,0.06096652150154114,0.018595993518829346,0.00432489812374115
321,-2.157310697223492,-1.2219151035206646,-2.6560121305374627,-0.284715473651886,0.9397557377815247,0.18919888138771057,0.05440150946378708,-0.19948159158229828,-0.03957555815577507,0.07339650392532349,0.06444042921066284,0.019861817359924316
322,-2.181571667869304,-1.2224967519576437,-2.657078108539875,-0.2795943319797516,0.939954400062561,0.1957366019487381,-0.03676886111497879,-0.20337730646133423,0.03201039507985115,0.04761496186256409,0.02697986364364624,0.004977494478225708
323,-2.2216040512789084,-1.2318960020688154,-2.682354831758318,-0.26449596881866455,0.9431208372116089,0.20140831172466278,-0.05148635804653168,-0.08261498808860779,0.13402603566646576,0.03372201323509216,-0.036367177963256836,-0.004417389631271362
324,-2.258087047404149,-1.250085198146224,-2.707427757724098,-0.24367165565490723,0.949011504650116,0.20000362396240234,0.14363616704940796,-0.16930101811885834,0.18377012014389038,0.025959253311157227,0.03846108913421631,0.034691810607910156
325,-2.315183423544008,-1.2614591099359451,-2.762365473350654,-0.22390694916248322,0.9525355696678162,0.20625562965869904,-0.18539837002754211,-0.051424264907836914,0.18119709193706512,0.033416301012039185,0.01683986186981201,0.0413028746843338
326,-2.4048894063013484,-1.2589939935904462,-2.8595176333937475,-0.20610623061656952,0.9517822265625,0.22722388803958893,-0.280315101146698,0.13533839583396912,0.18386210501194,-0.030939027667045593,-0.0005799531936645508,0.017847493290901184
327,-2.445091270188586,-1.2543121963029829,-2.9342192740011033,-0.19966383278369904,0.9503355026245117,0.238739475607872,-0.0667034462094307,0.34104329347610474,0.11036703735589981,0.10544084012508392,0.03542792797088623,0.005187481641769409
328,-2.5622581630148273,-1.2245572216437548,-3.074194066253153,-0.18578998744487762,0.9406556487083435,0.28398802876472473,-0.5578568577766418,-0.37203970551490784,0.45672276616096497,0.16401568055152893,-0.024197399616241455,-0.028082937002182007
329,-2.760665161852068,-1.2401484655247785,3.0359689466898176,-0.12070108950138092,0.9458321928977966,0.3013845980167389,0.15109683573246002,-0.8315293788909912,0.350876122713089,-0.21960040926933289,0.0632162094116211,-0.059410691261291504
330,-2.8298275150701127,-1.2409403084761974,2.9973394396752235,-0.09935496002435684,0.946088969707489,0.30829259753227234,-0.1500711590051651,-0.5397989153862,-0.06639011204242706,-0.13947561383247375,0.012452900409698486,-0.0025064945220947266
331,-2.8246897253854395,-1.2385022631918867,3.0375924155635645,-0.10165603458881378,0.9452964663505554,0.3099687695503235,0.026663852855563164,0.002810109406709671,-0.18165956437587738,0.013399198651313782,-0.03312605619430542,0.04330265522003174
332,-2.7908331611717325,-1.2393134165976218,3.034673610533183,-0.11182678490877151,0.9455607533454895,0.30562999844551086,5.5530108511447906e-05,0.3606271743774414,0.07296095788478851,-0.011738881468772888,0.012172400951385498,-0.008800745010375977
333,-2.7895438618778234,-1.2445879652014848,3.000710230170314,-0.11049957573413849,0.9472641944885254,0.30080023407936096,0.054107699543237686,-0.060865625739097595,0.031588438898324966,-0.0826461911201477,0.01275789737701416,-0.09379944205284119
334,-2.7777040797549435,-1.2632020941846338,3.031065388856922,-0.10775782912969589,0.9530647397041321,0.28294116258621216,0.17680618166923523,-0.10798387229442596,-0.04374732822179794,-0.07414218038320541,-0.025681376457214355,0.08218631148338318
335,-2.749570456919562,-1.2641319919463707,3.0558714250833114,-0.11533565819263458,0.9533458352088928,0.2789788544178009,-0.0390738844871521,-0.03949500247836113,-0.12481625378131866,-0.07819156348705292,-0.019859015941619873,-0.006273776292800903
336,-2.6957385293714915,-1.2419910555161593,3.0863494486659615,-0.1392492800951004,0.9464288353919983,0.2913457453250885,-0.13359223306179047,0.19578950107097626,-0.27124133706092834,-0.1327691674232483,0.033017635345458984,-0.04105579853057861
337,-2.5328410101702508,-1.226174712373842,-3.046013029442985,-0.19319194555282593,0.9412033557891846,0.27715161442756653,0.2677692770957947,0.006751864217221737,-0.5164163112640381,0.10083049535751343,0.030567824840545654,0.05022570490837097
338,-2.464073088004747,-1.2104872589584326,-2.9541585611618046,-0.2210085242986679,0.9357879161834717,0.27469247579574585,-0.13355602324008942,-0.30933916568756104,-0.15568172931671143,0.2351687103509903,0.015261709690093994,0.02836233377456665
339,-2.4943215072354303,-1.1895890406462895,-2.950997477411367,-0.22434557974338531,0.9282161593437195,0.2967897653579712,-0.0275164432823658,-0.2285141795873642,-0.13877473771572113,0.01996934413909912,-0.009545385837554932,-0.031958192586898804
340,-2.474896808397278,-1.1838705799287212,-2.923662224326077,-0.23334625363349915,0.9260734915733337,0.29654234647750854,0.0610271580517292,-0.022111035883426666,-0.10954996198415756,0.045144349336624146,-0.00468677282333374,0.00944209098815918
341,-2.4599541814378942,-1.1867003312407793,-2.9071020190931445,-0.2360987365245819,0.927137553691864,0.29098600149154663,0.09444105625152588,-0.028780093416571617,-0.03427045792341232,0.055434733629226685,0.023133814334869385,-0.013032019138336182
342,-2.453614889513504,-1.1931981962139768,-2.9075136912426145,-0.23410862684249878,0.9295528531074524,0.28482377529144287,-0.03985438495874405,0.06749267876148224,-0.03366750851273537,0.04035255312919617,0.026425480842590332,0.04165324568748474
343,-2.4526657897239934,-1.1874380492213397,-2.9337533484381164,-0.2377789169549942,0.9274137616157532,0.28873008489608765,-0.0554996095597744,0.190524622797966,-0.08160731941461563,0.04881405830383301,0.009109675884246826,0.02035200595855713
344,-2.448783438025811,-1.1819057679902976,-2.9569423152502057,-0.24217115342617035,0.9253302812576294,0.29174789786338806,-0.03597725182771683,0.07166138291358948,-0.05371016263961792,0.002226710319519043,0.009514570236206055,-0.020385652780532837
345,-2.42890818236387,-1.1799586080900062,-2.949762759937952,-0.24909915030002594,0.9245902299880981,0.28824007511138916,0.006351810414344072,0.03803076595067978,-0.11120586842298508,0.03459113836288452,0.022080183029174805,0.027815192937850952
346,-2.405632743527781,-1.1734808822821212,-2.947337892468964,-0.25975507497787476,0.9221031069755554,0.28679773211479187,-0.049700044095516205,0.2361304610967636,-0.06109325960278511,0.04985523223876953,0.04412907361984253,0.03620034456253052
347,-2.3997602648973615,-1.1638610214737095,-2.9761076731945697,-0.26741617918014526,0.9183381199836731,0.2917940318584442,-0.16893123090267181,0.22565273940563202,-0.03321942314505577,0.006170451641082764,0.0005461573600769043,-0.0197298526763916
348,-2.397008512443943,-1.1541365870080065,-2.9984035181032014,-0.2742571532726288,0.9144458770751953,0.2976103127002716,-0.09513793140649796,0.15472173690795898,-0.012934819795191288,-0.06290104985237122,-0.019792556762695312,-0.04260540008544922
349,-2.369122877810256,-1.1486726897038175,-2.979418027306901,-0.28593090176582336,0.9122209548950195,0.2934213876724243,-0.013930420391261578,0.09951218217611313,-0.07013392448425293,-0.04553574323654175,-0.015431582927703857,-0.019098937511444092
350,-2.33521515088638,-1.14546838983783,-2.9468624990494567,-0.2978224456310272,0.9109034538269043,0.28558123111724854,0.054433975368738174,0.0035380348563194275,-0.0379471480846405,-0.05605936050415039,-0.024322092533111572,-0.03352132439613342
351,-2.308397752305824,-1.145361274121623,-2.909975107447573,-0.3054454028606415,0.9108592867851257,0.27755847573280334,0.10703030973672867,-0.08153149485588074,-0.05910259485244751,-0.0899861752986908,-0.04959207773208618,-0.07466229796409607
352,-2.260194010058155,-1.1500059689588251,-2.826236365843161,-0.3151969611644745,0.9127663969993591,0.2598244249820709,0.43956369161605835,-0.26895931363105774,-0.10800865292549133,-0.08348473906517029,-0.03825455904006958,-0.09184035658836365
353,-2.193575141535978,-1.1798002651090136,-2.7024875314348797,-0.3095606565475464,0.9245299100875854,0.22229935228824615,0.4597018361091614,-0.5051921010017395,0.02571510151028633,-0.068246990442276,0.0205690860748291,0.025213509798049927
354,-2.1521395869538855,-1.2068217530226832,-2.604974580949745,-0.29751065373420715,0.9344893097877502,0.1954912692308426,0.38251715898513794,-0.34376683831214905,0.005490557290613651,-0.12379971146583557,0.04739832878112793,0.04309508204460144
355,-2.1084477901929763,-1.2235535144418146,-2.5242352530508936,-0.29229357838630676,0.9403145909309387,0.1742776334285736,0.16827541589736938,-0.30709823966026306,0.05368373543024063,-0.05141058564186096,-0.04206031560897827,0.03839932382106781
356,-2.1359919144820356,-1.2367594488866522,-2.517546950306853,-0.2768719494342804,0.9447265267372131,0.1755952537059784,0.1541440337896347,-0.2040121704339981,0.1134943887591362,-0.1345202624797821,0.11528629064559937,0.01594829559326172
357,-2.124470990889872,-1.2434272373219437,-2.4894920549283004,-0.27351245284080505,0.9468916058540344,0.16907790303230286,-0.09802474081516266,-0.20384064316749573,0.05513079836964607,0.045210450887680054,-0.061652958393096924,0.06184864044189453
358,-2.1889537662396497,-1.2402618112625938,-2.5333071174250295,-0.2644904851913452,0.9458690285682678,0.18808738887310028,0.023923035711050034,-0.06237565353512764,0.058249279856681824,-0.03850331902503967,0.036461472511291504,-0.006401032209396362
359,-2.1979295466208115,-1.2411513037434836,-2.543200344875264,-0.2621094882488251,0.9461573362350464,0.18995940685272217,-0.1766289621591568,-0.03081078641116619,0.07819245755672455,0.03518080711364746,-0.014074385166168213,0.04046352207660675
360,-2.276815327930172,-1.235255771609087,-2.609338305300951,-0.2505657374858856,0.9442324638366699,0.21363988518714905,-0.08130409568548203,-0.2662534713745117,0.027574090287089348,-0.05123788118362427,0.029491901397705078,-0.04707491397857666
361,-2.3232783003771353,-1.2283270573377616,-2.6159448976843294,-0.24514271318912506,0.9419283270835876,0.22951319813728333,-0.0653614029288292,-0.5195947289466858,-0.08700834214687347,-0.013615846633911133,0.028942763805389404,-0.05447956919670105
362,-2.3584291120264487,-1.2220512501549805,-2.5882176093002602,-0.24109108746051788,0.9398022890090942,0.24217098951339722,0.08718813210725784,-0.6893967986106873,-0.15589529275894165,0.0013297200202941895,0.004655718803405762,-0.027342557907104492
363,-2.372337682529632,-1.2110762593793587,-2.5354931729934203,-0.24486005306243896,0.9359953999519348,0.25289613008499146,0.019395016133785248,-0.5520415306091309,-0.22975033521652222,0.09181438386440277,0.026941120624542236,0.03454890847206116
364,-2.3978439781833165,-1.1961062957447952,-2.5039766362006732,-0.24778993427753448,0.9306210875511169,0.2693406045436859,-0.03671586886048317,-0.5580427050590515,-0.19575771689414978,0.03245791792869568,0.02279376983642578,-0.04245772957801819
365,-2.393372215450467,-1.1904596215414165,-2.4423332338044603,-0.25256314873695374,0.9285396933555603,0.2720770835876465,0.16155320405960083,-0.529777467250824,-0.23454339802265167,0.021453529596328735,0.023303568363189697,-0.005094051361083984
366,-2.380620046266839,-1.1804629838134457,-2.3752963758233236,-0.26240020990371704,0.9247822761535645,0.27554237842559814,0.03122273087501526,-0.5022679567337036,-0.24544288218021393,0.02242526412010193,0.016562819480895996,0.0023506581783294678
367,-2.381398157242583,-1.167889190002843,-2.319622937023052,-0.27017742395401,0.9199250340461731,0.28415152430534363,0.081240713596344,-0.5223405361175537,-0.2525767385959625,0.03447490930557251,0.018231093883514404,-0.019869327545166016
368,-2.3727324251731283,-1.1587564056672528,-2.259134794979696,-0.27846020460128784,0.9163057804107666,0.287826269865036,0.07177576422691345,-0.3695693910121918,-0.19876565039157867,0.053866058588027954,0.03575122356414795,0.03431728482246399
369,-2.369874972342704,-1.1511152953081676,-2.2233874817397083,-0.2841555178165436,0.9132189750671387,0.29203861951828003,0.04207351803779602,-0.258917897939682,-0.13956908881664276,0.04250210523605347,0.015125691890716553,-0.004425793886184692
370,-2.361555155148216,-1.1472608768244743,-2.190371509437298,-0.28904885053634644,0.9116415977478027,0.2921645939350128,0.07384586334228516,-0.14051178097724915,-0.09607619792222977,0.06903240084648132,0.002497076988220215,0.03150483965873718
371,-2.367118370394904,-1.1422644718862622,-2.194926095309697,-0.29060110449790955,0.9095767736434937,0.29702046513557434,-0.11732125282287598,0.09042057394981384,-0.02246733568608761,0.057355254888534546,0.008224129676818848,0.04015302658081055
372,-2.388282546492492,-1.1328843452499862,-2.2297478815564613,-0.2900736629962921,0.9056390523910522,0.30931344628334045,-0.1499888151884079,0.16725771129131317,-0.006153844762593508,-0.0009571611881256104,0.024475514888763428,0.027127444744110107
373,-2.400054615185309,-1.1205661687466208,-2.256898610529308,-0.293925940990448,0.9003469944000244,0.3209100365638733,-0.1625049114227295,0.13269028067588806,-0.012071135453879833,-0.006428122520446777,-0.015535354614257812,0.0038885772228240967
374,-2.4021852588577777,-1.105689981478458,-2.2746718335400873,-0.3022336959838867,0.8937738537788391,0.33139535784721375,-0.18473033607006073,0.15992754697799683,-0.07199057936668396,-0.025418251752853394,-0.0006312727928161621,-0.01228836178779602
375,-2.394639102117334,-1.0883702153601216,-2.286580474264624,-0.3151971101760864,0.8858720064163208,0.34041425585746765,-0.17856721580028534,0.16326040029525757,-0.05398404970765114,-0.029239565134048462,0.00055694580078125,-0.05011579394340515
376,-2.3750062550409465,-1.0781074409568565,-2.287290254029406,-0.32810866832733154,0.881064236164093,0.340691477060318,-0.07285955548286438,0.21841688454151154,-0.05544261634349823,-0.04167282581329346,0.0011379718780517578,-0.030861735343933105
377,-2.355600673416549,-1.0654932935747663,-2.2954514640597634,-0.34249427914619446,0.8750278353691101,0.3420877456665039,-0.178782120347023,0.20815005898475647,-0.019160106778144836,-0.02245020866394043,0.020418941974639893,-0.057618141174316406
378,-2.357855103760019,-1.0583833844342692,-2.321247923642928,-0.3461054861545563,0.8715640306472778,0.3472568988800049,-0.13111385703086853,0.2098885029554367,0.08686231821775436,-0.022531598806381226,0.02415752410888672,-0.046780794858932495
379,-2.3586023251966313,-1.0598099058742185,-2.351239755504575,-0.3449682891368866,0.8722625374794006,0.34663355350494385,-0.06825128197669983,0.2835172116756439,0.14380663633346558,0.014707088470458984,0.028341591358184814,-0.006972938776016235
380,-2.364613977294824,-1.063329073694947,-2.397850657028752,-0.34072402119636536,0.8739781379699707,0.3465103209018707,-0.12072737514972687,0.3436001241207123,0.20328804850578308,0.008326590061187744,0.025329113006591797,-0.06191873550415039
381,-2.36654340478285,-1.075414190836742,-2.4517053676374543,-0.33263927698135376,0.8797871470451355,0.3395964503288269,-0.1115853488445282,0.5105470418930054,0.3452555537223816,0.04028090834617615,0.004474937915802002,-0.04700914025306702
382,-2.36876554806226,-1.1042640248040754,-2.5196027930636,-0.31402769684791565,0.8931334018707275,0.3220239579677582,0.08354156464338303,0.7435123324394226,0.541938066482544,0.12970152497291565,0.01777052879333496,-0.007052063941955566
383,-2.3709370759376456,-1.1414415354527174,-2.6271926191823023,-0.28998613357543945,0.9092345237731934,0.29866501688957214,-0.2587401270866394,1.1040608882904053,0.4815256893634796,-0.043540507555007935,0.08539450168609619,0.12336257100105286
384,-2.3853787316135855,-1.1358900504441853,-2.770743260550822,-0.28910157084465027,0.9069095253944397,0.30648836493492126,-0.4592898190021515,1.050969123840332,0.3338782489299774,-0.0020360350608825684,-0.012698888778686523,-0.04718047380447388
385,-2.3844094657091084,-1.1317781782244685,-2.888323814028135,-0.29195737838745117,0.9051694273948669,0.30891549587249756,-0.3394370973110199,0.9614365100860596,0.3011915385723114,-0.03715938329696655,-0.009844958782196045,0.027159273624420166
386,-2.383386936544003,-1.1330004378488403,-2.983497789389687,-0.2915121614933014,0.9056882858276367,0.30781328678131104,-0.1615845412015915,0.8273236751556396,0.3246966004371643,0.06433933973312378,0.041012585163116455,-0.02146703004837036
387,-2.3874765013482624,-1.1434504531103424,-3.1082340668097737,-0.28375592827796936,0.9100689888000488,0.30208829045295715,-0.3355512320995331,1.0558607578277588,0.42069005966186523,0.03142130374908447,0.018840491771697998,-0.005701631307601929
388,-2.3957460350402955,-1.1408652661474081,3.0409561271532675,-0.28284335136413574,0.9089944958686829,0.3061511516571045,-0.39050960540771484,0.9762372970581055,0.2896294891834259,-0.00986596941947937,0.0025044679641723633,-0.00558355450630188
389,-2.401067390180506,-1.1316971096320594,2.93336476668551,-0.2868208587169647,0.9051349759101868,0.31379014253616333,-0.37155917286872864,0.7369912266731262,0.19659948348999023,-0.01934671401977539,0.008545875549316406,0.012534350156784058
390,-2.407700660901851,-1.1231919380320647,2.8446352130606036,-0.2898787260055542,0.9014865159988403,0.3213907480239868,-0.17225879430770874,0.7081953287124634,0.2771655321121216,0.08039087057113647,-0.015775084495544434,-0.03853866457939148
391,-2.411133069455686,-1.1233096536159533,2.7617431551291047,-0.28870320320129395,0.9015374779701233,0.32230493426322937,-0.34556645154953003,0.8136647939682007,0.290079265832901,0.02846461534500122,0.027005493640899658,0.014700591564178467
392,-2.424062934105263,-1.1281103714462568,2.6738059945012065,-0.28166285157203674,0.9036043286323547,0.32274624705314636,-0.1134275272488594,0.633925199508667,0.3826567828655243,0.07202237844467163,0.003988385200500488,-0.06604769825935364
393,-2.441664933424314,-1.143343636537786,2.587137808755304,-0.26704007387161255,0.9100247025489807,0.31708765029907227,-0.24792587757110596,0.7872936129570007,0.4407702684402466,0.03329068422317505,-0.02643406391143799,-0.05210354924201965
394,-2.452000700387253,-1.1522937589239468,2.4947350214123656,-0.25855615735054016,0.9136984944343567,0.31353428959846497,-0.19979602098464966,0.9696080684661865,0.3332560956478119,-0.04451394081115723,0.09972918033599854,-0.03622102737426758
395,-2.4618836641294677,-1.149077185411262,2.3979746773372743,-0.2572910487651825,0.9123865962028503,0.31835851073265076,-0.33654481172561646,0.8619397282600403,0.3566552400588989,-0.025149166584014893,0.009381651878356934,-0.07974156737327576
396,-2.485083693063047,-1.1465366640093677,2.3095368348554084,-0.25125041604042053,0.9113437533378601,0.3260764181613922,-0.21098093688488007,0.6572854518890381,0.2917923033237457,-0.08436664938926697,0.006045162677764893,-0.12438571453094482
397,-2.4772267123294682,-1.1575048847743352,2.2677159827935793,-0.2476261556148529,0.915803849697113,0.3162028193473816,0.07702545076608658,0.6552515029907227,0.25378987193107605,-0.028573140501976013,0.05198466777801514,-0.07624322175979614
398,-2.4679029692395247,-1.171414580600456,2.219499891214934,-0.242592453956604,0.9213016033172607,0.30389493703842163,-0.2122398465871811,0.7945728898048401,0.32269376516342163,-0.006034225225448608,-0.008124172687530518,-0.01060602068901062
399,-2.473592865160388,-1.176631568246066,2.1455567079270645,-0.23787921667099,0.9233176708221436,0.30149319767951965,-0.008588535711169243,0.6763520240783691,0.2446283996105194,-0.0835014283657074,0.033057451248168945,-0.12073755264282227
400,-2.456214022678864,-1.193227190247661,2.120226613435917,-0.23335057497024536,0.9295635223388672,0.2854105532169342,0.002686536405235529,0.4057259261608124,0.16892096400260925,-0.08088889718055725,0.025529861450195312,0.007466673851013184
401,-2.4342354283205703,-1.200317530822228,2.1265413759186087,-0.2352776676416397,0.93215411901474,0.2751966416835785,0.056543633341789246,0.1518484652042389,-0.015424204058945179,-0.0617041140794754,-0.01424640417098999,0.0015368163585662842
402,-2.395742471416621,-1.1972516207508015,2.1796436604881753,-0.24763227999210358,0.9310396909713745,0.2680365741252899,0.17494209110736847,-0.13635313510894775,-0.19647099077701569,-0.060625821352005005,0.003179788589477539,-0.03279182314872742
403,-2.3403322022938204,-1.1932855254860186,2.2757770960139756,-0.26474687457084656,0.9295850396156311,0.25647836923599243,0.14769229292869568,-0.31702497601509094,-0.18247653543949127,-0.00418931245803833,0.008418619632720947,-0.009560555219650269
404,-2.3063198023443756,-1.188207348619131,2.363638543418655,-0.2768118679523468,0.9277012348175049,0.2504909634590149,0.18740026652812958,-0.391660213470459,-0.27892717719078064,-0.0022561252117156982,0.016649961471557617,-0.002138853073120117
405,-2.2789602978283927,-1.1770261685638896,2.4422074997032754,-0.29142117500305176,0.9234691262245178,0.24955596029758453,0.10714216530323029,-0.4022674858570099,-0.2871876060962677,0.002297729253768921,0.013054132461547852,-0.01644746959209442
406,-2.2580518405529073,-1.1642594978722949,2.5259342058950205,-0.3056640923023224,0.918495774269104,0.25086846947669983,0.16084174811840057,-0.5191850662231445,-0.25945135951042175,-0.0180816650390625,0.019858717918395996,-0.05419790744781494
407,-2.2399335881707687,-1.1543874524913238,2.6172928135399647,-0.3172556161880493,0.9145473837852478,0.25090187788009644,0.18125660717487335,-0.5770409107208252,-0.298374742269516,0.0012918710708618164,0.040301740169525146,-0.019532829523086548
408,-2.235752698923989,-1.1418912953893205,2.6942408861148244,-0.3272702395915985,0.9094216823577881,0.25660520792007446,0.08014057576656342,-0.5463418364524841,-0.25299450755119324,0.009185552597045898,0.02105921506881714,-0.008878856897354126
409,-2.245326188219543,-1.1278622635205056,2.752209716816855,-0.33473116159439087,0.9034980535507202,0.26766908168792725,0.0995706170797348,-0.476714164018631,-0.22895409166812897,0.010771751403808594,0.021383166313171387,-0.03796321153640747
410,-2.2531506573552362,-1.1175231252904023,2.8046419557454727,-0.3398580849170685,0.8990185260772705,0.2761560082435608,0.07885607331991196,-0.4537331461906433,-0.1762700080871582,0.01588350534439087,0.021788358688354492,-0.046206116676330566
411,-2.2530859978504436,-1.1135799831925226,2.8618663734462846,-0.3426247537136078,0.8972848057746887,0.2783673107624054,0.17387713491916656,-0.38984596729278564,-0.13192421197891235,0.0236549973487854,0.014595627784729004,-0.03639340400695801
412,-2.254189896878336,-1.1162975614833126,2.91643074091352,-0.34042495489120483,0.8984811902046204,0.2772045135498047,0.2128005474805832,-0.4849940538406372,-0.1124194785952568,-0.0016160309314727783,-0.0034769773483276367,-0.058103591203689575
413,-2.2565792645835416,-1.1260006591881282,2.98315760826831,-0.33299848437309265,0.9026985764503479,0.2724829912185669,0.3233424127101898,-0.6096890568733215,-0.08843809366226196,-0.0038240253925323486,0.020412206649780273,-0.03520885109901428
414,-2.250437965945905,-1.139611319802131,3.0563770450646874,-0.3250785171985626,0.9084711074829102,0.2626858353614807,0.3113659620285034,-0.5260500311851501,-0.10648409277200699,0.024037957191467285,0.03201943635940552,-0.024969160556793213
415,-2.224645623475522,-1.1445690447567547,3.12766855929045,-0.3281659483909607,0.9105319976806641,0.2514722943305969,0.15145394206047058,-0.2754804193973541,-0.10442419350147247,0.05637645721435547,-0.00023859739303588867,0.060951411724090576
416,-2.2217136654108884,-1.1494812322231958,-3.1172265754571575,-0.3253399729728699,0.9125518798828125,0.24779613316059113,0.2335568070411682,-0.4101026952266693,-0.030089857056736946,0.0005872249603271484,0.0351715087890625,-0.04134476184844971
417,-2.2412628190591675,-1.1571287797521614,-3.0975637579551596,-0.31495675444602966,0.9156527519226074,0.2497650533914566,-0.07240692526102066,-0.43174511194229126,0.05616467446088791,-0.04655447602272034,0.02491438388824463,-0.0028015077114105225
418,-2.289894373725495,-1.1569722788867056,-3.1225212213264193,-0.30255064368247986,0.9155898094177246,0.26487502455711365,0.030781153589487076,-0.2897617518901825,0.04138835147023201,-0.04725709557533264,-0.028535306453704834,-0.09309118986129761
419,-2.329321973532368,-1.1700838532219464,-3.1256174456481993,-0.28313547372817993,0.920783281326294,0.26831308007240295,0.121164970099926,-0.4930136203765869,0.11595938354730606,-0.05290877819061279,0.005745410919189453,-0.07986718416213989
420,-2.3321849876888616,-1.1919508947828623,-3.095409335116066,-0.26772525906562805,0.929092288017273,0.2551684081554413,0.38648557662963867,-0.2828548550605774,-0.0017313755815848708,0.024347513914108276,0.0284121036529541,-0.020518749952316284
421,-2.361290964754975,-1.215258975607077,-3.094418183112725,-0.2448824793100357,0.9374595880508423,0.24739135801792145,-0.002535814419388771,-0.4113515019416809,0.25474393367767334,0.00686056911945343,-0.020436644554138184,-0.02661186456680298
422,-2.3951551173737213,-1.2441715637248636,-3.1118842037826564,-0.21786457300186157,0.9471306800842285,0.23553837835788727,0.2921893894672394,-0.1647154539823532,0.19875377416610718,0.07365377247333527,-0.0023828744888305664,-0.010211855173110962
423,-2.462514512713981,-1.267723345420744,3.0924069407502315,-0.18745224177837372,0.9544238448143005,0.23224318027496338,-0.2548656165599823,0.23579733073711395,0.4907381534576416,0.1451701521873474,-7.814168930053711e-05,0.16804063320159912
424,-2.616696025768643,-1.272711722603496,2.8402051047038137,-0.14717495441436768,0.9559007883071899,0.25415217876434326,-0.35833680629730225,0.8207554221153259,0.7869206666946411,0.25037017464637756,0.0018781423568725586,0.02013993263244629
425,-2.9375754231934317,-1.2826897134385735,2.4459747017436326,-0.05756764858961105,0.9587835669517517,0.2782447040081024,-0.19912008941173553,0.1466863602399826,1.2556103467941284,0.05930712819099426,-0.000760495662689209,-0.059586286544799805
426,2.9632663928690484,-1.2736582835113766,2.034589058014438,0.05193496495485306,0.9561783671379089,0.28814196586608887,-0.0566081628203392,0.04238322749733925,0.9360761046409607,-0.16896989941596985,0.058454811573028564,-0.03126025199890137
427,2.762740114683296,-1.25205456970026,1.8169350419507948,0.11590219289064407,0.9496304392814636,0.2911509573459625,-0.3809254765510559,0.6114566326141357,0.5476683974266052,-0.08193613588809967,-0.016952157020568848,0.11436668038368225
428,2.7187685632435077,-1.1473149548057449,1.6994594850487943,0.168622687458992,0.911663830280304,0.3747469484806061,-0.35793545842170715,-0.12350951135158539,0.44039759039878845,-0.004773810505867004,0.198611319065094,-0.15697351098060608
429,2.6769479103204707,-1.1003088995142398,1.645989721722316,0.20313531160354614,0.8913474082946777,0.4052598774433136,-0.27820485830307007,0.038299139589071274,0.3182885944843292,0.03052249550819397,0.05979377031326294,-0.11567860841751099
430,2.6286040538402453,-1.07898984769219,1.6110457806953467,0.23175717890262604,0.8814812302589417,0.41143566370010376,0.056561581790447235,-0.43361228704452515,0.05310997739434242,-0.08043575286865234,0.08322513103485107,-0.007123589515686035
431,2.581803750413515,-1.0905528181435713,1.598138924226679,0.24532265961170197,0.8868824243545532,0.3914792835712433,0.18933892250061035,-0.3280157148838043,-0.04979914426803589,0.018959522247314453,-0.05935269594192505,-0.029006779193878174
432,2.5553727000921347,-1.0981208184734395,1.5796885279323074,0.25186264514923096,0.8903533816337585,0.37925705313682556,0.020457424223423004,0.1332802176475525,0.1309707909822464,0.02726641297340393,0.01563715934753418,-0.02996814250946045
433,2.5358270620935817,-1.096355584989305,1.5280930249798437,0.26012176275253296,0.8895483613014221,0.3755541145801544,0.1763957291841507,-0.009820949286222458,0.10469041764736176,0.047007232904434204,-0.013129055500030518,0.026805013418197632
434,2.4923996456400808,-1.1002283670170476,1.4751697504251031,0.2740955352783203,0.8913109302520752,0.36115965247154236,0.08400283008813858,-0.04213711619377136,0.08678079396486282,4.3779611587524414e-05,0.017868638038635254,-0.010070115327835083
435,2.469066097294247,-1.100685859375903,1.4414721243019635,0.2821933925151825,0.891518235206604,0.35434743762016296,0.09175953269004822,-0.04083315283060074,0.09209876507520676,0.020266294479370117,0.005988478660583496,-0.03110527992248535
436,2.442052201284453,-1.113273508681646,1.4115895755724306,0.28441327810287476,0.8971495032310486,0.3379824161529541,0.16564248502254486,-0.09843364357948303,-0.08696724474430084,-0.022297710180282593,-0.014306366443634033,0.027282506227493286
437,2.430375991493966,-1.1309094552888233,1.4072742639962728,0.27796730399131775,0.9047998189926147,0.32260021567344666,0.074506014585495,-0.035979390144348145,-0.07653418183326721,0.015703290700912476,0.04037505388259888,-0.049849480390548706
438,2.4505003008884105,-1.1443665738309596,1.4117116968512442,0.26363465189933777,0.9104483127593994,0.31871721148490906,0.11188808083534241,0.004781641997396946,-0.15702316164970398,0.02396300435066223,0.043531179428100586,0.007485151290893555
439,2.480713960993519,-1.1546941272824929,1.4296425708099523,0.24810141324996948,0.9146713614463806,0.31909582018852234,0.060470182448625565,0.26904404163360596,-0.21442678570747375,0.015875637531280518,0.11244362592697144,0.02096155285835266
440,2.5296817240016645,-1.1864864856368693,1.4578975562551637,0.21536614000797272,0.9270573854446411,0.30689120292663574,0.24797323346138,-0.006102035753428936,-0.4001058340072632,0.011196345090866089,0.04472923278808594,-0.033270567655563354
441,2.632695495204512,-1.2222293429161588,1.5415943743950427,0.16640877723693848,0.9398631453514099,0.2982708215713501,0.041484534740448,0.40133383870124817,-0.593143880367279,-0.10195565223693848,0.07425129413604736,0.004738211631774902
442,2.8296872549384022,-1.2448382267568545,1.696211984005697,0.0982656255364418,0.9473443627357483,0.30476605892181396,-0.05829011648893356,0.4615046977996826,-0.6136932373046875,0.0634165033698082,0.031018555164337158,-0.011507421731948853
443,3.0659848660273594,-1.2520442169802415,1.8847477475818943,0.02367149479687214,0.9496272206306458,0.3124859631061554,-0.07112624496221542,0.5163646340370178,-0.6020888686180115,0.04024755582213402,0.04736661911010742,0.004500091075897217
444,-3.017513632323244,-1.2392372668788918,2.055938694898256,-0.04028639197349548,0.9455360174179077,0.323015421628952,-0.16633495688438416,0.2052081823348999,-0.49947962164878845,-0.006725940853357315,-0.07128357887268066,-0.010271281003952026
445,-2.9021360890901926,-1.22267032255431,2.1670830056132515,-0.08090918511152267,0.9400136470794678,0.33140379190444946,0.015053082257509232,-0.045830197632312775,-0.3351972699165344,0.006049551069736481,-0.014400005340576172,-0.060239702463150024
446,-2.828114208214841,-1.2360512750452717,2.2688453565661466,-0.10130813717842102,0.9444940686225891,0.3125182092189789,0.323091983795166,-0.546888530254364,-0.26606589555740356,0.05025225877761841,0.013559460639953613,0.0050476789474487305
447,-2.7996030632011206,-1.2468161485312086,2.3559048713316013,-0.10675989091396332,0.9479758739471436,0.2999067008495331,0.08605486899614334,-0.5171286463737488,-0.2427462339401245,0.017968982458114624,-0.051048994064331055,0.03661060333251953
448,-2.7608584834086356,-1.2489848664507994,2.4479815090289554,-0.11753236502408981,0.9486640095710754,0.29363691806793213,0.22661638259887695,-0.31511515378952026,-0.37860167026519775,0.01786196231842041,0.016866326332092285,0.02742326259613037
449,-2.6513928082541436,-1.2430986402256285,2.577715105896047,-0.15153437852859497,0.9467858672142029,0.28396108746528625,-0.14514170587062836,-0.03817388042807579,-0.32345834374427795,0.07501155138015747,-0.007424294948577881,0.10815930366516113
450,-2.610019519605456,-1.2073447036374332,2.6211633620398302,-0.18020083010196686,0.9346753358840942,0.30644723773002625,-0.2675974369049072,0.10591118782758713,-0.3969135284423828,-0.062093496322631836,0.04612910747528076,0.00033080577850341797
451,-2.5779295916529903,-1.160633307189386,2.643960502244632,-0.21305130422115326,0.9170558452606201,0.3370722532272339,-0.3653051257133484,0.14501041173934937,-0.19331128895282745,0.024895206093788147,-0.013186275959014893,-0.061742573976516724
452,-2.560344654407138,-1.132472880279338,2.6631145595360586,-0.2330363541841507,0.9054645299911499,0.35472267866134644,-0.11061425507068634,0.0576491579413414,-0.17338180541992188,0.002415016293525696,0.011573433876037598,-0.03662267327308655
453,-2.5363591158446797,-1.119867071113541,2.692627915213238,-0.24795158207416534,0.9000425338745117,0.3583904802799225,-0.03983696550130844,0.08237239718437195,-0.12402719259262085,0.02314382791519165,-0.001314997673034668,-0.01692923903465271
454,-2.5295362990322,-1.1137024830850966,2.705064350733341,-0.2535736560821533,0.8973388671875,0.3612242043018341,-0.08892389386892319,-0.040014732629060745,-0.029068928211927414,-0.007626265287399292,-0.0337069034576416,-0.0749693512916565
455,-2.51775500548723,-1.1166062076950134,2.730537395602169,-0.2562885880470276,0.8986166715621948,0.3560955822467804,0.16551905870437622,0.08451034873723984,-0.12045510113239288,-0.08796495199203491,0.057041168212890625,-0.037614136934280396
456,-2.48298653771382,-1.1219112702347458,2.7765574273784335,-0.26559117436408997,0.9009314775466919,0.3431969881057739,0.03698789328336716,-0.06379752606153488,0.020737307146191597,-0.005343884229660034,-0.020239830017089844,-0.05790337920188904
457,-2.4724678220626752,-1.1271268608341452,2.801896300569692,-0.2662678360939026,0.9031826257705688,0.3366938829421997,0.04242812842130661,0.06730693578720093,-0.035140883177518845,-0.030698716640472412,0.029617786407470703,-0.005425542593002319
458,-2.46139517893207,-1.127063181566567,2.8157366996340643,-0.2700156569480896,0.9031552672386169,0.33376967906951904,-0.006437888368964195,0.0623101182281971,0.025980623438954353,0.0005759596824645996,0.024533390998840332,-0.057280391454696655
459,-2.444892973088156,-1.137597760632973,2.831686921178099,-0.2693662643432617,0.9076277017593384,0.3219534158706665,0.014197013340890408,0.13717447221279144,0.016894172877073288,-0.03413110971450806,-0.0006451606750488281,0.06671848893165588
460,-2.441939935686457,-1.1319387771754355,2.8290793969142625,-0.2736188769340515,0.9052376747131348,0.32508084177970886,-0.04261313006281853,0.07219386845827103,0.010629036463797092,-0.038621723651885986,0.019490718841552734,-0.02805328369140625
461,-2.430259614289629,-1.1349235088152316,2.8472840713971093,-0.27563175559043884,0.9065018892288208,0.31981438398361206,0.08259706944227219,-0.12532168626785278,0.049002375453710556,-0.01388847827911377,-0.02744317054748535,-0.030934959650039673
462,-2.4315289433315663,-1.141676693304756,2.8697530432712544,-0.2712288796901703,0.9093323945999146,0.3155146837234497,0.08258182555437088,-0.19088022410869598,-0.04096241295337677,-0.048168063163757324,0.04315173625946045,0.023215055465698242
463,-2.441406036335862,-1.1373301037472832,2.87177458622224,-0.27064332365989685,0.9075153470039368,0.32119742035865784,-0.10659889131784439,-0.08211321383714676,0.05385760962963104,0.010175853967666626,-0.006407737731933594,-0.018768370151519775
464,-2.4664130613435478,-1.1409452306521892,2.8680025615215006,-0.2604753375053406,0.9090278148651123,0.32530152797698975,0.05332797020673752,-0.1973334699869156,0.06197379156947136,0.012260586023330688,-0.014633893966674805,-0.0008233785629272461
465,-2.485090993712256,-1.1487551342406066,2.8695419914148803,-0.25001347064971924,0.9122547507286072,0.3244760036468506,0.02515515685081482,-0.14550180733203888,0.0012758036609739065,-0.011003375053405762,0.017554819583892822,0.023149728775024414
466,-2.4913052392432915,-1.1448185378074272,2.872015794544313,-0.2501646876335144,0.9106351137161255,0.32887929677963257,-0.011953171342611313,-0.05982963368296623,-0.05170906335115433,0.02486860752105713,-0.008031904697418213,-0.023489803075790405
467,-2.4780965076847177,-1.1457835030187529,2.8838282250686023,-0.2539454698562622,0.9110334515571594,0.3248538374900818,0.11541478335857391,0.0581638403236866,-0.07027826458215714,0.05162915587425232,0.021385490894317627,0.030263930559158325
468,-2.4687030367168843,-1.1473899245447299,2.875462472780643,-0.2560732364654541,0.9116946458816528,0.3213091790676117,-0.14407053589820862,0.16568265855312347,0.014565715566277504,0.039337337017059326,0.02260112762451172,0.1065625250339508
469,-2.5054578027900174,-1.1340975537231583,2.8213102782101367,-0.2512708902359009,0.9061528444290161,0.3402204215526581,-0.08930808305740356,0.03428354859352112,0.05317557230591774,0.05514967441558838,-0.007166028022766113,-0.009684562683105469
470,-2.5263840581916375,-1.1389425214266464,2.789177716894821,-0.24156007170677185,0.9081913828849792,0.3418140709400177,0.05090504139661789,0.05673741549253464,0.11439135670661926,0.08558475971221924,0.0447961688041687,0.011518329381942749
471,-2.556953709664496,-1.1445716926050131,2.726404441671425,-0.22817452251911163,0.9105331301689148,0.34476882219314575,-0.2429368495941162,0.28484219312667847,0.17624244093894958,0.08207166194915771,0.04364454746246338,0.09238019585609436
472,-2.6094187344804802,-1.1276211240430019,2.623869669895148,-0.21758128702640533,0.9033946394920349,0.36950773000717163,-0.37793153524398804,0.24000124633312225,0.34369972348213196,0.1509767323732376,-0.035566508769989014,0.011687219142913818
473,-2.6912229307376396,-1.1217756568908124,2.532974655537137,-0.18895572423934937,0.9008726477622986,0.3907991051673889,0.0710427388548851,-0.40616291761398315,0.0010247548343613744,-0.02234797179698944,0.03079831600189209,-0.1309877336025238
474,-2.7078278900298662,-1.1577713616283465,2.5755240385138567,-0.16869661211967468,0.9159108400344849,0.3642095625400543,0.7779420614242554,0.14154250919818878,-0.09310869127511978,0.05259247124195099,0.01955968141555786,0.04983755946159363
475,-2.6050048575280176,-1.2595262194993102,2.7357386116849685,-0.15656620264053345,0.9519453644752502,0.26322460174560547,1.388718605041504,-1.016603946685791,-0.40887942910194397,-0.011555135250091553,0.07408618927001953,0.01717090606689453
476,-2.405901037876521,-1.3283976787349412,2.9836050661496465,-0.16108569502830505,0.9707649946212769,0.17795197665691376,0.5434681177139282,0.42511290311813354,0.14127199351787567,-0.08839550614356995,-0.056458353996276855,0.2615926265716553
477,-2.1545123157674295,-1.3680669407758823,-3.0456255652141264,-0.16800524294376373,0.9795206785202026,0.11096620559692383,0.5464162230491638,0.6516761183738708,-0.27993136644363403,-0.04712840914726257,-0.05785930156707764,0.06754636764526367
478,-1.6665898710025129,-1.349507853331946,-2.666759443916042,-0.2184806615114212,0.9756154417991638,0.020993290469050407,0.7006565928459167,1.1518865823745728,-0.5034698247909546,-0.04732748866081238,0.11851602792739868,-0.13479328155517578
479,-1.5046008150556078,-1.3445232713701254,-2.522118811376729,-0.22385607659816742,0.9745092988014221,-0.01483994908630848,0.22531302273273468,-0.6594208478927612,0.29770928621292114,-0.018270373344421387,-0.13552004098892212,-0.06398695707321167
480,-1.3347988026500883,-1.3710627488964031,-2.2966928451021573,-0.1929081529378891,0.9801194667816162,-0.04639029502868652,0.5343958139419556,-0.24263101816177368,0.4618692398071289,-0.08306226134300232,-0.05961787700653076,0.030109170824289322
481,-1.050075725490339,-1.3770323396710569,-1.96923824301229,-0.16703248023986816,0.9812864065170288,-0.09579630941152573,0.5767529606819153,-0.137243390083313,0.1848922073841095,-0.15266965329647064,0.02791452407836914,0.036012426018714905
482,-0.9170827463143142,-1.3598920708069855,-1.8621527079271012,-0.16618376970291138,0.9778420329093933,-0.12731017172336578,-0.14031456410884857,0.7109591364860535,-0.3768690526485443,-0.09297148883342743,0.09570527076721191,0.03337712585926056
483,-0.9845518139844364,-1.3358337557519024,-2.006157132384436,-0.19393344223499298,0.972523033618927,-0.12879705429077148,0.023988019675016403,0.7750296592712402,-0.20242400467395782,0.07958406209945679,0.08033335208892822,0.056256771087646484
484,-0.8282255434194067,-1.3441821897899282,-1.9400071072095697,-0.16552911698818207,0.9744327068328857,-0.15192507207393646,0.2663861811161041,1.4214972257614136,0.6062966585159302,0.23135550320148468,0.008065581321716309,0.013924583792686462
485,-0.6991255249812572,-1.3803134236888368,-1.9211887247758384,-0.12184501439332962,0.9819129109382629,-0.14491650462150574,-0.5511947274208069,0.5509968400001526,0.2551591396331787,0.00650382786989212,0.0064446330070495605,-0.08959577977657318
486,-0.5445127983483035,-1.4052963744589715,-1.8555039457812257,-0.08533874899148941,0.9863361120223999,-0.14092054963111877,0.19315040111541748,0.4878306984901428,0.03081412799656391,-0.0701177790760994,-0.0027544498443603516,-0.1689855009317398
487,-0.5157713958317729,-1.3736361514598314,-1.8246188580664162,-0.09661182016134262,0.9806268215179443,-0.17040309309959412,0.31605103611946106,-0.04231090843677521,-0.19821123778820038,-0.12183299660682678,0.021707773208618164,0.04331260919570923
488,-0.512942669668254,-1.348566283152168,-1.8388167666478403,-0.10816246271133423,0.9754083752632141,-0.19204013049602509,0.012008704245090485,0.6654137372970581,-0.12263744324445724,-0.062354475259780884,-0.02589970827102661,0.189949631690979
