,attitude.roll,attitude.pitch,attitude.yaw,gravity.x,gravity.y,gravity.z,rotationRate.x,rotationRate.y,rotationRate.z,userAcceleration.x,userAcceleration.y,userAcceleration.z
0,-2.459838813101393,-1.2787363100795108,2.575212732960521,-0.18143828213214874,0.957652747631073,0.22356559336185455,-0.13493716716766357,-0.37971535325050354,0.03403059393167496,0.020229175686836243,-0.0035969018936157227,-0.08384081721305847
1,0.1465942542402046,0.4051736829141495,2.112929829018387,0.13424307107925415,-0.3941783905029297,-0.9091766476631165,-0.3278040587902069,0.4602820575237274,0.008463958278298378,0.008945390582084656,-0.014223068952560425,-0.01092827320098877
2,0.12806435907207875,0.40885985597493046,2.1163544160579644,0.11718767881393433,-0.3975634276866913,-0.9100606441497803,0.07128972560167313,-0.3251951336860657,-0.1123758852481842,0.011474423110485077,-0.0041242241859436035,0.04279685020446777
3,0.11910199658668999,0.405150078528998,2.1120530457685986,0.10920128226280212,-0.39415669441223145,-0.9125325083732605,0.11688206344842911,-0.1266009509563446,-0.0528564453125,0.030843883752822876,0.0009987354278564453,-0.022617638111114502
4,0.12416923322796153,0.40050081711925617,2.1069561810691875,0.11404961347579956,-0.38987958431243896,-0.9137760400772095,-0.2323789894580841,0.23305583000183105,-0.027297962456941605,0.02086859941482544,-0.006360650062561035,0.0028873682022094727
5,0.09629223130102335,0.4068294680345279,2.112482906967437,0.08829626441001892,-0.39569956064224243,-0.9141256213188171,0.06259609758853912,-0.32490119338035583,0.0265063364058733,0.021536491811275482,0.007393956184387207,0.015520274639129639
6,0.06361226227761083,0.3956015508620797,2.133294760197114,0.05865958333015442,-0.3853633403778076,-0.9208985567092896,-0.028444413095712662,-0.30673474073410034,-0.0418371744453907,-0.04274465888738632,0.017611265182495117,-0.03843677043914795
7,0.0602489068780969,0.3743419509393293,2.122686688671049,0.05604265630245209,-0.3656601309776306,-0.9290596842765808,-0.8296514749526978,0.299477219581604,-0.2701869308948517,-0.03910540044307709,0.024321019649505615,0.1388222575187683
8,0.10822976415477302,0.2791518563450329,2.1032236582571726,0.10383713990449905,-0.27554044127464294,-0.955664873123169,-0.07959423959255219,0.27769991755485535,-0.12701402604579926,0.014540545642375946,0.07825955748558044,-0.11577677726745605
9,0.09291145063885861,0.29405104192467596,2.1008718566678946,0.08879558742046356,-0.2898317575454712,-0.952949583530426,-0.08001617342233658,-0.19987501204013824,-0.10730467736721039,-0.004216119647026062,0.006155610084533691,0.057731688022613525
10,0.0906696534443736,0.29341092030425475,2.1126469184549643,0.08667582273483276,-0.28921905159950256,-0.9533308148384094,0.35470110177993774,-0.330954372882843,-0.09209638088941574,-0.05461712181568146,0.012378901243209839,-0.058235347270965576
11,0.0754493701386842,0.3175653402811293,2.079436852401033,0.07160880416631699,-0.31225457787513733,-0.9472957849502563,0.07545269280672073,0.2569807767868042,0.02381371334195137,0.048248983919620514,-0.07064947485923767,0.04705774784088135
12,0.07670523508815111,0.29434323987796196,2.092402503715209,0.07333440333604813,-0.29011139273643494,-0.9541789293289185,-0.46936917304992676,0.180485337972641,-0.17654280364513397,-0.03103703260421753,-0.006229519844055176,0.025513768196105957
13,0.06681694712668045,0.259931939868131,2.0935803029546243,0.06452436000108719,-0.25701478123664856,-0.9642509818077087,-0.04781678318977356,-0.2440677136182785,-0.08798827975988388,0.03761797398328781,-0.007023274898529053,-0.006894588470458984
14,0.05773528638467652,0.2599392945554248,2.0772008040593493,0.055764712393283844,-0.25702187418937683,-0.9647953510284424,0.2533726990222931,-0.218299001455307,-0.06415790319442749,0.025488339364528656,-0.02300742268562317,-0.026278257369995117
15,0.038737286284254324,0.24925940550002332,2.071786477770398,0.03753073886036873,-0.24668632447719574,-0.9683683514595032,-0.3384658396244049,0.21742910146713257,-0.10009606927633286,-0.06946738064289093,0.00391899049282074,0.047149479389190674
16,0.05628198849862355,0.24275626177679085,2.053654699896507,0.054602913558483124,-0.2403789758682251,-0.9691421389579773,0.08414437621831894,-0.1192605048418045,-0.07430663704872131,0.010872550308704376,-0.012718558311462402,-0.049717724323272705
17,0.05571787654936918,0.24333627358011592,2.033868467923174,0.05404842644929886,-0.24094194173812866,-0.969033420085907,0.07128254324197769,-0.10482268035411835,-0.23589231073856354,-0.01860225945711136,-0.006815016269683838,0.008828341960906982
18,0.04694533414298984,0.244670947415454,2.0069796391447854,0.04553043842315674,-0.24223709106445312,-0.9691481590270996,0.11493467539548874,-0.2954089343547821,-0.2888544499874115,0.009294390678405762,-0.012538909912109375,-0.00897073745727539
19,0.03934670834925537,0.24475825363831089,1.9787205460616268,0.0381641685962677,-0.24232178926467896,-0.969444990158081,0.038327161222696304,-0.033351920545101166,-0.15358933806419373,0.033979382365942,0.007992580533027649,-0.00536268949508667
20,0.02404737155462831,0.24574141810046798,1.96275466798627,0.02332267351448536,-0.24327553808689117,-0.9696767926216125,-0.12386307120323181,-0.168869748711586,-0.20122528076171875,0.027168653905391693,-0.01395714282989502,0.008006870746612549
21,0.016086069185516576,0.22204637485442894,1.9540188075627771,0.015690460801124573,-0.2202262133359909,-0.9753226041793823,-0.4813748896121979,0.2769230604171753,-0.16915395855903625,-0.03467239439487457,0.0254630446434021,0.0116996169090271
22,0.008472854226100637,0.19552358747675833,1.942952485093035,0.008311313576996326,-0.19428017735481262,-0.9809108972549438,-0.07215087860822678,-0.008451568894088268,-0.09184728562831879,0.04037947952747345,-0.04972311854362488,-0.03318822383880615
23,0.019183600185177493,0.18930003636909223,1.9524657576436693,0.018839752301573753,-0.18817147612571716,-0.9819554686546326,0.2483862042427063,-0.4231104552745819,0.0034583546221256256,0.0614825114607811,-0.003524690866470337,-0.02733713388442993
24,0.0022762862229629326,0.1835731292352217,1.9574810903360305,0.0022380375303328037,-0.1825438290834427,-0.9831951856613159,-0.2793600559234619,0.025130117312073708,0.13102096319198608,0.0009357929229736328,-0.004086434841156006,-0.012181401252746582
25,-0.028984362274098008,0.1932872845143096,1.9613570713122974,-0.02844063565135002,-0.19208599627017975,-0.9809659123420715,0.1989082396030426,-0.07531343400478363,-0.05834250524640083,0.03275887668132782,-0.02660296857357025,0.028771698474884033
26,-0.016553081788304884,0.18371238649090219,1.9704746176249661,-0.01627378724515438,-0.18268074095249176,-0.9830375909805298,-0.04797070100903511,-0.01622798480093479,0.033514730632305145,0.06328611075878143,-0.004651427268981934,0.0012108087539672852
27,-0.014672952687093899,0.17866512195369083,1.9798814877850364,-0.014438867568969727,-0.17771610617637634,-0.983975887298584,-0.13528519868850708,0.19518928229808807,0.2723754644393921,0.05839943885803223,0.03562626242637634,-0.024034976959228516
28,-0.01882431669128279,0.21619639904326546,2.0326176877466087,-0.018385009840130806,-0.21451613306999207,-0.9765474200248718,0.3772018849849701,-0.20105278491973877,0.6714426875114441,0.13172729313373566,0.037331074476242065,0.005050837993621826
29,-0.05157391454440459,0.22876163020200285,2.1286281108459306,-0.050208043307065964,-0.22677159309387207,-0.9726529717445374,0.11071322113275528,0.22756977379322052,0.7083287239074707,-0.013222739100456238,0.02051854133605957,-0.022876203060150146
30,-0.003889166102778732,0.22910935061434015,2.165295978762431,-0.003787528956308961,-0.22711023688316345,-0.9738616943359375,0.2581053376197815,-0.06303570419549942,0.033443890511989594,0.06279326975345612,0.023924201726913452,-0.13946533203125
31,0.01809627501557329,0.2566830427920907,2.1793667509539025,0.01750243827700615,-0.25387367606163025,-0.9670790433883667,0.1822066605091095,0.7192171812057495,0.03794288635253906,0.021300658583641052,0.04978737235069275,0.0148848295211792
32,0.027482538278710764,0.30042409748049687,2.2010088895825914,0.026248320937156677,-0.2959253489971161,-0.9548503756523132,0.33612173795700073,-0.026287192478775978,0.1851363629102707,0.0012785345315933228,-0.015048801898956299,0.07550162076950073
33,0.03381491481988054,0.3074927317103382,2.225078600271942,0.032222699373960495,-0.3026699125766754,-0.9525505900382996,0.15289413928985596,0.21224495768547058,0.4615730047225952,0.020038656890392303,0.055141836404800415,-0.01349860429763794
34,0.04796264917475822,0.3202351265983245,2.26546493698483,0.04550684243440628,-0.314789742231369,-0.9480698704719543,0.12742100656032562,0.20294734835624695,0.46801912784576416,-0.0033620670437812805,0.04824921488761902,0.011317610740661621
35,0.0357100056221285,0.3497689387569521,2.3162449543402333,0.03354070335626602,-0.34268075227737427,-0.9388529658317566,0.15350738167762756,0.18544146418571472,0.7373536229133606,-0.03309820964932442,0.012602657079696655,0.08703112602233887
36,0.02233288860089995,0.33572273687661813,2.379779376806549,0.021084345877170563,-0.32945165038108826,-0.9439370036125183,-0.4812465012073517,0.2603921890258789,0.5778501033782959,-0.05503515154123306,-0.022568613290786743,-0.01458960771560669
37,0.022835864314649238,0.29939516699539986,2.456611937103673,0.021818116307258606,-0.29494231939315796,-0.9552659392356873,0.1652996838092804,-0.13970454037189484,1.0939851999282837,-0.003522828221321106,0.05864471197128296,-0.058146536350250244
38,0.02049866379571403,0.2873783169482461,2.5611183559005517,0.01965664140880108,-0.283439040184021,-0.9587887525558472,-0.5639223456382751,0.4351052939891815,1.0926810503005981,-0.04506252706050873,-0.037041276693344116,0.06614965200424194
39,0.01292864093240886,0.2293074577044134,2.6339422418005736,0.01258987095206976,-0.2273031622171402,-0.973742663860321,-0.5590147972106934,0.19089463353157043,0.5914228558540344,-0.07138198614120483,-0.013221129775047302,-0.061077892780303955
40,0.010161009013709399,0.2073798433982285,2.6776551564849074,0.009943125769495964,-0.20589658617973328,-0.9785232543945312,0.12421464920043945,-0.11103193461894989,0.519575297832489,-0.030756112188100815,-0.0009820759296417236,-0.07062530517578125
41,-0.002120173199534655,0.23137707314951964,2.71499649190652,-0.0020636722911149263,-0.22931811213493347,-0.9733493328094482,-0.04998902231454849,0.02386876568198204,0.3832266330718994,-0.03203972056508064,-0.02643445134162903,0.04329562187194824
42,0.00018153636584140593,0.23196525821647776,2.7399344167235316,0.00017667417705524713,-0.2298905849456787,-0.9732164740562439,0.06557708233594894,0.16765306890010834,0.418348103761673,-0.040337804704904556,0.04103255271911621,-0.011829912662506104
43,0.002830821793452571,0.24735044402035208,2.772473965506769,0.0027446607127785683,-0.24483591318130493,-0.9695606231689453,0.13096433877944946,0.16488325595855713,0.37932872772216797,-0.048734650015830994,-0.014334619045257568,0.026796400547027588
44,0.010440491146846679,0.2500675170574816,2.796660032169046,0.010115562938153744,-0.24746938049793243,-0.9688429236412048,-0.028131116181612015,0.25280267000198364,0.3584040403366089,-0.02180379256606102,0.030504658818244934,-0.004744112491607666
45,0.008885127938339165,0.24941145930283506,2.8261382493283307,0.008610090240836143,-0.2468336671590805,-0.9690195918083191,0.1218218132853508,0.14537568390369415,0.3053210377693176,-0.008289655670523643,0.089012011885643,0.007380187511444092
46,0.002501933217552267,0.2617230876332984,2.8740833546633175,0.00241672876290977,-0.25874534249305725,-0.9659425616264343,0.032378192991018295,0.11267266422510147,0.589386522769928,-0.08670628070831299,-0.014829486608505249,0.020218074321746826
47,-0.008503472716116707,0.2598217118917816,2.8918109678055286,-0.00821796152740717,-0.25690823793411255,-0.9664008617401123,0.13020792603492737,-0.1672857105731964,-0.10441519320011139,-0.0852573812007904,-0.007969081401824951,-0.054976701736450195
48,-0.017083742394572023,0.27918714365163216,2.8816602593057543,-0.01642145775258541,-0.27557435631752014,-0.9611395001411438,0.16997379064559937,-0.000661640428006649,-0.03899175673723221,0.007464546710252762,0.02240052819252014,0.0178259015083313
49,-0.019000722779444434,0.27118926747921884,2.8673281176068453,-0.018305201083421707,-0.2678774297237396,-0.9632790684700012,-0.2532734274864197,-0.05157959833741188,-0.09274059534072876,-0.004232030361890793,-0.021688610315322876,0.04755336046218872
50,-0.02647363068350871,0.25255533319003515,2.8496236839817084,-0.02563081495463848,-0.24987904727458954,-0.9679377675056458,-0.05736304447054863,-0.032393679022789,-0.18360678851604462,-0.01294340193271637,0.019715458154678345,-0.04233139753341675
51,-0.021033144222869872,0.24983489655631838,2.8305312551109685,-0.020378630608320236,-0.2472439855337143,-0.9687389135360718,-0.19852033257484436,-0.017233945429325104,-0.1316819190979004,-0.017615754157304764,-0.029565706849098206,0.04315602779388428
52,-0.015191836322266557,0.2307118496789541,2.7934033159457616,-0.014788742177188396,-0.22867056727409363,-0.9733915328979492,-0.13385426998138428,-0.10141950845718384,-0.5112990140914917,-0.05727851763367653,-0.017957240343093872,-0.03689289093017578
53,-0.012776467108898487,0.23499411788761954,2.719248600776399,-0.01242497656494379,-0.2328372597694397,-0.9724363088607788,0.18785594403743744,-0.1937108188867569,-0.704781174659729,-0.060023754835128784,-0.05874292552471161,-0.04640829563140869
54,-0.016286790752664544,0.25586707269044134,2.624699543205174,-0.01575586572289467,-0.25308436155319214,-0.9673159122467041,0.020395133644342422,-0.051014501601457596,-0.9950178861618042,-0.012655999511480331,0.04271140694618225,-0.0066983699798583984
55,-0.027337189768320818,0.28372820466041615,2.5422323405138263,-0.026240937411785126,-0.2799367308616638,-0.95965975522995,0.454488605260849,-0.42589208483695984,-0.8131964802742004,-0.006687529385089874,0.03109639883041382,0.00032442808151245117
56,-0.025559387661169355,0.3062954630024417,2.478816220084951,-0.02436712756752968,-0.30152860283851624,-0.9531456828117371,0.34951743483543396,-0.43464478850364685,-0.5515467524528503,0.020628729835152626,0.021865516901016235,-0.032816171646118164
57,-0.029370606798007463,0.3254033807107835,2.4315790123582257,-0.027825290337204933,-0.3196910321712494,-0.9471132159233093,-0.11569905281066895,0.280863493680954,-0.2753695845603943,0.006203591823577881,0.04060778021812439,0.015854060649871826
58,-0.027632754768581083,0.3308772953951461,2.4077230227019655,-0.026130564510822296,-0.32487285137176514,-0.9453966617584229,-0.046482957899570465,0.03923740237951279,-0.06747908145189285,0.0224989652633667,0.04900920391082764,0.06786370277404785
59,-0.01337581596543079,0.3144761551759036,2.4074351023901084,-0.012719467282295227,-0.3093183636665344,-0.9508734941482544,-0.1202021986246109,0.19788718223571777,0.029978636652231216,-0.006842300295829773,0.012611210346221924,0.013251423835754395
60,-0.011608115450018391,0.2948192853913131,2.4125498170498436,-0.01110703032463789,-0.29056695103645325,-0.9567902088165283,-0.10816861689090729,-0.2876146137714386,0.16244271397590637,0.010847635567188263,0.00953054428100586,-0.03191828727722168
61,-0.02749712898673102,0.2983530537061032,2.419087655457842,-0.02627904713153839,-0.29394641518592834,-0.9554606080055237,-0.04238409548997879,-0.13034474849700928,0.057651374489068985,-0.02569238655269146,-0.014601528644561768,-0.02177327871322632
62,-0.042381231839994385,0.3006167061120576,2.4163038063251694,-0.0404684878885746,-0.29610931873321533,-0.954296350479126,-0.031447477638721466,-0.03562609851360321,-0.04330560937523842,-0.017652243375778198,-0.008074641227722168,0.010296106338500977
63,-0.04393719958304137,0.2985033288435468,2.405842259814107,-0.04198068752884865,-0.29409006237983704,-0.9548553228378296,-0.025737468153238297,-0.04051493853330612,-0.07686901837587357,0.019550271332263947,0.02223944664001465,0.00284421443939209
64,-0.05364496220518136,0.2955879838511072,2.4041828369765206,-0.05129382386803627,-0.2913023829460144,-0.955254852771759,0.012181678786873817,-0.13343428075313568,0.009041761979460716,-0.003195304423570633,0.016888350248336792,-0.007376313209533691
65,-0.058998952064970835,0.292391266455297,2.4051047992497034,-0.056462109088897705,-0.28824281692504883,-0.9558912515640259,-0.09033714234828949,-0.023753125220537186,0.017523884773254395,-0.025523360818624496,0.006382495164871216,-0.005595505237579346
66,-0.061024196537127894,0.289814721264448,2.4022435985422788,-0.05844300612807274,-0.28577467799186707,-0.9565130472183228,-0.034168776124715805,-0.04079835116863251,-0.06173600256443024,-0.02458006888628006,0.0032124221324920654,-0.001891493797302246
67,-0.06801203039236356,0.2897625126497259,2.3967341620362475,-0.06512649357318878,-0.2857246398925781,-0.9560962319374084,0.05240403488278389,-0.10739763081073761,-0.043403513729572296,-0.013791963458061218,0.002017974853515625,0.004298746585845947
68,-0.07297715620346244,0.2858125890610256,2.3874614658934195,-0.06995455175638199,-0.2819371819496155,-0.956879198551178,-0.06922917813062668,0.0009794756770133972,-0.10614676028490067,-0.014930099248886108,0.0017247796058654785,-0.0074915289878845215
69,-0.07444551908603687,0.2836466451254304,2.37241812464449,-0.07140477001667023,-0.27985844016075134,-0.9573822021484375,-0.005283151753246784,-0.059884313493967056,-0.10622616857290268,-0.010946914553642273,-0.003421008586883545,-0.00531005859375
70,-0.0759643554510603,0.2814507654972145,2.355430296115799,-0.07290525734424591,-0.277749627828598,-0.9578830599784851,-0.05031602829694748,-0.04350612685084343,-0.20424793660640717,-0.03375367820262909,-0.014532476663589478,0.011136233806610107
71,-0.07782704994533782,0.2774806354258058,2.3254330470260784,-0.07477451860904694,-0.2739335298538208,-0.9588373899459839,-0.13151735067367554,-0.06685027480125427,-0.31063276529312134,-0.04032251983880997,-0.0038069486618041992,0.04402720928192139
72,-0.07892862728074991,0.26392649091296266,2.28867736378663,-0.07611648738384247,-0.26087307929992676,-0.9623676538467407,-0.17920993268489838,-0.08271819353103638,-0.412431925535202,-0.09523972123861313,-0.007712125778198242,0.03521311283111572
73,-0.07596049335906475,0.24237338680994272,2.2298830029771484,-0.07366935908794403,-0.24000731110572815,-0.9679717421531677,-0.2968448996543884,-0.1275627762079239,-0.6763536930084229,-0.11009223014116287,0.007112428545951843,-0.00946044921875
74,-0.06812154946688159,0.22577408604859792,2.1545743689939436,-0.06634136289358139,-0.22386087477207184,-0.9723606109619141,-0.21708860993385315,-0.07322880625724792,-0.7605922222137451,-0.08156207948923111,0.011824727058410645,0.0006351470947265625
75,-0.05939954227787587,0.20665485716372334,2.079312564163497,-0.058101505041122437,-0.20518708229064941,-0.976996660232544,-0.21923644840717316,-0.09300388395786285,-0.754240870475769,-0.03442778438329697,-0.005613088607788086,-0.023049116134643555
76,-0.05501084001326374,0.19299345859764902,2.009466870435119,-0.053962308913469315,-0.1917976289987564,-0.9799498915672302,-0.16288751363754272,-0.09046606719493866,-0.7389278411865234,-0.002617284655570984,-0.006520852446556091,-0.010208189487457275
77,-0.06356977328115909,0.17932068611307064,1.953114180368527,-0.06250831484794617,-0.1783611923456192,-0.9819775819778442,-0.057343944907188416,-0.2795039713382721,-0.5350292921066284,0.08112403750419617,0.027024537324905396,-0.042177021503448486
78,-0.0763823206771452,0.17915477333455085,1.9264131644405071,-0.07508673518896103,-0.1781979352235794,-0.9811255931854248,-0.015544312074780464,-0.17542050778865814,-0.3564688563346863,0.07725349068641663,0.0282803475856781,-0.026396989822387695
79,-0.08141490667340234,0.1829816456842272,1.9116943866892844,-0.07996731996536255,-0.181962251663208,-0.9800484776496887,-0.12351639568805695,-0.11297670006752014,-0.2717161476612091,0.04883938282728195,0.011750459671020508,0.04566127061843872
80,-0.08639646017504313,0.1713836916879256,1.903841025868517,-0.0850248634815216,-0.17054593563079834,-0.9816744923591614,-0.15730880200862885,-0.17786264419555664,-0.19688870012760162,0.0560179129242897,0.0036453157663345337,-0.007857918739318848
81,-0.1004381072094716,0.16832118065394774,1.9038026556225187,-0.0988522619009018,-0.16752749681472778,-0.9808989763259888,-0.04380105435848236,-0.10824261605739594,-0.17616818845272064,0.040182217955589294,0.006944000720977783,-0.03162848949432373
82,-0.09497038443465547,0.17385287089032983,1.9093153173484365,-0.09339822083711624,-0.17297841608524323,-0.9804872274398804,0.0811474472284317,-0.14785096049308777,-0.20386618375778198,-0.0057381317019462585,0.005909949541091919,0.016833722591400146
83,-0.1039918326542626,0.1709435116053608,1.9066437667014984,-0.1022915169596672,-0.17011217772960663,-0.9801011681556702,-0.09348604828119278,-0.17477984726428986,-0.29125067591667175,-0.02237279713153839,-0.00043529272079467773,0.011702120304107666
84,-0.11115435234356748,0.17158024602596814,1.8980836945223831,-0.10929679125547409,-0.17073960602283478,-0.9792355298995972,0.006655562669038773,-0.0907805860042572,-0.28594061732292175,-0.008424758911132812,0.005883648991584778,-0.014142155647277832
85,-0.11649491656655568,0.1782675302556054,1.8889956667540566,-0.11438960582017899,-0.1773248314857483,-0.9774819016456604,0.04448549449443817,-0.1176159530878067,-0.27425912022590637,-0.01679021120071411,0.01843506097793579,0.006061673164367676
86,-0.11786815849196455,0.18238848673320265,1.8771180253874238,-0.1156449019908905,-0.18137896060943604,-0.9765899777412415,0.004846034571528435,-0.07904306054115295,-0.33286750316619873,-0.011094599962234497,0.008329033851623535,-0.009997546672821045
87,-0.1206417192846438,0.18661370621101495,1.863047794091239,-0.11825980246067047,-0.18553246557712555,-0.9754959344863892,-0.033085912466049194,-0.07888810336589813,-0.26410484313964844,-0.005748376250267029,0.03126610815525055,-0.00840604305267334
88,-0.12462875072010941,0.19174332056453267,1.8484722378613108,-0.12202826887369156,-0.19057054817676544,-0.974059522151947,-0.04405052214860916,-0.0670040100812912,-0.3476952612400055,-0.016048505902290344,0.012225821614265442,0.01917976140975952
89,-0.12475471301184118,0.19492382918933707,1.8256184075403525,-0.12207493185997009,-0.19369180500507355,-0.9734378457069397,-0.05065426602959633,-0.06267748028039932,-0.42714303731918335,-0.0022231638431549072,0.005184724926948547,0.028049051761627197
90,-0.12201603251833856,0.18644876876707658,1.7943498809702878,-0.11960404366254807,-0.18537038564682007,-0.9753628373146057,-0.22702664136886597,-0.04195915535092354,-0.41996049880981445,0.062078408896923065,-0.005868017673492432,-0.021707475185394287
91,-0.11946597189587953,0.17811992568981322,1.7778913014307272,-0.11729636788368225,-0.17717956006526947,-0.9771637320518494,0.08342541754245758,-0.025502078235149384,-0.21209539473056793,0.04605308175086975,-0.00734497606754303,-0.045495569705963135
92,-0.11585747792650129,0.1798622166029174,1.7763804660792588,-0.11373366415500641,-0.1788940131664276,-0.9772725105285645,0.013853352516889572,0.016507603228092194,-0.0602911077439785,0.06099928915500641,0.007156342267990112,-0.0018534660339355469
93,-0.11067166944562166,0.17768485824106486,1.7941518786901913,-0.10870697349309921,-0.17675136029720306,-0.9782339930534363,-0.09789706021547318,0.01413649320602417,0.12280150502920151,0.05537751317024231,-0.005560651421546936,-0.004905045032501221
94,-0.10535148918468748,0.1767323204544366,1.8231332615417117,-0.10351873934268951,-0.1758137345314026,-0.9789654612541199,0.04277041554450989,0.07704539597034454,0.1357317715883255,0.02273871749639511,-0.0011271685361862183,-0.01781487464904785
95,-0.10136183353523959,0.17672078922480547,1.8534613001733136,-0.09961239248514175,-0.17580237984657288,-0.9793726801872253,0.021873831748962402,-0.020628081634640694,0.18752826750278473,0.02061764895915985,0.01019875705242157,-0.009122133255004883
96,-0.10141343031180704,0.17758047339922933,1.8890755329031694,-0.09964758902788162,-0.17664861679077148,-0.9792168140411377,-0.016841160133481026,0.06233135983347893,0.23732706904411316,0.019935674965381622,0.0028052479028701782,-0.004822432994842529
97,-0.09817375531837344,0.179698037046269,1.9253389796327494,-0.09643784910440445,-0.1787324845790863,-0.9791600704193115,0.06149234250187874,0.13322004675865173,0.2449684590101242,0.026033788919448853,0.006277650594711304,-0.010723352432250977
98,-0.09056648695162653,0.18180485925178236,1.9665717667666158,-0.08895213901996613,-0.18080498278141022,-0.9794881939888,0.09088350832462311,0.08840673416852951,0.30789679288864136,0.034707143902778625,0.0057713985443115234,-0.010364711284637451
99,-0.08894193443606853,0.18542142865607128,2.016925657904259,-0.08730214089155197,-0.18436075747013092,-0.9789736866950989,0.11547373235225677,0.15322768688201904,0.47323471307754517,0.025244638323783875,0.014957666397094727,-0.028701484203338623
100,-0.08998302177908638,0.19140845958953512,2.0738663947610942,-0.0882205218076706,-0.19024181365966797,-0.9777653813362122,0.04027644544839859,0.09471401572227478,0.5602562427520752,0.00707428902387619,0.027659431099891663,0.005734801292419434
101,-0.09003089982073717,0.19927122640291856,2.140249402524127,-0.08813011646270752,-0.19795502722263336,-0.9762411713600159,0.27333641052246094,0.0882110744714737,0.5862931609153748,-0.044422976672649384,0.03195466101169586,0.0020133256912231445
102,-0.08683013926418441,0.20688312566485492,2.195120766136984,-0.0848718211054802,-0.20541049540042877,-0.9749888777732849,-0.041939422488212585,0.13288438320159912,0.39951056241989136,-0.03080505132675171,0.012753009796142578,0.019910752773284912
103,-0.09348506566860086,0.21417112995153262,2.241323447796899,-0.09121620655059814,-0.21253757178783417,-0.9728860855102539,0.07078685611486435,0.12228524684906006,0.476816326379776,-0.0070809051394462585,0.03623753786087036,0.005890905857086182
104,-0.09866830836611526,0.22679152700878866,2.2920034809890257,-0.0959857702255249,-0.22485236823558807,-0.9696536064147949,0.2617570757865906,-0.05338691174983978,0.4181070029735565,-0.005973450839519501,0.011092022061347961,0.012576639652252197
105,-0.1145081907363713,0.2433316428456414,2.3335407321813504,-0.1108921468257904,-0.24093745648860931,-0.9641846418380737,-0.0010015619918704033,-0.011466868221759796,0.40465080738067627,0.030402034521102905,0.000581011176109314,0.0015534758567810059
106,-0.13514449602341197,0.24876754349303148,2.385157623414467,-0.1305859386920929,-0.24620963633060455,-0.9603791832923889,0.3407771587371826,-0.028142116963863373,0.6634525060653687,-0.0017687976360321045,0.03972770273685455,-0.058328092098236084
107,-0.1504855051076524,0.2652446383666047,2.445270918747798,-0.14467528462409973,-0.26214537024497986,-0.9541220664978027,-0.05359578877687454,0.1367843896150589,0.5331375002861023,-0.0058374106884002686,0.04913264513015747,0.10420751571655273
108,-0.15914920486277256,0.24382118261529265,2.5032304488874058,-0.15379084646701813,-0.24141253530979156,-0.9581588506698608,-0.020871952176094055,0.08484923094511032,0.5130090713500977,-0.07261906564235687,0.013018995523452759,-0.04152071475982666
109,-0.1561207139769572,0.23777824598828579,2.5402616302493906,-0.15111243724822998,-0.23554396629333496,-0.9600437879562378,-0.06498090922832489,0.16816523671150208,0.3194991648197174,-0.042292699217796326,-0.00026535987854003906,0.03969466686248779
110,-0.160992721601876,0.22831443549499125,2.5689383036509827,-0.1561383157968521,-0.2263360172510147,-0.9614534974098206,-0.05304604023694992,-0.03523968532681465,0.2902580797672272,-0.008732885122299194,0.02768184244632721,0.011075079441070557
111,-0.16455731694968567,0.21915425693813734,2.607081787725097,-0.15989744663238525,-0.21740418672561646,-0.9628957509994507,0.03077465295791626,0.01410674024373293,0.41275137662887573,-0.016585707664489746,0.002133190631866455,-0.007410645484924316
112,-0.17456564836351252,0.20999680096851747,2.6521127397774853,-0.16986492276191711,-0.20845676958560944,-0.9631675481796265,-0.08400767296552658,-0.012319430708885193,0.4672072231769562,-0.024776190519332886,-0.012612566351890564,-0.013578057289123535
113,-0.18649201768047785,0.2039690232437317,2.704894425113415,-0.18156933784484863,-0.20255766808986664,-0.9622904658317566,0.121773362159729,0.03994306921958923,0.5768072009086609,0.0011189132928848267,-0.002810359001159668,-0.03720593452453613
114,-0.1988282347074918,0.20771621198828896,2.766324351976676,-0.19327497482299805,-0.20622573792934418,-0.9592266082763672,0.08309562504291534,0.10827364772558212,0.5461216568946838,-0.06029558181762695,0.04732070863246918,0.022321701049804688
115,-0.20707286153660467,0.2072398989909829,2.8235576376818385,-0.20119695365428925,-0.20575964450836182,-0.9576966166496277,0.10109877586364746,0.07139112055301666,0.5087025165557861,-0.11263056099414825,0.047907471656799316,0.029321372509002686
116,-0.21713878726778654,0.19867091846148333,2.86394789234485,-0.21119879186153412,-0.19736656546592712,-0.9573095440864563,-0.021061204373836517,-0.054009366780519485,0.28118452429771423,-0.10122489929199219,0.020425662398338318,0.009631931781768799
117,-0.22797186935474267,0.197077114202668,2.8828839947516465,-0.2216276228427887,-0.19580386579036713,-0.9552706480026245,0.01187829114496708,-0.04001406952738762,0.1011587530374527,-0.06790786981582642,0.01665043830871582,0.03780549764633179
118,-0.2377543856581321,0.17980772277427723,2.880665923065384,-0.23172374069690704,-0.17884039878845215,-0.9562009572982788,-0.13681647181510925,-0.06095094233751297,-0.034258484840393066,-0.02167898416519165,0.03510260581970215,-0.01625692844390869
119,-0.24346922455014822,0.1693566300428524,2.8814159315884025,-0.23762206733226776,-0.16854821145534515,-0.956622838973999,-0.07359597831964493,0.02476145699620247,0.03827979415655136,-0.03468629717826843,0.018783196806907654,0.017017126083374023
120,-0.244178400353627,0.15323867457386203,2.8737099434009306,-0.2389262169599533,-0.15263965725898743,-0.9589657783508301,-0.15576379001140594,-0.04637996852397919,-0.09439858794212341,-0.059810370206832886,0.006582528352737427,-0.020053386688232422
121,-0.24773418607313458,0.14929193530620227,2.859559175224349,-0.24248041212558746,-0.14873798191547394,-0.9586867094039917,-0.077826127409935,-0.013724612072110176,-0.1939011812210083,-0.04952700436115265,0.005793660879135132,0.015907227993011475
122,-0.24699124616086882,0.1453205390970498,2.840708569851865,-0.24191060662269592,-0.14480960369110107,-0.9594318270683289,-0.11141610890626907,0.05590549856424332,-0.17625421285629272,-0.04234537482261658,0.0013006925582885742,0.007008731365203857
123,-0.24106142336919634,0.1444730761069935,2.8166788406875596,-0.23624634742736816,-0.1439710110425949,-0.9609682559967041,0.008337683044373989,0.1187753975391388,-0.24917277693748474,-0.032750844955444336,0.0004010796546936035,-0.0245053768157959
124,-0.22860186259027318,0.14400587684816804,2.7912336979526153,-0.224270299077034,-0.1435086727142334,-0.9639025330543518,-0.025894049555063248,0.09129612892866135,-0.19614318013191223,0.0347713977098465,0.0461423397064209,-0.019450128078460693
125,-0.2183793066129541,0.14246024376610364,2.7835962339524687,-0.21445299685001373,-0.14197885990142822,-0.9663601517677307,-0.07724003493785858,0.031531158834695816,-0.056851331144571304,0.0002653747797012329,-0.021870017051696777,0.006811201572418213
126,-0.2046812252421605,0.14796280630717673,2.7759668888166846,-0.20103417336940765,-0.14742350578308105,-0.9684273600578308,-0.01647823303937912,0.0897839218378067,-0.13804438710212708,-0.010223761200904846,-0.008063554763793945,0.01379173994064331
127,-0.19629360088475883,0.1459174519162866,2.765824805933187,-0.19296279549598694,-0.14540019631385803,-0.9703732132911682,-0.06527393311262131,0.07577528059482574,-0.07343603670597076,0.04943862557411194,0.019621998071670532,0.002294600009918213
128,-0.18428140041327074,0.14486145888244192,2.7654038805057977,-0.18132087588310242,-0.14435534179210663,-0.9727714657783508,0.06358231604099274,0.08076071739196777,0.046965740621089935,0.04928657412528992,0.008124873042106628,-0.01654738187789917
129,-0.1725120182091045,0.14352804613486295,2.7731978118432217,-0.1698925495147705,-0.14303576946258545,-0.9750268459320068,-0.10628263652324677,0.010823124088346958,0.0661877766251564,0.019639253616333008,0.0013884305953979492,0.007024526596069336
130,-0.17128796665325688,0.1491876028960291,2.783694824944966,-0.1685582548379898,-0.14863480627536774,-0.9744207859039307,0.16034604609012604,-0.07415899634361267,0.054488614201545715,0.021478787064552307,-0.009781941771507263,0.002084970474243164
131,-0.1713995586154632,0.1546652165477798,2.784202390975557,-0.1685256063938141,-0.1540493220090866,-0.9735850691795349,-0.0074819112196564674,-0.00261812936514616,-0.026956096291542053,0.06966392695903778,0.0342220664024353,-0.0055866241455078125
132,-0.16661405060535087,0.15085741872571484,2.7908183103043425,-0.16396068036556244,-0.15028586983680725,-0.9749518036842346,0.08042620122432709,0.020609620958566666,0.19921760261058807,0.06337475776672363,0.022783443331718445,-0.0649346113204956
133,-0.1624998966805026,0.1544265388945018,2.806668224468076,-0.15986040234565735,-0.15381348133087158,-0.9750825762748718,0.12721943855285645,0.0029276367276906967,0.0768968015909195,0.0030611008405685425,0.00041687488555908203,-0.011672794818878174
134,-0.16046749418222406,0.15765766725570146,2.809688524893287,-0.15779808163642883,-0.15700535476207733,-0.974909782409668,-0.020108509808778763,0.04148188233375549,0.008504888042807579,0.021933823823928833,0.017158567905426025,-0.004384040832519531
135,-0.1571262197519472,0.157512484525679,2.8130386422296794,-0.15454334020614624,-0.15686197578907013,-0.9754540920257568,0.0661415383219719,-0.02091650664806366,0.06493260711431503,0.018358632922172546,0.014360129833221436,-0.021845102310180664
136,-0.1584815951146148,0.16379737501439467,2.8229070864773824,-0.15570662915706635,-0.16306592524051666,-0.9742509722709656,0.07457932829856873,0.008372874930500984,0.10871876031160355,0.010000452399253845,0.006785407662391663,0.030265986919403076
137,-0.15790532168766913,0.15941114552489874,2.8325301497928423,-0.15525615215301514,-0.15873683989048004,-0.9750375151634216,-0.0018961969763040543,-0.008836610242724419,0.12731602787971497,0.03466594219207764,0.011367455124855042,-0.004469931125640869
138,-0.15733850405907762,0.14983625009947976,2.8486939375011553,-0.15493451058864594,-0.14927621185779572,-0.9765817523002625,0.07020676136016846,-0.07115189731121063,0.22725960612297058,0.021969422698020935,0.0032953768968582153,-0.06260281801223755
139,-0.16291702466432556,0.15715295785497804,2.8720801825570903,-0.16019850969314575,-0.15650688111782074,-0.9745984077453613,0.11424444615840912,-0.04709545522928238,0.24487490952014923,0.014324486255645752,0.01531730592250824,0.006153583526611328
140,-0.167573929506039,0.15591110980831555,2.896242071885102,-0.16476766765117645,-0.1552802175283432,-0.9740327000617981,-0.03839009255170822,-0.07506688684225082,0.2344580441713333,0.0021700114011764526,0.0025855302810668945,0.043628036975860596
141,-0.17471937542988014,0.15018677110140916,2.9192932745146134,-0.171875,-0.14962279796600342,-0.9736899137496948,0.1346811056137085,-0.06755979359149933,0.23286879062652588,-0.047515869140625,0.011942759156227112,-0.046527981758117676
142,-0.18599431069605696,0.15494865014344422,2.935752307948726,-0.18270829319953918,-0.1543293595314026,-0.9709789752960205,0.0328669436275959,-0.09517554938793182,0.08230077475309372,-0.056793659925460815,-0.014738023281097412,-0.013029813766479492
143,-0.19301803461126754,0.17433007326941766,2.9493627441045716,-0.18891429901123047,-0.17344839870929718,-0.9665542244911194,0.3673461377620697,0.22079764306545258,0.04202752560377121,-0.06599903106689453,0.02726919949054718,-0.017271459102630615
144,-0.1532590205516678,0.20387241338450413,2.952677788597623,-0.14949816465377808,-0.2024630606174469,-0.9678114652633667,0.3453880250453949,0.37839236855506897,-0.10742560774087906,-0.07431775331497192,-0.0010739266872406006,0.0403517484664917
145,-0.1330881124531312,0.2166525090858097,2.9443818904194594,-0.12959347665309906,-0.21496160328388214,-0.9679860472679138,-0.1851634383201599,0.10924060642719269,-0.15808449685573578,-0.049392104148864746,-0.023273885250091553,0.061736106872558594
146,-0.10776996689286354,0.2039766331515812,2.92802022859214,-0.10533159226179123,-0.20256511867046356,-0.9735875129699707,-0.10615260154008865,0.046928852796554565,-0.2017468959093094,-0.022826969623565674,-0.003108114004135132,-0.005355358123779297
147,-0.10434214305331853,0.202079009051382,2.914418646780078,-0.10203354805707932,-0.20070646703243256,-0.9743233919143677,-0.03190511092543602,0.29184678196907043,-0.09589172899723053,-0.06495863199234009,-0.00029756128787994385,-0.006374239921569824
148,-0.053971333476979584,0.20451535060277803,2.903090113789323,-0.05282089486718178,-0.20309263467788696,-0.9777337908744812,0.04987221583724022,0.477832168340683,-0.0801209807395935,-0.03471878170967102,-0.028184831142425537,0.004833400249481201
149,-0.014578957345048433,0.22051834502798448,2.892423825457308,-0.014225412160158157,-0.2187354415655136,-0.9756805300712585,-0.059446100145578384,0.13335025310516357,-0.18086642026901245,-0.03701360151171684,0.0008552223443984985,0.08630675077438354
150,0.003405907190953062,0.20226132287395174,2.8748753356841537,0.0033364708069711924,-0.20088507235050201,-0.9796091318130493,-0.12285660207271576,0.018809080123901367,-0.12791398167610168,-0.005137009546160698,-0.008358702063560486,-0.024571776390075684
151,0.0008733302513389431,0.20087579125443597,2.8618862363383895,0.0008557693799957633,-0.1995275914669037,-0.979891836643219,0.11081661283969879,0.03004259243607521,-0.08747676759958267,-0.026353206485509872,0.0007513463497161865,-0.038983285427093506
152,-0.007138098340733491,0.21547957181906252,2.8586460091710455,-0.006972962990403175,-0.21381592750549316,-0.9768490791320801,0.11260545998811722,-0.14086657762527466,-0.10836287587881088,-0.033661194145679474,-0.039449453353881836,0.026958942413330078
153,-0.010306958734154504,0.22028677365633434,2.850782210491626,-0.01005771104246378,-0.2185094803571701,-0.9757829904556274,-0.04655230790376663,0.09482970088720322,-0.04666833579540253,-0.010038113221526146,-0.016140177845954895,0.03393423557281494
154,-0.013378444560040014,0.22059831646157158,2.851644884716965,-0.013053851202130318,-0.2188134789466858,-0.9756793975830078,-0.034559473395347595,-0.015012471936643124,0.030998781323432922,-0.021186871454119682,-0.015378415584564209,-0.0009136199951171875
155,-0.009724244160550712,0.21743972737269468,2.8514554578942506,-0.009495117701590061,-0.21573035418987274,-0.9764068126678467,-0.007910750806331635,0.09327045828104019,-0.019039466977119446,-0.007732056081295013,0.011552497744560242,-0.0034515857696533203
156,-0.003156863714604991,0.21139489653301413,2.8554261459139365,-0.0030865841545164585,-0.20982395112514496,-0.9777343273162842,-0.10873107612133026,0.07198785990476608,0.07132698595523834,-0.0014757942408323288,-0.02654995024204254,0.02706599235534668
157,0.007678559975796362,0.20091148339154888,2.8651780159690237,0.007524032611399889,-0.19956256449222565,-0.9798561930656433,-0.09085743874311447,0.11931350082159042,0.17151516675949097,-0.0233321376144886,-0.008353710174560547,-0.01762610673904419
158,0.007798839741578313,0.20689105197185673,2.8881451691488813,0.007632446475327015,-0.20541824400424957,-0.9786444902420044,0.012949284166097641,0.031742438673973083,0.16298073530197144,-0.03671569749712944,-0.021418899297714233,-0.02837449312210083
159,0.014993207871072098,0.21075290733474047,2.904705572212732,0.014660914428532124,-0.20919620990753174,-0.9777637720108032,-0.16091783344745636,0.14988377690315247,0.11165591329336166,-0.019757350906729698,0.007581844925880432,0.012462317943572998
160,0.012127010379406323,0.21133644169267538,2.9268000838615458,0.011856911703944206,-0.20976679027080536,-0.9776795506477356,-0.053988195955753326,-0.06433774530887604,0.16232463717460632,-0.06182944402098656,-0.012614786624908447,-0.006024062633514404
161,-0.017334685248961822,0.21795532419563846,2.929221002573843,-0.016923727467656136,-0.2162337750196457,-0.9761949181556702,0.1502399444580078,-0.27079787850379944,-0.10453653335571289,-0.012403663247823715,0.027314722537994385,0.02003347873687744
162,-0.03631366101762843,0.22494170057124419,2.926326461943969,-0.03539103642106056,-0.22304953634738922,-0.9741644263267517,-0.057988040149211884,-0.3042148947715759,-0.03397020325064659,0.020254317671060562,0.06805075705051422,0.027524471282958984
163,-0.04799424465489332,0.21364595834597067,2.922949425411464,-0.046885062009096146,-0.21202436089515686,-0.9761390686035156,-0.007201226428151131,-0.09398187696933746,-0.037978384643793106,0.022394705563783646,0.048144981265068054,-0.038311004638671875
164,-0.044036068353354885,0.21634057417857058,2.917111261622762,-0.04299566522240639,-0.21465694904327393,-0.9757426977157593,0.15706771612167358,0.05655510723590851,-0.14189131557941437,-0.003818303346633911,0.041820645332336426,-0.021236062049865723
165,-0.033137095018809196,0.2179229745199747,2.904864858049356,-0.032347436994314194,-0.21620218455791473,-0.9758126139640808,-0.030097655951976776,0.024859212338924408,-0.09568353742361069,0.047651998698711395,0.061508581042289734,0.02090233564376831
166,-0.01800221416192126,0.21265524860867457,2.8865850980729206,-0.017595745623111725,-0.21105608344078064,-0.9773155450820923,0.039321206510066986,0.1621062159538269,-0.17157147824764252,0.030413130298256874,0.01845964789390564,-0.0038092732429504395
167,0.0009939451175779287,0.21460678158978747,2.851781232815272,0.0009711440652608871,-0.2129632532596588,-0.9770597219467163,-0.03335946798324585,0.07425742596387863,-0.41268521547317505,-0.007883375510573387,-0.0042913854122161865,0.03550088405609131
168,0.0214277385387905,0.20559931801666936,2.7778185748425632,0.020974839106202126,-0.2041538953781128,-0.9787140488624573,0.03655204176902771,0.034277405589818954,-0.5508833527565002,-0.003930769860744476,-0.004586338996887207,-0.006957948207855225
169,0.035180921079571374,0.19979520217117458,2.6915431205367217,0.0344739630818367,-0.19846861064434052,-0.9795007705688477,-0.19165407121181488,0.019648727029561996,-0.582879900932312,-0.0064435675740242004,0.011487409472465515,0.022500038146972656
170,0.04483178584659346,0.18697026387677224,2.6032806246155946,0.04403569921851158,-0.1858828216791153,-0.9815846681594849,0.046861402690410614,-0.040032513439655304,-0.7789079546928406,-0.02282598242163658,-0.013503775000572205,-0.04504191875457764
171,0.050975505667583534,0.18807028280627944,2.515006089623504,0.05005496367812157,-0.18696355819702148,-0.981090784072876,-0.04790974780917168,-0.06175173819065094,-0.7342020273208618,0.01641232520341873,-0.01353694498538971,0.03393197059631348
172,0.06275912019337916,0.1812234954260073,2.4334959623844212,0.06169085577130318,-0.1802331656217575,-0.9816874265670776,-0.0005733156576752663,-0.043311044573783875,-0.6363359689712524,0.07606549561023712,-0.0186498761177063,0.03216356039047241
173,0.06774782069971788,0.16884681591916578,2.371814149809756,0.06673331558704376,-0.16804566979408264,-0.9835178256034851,-0.06859362870454788,-0.00795756559818983,-0.4343603551387787,0.08806709200143814,-0.019103363156318665,-0.04129296541213989
174,0.06763780996703264,0.169510351192872,2.3342817908002527,0.06661757081747055,-0.1686997413635254,-0.9834136962890625,0.18114228546619415,-0.11760156601667404,-0.22548207640647888,0.08644334971904755,-0.0027175098657608032,-0.0395355224609375
175,0.04442418279998509,0.18786547253752503,2.3252641992311656,0.04362818971276283,-0.18676234781742096,-0.9814358949661255,0.13817580044269562,-0.42072513699531555,0.08980534970760345,0.04005100950598717,-0.01883457601070404,0.007848858833312988
176,0.006983085974109464,0.20308134389073232,2.3273207458889957,0.006839526351541281,-0.20168830454349518,-0.979425847530365,0.15063734352588654,-0.1467570662498474,-0.14852437376976013,-0.05321098119020462,-0.023668736219406128,0.031870365142822266
177,0.0027098589907752105,0.1992161200602852,2.3079037154042674,0.002656260272487998,-0.19790101051330566,-0.9802184104919434,-0.1354895681142807,-0.048041313886642456,-0.13697469234466553,0.10107298940420151,0.011240258812904358,0.02311086654663086
178,0.005098393526526189,0.18956633641596307,2.305323004366768,0.005007039289921522,-0.18843302130699158,-0.9820733070373535,-0.013199570588767529,-0.04811052232980728,0.115016408264637,0.06614469736814499,-0.007169395685195923,-0.028836727142333984
179,0.0013965396146879442,0.18113377351601567,2.319313949952641,0.001373691949993372,-0.18014492094516754,-0.983639121055603,-0.07921920716762543,-0.19253505766391754,0.18631628155708313,0.009383752942085266,-0.02209506928920746,-0.013354897499084473
180,-0.021566278574985553,0.17675427257453777,2.336797354989248,-0.021228620782494545,-0.17583534121513367,-0.9841906428337097,-0.10072101652622223,-0.07602100819349289,0.20601119101047516,0.0863073542714119,0.04306863248348236,-0.026948213577270508
181,-0.028213998769555153,0.1740117439104855,2.3658934430650853,-0.027784228324890137,-0.17313489317893982,-0.9845061302185059,-0.04283985123038292,0.029276756569743156,0.4399852454662323,0.07856547832489014,0.02265271544456482,-0.00881052017211914
182,-0.023544974638390854,0.1802800566911965,2.418612453853874,-0.023161252960562706,-0.1793050915002823,-0.9835208654403687,-0.05625951290130615,0.15167644619941711,0.6038311123847961,0.12507471442222595,-0.0032052844762802124,0.07453954219818115
183,-0.018288270738643125,0.16377558378497614,2.5053866193119205,-0.018042543902993202,-0.16304442286491394,-0.9864537119865417,0.19132240116596222,0.08585606515407562,1.2334423065185547,0.0289220679551363,0.046452030539512634,-0.07778573036193848
184,-0.03730690955287931,0.1756753606542047,2.608576955508357,-0.036724187433719635,-0.17477314174175262,-0.983923614025116,0.040289558470249176,0.15141543745994568,1.0797818899154663,0.003078557550907135,0.02484029531478882,-0.008614838123321533
185,-0.04645669672793233,0.17788166230918337,2.7181739381262946,-0.04570719972252846,-0.1769450604915619,-0.9831588268280029,0.15342022478580475,0.09756502509117126,1.475471019744873,0.11472269892692566,0.057743415236473083,0.025029003620147705
186,-0.05570061653272978,0.17691645560686003,2.8591591451993836,-0.05480284243822098,-0.17599500715732574,-0.9828643798828125,-0.025434281677007675,0.2145380824804306,1.5867074728012085,-0.058768320828676224,0.06602491438388824,-0.017806947231292725
187,-0.07168368032659639,0.18099705394341437,3.003413942129638,-0.07045233249664307,-0.18001042306423187,-0.9811384677886963,0.17933891713619232,0.05708737671375275,1.4165319204330444,-0.13766229152679443,0.043306946754455566,0.02659440040588379
188,-0.08077355837942667,0.18446779404366914,3.100606430549489,-0.07931683957576752,-0.18342338502407074,-0.9798288941383362,0.19597698748111725,0.21855533123016357,0.9787193536758423,-0.12458635121583939,0.061612486839294434,-0.03822219371795654
189,-0.07967394899571888,0.1944964854723946,-3.1164978067559894,-0.07808902859687805,-0.19327254593372345,-0.978032648563385,0.0990711897611618,0.11111506074666977,0.7206985354423523,-0.05011531710624695,0.046254098415374756,0.04152446985244751
190,-0.08804441065714125,0.20131831960390512,-3.062806648140079,-0.08615484088659286,-0.19996120035648346,-0.9760086536407471,0.2059808373451233,0.0569218210875988,0.7536228895187378,-0.048320867121219635,0.04471828043460846,0.01639866828918457
191,-0.11774815513483729,0.21451377431812918,-3.0037404922134114,-0.11478369683027267,-0.21287237107753754,-0.9703143835067749,0.29669299721717834,-0.29446664452552795,0.512464165687561,-0.13909202814102173,0.03114020824432373,-0.05457264184951782
192,-0.1660023946621827,0.2502913563401253,-2.9720155159979713,-0.16009216010570526,-0.2476862519979477,-0.9555218815803528,0.4929725229740143,-0.4050450623035431,0.3469165861606598,-0.09154051542282104,0.008947253227233887,0.021638214588165283
193,-0.20601837082247138,0.27380196723251854,-2.9355420139065345,-0.19694405794143677,-0.2703937292098999,-0.9423907399177551,-0.004352031275629997,-0.10987252742052078,0.5177683234214783,-0.006089389324188232,0.008247733116149902,0.10541564226150513
194,-0.21691304944613882,0.23846924566109906,-2.9075304032921094,-0.2091255784034729,-0.2362154722213745,-0.9489303231239319,-0.05378803238272667,0.05133340135216713,0.4736766815185547,-0.1149100661277771,0.02500331401824951,-0.08181613683700562
195,-0.21015409745475355,0.24766022084952063,-2.878324983166149,-0.20224562287330627,-0.24513624608516693,-0.9481587409973145,0.06555701792240143,0.23627130687236786,0.32695481181144714,-0.05689440667629242,-0.028881102800369263,0.07994890213012695
196,-0.20957069138338422,0.21881914441093897,-2.8623800448097847,-0.20307917892932892,-0.2170770764350891,-0.954796552658081,-0.15484559535980225,0.24794277548789978,0.5082292556762695,-0.04438786208629608,0.03618413209915161,-0.08118367195129395
197,-0.20096217347930606,0.23522140728893712,-2.828595641130432,-0.19411545991897583,-0.23305830359458923,-0.9528919458389282,0.6059956550598145,0.08673010766506195,0.41000083088874817,0.04601365327835083,-0.09232012927532196,-0.06821095943450928
198,-0.2058824465459344,0.304002598734428,-2.7989663248950807,-0.19505706429481506,-0.2993416488170624,-0.9339953660964966,0.5166519284248352,0.4031011164188385,0.581640362739563,-8.758902549743652e-05,0.18995141983032227,0.15334045886993408
199,-0.19719027938752418,0.3069036139132375,-2.74102026659006,-0.18676044046878815,-0.30210837721824646,-0.9348000288009644,-0.049854427576065063,0.18855296075344086,0.46489161252975464,0.029060855507850647,0.00137290358543396,0.041092753410339355
200,-0.1898793010858966,0.30128692756165465,-2.70662437573029,-0.18023863434791565,-0.29674941301345825,-0.9377920031547546,0.208137646317482,0.23509645462036133,0.299417108297348,-0.03480347990989685,-0.04574936628341675,-0.11952000856399536
201,-0.19042075095841648,0.3432613894232022,-2.6847318412486425,-0.17823031544685364,-0.3365600109100342,-0.9246411919593811,0.5005006194114685,0.009469804354012012,0.2877114713191986,0.05316928029060364,0.04269096255302429,0.024052202701568604
202,-0.20683438068314533,0.3392154239426754,-2.649798689649299,-0.19366039335727692,-0.33274734020233154,-0.9229165315628052,0.014653109014034271,0.0330529548227787,0.5929417014122009,0.07047620415687561,0.016478419303894043,-0.009487032890319824
203,-0.1818804566027805,0.3207982265817799,-2.610929587945353,-0.17165160179138184,-0.31532415747642517,-0.9333308339118958,0.01412726566195488,0.11161242425441742,0.31967246532440186,0.049779653549194336,0.02676519751548767,-0.03903549909591675
204,-0.18196765443993818,0.32867914569358847,-2.5703946830707993,-0.1712779402732849,-0.3227931559085846,-0.9308428764343262,0.06227840110659599,0.42498838901519775,0.4517041742801666,-0.0017719864845275879,0.0009242892265319824,0.018489360809326172
205,-0.12465308151564483,0.29282286250529893,-2.5496139461102665,-0.11903811991214752,-0.288656085729599,-0.950003981590271,-0.30690860748291016,0.4280482828617096,0.28001630306243896,0.08813907951116562,0.018606066703796387,-0.010368883609771729
206,-0.09470050623635472,0.2661358189862935,-2.5218720385466513,-0.09123001247644424,-0.26300525665283203,-0.9604713916778564,-0.1424044966697693,0.37833163142204285,0.32701167464256287,0.005994416773319244,-0.006373405456542969,-0.007744550704956055
207,-0.08965928047198986,0.2553828261868341,-2.5065157410967145,-0.08663515001535416,-0.2526158392429352,-0.9636802077293396,0.10038617998361588,0.09326307475566864,0.19660040736198425,0.007594630122184753,-0.006188452243804932,-0.028308868408203125
208,-0.08894201275567465,0.2553523592118227,-2.510418115020996,-0.08594459295272827,-0.25258636474609375,-0.9637497663497925,-0.016354409977793694,0.06268259882926941,0.08327890932559967,0.05321449041366577,0.03376007080078125,-0.02068626880645752
209,-0.08898876352904733,0.2579422973872367,-2.507229662110553,-0.0859312191605568,-0.25509145855903625,-0.9630909562110901,0.032970305532217026,-0.03761015832424164,0.08355080336332321,-0.002462945878505707,0.030726253986358643,0.04971510171890259
210,-0.0947637173141346,0.2446867054428846,-2.506406958687813,-0.09180346876382828,-0.242252379655838,-0.9658601880073547,-0.13440310955047607,-0.019247718155384064,0.10367056727409363,-0.07338818162679672,0.08198931813240051,0.021676838397979736
211,-0.10599590173844518,0.22592157084970604,-2.5071218568129283,-0.10310901701450348,-0.2240046113729477,-0.9691184163093567,-0.15092775225639343,-0.08008032292127609,-0.09550125151872635,-0.11608348786830902,0.006749972701072693,-0.01014488935470581
212,-0.121861269569521,0.21177685514643046,-2.5307352364432862,-0.11884410679340363,-0.21019738912582397,-0.9704087376594543,-0.01133410818874836,-0.17977306246757507,-0.269778847694397,-0.11066333204507828,0.007148683071136475,-0.049198806285858154
213,-0.14000508308193635,0.21104496718240845,-2.5725689782403682,-0.13645192980766296,-0.20948179066181183,-0.9682449102401733,-0.09643127769231796,-0.3139217495918274,-0.46502813696861267,-0.06475044786930084,0.010583490133285522,0.006987035274505615
214,-0.1537629324369553,0.21989179017987381,-2.6330336547816557,-0.14946986734867096,-0.21812401711940765,-0.9644069075584412,0.0588887482881546,-0.13459846377372742,-0.5774827003479004,-0.02217625081539154,0.04249536991119385,0.006627976894378662
215,-0.15914002359177018,0.21836517641287428,-2.6973226709969826,-0.1547059714794159,-0.21663391590118408,-0.9639168977737427,-0.13589514791965485,-0.2582769989967346,-0.6172093152999878,-0.060458213090896606,0.020909428596496582,-0.036693453788757324
216,-0.16741710079248945,0.22798988913088053,-2.771157288021109,-0.16232402622699738,-0.22601988911628723,-0.9605029821395874,-0.031916361302137375,-0.27051734924316406,-0.7522870302200317,-0.033598825335502625,0.02815917134284973,0.004463553428649902
217,-0.1834142770744619,0.23288921065174095,-2.8448420851859084,-0.1774638444185257,-0.2307896912097931,-0.9566831588745117,-0.10885370522737503,-0.2940460741519928,-0.6389599442481995,0.005298927426338196,0.01562550663948059,0.02044963836669922
218,-0.19601271760071862,0.2251196864253875,-2.903505343579524,-0.18984565138816833,-0.2232230305671692,-0.9561015367507935,-0.1634424775838852,-0.21408937871456146,-0.45864468812942505,0.026805490255355835,0.03978186845779419,0.000809788703918457
219,-0.20071389318048236,0.2151452388682841,-2.9567709444170314,-0.19477257132530212,-0.2134893238544464,-0.9573327302932739,-0.12177097797393799,-0.041653309017419815,-0.5266937017440796,-0.027441173791885376,0.01813104748725891,-0.0006903409957885742
220,-0.1945750900455207,0.20697921319914073,-3.0109877156722957,-0.18922284245491028,-0.20550453662872314,-0.9601888656616211,-0.24819041788578033,-0.06406766176223755,-0.5264601111412048,-0.07795855402946472,0.019332051277160645,0.005705833435058594
221,-0.18888591664653706,0.20390957999594034,-3.082090854981397,-0.1838746964931488,-0.20249944925308228,-0.9618648886680603,-0.08151795715093613,-0.12935060262680054,-0.7495377063751221,-0.04946269094944,0.024063169956207275,-0.019504129886627197
222,-0.18691119113409316,0.21299215408777888,3.1278054166646556,-0.18162564933300018,-0.21138538420200348,-0.9603792428970337,0.08400170505046844,-0.2088594287633896,-0.6786816120147705,-0.024474799633026123,0.05209890007972717,-0.012917816638946533
223,-0.19712948400745875,0.23409744757010922,3.057078866171843,-0.19051308929920197,-0.23196513950824738,-0.9538851976394653,0.1248660460114479,-0.3611597716808319,-0.6971541047096252,-0.032982394099235535,0.03854474425315857,-0.002062678337097168
224,-0.21340064240661508,0.26235090522793053,2.9852944734647284,-0.20453797280788422,-0.2593517303466797,-0.9438754916191101,-0.01857561245560646,-0.3198407292366028,-0.6503963470458984,-0.017492666840553284,-0.0020923614501953125,-0.006167232990264893
225,-0.25086873423828776,0.3040756350384389,2.912353302814446,-0.2368571013212204,-0.2994113564491272,-0.9242572784423828,0.4137074947357178,-0.38461482524871826,-0.8428297638893127,-0.06696061789989471,0.0470615029335022,0.010728895664215088
226,-0.2530431792190818,0.32195378061713387,2.8326495618980463,-0.23748807609081268,-0.3164205551147461,-0.9184103012084961,-0.2791101038455963,-0.032393164932727814,-0.8933451175689697,-0.06097382307052612,0.045821189880371094,-0.017319679260253906
227,-0.21979928186381534,0.3186592034027258,2.7329935362702233,-0.20705711841583252,-0.31329354643821716,-0.926808774471283,-0.1281081736087799,-0.03104829043149948,-0.982305645942688,0.011942967772483826,0.015548795461654663,-0.10471588373184204
228,-0.18086948750273793,0.34849511679624634,2.6520800410839658,-0.16907164454460144,-0.3414837718009949,-0.9245558977127075,0.34511545300483704,-0.13423161208629608,-0.8281911611557007,0.05792662501335144,0.08216065168380737,0.01450645923614502
229,-0.1577283616053997,0.3683629785913585,2.5835512372845466,-0.14653827250003815,-0.3600887060165405,-0.9213374257087708,0.00254744291305542,-0.022632643580436707,-0.7937728762626648,0.003288760781288147,0.07351338863372803,0.007076561450958252
230,-0.14637614226019158,0.37313319841409776,2.5180126273661907,-0.135817751288414,-0.36453482508659363,-0.921231746673584,-0.34216031432151794,-0.17111249268054962,-0.7904513478279114,0.019149035215377808,0.05380484461784363,0.027066707611083984
231,-0.1304701745728712,0.34646317110331315,2.4406494891123893,-0.12236972153186798,-0.3395732641220093,-0.9325854778289795,-0.3971650004386902,-0.12771867215633392,-0.9516329169273376,0.008020356297492981,0.06628835201263428,-0.031174898147583008
232,-0.12119010647643978,0.3350247908085352,2.3525758863199457,-0.11417224258184433,-0.3287925720214844,-0.9374753832817078,-0.25705820322036743,-0.22791051864624023,-1.123213529586792,0.05953051894903183,0.029674530029296875,-0.046182453632354736
233,-0.1046803875505677,0.31024112590081565,2.2653918781203917,-0.09950099140405655,-0.30528825521469116,-0.9470472931861877,-0.34636563062667847,-0.26703524589538574,-0.9361130595207214,0.10455165058374405,0.05193135142326355,-0.04813086986541748
234,-0.10155162786660973,0.30235698455427784,2.202166002433899,-0.09677843004465103,-0.2977710962295532,-0.9497190713882446,0.0024280892685055733,-0.11506472527980804,-0.7854034304618835,-0.014168232679367065,0.021388649940490723,-0.05560624599456787
235,-0.11233138291060654,0.30738459029712023,2.1324881198523125,-0.10684118419885635,-0.30256685614585876,-0.9471210241317749,-0.21538688242435455,-0.39900660514831543,-0.8622434139251709,0.04525671899318695,-0.03648340702056885,-0.006034433841705322
236,-0.12839815890089695,0.31681117041546075,2.0626966086350462,-0.12167329341173172,-0.3115380108356476,-0.9424116015434265,-0.0006152698770165443,-0.5204983353614807,-1.0213561058044434,0.08056612312793732,-0.06745973229408264,-0.10563826560974121
237,-0.13088277252913094,0.347251546360072,1.9843211547373554,-0.12271951884031296,-0.34031468629837036,-0.9322691559791565,0.37726497650146484,-0.4118201732635498,-1.036531925201416,0.06688760221004486,0.03037816286087036,-0.07342231273651123
238,-0.13023957932559152,0.3865600982865335,1.9020000977146563,-0.12028864771127701,-0.37700456380844116,-0.9183671474456787,-0.18058271706104279,-0.20847216248512268,-0.9492144584655762,0.042117878794670105,0.09706681966781616,0.05432295799255371
239,-0.0997082731381972,0.40153529590940823,1.8251498599553326,-0.09162568300962448,-0.39083197712898254,-0.9158903360366821,0.041464291512966156,0.13730354607105255,-0.6408681869506836,0.030453190207481384,0.15117746591567993,0.07862532138824463
240,-0.0976311480663658,0.388490463859626,1.7644133500775587,-0.0902123898267746,-0.37879180908203125,-0.921074628829956,-0.44300001859664917,-0.5219722390174866,-0.7089478969573975,-0.0759405642747879,0.05574798583984375,0.10445475578308105
241,-0.11768768849596657,0.32553495241817654,1.7147989444850202,-0.11124948412179947,-0.3198156952857971,-0.9409258365631104,-0.4717366397380829,-0.29792553186416626,-0.5698444247245789,-0.16580432653427124,-0.008355051279067993,-0.12209290266036987
242,-0.14633477327134187,0.33132722673623954,1.6410237799879135,-0.13788250088691711,-0.32529836893081665,-0.9355049133300781,-0.015855107456445694,-0.4022737443447113,-0.8839090466499329,-0.09173175692558289,0.01423269510269165,0.015872955322265625
243,-0.16493403882298222,0.338989972790538,1.549384128726067,-0.1548435389995575,-0.33253470063209534,-0.9302924871444702,-0.07867918908596039,-0.499298095703125,-0.9833683371543884,-0.049975186586380005,0.0008086264133453369,-0.021291375160217285
244,-0.1640226794618309,0.3465227439811142,1.4517068371246555,-0.15358226001262665,-0.33962929248809814,-0.9279356002807617,-0.09287968277931213,-0.3641466498374939,-1.0094102621078491,-0.021573379635810852,0.0049277544021606445,0.005679130554199219
245,-0.15357755146158952,0.3494126517436412,1.3572223034810387,-0.14373089373111725,-0.3423460125923157,-0.9285152554512024,-0.20907114446163177,-0.18945267796516418,-0.8419201374053955,0.004875928163528442,0.02027878165245056,0.03734099864959717
246,-0.1556266904509243,0.33933324768746664,1.2813386131348425,-0.14616069197654724,-0.33285844326019287,-0.9315805435180664,-0.1567620038986206,-0.38777902722358704,-0.7169235944747925,-0.012927442789077759,-0.004208236932754517,0.031357765197753906
247,-0.15338951905819007,0.32755059761851146,1.2117773636273426,-0.1446654349565506,-0.3217248320579529,-0.9357163310050964,-0.10862680524587631,-0.14385002851486206,-0.5469778776168823,-0.010775834321975708,-0.007819265127182007,-0.031843483448028564
248,-0.15540737180559963,0.32741748125817444,1.1663963726258861,-0.1465599089860916,-0.32159876823425293,-0.9354647994041443,-0.04761642962694168,-0.16528832912445068,-0.4758712947368622,-0.053726956248283386,-0.01298069953918457,0.029321610927581787
249,-0.1483488308231271,0.3168863708655006,1.1180489561101463,-0.14044611155986786,-0.3116094768047333,-0.9397736191749573,-0.14454294741153717,-0.03408396244049072,-0.4084155261516571,-0.03858524560928345,-0.011785298585891724,0.0036316514015197754
250,-0.136635768659981,0.3119508511295661,1.0879337009474455,-0.12963701784610748,-0.30691590905189514,-0.942866325378418,-0.03895646333694458,0.03848963975906372,-0.19205233454704285,-0.02989363670349121,-0.02633604407310486,0.01879405975341797
251,-0.11613255206399015,0.30009782492946285,1.053989856259825,-0.11069309711456299,-0.2956136465072632,-0.9488728046417236,0.030099529772996902,0.12133031338453293,-0.3005736172199249,-0.034234873950481415,-0.0019327104091644287,-0.10471600294113159
252,-0.07243436320042809,0.31198312781119336,1.0230033837784913,-0.0688774511218071,-0.30694663524627686,-0.9492310881614685,0.09669029712677002,0.5903511643409729,-0.2622920870780945,-0.016892194747924805,0.050598978996276855,0.010556161403656006
253,-0.058961700481221485,0.32987083022741437,1.0083461244660723,-0.055750418454408646,-0.3239208161830902,-0.9444401264190674,0.2718562185764313,-0.5267837643623352,-0.03830419108271599,0.08445220440626144,0.06108817458152771,0.0015995502471923828
254,-0.02172847216013706,0.2851902742957049,0.9868177842122076,-0.020849177613854408,-0.2813400328159332,-0.959381639957428,-0.9656480550765991,-0.021673565730452538,-0.4237138032913208,0.05861467868089676,0.03249970078468323,-0.02998298406600952
255,-0.041968096129277,0.257299800044086,0.9860668884326693,-0.04057461768388748,-0.25447016954421997,-0.9662290811538696,0.14570865035057068,0.032299626618623734,0.09626398235559464,0.06804044544696808,0.05725032091140747,-0.08095109462738037
256,-0.01328083077669377,0.2684391919300851,0.9836179724956466,-0.012804815545678139,-0.2652268409729004,-0.9641010165214539,-0.19065560400485992,0.3303058445453644,0.05820835381746292,0.06802637130022049,0.01594400405883789,0.05902594327926636
257,0.01774917470131843,0.24779058768259402,0.9861264445996508,0.01720615290105343,-0.24526262283325195,-0.9693039655685425,0.043088048696517944,-0.029888363555073738,0.007914889603853226,0.03775601089000702,-0.025870785117149353,-0.03287804126739502
258,0.04045127385121349,0.2641334845022908,0.9839113367428375,0.039037737995386124,-0.26107290387153625,-0.9645293951034546,0.03879362344741821,0.28717076778411865,-0.20584000647068024,0.005975689738988876,-0.008305728435516357,0.036932408809661865
259,0.050556097810460714,0.26209621962825325,0.9664009173590612,0.048808757215738297,-0.25910574197769165,-0.9646149277687073,-0.17178624868392944,-0.004184366669505835,-0.019829116761684418,0.0781901478767395,0.01594167947769165,0.024948179721832275
260,0.04547819723039266,0.26070118866090725,0.9712444125644858,0.04392632097005844,-0.25775811076164246,-0.9652104377746582,0.06296522170305252,-0.12834163010120392,0.2031017243862152,0.10689155012369156,0.032721489667892456,-0.0587306022644043
261,0.054231638301795705,0.25313261079081567,0.9935838024188849,0.05247768759727478,-0.25043797492980957,-0.966709315776825,0.07348152250051498,0.07038305699825287,0.3321881592273712,0.07204928249120712,0.02535557746887207,-0.02503567934036255
262,0.0507941627198461,0.2650373151591626,1.0365598343635554,0.048999492079019547,-0.26194527745246887,-0.9638380408287048,0.0831485390663147,0.13207025825977325,0.33541780710220337,-0.019107520580291748,0.03762581944465637,0.014161527156829834
263,0.047481233946342044,0.2608992881779325,1.07564358721387,0.045857157558202744,-0.25794950127601624,-0.9650695323944092,-0.10114538669586182,0.09610547870397568,0.2717159688472748,0.013942040503025055,0.014342933893203735,0.03533625602722168
264,0.04375799246339618,0.2524532169116047,1.1155080520289706,0.04235745593905449,-0.24978016316890717,-0.9673756957054138,-0.009943505749106407,0.05044681951403618,0.4049239456653595,0.04264925420284271,0.039147838950157166,-0.05268961191177368
265,0.04604615896179812,0.2608382548828307,1.1684917885842943,0.044472888112068176,-0.2578905522823334,-0.9651500582695007,0.008802130818367004,0.13472862541675568,0.5177684426307678,-0.020379260182380676,0.008607685565948486,0.027756869792938232
266,0.030779385220261156,0.2573943654386498,1.215165474008664,0.029760707169771194,-0.2545616328716278,-0.9665985107421875,-0.19061003625392914,-0.07333056628704071,0.17740394175052643,-0.0763000100851059,0.03144758939743042,0.0292205810546875
267,0.014655081842693846,0.24941167253625637,1.2554952025300974,0.014201113022863865,-0.24683387577533722,-0.9689537286758423,0.004766908939927816,-0.10092277824878693,0.25685667991638184,-0.07505316287279129,-0.001197725534439087,0.01160210371017456
268,0.0005750287516403641,0.24326471535181216,1.282608053108562,0.0005580980214290321,-0.24087250232696533,-0.9705566167831421,-0.045414745807647705,-0.19281408190727234,0.18353553116321564,-0.07727928459644318,0.013409733772277832,-0.00795900821685791
269,-0.025875093230847995,0.2335275173603482,1.2955062009124727,-0.025169935077428818,-0.23141072690486908,-0.9725304841995239,-0.18823856115341187,-0.148620143532753,0.10875555127859116,-0.09860936552286148,0.00634358823299408,-0.006503939628601074
270,-0.05753746608388536,0.23008745993972174,1.3077518645614084,-0.05599024519324303,-0.2280626744031906,-0.9720352292060852,-0.1255543828010559,-0.2023043930530548,-0.117676742374897,-0.10470005869865417,-0.009241998195648193,0.03616797924041748
271,-0.08985535455707666,0.21556052668732226,1.3018562841629249,-0.08765773475170135,-0.2138950228691101,-0.972915768623352,-0.22277168929576874,-0.5042532086372375,0.14154201745986938,0.039806172251701355,0.039548084139823914,0.05471813678741455
272,-0.10330490279855879,0.16462118022962208,1.3120755461869658,-0.10172711312770844,-0.1638786494731903,-0.9812213778495789,-0.27345001697540283,-0.07379419356584549,0.22809043526649475,-0.022357359528541565,-0.016739636659622192,-0.09731560945510864
273,-0.10755991073605652,0.17262457216781232,1.341302514080647,-0.10575708746910095,-0.17176850140094757,-0.9794442653656006,0.0915096253156662,-0.08146154135465622,0.06212017312645912,-0.11396947503089905,-0.04547087848186493,0.031034231185913086
274,-0.1217766408789669,0.16372774047253294,1.3465939168748153,-0.11985132843255997,-0.16299721598625183,-0.9793199300765991,-0.20815151929855347,0.008382140658795834,-0.19209006428718567,-0.09355808049440384,-0.008420005440711975,0.036998212337493896
275,-0.12375432493428971,0.14191977520685828,1.3198304119534203,-0.12219766527414322,-0.14144384860992432,-0.9823753833770752,-0.1621914803981781,-0.2080797255039215,-0.19664202630519867,-0.011209927499294281,-0.021886229515075684,-0.009094953536987305
276,-0.17882792792114857,0.14590166905784838,1.3248349949370408,-0.1759864240884781,-0.14538457989692688,-0.973597526550293,-0.20039275288581848,-0.5087132453918457,0.4378734529018402,0.1584235578775406,0.02499273419380188,0.15224742889404297
277,-0.21975782081870263,0.1089938541505386,1.3837219352117403,-0.2166997194290161,-0.10877817869186401,-0.9701590538024902,0.5414427518844604,-0.6057633757591248,0.5451671481132507,-0.01119031012058258,0.07295054942369461,-0.20125818252563477
278,-0.21271830011032733,0.1477803314589107,1.5189056016235405,-0.20881660282611847,-0.14724302291870117,-0.9668066501617432,0.09439186751842499,0.7431972622871399,1.0824204683303833,-0.17787164449691772,-0.008823871612548828,0.17054200172424316
279,-0.16530570787031057,0.07723393747482779,1.5734124656070856,-0.16406333446502686,-0.07715717703104019,-0.9834276437759399,-0.8631657958030701,0.24356535077095032,0.2830732762813568,-0.13946448266506195,-0.03537639230489731,0.08105343580245972
280,-0.10985743547823992,0.001996230751696945,1.575787012480522,-0.10963638126850128,-0.001996229402720928,-0.993969738483429,-0.6677639484405518,0.4182969033718109,-0.2451017051935196,-0.10189620405435562,-0.024538803845643997,0.01308906078338623
281,-0.0654164243102907,-0.04764209074220022,1.5525886975662573,-0.06529560685157776,0.047624070197343826,-0.9967288374900818,-0.756576418876648,0.24126802384853363,-0.0723094716668129,0.14459553360939026,0.009886302053928375,-0.018590986728668213
282,-0.03524001126204211,-0.1007604783204122,1.556228071312266,-0.03505401685833931,0.1005900651216507,-0.9943102598190308,-0.0835040807723999,0.41106730699539185,-0.030292220413684845,0.02139739692211151,-0.0665019303560257,-0.17906010150909424
283,-0.00793817156330642,-0.09466423931494033,1.5489648972545813,-0.007902546785771847,0.09452291578054428,-0.9954913258552551,0.13873255252838135,0.1742502748966217,-0.12106894701719284,0.14805452525615692,0.05182413011789322,-0.004356086254119873
284,0.01043664526191715,-0.07548260433469876,1.5707963490409604,0.01040673814713955,0.07541094720363617,-0.9970982074737549,0.1496591866016388,0.14465387165546417,0.43148815631866455,0.0810697004199028,0.042188532650470734,-0.008730590343475342
285,0.027313324837652465,-0.07574151256071163,1.6028287060367101,0.02723163180053234,0.07566911727190018,-0.9967610836029053,-0.2860740125179291,0.13855384290218353,-0.0396113321185112,-0.03786700963973999,0.00605696439743042,0.0020101070404052734
286,0.041225422163456316,-0.11229371555940193,1.611476419579755,0.040954168885946274,0.11205786466598511,-0.9928573966026306,-0.08874034136533737,0.09137722104787827,-0.005980331916362047,0.06274456530809402,0.0011928677558898926,-0.13165432214736938
287,0.05262241268635686,-0.10213069262610466,1.6349746289543214,0.052324049174785614,0.10195323824882507,-0.9934121370315552,0.387776255607605,0.0029872236773371696,0.3185117244720459,0.03851151838898659,0.04418017715215683,-0.11544400453567505
288,0.056732852636190344,-0.07605862637192999,1.6479708710542313,0.05653849244117737,0.07598531246185303,-0.9955047369003296,-0.007747418247163296,0.0808124765753746,-0.09422844648361206,-0.015507612377405167,0.019519440829753876,0.04352414608001709
289,0.09392926236620176,-0.08688293712580678,1.6370346518074401,0.09343742579221725,0.08677367120981216,-0.9918365478515625,-0.3781639039516449,0.3940976560115814,-0.6423735022544861,-0.19486260414123535,-0.07635192573070526,0.09094244241714478
290,0.12240964313823584,-0.1712120054064224,1.55888196388892,0.12031888216733932,0.1703767627477646,-0.9780057072639465,-0.1026345044374466,0.08221665024757385,-0.6841212511062622,0.05851413309574127,0.1271085888147354,-0.35590237379074097
291,0.056460083194712886,-0.08489699067563741,1.491890284603115,0.05622685328125954,0.0847950428724289,-0.9948107004165649,1.5883862972259521,-0.7496851682662964,-0.7985923886299133,0.13444697856903076,0.1301555186510086,-0.09922921657562256
292,0.054378216856817485,0.003866724251730848,1.4436781778982226,0.054351016879081726,-0.003866714658215642,-0.9985144138336182,0.4279947876930237,0.04914502799510956,0.027069883421063423,0.16006548702716827,0.006979506462812424,0.10663819313049316
293,0.05177788385823738,-0.00038559406772060593,1.4248064946603016,0.051754746586084366,0.0003855940594803542,-0.9986597299575806,-0.019710348919034004,-0.3380063474178314,-0.148760125041008,0.09953614324331284,0.0731465071439743,-0.005246460437774658
294,0.033151915977337104,0.0296417162348777,1.4604181816289588,0.03313128277659416,-0.029637375846505165,-0.9990114569664001,-0.08688679337501526,-0.517179012298584,0.5193789601325989,0.09621746838092804,0.08559135347604752,0.12953519821166992
295,0.040184804170056786,0.01239165155095723,1.4917049202522867,0.040170904248952866,-0.012391334399580956,-0.9991160035133362,-0.1535075604915619,0.6711676716804504,0.07218451052904129,-0.056848760694265366,0.040009744465351105,0.009247839450836182
296,0.08473073662494475,0.035665479000382215,1.505167982659066,0.08457557111978531,-0.03565791994333267,-0.9957788586616516,-0.04472912475466728,0.05893890559673309,0.22600917518138885,-0.05256262421607971,-0.028734169900417328,0.03478032350540161
297,0.08810660742754625,0.07550915606104461,1.537468274676049,0.0877419263124466,-0.07543741911649704,-0.9932827353477478,0.6416141986846924,0.18338526785373688,0.7608240246772766,-0.035038068890571594,0.0019663572311401367,0.0629391074180603
298,0.06285269352623804,0.10740990871690163,1.5875005407673575,0.062449343502521515,-0.10720349848270416,-0.9922739267349243,-0.2967570126056671,-0.40178218483924866,-0.14937888085842133,-0.17734801769256592,-0.06250475347042084,0.049692749977111816
299,0.056164664777422914,0.09668010367954318,1.5760874518512433,0.055872995406389236,-0.09652955830097198,-0.9937606453895569,0.26422813534736633,-0.08700128644704819,-0.09348057210445404,-0.09626302123069763,-0.02201595902442932,-0.05833280086517334
300,0.05549448425908096,0.13537256496089253,1.5608763223052982,0.05495855212211609,-0.13495947420597076,-0.989325761795044,0.31443822383880615,-0.0376414991915226,0.027521442621946335,-0.03181096911430359,0.021968141198158264,0.035147905349731445
301,0.053956620631808214,0.14911486506833826,1.5506643706030265,0.053331974893808365,-0.14856287837028503,-0.9874638319015503,0.1529959738254547,0.06563704460859299,-0.024259213358163834,-0.03215277940034866,0.024447888135910034,0.022360682487487793
302,0.056333051213774715,0.1384718708450371,1.541986118702323,0.0557643324136734,-0.1380297690629959,-0.9888569712638855,-0.21135026216506958,0.1359877735376358,-0.08471310138702393,0.0021275170147418976,0.01560850441455841,-0.018009483814239502
303,0.06364964260720707,0.1546518958417808,1.5352552132459465,0.06284753978252411,-0.15403616428375244,-0.9860644340515137,0.3217657208442688,-0.06624126434326172,-0.04324144497513771,-0.05097620189189911,-0.011887907981872559,-0.020695209503173828
304,0.056485945654314085,0.15838103953985516,1.5216947543997543,0.055749304592609406,-0.1577197164297104,-0.9859089851379395,-0.23684076964855194,-0.023658236488699913,-0.1263352930545807,-0.037911780178546906,0.007176503539085388,0.05440568923950195
305,0.058897905777860644,0.15082854311789065,1.5077726968995022,0.0581955723464489,-0.15025731921195984,-0.986932635307312,0.169500470161438,0.10515055060386658,-0.07632415741682053,-0.024778828024864197,-0.02123621106147766,-0.03848850727081299
306,0.050477177843941214,0.16039153439196557,1.5018279830406536,0.049808137118816376,-0.15970472991466522,-0.9859074950218201,0.023904185742139816,-0.22373461723327637,0.009485552087426186,0.021496187895536423,0.011953875422477722,0.01581472158432007
307,0.04782287362725606,0.15387126657968125,1.4946273955019154,0.047239843755960464,-0.15326480567455292,-0.9870553612709045,-0.03136974573135376,0.10604380071163177,0.0515129528939724,-0.0035844482481479645,0.009298115968704224,-0.02664703130722046
308,0.04043240119115422,0.16336911157994624,1.4997146226726408,0.039883170276880264,-0.16264337301254272,-0.9858785271644592,0.056235842406749725,-0.15608562529087067,0.05943635106086731,0.037997692823410034,0.024322450160980225,0.03186851739883423
309,0.0368155794654819,0.16607615419799357,1.501667201101527,0.03630083426833153,-0.16531378030776978,-0.9855727553367615,0.14031654596328735,-0.07839313894510269,0.09349539875984192,0.06426984071731567,0.019241392612457275,-3.820657730102539e-05
310,0.03685178540968571,0.1677950478970177,1.4996601285729891,0.03632599487900734,-0.16700877249240875,-0.9852859973907471,-0.03483152016997337,-0.022639181464910507,0.06989134103059769,0.07806914299726486,0.016465559601783752,0.00829625129699707
311,0.04435863609224712,0.16647300958049885,1.4997701771023957,0.043731048703193665,-0.16570515930652618,-0.9852052330970764,-0.031041979789733887,0.09419656544923782,-0.13705287873744965,0.04643312841653824,-0.011968165636062622,-0.0002225637435913086
312,0.0516956845352979,0.1647588954934964,1.4951088994263044,0.05097290873527527,-0.16401450335979462,-0.9851400852203369,0.010617167688906193,-0.0008131037466228008,0.1043478325009346,0.06066039204597473,0.03774800896644592,0.023866891860961914
313,0.05831655591777137,0.1613425218332569,1.495947270110288,0.05752655118703842,-0.16064344346523285,-0.9853346347808838,-0.09044644236564636,-0.07250037044286728,-0.006704806350171566,0.05833343416452408,-0.010468617081642151,0.019743263721466064
314,0.05117578408660631,0.144180340698325,1.493429294722084,0.05062268301844597,-0.14368131756782532,-0.9883283972740173,-0.09954598546028137,-0.02357388474047184,-0.005243685096502304,0.06517626345157623,0.02072601020336151,-0.05795145034790039
315,0.061375940939218,0.15249230939898067,1.511171821828135,0.060625627636909485,-0.1519019901752472,-0.9865344762802124,0.009767954237759113,0.10455449670553207,0.05283528193831444,0.04466000944375992,0.0035407990217208862,0.019920766353607178
316,0.07102736208300088,0.14921566132351222,1.5246105199203104,0.0701790601015091,-0.14866255223751068,-0.9863946437835693,0.03881975635886192,-0.004927807487547398,0.0943116843700409,0.058544084429740906,0.005214676260948181,-0.039285898208618164
317,0.07805689336825443,0.15931485326944309,1.5508660659300617,0.07699015736579895,-0.1586417704820633,-0.984329879283905,0.08657501637935638,0.07472733408212662,0.2059401124715805,0.06189534068107605,0.027645081281661987,-0.02996760606765747
318,0.10008488069536825,0.17637028678940347,1.5730790622745365,0.0983678475022316,-0.17545732855796814,-0.979560375213623,0.14241038262844086,0.0521572008728981,0.15233057737350464,0.049077823758125305,0.01968035101890564,0.017539501190185547
319,0.10399582668237028,0.174409946303223,1.607772547081906,0.10223360359668732,-0.1735270619392395,-0.9795083403587341,0.036257054656744,0.07725216448307037,0.28433603048324585,-0.021529868245124817,0.003986656665802002,-0.034758567810058594
320,0.11294605199043559,0.1799117484924758,1.6366538016999312,0.11088693141937256,-0.1789427399635315,-0.9775906801223755,-0.12388022989034653,0.11949320137500763,0.10686438530683517,-0.07010019570589066,0.004046514630317688,0.031698405742645264
321,0.1118828929901383,0.17995054806627428,1.6644617719147368,0.10984676331281662,-0.17898091673851013,-0.9777011275291443,-0.06351188570261002,0.16242699325084686,0.18872639536857605,-0.08215206861495972,0.008387669920921326,0.04043006896972656
322,0.11075548052965135,0.1689199647939445,1.6922770161953318,0.10895600914955139,-0.16811779141426086,-0.979727029800415,-0.23029983043670654,0.03939281776547432,0.22687190771102905,-0.05854097753763199,-0.006381720304489136,-0.01667189598083496
323,0.11205393302506196,0.16659522932440632,1.7284150437397325,0.11027145385742188,-0.16582567989826202,-0.9799704551696777,0.012484190054237843,0.011582174338400364,0.3089600205421448,-0.06895065307617188,-0.006949573755264282,-0.028345584869384766
324,0.1127653217224927,0.16755164380329934,1.763719692167702,0.11095067113637924,-0.16676877439022064,-0.9797337055206299,-0.024090245366096497,0.01179523579776287,0.2679954767227173,-0.10159702599048615,-0.015833154320716858,0.008435487747192383
325,0.10576615182167405,0.16365837528898453,1.784169486690205,0.1041584387421608,-0.1629287749528885,-0.9811244606971741,-0.1266210526227951,-0.07889649271965027,0.11287225037813187,-0.0878315418958664,0.0045425742864608765,0.023513436317443848
326,0.09155999457573952,0.1497296430264377,1.795839762264146,0.09040912985801697,-0.14917080104351044,-0.9846696257591248,-0.15866878628730774,-0.04567308723926544,0.0445704348385334,-0.09230121970176697,0.006775781512260437,-0.019740164279937744
327,0.08216599638186693,0.1357380883085276,1.7925749551382126,0.08131863921880722,-0.13532164692878723,-0.9874590039253235,-0.17394405603408813,-0.00037120282649993896,-0.10002044588327408,-0.08221890777349472,0.0020056068897247314,-0.004636943340301514
328,0.07488971538230982,0.12579975461547363,1.7777709864196682,0.07422848045825958,-0.1254682093858719,-0.9893168807029724,-0.054716404527425766,0.008382131345570087,-0.2217005491256714,-0.09617061913013458,-0.020833060145378113,-0.016725599765777588
329,0.06400714876484918,0.11965386364120488,1.7417630546270395,0.0635061115026474,-0.1193685531616211,-0.9908168911933899,-0.12444590032100677,-0.05480867251753807,-0.3362824320793152,-0.0750264972448349,-0.0036172866821289062,-0.0026218295097351074
330,0.06067688708894228,0.11050596955734786,1.7012730371521931,0.060269784182310104,-0.11028119921684265,-0.9920713901519775,0.012466197833418846,-0.08590955287218094,-0.37062081694602966,-0.0501684695482254,-0.011575490236282349,-0.01929640769958496
331,0.06328002520602542,0.10928343927401354,1.6510655454889165,0.06286055594682693,-0.10906603932380676,-0.9920449256896973,0.070813849568367,-0.1271543651819229,-0.43569624423980713,-0.010889112949371338,-0.021366089582443237,-0.044576168060302734
332,0.06233296802759243,0.11861919496891728,1.5997869039110766,0.061854880303144455,-0.11834121495485306,-0.9910445809364319,0.1335865557193756,-0.001814772840589285,-0.36936160922050476,0.030903302133083344,0.03696609288454056,0.003907740116119385
333,0.05842986200663378,0.12748889666511848,1.5521662354582408,0.057922691106796265,-0.12714381515979767,-0.9901915788650513,0.13464784622192383,-0.03978929668664932,-0.40984755754470825,0.05499234423041344,0.025077804923057556,0.020449817180633545
334,0.052162450448659796,0.13529786729826201,1.4971997486258248,0.05166231095790863,-0.13488546013832092,-0.9895134568214417,0.12537935376167297,-0.11532016843557358,-0.44005391001701355,0.07670988142490387,0.03347556293010712,-0.007388949394226074
335,0.04231322142524213,0.14261956349652793,1.4416696552582215,0.041871119290590286,-0.1421365737915039,-0.9889611005783081,0.055758848786354065,-0.17572996020317078,-0.42078328132629395,0.1282796412706375,0.042191505432128906,-0.008139729499816895
336,0.03413404935380396,0.15054122477495638,1.4038680820005673,0.03374144062399864,-0.14997325837612152,-0.9881141185760498,0.0777328759431839,-0.0831051841378212,-0.1962658017873764,0.10840943455696106,0.054468512535095215,-0.00637739896774292
337,0.029814179637864806,0.15357576107259474,1.3799835601855657,0.029458913952112198,-0.1529727727174759,-0.9877912402153015,-0.04504065215587616,-0.1191413402557373,-0.2515377700328827,0.0581875741481781,0.004474252462387085,0.016279399394989014
338,0.02874102369963436,0.15114387011513944,1.3562535895387011,0.028409449383616447,-0.15056906640529633,-0.9881911873817444,0.11513558030128479,-0.06033744663000107,-0.06898313015699387,0.0809045135974884,0.05132588744163513,-0.038267552852630615
339,0.028848510414283903,0.153520850831817,1.3503475619921155,0.028505263850092888,-0.1529185175895691,-0.9878275990486145,-0.10349464416503906,-0.21332749724388123,-0.13189740478992462,0.05163389444351196,0.022959411144256592,0.025348961353302002
340,0.024728978442372828,0.14791570691987083,1.3455767949354058,0.024456454440951347,-0.1473769247531891,-0.9887779951095581,-0.009122036397457123,-0.129926398396492,-0.0512426383793354,0.0760379284620285,0.021110445261001587,-0.031897664070129395
341,0.02641100150013964,0.15050437846556017,1.3526957936759525,0.026109404861927032,-0.14993682503700256,-0.9883507490158081,0.019676748663187027,-0.04084145650267601,0.066700279712677,0.04968100041151047,0.039188534021377563,0.022927165031433105
342,0.030042061811120287,0.14444573064325286,1.3610251746445317,0.0297247264534235,-0.14394395053386688,-0.9891393184661865,0.08579295128583908,0.10101299732923508,0.09307476133108139,0.01946960762143135,0.018058940768241882,-0.06061959266662598
343,0.03793672385071195,0.15298469370775059,1.372648921250788,0.037484653294086456,-0.15238864719867706,-0.9876095652580261,0.033572807908058167,0.13491514325141907,0.023332146927714348,0.021749962121248245,0.029372289776802063,0.004058539867401123
344,0.050708516368593616,0.17619948716283942,1.4045629225501766,0.04990200325846672,-0.17528918385505676,-0.9832515120506287,0.4148762822151184,0.26356035470962524,0.5101749300956726,0.06951327621936798,0.09977343678474426,-0.024591505527496338
345,0.06441013768569942,0.20931439261707105,1.4959592093067726,0.06296074390411377,-0.20778930187225342,-0.9761452674865723,0.4579540193080902,0.2627052664756775,1.251882553100586,0.019497759640216827,0.020670771598815918,0.030069828033447266
346,0.06778629484493777,0.27215985100961904,1.613604280098009,0.0652412623167038,-0.2688124179840088,-0.9609804749488831,0.6176813244819641,0.15843917429447174,0.9455426931381226,-0.1796364039182663,-0.06375288963317871,-0.014880120754241943
347,0.046375334834654905,0.31253891381704685,1.6868055764296273,0.0441129133105278,-0.3074755370616913,-0.9505329132080078,0.17811165750026703,-0.14279313385486603,0.6445630192756653,-0.1319119930267334,-0.023075610399246216,0.05990791320800781
348,0.03875113181126846,0.3057237647311005,1.7306451154826918,0.03694497048854828,-0.3009834587574005,-0.9529134631156921,-0.15743741393089294,0.1390334963798523,0.05666933208703995,-0.13273964822292328,-0.03730389475822449,-0.008039295673370361
349,0.032036500182753704,0.3104772496241413,1.7448269140442132,0.030499549582600594,-0.3055131137371063,-0.9516992568969727,0.02925466001033783,-0.12091876566410065,0.21390017867088318,-0.054562658071517944,0.020524710416793823,0.04944711923599243
350,0.017193072643065743,0.30035296948431744,1.7579710326796825,0.016422566026449203,-0.29585739970207214,-0.9550909399986267,-0.11863787472248077,-0.09751519560813904,-0.1233314722776413,-0.1066630482673645,-0.011576712131500244,-0.04045349359512329
351,-0.003396364875318882,0.2901320070831527,1.7424105427504255,-0.0032544112764298916,-0.28607872128486633,-0.9582005739212036,-0.06901424378156662,-0.0856204628944397,-0.2678147852420807,-0.06521178781986237,0.024283677339553833,-0.019811511039733887
352,-0.011694731689847708,0.2964466352832254,1.7200287967191392,-0.011184358969330788,-0.2921236753463745,-0.9563151597976685,0.14120975136756897,-0.14868241548538208,-0.19211071729660034,-0.03718601167201996,0.02729213237762451,-0.001921534538269043
353,-0.02415935054599255,0.3008440112385073,1.6982945894582169,-0.023072030395269394,-0.2963264286518097,-0.9548079967498779,-0.04550789296627045,-0.1336958110332489,-0.2943022847175598,-0.07224962115287781,-0.0027000606060028076,0.007542431354522705
354,-0.027502410583273774,0.3045950389477189,1.6658928984419712,-0.02623312547802925,-0.2999068796634674,-0.9536077380180359,0.10112512111663818,-0.07605195790529251,-0.31191885471343994,-0.03588540852069855,0.018611103296279907,-0.008901417255401611
355,-0.02643949575801361,0.31344553979674145,1.638221002385011,-0.02514834888279438,-0.30833813548088074,-0.9509443640708923,-0.13694153726100922,-0.01921835169196129,-0.24379560351371765,-0.05224423110485077,0.03244397044181824,0.049836575984954834
356,-0.02782272612812028,0.3056383548183991,1.6177133490729911,-0.026529859751462936,-0.30090200901031494,-0.9532859921455383,0.010479518212378025,-0.09727392345666885,-0.22519859671592712,-0.07793180644512177,-0.010056853294372559,-0.01589125394821167
357,-0.023735195165151924,0.31835823953813475,1.5841136007163295,-0.022540399804711342,-0.3130077123641968,-0.9494830965995789,-0.0030427640303969383,0.04391685500741005,-0.403923362493515,-0.05042712390422821,-0.0025287866592407227,0.04034918546676636
358,-0.011900751036178584,0.316188078967109,1.5510480891661922,-0.011310535483062267,-0.31094586849212646,-0.9503602981567383,-0.014620843343436718,-0.06489402800798416,-0.22562195360660553,-0.026561781764030457,-0.028134942054748535,-0.02975749969482422
359,-0.0018745854389421958,0.3225985197397866,1.5212519268506328,-0.0017778835026547313,-0.3170320987701416,-0.9484131336212158,0.10823654383420944,-0.02201305702328682,-0.11457573622465134,0.04579949378967285,0.0320284366607666,0.01069951057434082
360,0.0007601147713560745,0.32797293894908774,1.5180722573819412,0.0007195984944701195,-0.3221246898174286,-0.9466969966888428,0.05812840536236763,0.015217447653412819,-0.006699816323816776,0.05293029546737671,0.02247259020805359,0.024883031845092773
361,0.005216632087991445,0.33616898178189913,1.5245842762585446,0.00492461072281003,-0.3298729360103607,-0.9440125226974487,0.009872211143374443,0.06575048714876175,0.12201851606369019,0.09065644443035126,0.012764811515808105,0.07436835765838623
362,0.02672131743854382,0.3145028295680472,1.5296056230869033,0.025407619774341583,-0.30934372544288635,-0.9506108164787292,-0.11781822144985199,0.2032167911529541,0.12169273942708969,0.06585519015789032,0.009813696146011353,-0.06390029191970825
363,0.04392502491784458,0.3225832278407318,1.5431535085122625,0.04164596274495125,-0.3170175850391388,-0.9475048780441284,0.01996087282896042,0.11694318801164627,0.08748912811279297,0.0060530006885528564,-0.02403157949447632,0.022761225700378418
364,0.05264271180888276,0.32659806189182733,1.550936150883343,0.04983695223927498,-0.3208227753639221,-0.9458271265029907,0.061787135899066925,0.12600457668304443,0.09795816987752914,0.04731575772166252,-0.016381174325942993,-0.017185509204864502
365,0.061940618291243775,0.3390083481542544,1.561275456118256,0.05837791785597801,-0.332552045583725,-0.9412763714790344,0.1911599487066269,0.1716323345899582,0.16001103818416595,0.03929360210895538,-0.0018900930881500244,-0.004203975200653076
366,0.07223933157031628,0.35254690877163425,1.57895048571263,0.0677373930811882,-0.3452892005443573,-0.9360486268997192,0.04816943407058716,0.09578908979892731,0.2569110095500946,0.037700846791267395,0.007154405117034912,0.02198612689971924
367,0.07420892968995796,0.3563997653212042,1.6131077007982955,0.0694817528128624,-0.34890252351760864,-0.9345797896385193,0.020330023020505905,0.05853133276104927,0.3109014928340912,-0.01355830579996109,-0.0014545023441314697,-0.013601362705230713
368,0.0763599619663182,0.36323019250571,1.640891494695861,0.071308434009552,-0.3552955090999603,-0.9320301413536072,-0.021190639585256577,0.18166102468967438,0.24723881483078003,0.037318870425224304,0.005899757146835327,0.022667348384857178
369,0.08322220174815838,0.3705598027893703,1.6752304346708353,0.07748395949602127,-0.3621372878551483,-0.9288986921310425,0.16239014267921448,0.26620128750801086,0.3512776494026184,-0.042022548615932465,-0.028380870819091797,-0.025874197483062744
370,0.08204964338985574,0.37633509997497405,1.6986852226615088,0.07622203975915909,-0.3675145208835602,-0.9268890023231506,0.02295587584376335,0.013530801981687546,0.2788083255290985,-0.062168702483177185,0.003973871469497681,-0.0006622076034545898
371,0.07369632113578756,0.3924590656630996,1.6895448523783931,0.0680316686630249,-0.38246166706085205,-0.9214633703231812,-0.062348149716854095,-0.2475762814283371,-0.049349021166563034,0.0342479944229126,0.01385509967803955,0.05963170528411865
372,0.029257352377796718,0.3791635398389206,1.7285991672154888,0.027175458148121834,-0.3701435625553131,-0.9285770058631897,0.10425370186567307,-0.5099158883094788,0.3828771412372589,-0.06648209691047668,0.025096535682678223,-0.1401790976524353
373,0.009140185266045882,0.40287485343480406,1.7413210926395082,0.008408283814787865,-0.39206463098526,-0.9198992252349854,0.40076908469200134,-0.2142210751771927,0.1932029128074646,-0.03360055387020111,0.11037212610244751,0.08864617347717285
374,0.00044131443386610753,0.4084161539721695,1.7676280773229973,0.00040501676267012954,-0.3971562385559082,-0.917750895023346,-0.42638495564460754,0.3016018867492676,0.2669524848461151,-0.04178684949874878,-0.02894541621208191,0.04798471927642822
375,0.01488171615922953,0.38351304877212394,1.791438210116033,0.013800136744976044,-0.3741806149482727,-0.9272531270980835,0.04473356157541275,0.17528682947158813,0.09245498478412628,-0.06319284439086914,0.016926616430282593,-0.06191307306289673
376,0.011059453288519596,0.4026160306135859,1.8141715979779902,0.010174921713769436,-0.3918265402317047,-0.9199828505516052,0.14578382670879364,-0.0014042165130376816,0.20790444314479828,0.04815942049026489,-0.014988034963607788,0.11906427145004272
377,0.015697172500616908,0.3565700270246099,1.8288985621535392,0.014709210023283958,-0.34906205534935,-0.9369841814041138,-0.20819884538650513,0.05765892192721367,0.09685476124286652,-0.02941867709159851,-0.06809794902801514,-0.21819770336151123
378,0.005531855664738419,0.3917530763604578,1.8456826648861862,0.00511274253949523,-0.381809264421463,-0.9242269992828369,0.32556235790252686,-0.12413918972015381,0.38258516788482666,0.02131548523902893,0.08227923512458801,0.12851166725158691
379,-0.006099890943037029,0.3858966056100961,1.8692030191918052,-0.005651277955621481,-0.3763899505138397,-0.9264441132545471,-0.2603996992111206,0.1014719307422638,0.21781377494335175,0.025060445070266724,-0.02137613296508789,-0.08414548635482788
380,-0.009802933236945829,0.40928432637173096,1.9020911644840586,-0.008993124589323997,-0.3979528546333313,-0.9173617959022522,0.5894323587417603,-0.028413480147719383,0.4334668815135956,-0.12558938562870026,-0.0009271502494812012,0.0013003945350646973
381,-0.022291577394225427,0.41647070434946964,1.9051512723378128,-0.02038445696234703,-0.40453535318374634,-0.9142951369285583,-0.2606009840965271,-0.11848451942205429,-0.28717172145843506,-0.02276739478111267,0.04815107583999634,0.09285348653793335
382,-0.013624322888625594,0.37718995636022007,1.8805700474670157,-0.012666185386478901,-0.3683094084262848,-0.9296169877052307,-0.4482118785381317,-0.08157418668270111,-0.09606167674064636,0.010545209050178528,0.03832286596298218,-0.05243867635726929
383,-0.013075488828772954,0.35821628923194787,1.8719699591592684,-0.01224515587091446,-0.3506042957305908,-0.9364436268806458,-0.17761823534965515,-0.03217393532395363,-0.11762772500514984,0.007972702383995056,-0.05601191520690918,-0.013202369213104248
384,-0.012504180124935156,0.33942689555213024,1.8636772429851116,-0.011790454387664795,-0.3329467475414276,-0.9428719282150269,0.12649330496788025,-0.10676539689302444,0.0398557074368,0.0737411379814148,0.04988095164299011,-0.031951069831848145
385,-0.020700283735812328,0.3505642044700957,1.8907307023581075,-0.019439885392785072,-0.34342774748802185,-0.9389778971672058,-0.036710478365421295,0.04921687766909599,0.3657108545303345,0.057281672954559326,0.02270328998565674,0.01583641767501831
386,-0.024664034212370015,0.3409610620145188,1.9317608108370738,-0.023241860792040825,-0.3343929946422577,-0.9421470761299133,-0.14068163931369781,0.09631805866956711,0.32509222626686096,0.029009684920310974,0.014004170894622803,-0.03714674711227417
387,-0.020713069906980644,0.3405309062485391,1.969619545674487,-0.019522277638316154,-0.3339875638484955,-0.9423753023147583,0.05390341579914093,0.19313190877437592,0.3982352018356323,0.0828920304775238,0.03233656287193298,0.0389786958694458
388,-0.021272024800276422,0.32842579678693173,2.0267483579379877,-0.020133543759584427,-0.3225533664226532,-0.946337103843689,-0.0498076006770134,0.22647453844547272,0.483643114566803,-0.03658337891101837,-0.001924753189086914,-0.03913646936416626
389,-0.02078562898594244,0.3195925480951877,2.0829919490184543,-0.01973169669508934,-0.31417977809906006,-0.9491584300994873,-0.004109981469810009,0.15553146600723267,0.6095846891403198,0.04492396116256714,0.04161202907562256,-0.004332780838012695
390,-0.025578825182083,0.31256860827475486,2.1571019801773295,-0.0243367962539196,-0.3075037896633148,-0.9512355923652649,-0.28714779019355774,0.1995530128479004,0.7746256589889526,-0.003037475049495697,0.04953870177268982,0.005755245685577393
391,-0.024422916857390193,0.30646368388852385,2.236390721347193,-0.023282650858163834,-0.3016889691352844,-0.953122079372406,0.11981339007616043,0.18646743893623352,0.7325601577758789,-0.08757244795560837,0.037315189838409424,-0.011889517307281494
392,-0.03541300548611704,0.2936166919231465,2.3240025861355647,-0.033890366554260254,-0.28941601514816284,-0.9566032886505127,-0.256193608045578,0.09638616442680359,0.9078145027160645,-0.09799134731292725,0.05632275342941284,-0.041123151779174805
393,-0.05020449830242874,0.2917511693986776,2.409965908455575,-0.04806274175643921,-0.2876298427581787,-0.9565349221229553,0.21754297614097595,0.1006012111902237,0.7145949602127075,-0.1706872582435608,0.01602339744567871,-0.013344228267669678
394,-0.05266975656153386,0.29443555323665305,2.454078404456636,-0.05037987232208252,-0.29019972681999207,-0.9556390643119812,-0.0026341956108808517,0.18494153022766113,0.3064718544483185,-0.15120398998260498,0.03669023513793945,0.0298730731010437
395,-0.04519763907944387,0.28358683526423767,2.478631598708067,-0.0433775819838047,-0.27980101108551025,-0.9590775966644287,-0.17272794246673584,0.14180965721607208,0.27222874760627747,-0.0831635445356369,0.062409043312072754,0.04403853416442871
396,-0.03683469746038399,0.25711340534076993,2.505931260097199,-0.03561581298708916,-0.2542898952960968,-0.9664720296859741,-0.3957902193069458,0.22318416833877563,0.20408104360103607,-0.15106020867824554,0.0399649441242218,-0.09422743320465088
397,-0.025761621437326212,0.24826759510999344,2.5249582735831453,-0.02496899664402008,-0.24572503566741943,-0.9690179228782654,-0.020819183439016342,0.047787681221961975,0.1887923628091812,0.02417554147541523,-0.013598069548606873,0.025628089904785156
398,-0.024994168459712356,0.24979868617456172,2.5603207539711277,-0.024215882644057274,-0.24720889329910278,-0.9686595797538757,-0.13386352360248566,0.27623775601387024,0.4746752977371216,0.08926410228013992,0.017609894275665283,0.07241934537887573
399,-0.014185937266035557,0.232053410456353,2.622840861526549,-0.013805237598717213,-0.2299763709306717,-0.9730982780456543,0.1129954606294632,0.25256767868995667,0.7112316489219666,0.030849304050207138,-0.0038798153400421143,-0.0405125617980957
400,-0.0038854752598647753,0.23913148002112283,2.6827711380449646,-0.003774900920689106,-0.23685890436172485,-0.9715367555618286,-0.08060519397258759,0.3195578455924988,0.6198911070823669,0.10213305056095123,0.0036435872316360474,0.06786549091339111
401,0.019999230420243888,0.21704537827846726,2.7517197655592947,0.01952870562672615,-0.21534526348114014,-0.9763426780700684,-0.09775783866643906,0.35143157839775085,0.7105221748352051,0.04222361370921135,0.006910204887390137,-0.08939218521118164
402,0.032283199414350136,0.2253127343058998,2.8187526980821582,0.03146175295114517,-0.2234112024307251,-0.9742164015769958,0.15231500566005707,0.17980289459228516,0.7342352867126465,0.04792972654104233,0.0022350549697875977,0.0018195509910583496
403,0.03601301535097568,0.22669125926270373,2.885375806002078,0.03508405014872551,-0.2247546762228012,-0.973783552646637,-0.10220431536436081,0.2375485599040985,0.6375111937522888,0.019252493977546692,0.06443057954311371,0.01756107807159424
404,0.03323435991749418,0.21874544045888106,2.9359950497862726,0.03243643045425415,-0.21700513362884521,-0.9756314158439636,-0.12732666730880737,0.01355712115764618,0.42940521240234375,0.02479928731918335,0.005136847496032715,0.007217109203338623
405,0.03425197935850504,0.20610227647528823,2.9580456236149177,0.03352051600813866,-0.20464622974395752,-0.9782618880271912,-0.12219968438148499,0.058942146599292755,0.20102135837078094,0.04242248088121414,0.04369652271270752,-0.020532667636871338
406,0.03529205527806847,0.19897384795870332,2.9630213009758304,0.034588560461997986,-0.19766353070735931,-0.9796594977378845,-0.1275528222322464,0.005446349270641804,0.004030128475278616,0.025988828390836716,0.002518892288208008,0.0422816276550293
407,0.039482508646901414,0.1860465673752656,2.944759176258568,0.03879108652472496,-0.18497514724731445,-0.9819773435592651,-0.07799989730119705,-0.025142695754766464,-0.0801355168223381,0.00980815663933754,0.03824661672115326,0.009870409965515137
408,0.036007646989023166,0.1727078850303316,2.918744974487768,0.035464297980070114,-0.17185057699680328,-0.9844844937324524,-0.13378816843032837,-0.07139082998037338,-0.19344285130500793,-0.040209781378507614,0.057974234223365784,-0.03957861661911011
409,0.03140717399451172,0.1590809251830048,2.8869332661999447,0.031005507335066795,-0.15841080248355865,-0.9868863821029663,-0.13933461904525757,-0.0725298672914505,-0.1368902027606964,-0.026824597269296646,0.039209142327308655,-0.04241049289703369
410,0.02441436295710172,0.16924683168457738,2.866087717446015,0.02406313829123974,-0.16843998432159424,-0.9854181408882141,0.08344760537147522,-0.14316914975643158,-0.05729231238365173,-0.1429748833179474,0.017408505082130432,0.012456774711608887
411,0.006647792524745952,0.15969600095425765,2.829130779466478,0.006563155446201563,-0.15901808440685272,-0.9872538447380066,-0.14228491485118866,-0.22677281498908997,-0.2105487883090973,-0.13009831309318542,-0.008187726140022278,-0.03477984666824341
412,-0.01420432993351877,0.15739932587387057,2.7946249831420826,-0.014028267934918404,-0.15675021708011627,-0.9875386357307434,0.77867591381073,-0.2601940631866455,-0.19445356726646423,-0.17499761283397675,0.024487048387527466,-0.11683142185211182
413,-0.028017639085683166,0.20765101603585706,2.7248781968721896,-0.027412174269557,-0.20616194605827332,-0.9781338572502136,-0.27680158615112305,0.0337354801595211,-0.6604007482528687,-0.06940484046936035,0.029526203870773315,0.21334809064865112
414,-0.03872052571135163,0.16576019152358115,2.6678183895487533,-0.03818025067448616,-0.16500215232372284,-0.9855539202690125,-0.2935783267021179,-0.25786474347114563,-0.1979047805070877,-0.11849699914455414,0.021004974842071533,-0.12025046348571777
415,-0.04228854310310238,0.186822131865535,2.6176592646209698,-0.04154031351208687,-0.1857372671365738,-0.9817209839820862,0.17596721649169922,0.03735708072781563,-0.5466484427452087,-0.16193562746047974,-0.01613651216030121,0.09729105234146118
416,-0.03370649594370838,0.18418680313293975,2.5504840661714314,-0.03313009440898895,-0.1831471472978592,-0.9825271368026733,-0.11047574877738953,-0.03937554359436035,-0.4595804810523987,-0.08260782063007355,0.053096503019332886,-0.00546419620513916
417,-0.024703883112910427,0.18373667724547962,2.5044330091337716,-0.02428559400141239,-0.1827046275138855,-0.9828678369522095,0.10992593318223953,-0.012022078037261963,-0.5367075800895691,-0.16074247658252716,-0.016651436686515808,-0.09124404191970825
418,-0.0136614013937957,0.21232983480072395,2.4377398259447145,-0.013354185968637466,-0.21073798835277557,-0.9774513840675354,0.15356409549713135,-0.1123257726430893,-0.5989450216293335,-0.001355290412902832,0.07369880378246307,0.0606117844581604
419,-0.0155654029167305,0.22027100195094637,2.3789434603552233,-0.015188702382147312,-0.21849408745765686,-0.9757200479507446,-0.003316040150821209,-0.23942266404628754,-0.7055968046188354,-0.0005888855084776878,0.06573836505413055,0.031567275524139404
420,-0.02262194225968654,0.22058907300784236,2.3126626815796163,-0.022071901708841324,-0.2188044637441635,-0.975519061088562,-0.047179464250802994,-0.2648421823978424,-0.8543342351913452,0.11962134391069412,0.03333386778831482,0.01944911479949951
421,-0.02007017780653893,0.19939047426415538,2.2386906445047594,-0.01967121660709381,-0.1980719119310379,-0.9799900650978088,-0.29401102662086487,-0.06250786036252975,-0.719563364982605,0.2061946541070938,0.0584387481212616,-0.03211015462875366
422,-0.011511091484082603,0.1765473928071461,2.1921471697721184,-0.011331912130117416,-0.17563168704509735,-0.9843907356262207,-0.10227853804826736,0.02586471289396286,-0.5016299486160278,0.11065136641263962,0.02432553470134735,-0.025344371795654297
423,-0.011005713949906898,0.15420683911577499,2.1581264564380764,-0.010874897241592407,-0.1535964012145996,-0.9880738258361816,-0.31786614656448364,-0.1350739747285843,-0.4577632248401642,0.09908595681190491,0.01434469223022461,-0.02295827865600586
424,-0.024354048808053325,0.1458565030120038,2.1409369785261534,-0.02409307099878788,-0.14533989131450653,-0.9890884160995483,-0.1479979306459427,-0.1903737634420395,-0.2897811233997345,0.15582218766212463,0.01467888057231903,0.01293790340423584
425,-0.043829893286200156,0.1396379841203546,2.1376121315798287,-0.04338937625288963,-0.1391846388578415,-0.989315390586853,0.2725634276866913,-0.2791379392147064,-0.08344374597072601,-0.02512258291244507,0.014108344912528992,-0.1006198525428772
426,-0.07311103291561712,0.15648928191980463,2.120883214208014,-0.07215333729982376,-0.155851349234581,-0.9851417541503906,0.1451607495546341,-0.2238466739654541,-0.4031132459640503,0.05471254140138626,0.026166915893554688,0.001773834228515625
427,-0.08167869472552282,0.1636050472873271,2.097154920504362,-0.08049842715263367,-0.162876158952713,-0.9833571910858154,-0.23228171467781067,-0.17155227065086365,-0.30778083205223083,0.08365698903799057,0.07376483082771301,0.07674098014831543
428,-0.09328190148814225,0.1392818992954982,2.0937382870677648,-0.09224463999271393,-0.1388320028781891,-0.9860104322433472,-0.22857604920864105,-0.17363612353801727,-0.11575031280517578,-0.07670066505670547,0.01737205684185028,-0.028882086277008057
429,-0.1196380609614175,0.12912168101040988,2.0823837529560683,-0.11835929751396179,-0.12876318395137787,-0.984586775302887,-0.12585555016994476,-0.331280380487442,-0.3412839472293854,-0.031283654272556305,0.005853638052940369,0.011991560459136963
430,-0.13630616524271236,0.11045110039736894,2.055651665243195,-0.13505646586418152,-0.11022666096687317,-0.9846876859664917,-0.13081543147563934,-0.06309399008750916,-0.3626568019390106,-0.0037679970264434814,0.04578879475593567,-0.0824204683303833
431,-0.14124308167127053,0.10990241556019792,2.039731446117737,-0.13992461562156677,-0.10968130826950073,-0.9840686321258545,-0.004940757527947426,-0.10986154526472092,-0.15436410903930664,-0.011549383401870728,0.02029532939195633,0.006422817707061768
432,-0.14895515902343567,0.10721940668832529,2.0274764928259024,-0.1475527286529541,-0.10701408982276917,-0.9832477569580078,-0.06969796121120453,-0.04031161218881607,-0.22648318111896515,0.0033724457025527954,0.028263486921787262,-0.03565782308578491
433,-0.14040456950500438,0.1179049484845166,2.013641158490105,-0.13897211849689484,-0.11763196438550949,-0.9832850694656372,0.2149859219789505,-0.04540497809648514,-0.031124310567975044,0.037348583340644836,-0.027418091893196106,-0.025076746940612793
434,-0.13877256104820285,0.12923147030211427,2.0120902491722927,-0.1371740996837616,-0.1288720667362213,-0.9821279048919678,0.054629385471343994,0.24860505759716034,0.0639687031507492,0.0660376250743866,-0.023105472326278687,-0.08453774452209473
435,-0.08206566303817715,0.15693705945486075,2.0152004712101834,-0.08096617460250854,-0.15629364550113678,-0.9843865036964417,0.17615002393722534,1.0154035091400146,-0.17203441262245178,0.001666247844696045,0.04585053026676178,0.07308584451675415
436,-0.001800101404237916,0.1668383672982921,2.0083953568055937,-0.001775105600245297,-0.16606545448303223,-0.9861131310462952,0.26412221789360046,0.04208929091691971,0.23591110110282898,0.0529225692152977,0.03406167030334473,0.10473495721817017
437,-0.0419888127360883,0.15835711858873158,2.0274122635164677,-0.04145125299692154,-0.15769609808921814,-0.9866173267364502,-0.002584211528301239,-0.20861618220806122,0.2658365070819855,-0.05858536437153816,-0.02373090386390686,-0.059616804122924805
438,-0.041864582174121846,0.17013722180998422,2.0494176298318245,-0.04124807193875313,-0.1693175882101059,-0.9846979975700378,0.16633868217468262,-0.12832465767860413,-0.018895283341407776,-0.019237756729125977,-0.024713128805160522,0.009783446788787842
439,-0.043279809548750485,0.16411674159897244,2.0579693350862427,-0.04268493130803108,-0.16338101029396057,-0.985639214515686,-0.2162570357322693,0.07857577502727509,0.17711742222309113,0.024114981293678284,0.04222622513771057,-0.003023505210876465
440,-0.042180481492782244,0.15458186667965274,2.094174936444819,-0.04166516289114952,-0.1539669632911682,-0.9871971607208252,-0.03170651197433472,0.10156383365392685,0.33332371711730957,-0.01911059394478798,-0.012979447841644287,-0.038376569747924805
441,-0.028899242195225536,0.1598011469748591,2.130492559700839,-0.028527064248919487,-0.15912188589572906,-0.9868466854095459,0.08131112158298492,0.25062069296836853,0.4050045609474182,-0.023856360465288162,0.031817808747291565,0.0071408748626708984
442,-0.02206250241718732,0.15987002798857464,2.171445548609265,-0.021779393777251244,-0.15918989479541779,-0.987007737159729,-0.069501593708992,0.10746646672487259,0.36655405163764954,-0.0814310610294342,0.034342482686042786,0.008919358253479004
443,-0.01443224822500161,0.16074502559928078,2.196929851930053,-0.014245697297155857,-0.16005367040634155,-0.9870055317878723,0.08092137426137924,0.09246043115854263,0.10102371871471405,-0.12218313664197922,0.029774129390716553,-0.021585166454315186
444,-0.01623185798389041,0.1599758842746854,2.2032275655054314,-0.016023891046643257,-0.15929439663887024,-0.9871010780334473,0.02962050586938858,0.005341722629964352,-0.003946626093238592,-0.07160733640193939,-0.0030743777751922607,0.014215946197509766
445,-0.025319331304741635,0.15636147851722396,2.184557002004072,-0.02500777505338192,-0.15572510659694672,-0.98748379945755,0.011875372380018234,-0.05514919012784958,-0.16147513687610626,-0.00377030111849308,0.001321449875831604,-0.018528103828430176
446,-0.02404186587483873,0.1616302511901081,2.172606866740384,-0.023726224899291992,-0.1609274297952652,-0.9866810441017151,-0.01764349266886711,0.08173046261072159,0.024785107001662254,0.021498437970876694,0.0007864385843276978,-0.005842149257659912
447,-0.010811840757483824,0.16271385388461163,2.1746024057083315,-0.010668822564184666,-0.16199681162834167,-0.986733615398407,0.16688458621501923,0.03852178901433945,0.08097726106643677,0.04979235678911209,0.002130478620529175,-0.0016239285469055176
448,-0.011784343559643749,0.17719228781650126,2.1838677726939535,-0.01159956119954586,-0.17626652121543884,-0.98427414894104,-0.2134379744529724,0.2938072383403778,0.1957637369632721,0.08325483649969101,0.031185954809188843,0.07478928565979004
449,0.0019741171416105016,0.17229498596318576,2.2087838518444616,0.001944886869750917,-0.17144380509853363,-0.9851920008659363,-0.004086160100996494,0.21175283193588257,0.34974008798599243,0.1111074835062027,-0.0022164881229400635,-0.01387721300125122
450,0.013451598179761756,0.18068138165890318,2.2470101178822404,0.013232226483523846,-0.17969989776611328,-0.983632504940033,0.4118958115577698,0.08239153772592545,0.49184033274650574,0.09518147259950638,0.032879844307899475,-0.05204254388809204
451,0.017587246897429343,0.20925191830684856,2.2924725620409228,0.017202721908688545,-0.20772819221019745,-0.9780353307723999,0.027595285326242447,0.21576642990112305,0.46378013491630554,0.0982147604227066,-0.0031635165214538574,0.0584644079208374
452,0.025667216387883832,0.2044413192086017,2.3465509852814814,0.025129925459623337,-0.2030201405286789,-0.9788520336151123,0.007279791869223118,0.16111920773983002,0.6029963493347168,0.06689582765102386,-0.008298814296722412,0.007965803146362305
453,0.01976585977380569,0.21125628174024627,2.396634291891086,0.019325172528624535,-0.20968841016292572,-0.977577269077301,0.023127669468522072,-0.09453260898590088,0.5234098434448242,0.08124551177024841,-0.01942230761051178,0.037056028842926025
454,0.012954900040965238,0.1953076550381474,2.4367194385502216,0.012708245776593685,-0.19406835734844208,-0.9809057116508484,-0.12514720857143402,0.08492673933506012,0.4347773790359497,0.08166736364364624,-0.013329118490219116,-0.008626759052276611
455,0.03179977931515534,0.18519113362495085,2.4754124098367303,0.03125077113509178,-0.18413440883159637,-0.9824041724205017,0.007871197536587715,0.17766661942005157,0.4622128903865814,0.11144942790269852,-0.022301748394966125,-0.06857544183731079
456,0.04245154956803106,0.19083710254444539,2.506874629717583,0.0416683591902256,-0.18968087434768677,-0.9809612035751343,-0.10816751420497894,0.4291151463985443,0.29270145297050476,0.1148105263710022,-0.014008685946464539,0.016239583492279053
457,0.05791462697648631,0.20119428685224827,2.5303376288443595,0.05671469122171402,-0.19983966648578644,-0.9781858325004578,0.32325223088264465,0.2698369026184082,0.45533400774002075,0.02141030877828598,0.05825336277484894,-0.0029695630073547363
458,0.0744160798889369,0.211540656841503,2.5605746140958354,0.07269010692834854,-0.20996646583080292,-0.9750027060508728,-0.17897914350032806,-0.0709831565618515,0.33408138155937195,-0.05814848095178604,0.015722066164016724,0.0476803183555603
459,0.06877581734975229,0.21156460320639023,2.5770700512974685,0.06718936562538147,-0.20998987555503845,-0.9753921627998352,-0.10094176232814789,-0.060474857687950134,0.2358696311712265,-0.06108585000038147,0.007337883114814758,0.014775097370147705
460,0.06184146348281005,0.2055802934034687,2.5886329377281263,0.06050067022442818,-0.20413526892662048,-0.9770713448524475,0.020583264529705048,-0.005577899981290102,0.2686454951763153,-0.010116152465343475,0.013324126601219177,-0.039530158042907715
461,0.05674748300848744,0.2162844360664611,2.601607088439681,0.05539561063051224,-0.21460211277008057,-0.9751293659210205,0.016202466562390327,-0.003886030986905098,0.27904030680656433,0.008325092494487762,0.007448792457580566,0.025285005569458008
462,0.05561096192678288,0.2243766558822437,2.632443791584937,0.05418901890516281,-0.22249868512153625,-0.9734258651733398,0.19873490929603577,0.025475434958934784,0.3445367217063904,-0.06250506639480591,0.041727811098098755,0.009787559509277344
463,0.050422940821497925,0.22085146581588036,2.6490687859336757,0.049177385866642,-0.219060480594635,-0.9744712114334106,-0.060531485825777054,-0.08131388574838638,0.09287392348051071,-0.0440351776778698,0.019261911511421204,-0.041367411613464355
464,0.049905139960645356,0.2251907308745522,2.6588931083854965,0.0486249215900898,-0.223292276263237,-0.9735379815101624,0.02829802967607975,0.008677508682012558,0.011159523390233517,-0.012843064963817596,0.025980889797210693,0.031261980533599854
465,0.038765618847198036,0.21271104629537133,2.6607023710227766,0.03788243606686592,-0.21111062169075012,-0.9767278432846069,-0.09630658477544785,-0.0607055239379406,0.048119984567165375,-0.013544667512178421,0.011968150734901428,-0.014269471168518066
466,0.03594890216883885,0.19987969612853504,2.660080256318272,0.03522558882832527,-0.19855141639709473,-0.9794572591781616,0.015431325882673264,0.006209482438862324,-0.04421120509505272,-0.02751990035176277,0.0067636966705322266,-0.05403578281402588
467,0.030001053085869707,0.19989530921424875,2.651150588845281,0.029399242252111435,-0.1985667198896408,-0.9796463251113892,-0.005613156594336033,0.018112897872924805,-0.09020397067070007,-0.014247268438339233,0.005878746509552002,0.0064255595207214355
468,0.03076706829443746,0.19415191754557004,2.633079000390308,0.030184242874383926,-0.19293445348739624,-0.9807472825050354,-0.0493253618478775,-0.06517821550369263,-0.14342336356639862,-0.025209879502654076,-0.01858288049697876,0.0181770920753479
469,0.022355008707520666,0.18182506722561723,2.6118083576612943,0.021984662860631943,-0.1808248609304428,-0.9832695722579956,-0.05630607157945633,-0.05731082707643509,-0.20610621571540833,-0.022762861102819443,-0.02693881094455719,-0.0049201250076293945
470,0.0195196944280159,0.1782874310098973,2.574245254025354,0.019209064543247223,-0.177344411611557,-0.9839613437652588,-0.1524697095155716,-0.07558270543813705,-0.23077599704265594,-0.007063070312142372,-0.03591242432594299,0.012800455093383789
471,0.022304964735719288,0.1740499900663623,2.54586716542164,0.021966148167848587,-0.17317256331443787,-0.9846464991569519,0.036163412034511566,0.0036025475710630417,-0.15660731494426727,-0.018426109105348587,-0.056029707193374634,-0.037494003772735596
472,0.025333199682615326,0.17650096016582023,2.502430170980075,0.02493695728480816,-0.17558597028255463,-0.9841482043266296,0.10554273426532745,0.03769092261791229,-0.15423570573329926,0.02228899486362934,-0.01484370231628418,0.015138804912567139
473,0.020466126522541903,0.178093377952265,2.4753959249219624,0.020141012966632843,-0.17715343832969666,-0.9839771389961243,-0.1595844030380249,-0.12069295346736908,-0.06405705213546753,0.05682431906461716,0.02648814022541046,-0.07217520475387573
474,0.02123825012396052,0.19051351167415137,2.4678372043329357,0.02085242047905922,-0.18936313688755035,-0.9816856980323792,0.22762958705425262,-0.054490476846694946,0.041227925568819046,0.05765404924750328,-0.016676291823387146,0.05575186014175415
475,0.015204812089551739,0.19050730840802432,2.458846948281514,0.014929155819118023,-0.18935704231262207,-0.9817947745323181,-0.16051630675792694,-0.16562214493751526,-0.15732744336128235,0.0631348043680191,0.031199723482131958,0.03149271011352539
476,0.007898811419385816,0.19452072665783524,2.4622043745619435,0.007749762386083603,-0.19329632818698883,-0.9811097979545593,-0.02443401888012886,-0.0701463371515274,0.025257043540477753,0.0575883723795414,0.04113568365573883,0.0019075274467468262
477,0.0031017373582970203,0.18233902629685336,2.4660060041190905,0.0030503126326948404,-0.18133032321929932,-0.9834175109863281,-0.1295919269323349,-0.3535325825214386,-0.1561618447303772,0.0579085499048233,0.0007425546646118164,0.016330718994140625
478,-0.02995406548735815,0.16609321348228173,2.4676161610811187,-0.029537426307797432,-0.16533060371875763,-0.985795795917511,-0.15030533075332642,-0.1352853626012802,0.06709998100996017,0.12166999280452728,0.041246116161346436,-0.035719096660614014
479,-0.0418230270997659,0.15651798433355718,2.491785433071116,-0.041299741715192795,-0.15587970614433289,-0.9869123101234436,-0.14897006750106812,-0.2874860167503357,0.21596460044384003,0.1535128802061081,0.00555013120174408,-0.016093671321868896
480,-0.046135692806506506,0.1441369507727424,2.5288295370347855,-0.045641083270311356,-0.14363838732242584,-0.9885771870613098,-0.13348887860774994,0.1908329427242279,0.363383024930954,0.07144369184970856,0.026542454957962036,-0.02219545841217041
481,-0.03760435119828506,0.14132761464150279,2.5657306595741933,-0.037220656871795654,-0.14085762202739716,-0.9893299341201782,0.1266607642173767,0.20421312749385834,0.3105641305446625,-0.015620522201061249,0.01311105489730835,-0.013355553150177002
