,attitude.roll,attitude.pitch,attitude.yaw,gravity.x,gravity.y,gravity.z,rotationRate.x,rotationRate.y,rotationRate.z,userAcceleration.x,userAcceleration.y,userAcceleration.z
0,0.08801635726650232,0.18937469854482603,2.6462237548300447,0.08633124828338623,-0.1882448047399521,-0.9783204197883606,0.18926656246185303,0.08603435754776001,0.031275518238544464,0.0052977800369262695,-0.0009184032678604126,-0.030880630016326904
1,0.03399960665743184,0.2667488685726223,2.734426251673705,0.03279082477092743,-0.26359668374061584,-0.96407550573349,0.11626459658145905,0.23464716970920563,-0.07479320466518402,-0.07061736285686493,0.018265873193740845,-0.00946575403213501
2,0.02312191022759719,0.26281412001989557,2.729455673682484,0.022325977683067322,-0.259799063205719,-0.9654045701026917,-0.033104307949543,0.14173388481140137,-0.050373099744319916,-0.020250782370567322,0.019824087619781494,-0.03613656759262085
3,0.021003320463242423,0.2698532324058426,2.7280114148438455,0.020241722464561462,-0.2665899693965912,-0.9635974764823914,0.03408866748213768,0.06119159609079361,0.023884734138846397,-0.013024315237998962,0.014850467443466187,0.023488223552703857
4,0.012909457901052837,0.26810464923957245,2.724757094784726,0.012447917833924294,-0.264904260635376,-0.9641943573951721,0.16239745914936066,-0.2548571527004242,0.15190599858760834,0.020816244184970856,-0.0033452212810516357,-0.02230161428451538
5,-0.07511529322720287,0.36435835077037604,2.8103883587384235,-0.07011818885803223,-0.3563498556613922,-0.9317178726196289,1.7459051609039307,-0.4629078209400177,1.245179533958435,0.07918191701173782,0.015712648630142212,-0.0010213255882263184
6,-0.37957244956143255,0.5899388230749508,3.0806478231833525,-0.3078955411911011,-0.5563101768493652,-0.7718285322189331,3.236363410949707,-3.747715950012207,2.706108570098877,0.3047827482223511,0.10628271102905273,-0.1140052080154419
7,-0.8444077989077596,0.6656808150762811,-2.701373321347358,-0.5879673957824707,-0.6175947189331055,-0.5223705768585205,2.125488042831421,0.7115262150764465,3.147357225418091,0.04191642999649048,0.27447038888931274,0.24304324388504028
8,-1.0311693939152513,0.4748514535412303,-2.4352093719433774,-0.7629829049110413,-0.4572063386440277,-0.45696771144866943,-0.7256537675857544,-1.1389431953430176,2.2269327640533447,-0.18594592809677124,0.3844066560268402,0.28671014308929443
9,-1.12390952905297,0.18305956005001273,-2.415997007632812,-0.8867291212081909,-0.18203885853290558,-0.42493936419487,-0.7473337054252625,-0.4761688709259033,3.6686019897460938,0.007014095783233643,0.4044509530067444,-0.2847927212715149
10,-1.2811736224345853,-0.30192466500871934,-2.2424545660379778,-0.9150016903877258,0.29735836386680603,-0.27267226576805115,0.29218006134033203,-2.41064453125,6.036870002746582,-0.036551713943481445,0.18961063027381897,-0.24585193395614624
11,-1.2197853196411055,-0.6908307189517295,-2.0106506346821917,-0.7237229347229004,0.6371776461601257,-0.26500898599624634,0.24528025090694427,0.36057916283607483,1.6785452365875244,-0.7031722068786621,-0.42503470182418823,-0.19518083333969116
12,-1.0136702762040457,-0.8138289543267875,-1.786482193673892,-0.5828729867935181,0.7269219160079956,-0.3631025552749634,0.7713649868965149,0.49224498867988586,1.651006817817688,0.003130614757537842,-0.3194665312767029,0.13362565636634827
13,-0.935078030665646,-0.8604187926640952,-1.7154190613543334,-0.5247254967689514,0.7581157088279724,-0.3872000277042389,0.15149997174739838,1.4044657945632935,-0.15053343772888184,-0.25002431869506836,0.13165491819381714,0.1033254861831665
14,-0.8795566730924179,-0.8388801855835696,-1.7604406491742808,-0.514893114566803,0.7438952326774597,-0.4260340631008148,-0.18979603052139282,0.021751459687948227,-0.1284148395061493,-0.03376716375350952,0.18512088060379028,0.015557408332824707
15,-0.8334045954989455,-0.8754692624332907,-1.6923604237946126,-0.47421517968177795,0.7678442001342773,-0.4307381808757782,0.48450881242752075,0.2260534167289734,1.194841980934143,0.009478241205215454,0.08509159088134766,-0.050295114517211914
16,-0.6907215357122258,-0.8842465606678432,-1.5696570518183335,-0.4038359820842743,0.7734376192092896,-0.4885803163051605,0.4072248637676239,1.3370829820632935,-0.5739670991897583,-0.4992401897907257,-0.04518139362335205,0.05523073673248291
17,-0.7444478387319524,-0.8389261584491221,-1.8163280242988176,-0.4527915418148041,0.743925929069519,-0.4914814531803131,-1.2192021608352661,0.6975263357162476,-1.8210980892181396,-0.03239220380783081,0.03415024280548096,0.2588306665420532
18,-1.0148863833457864,-0.7536034895285966,-2.195913926341737,-0.619421124458313,0.684270977973938,-0.38482552766799927,-0.6745076775550842,-0.32783395051956177,-0.7492271065711975,0.35864847898483276,0.230615496635437,-0.28137317299842834
19,-1.1860983759216117,-0.6390440569282982,-2.426938197795889,-0.7440009117126465,0.596428394317627,-0.3012239634990692,-0.8155710697174072,0.28447991609573364,-1.7451269626617432,0.13767766952514648,0.16342878341674805,0.0035555362701416016
20,-1.33667676810422,-0.4844938069889327,-2.561893443714,-0.8607695698738098,0.4657604694366455,-0.20528751611709595,-1.4699708223342896,0.63335782289505,-3.6985440254211426,-0.6466156244277954,-0.3891156017780304,0.30790287256240845
21,-1.3213878245132813,-0.33900493710169394,-2.8080420580718735,-0.9139057397842407,0.3325488269329071,-0.23278270661830902,-1.1021113395690918,-1.7831536531448364,-1.5822120904922485,0.49688297510147095,-0.014708250761032104,-0.14439928531646729
22,-1.4194123385907287,-0.19284536208278089,-2.939624695895575,-0.9702381491661072,0.19165228307247162,-0.14801090955734253,-1.4904671907424927,0.6931978464126587,-0.6064440608024597,0.17292070388793945,-0.08256721496582031,0.27922123670578003
23,-1.4962442425743665,-0.227583167016825,-3.0692063106213188,-0.9715084433555603,0.22562366724014282,-0.07256246358156204,-0.6365631818771362,0.7294183373451233,-0.2680724859237671,-0.2012668251991272,0.07094615697860718,-0.27079081535339355
24,-1.583118991556708,-0.2896193020724474,-3.0457572015140997,-0.9582799077033997,0.2855874001979828,0.011809160001575947,0.745932400226593,-1.921656847000122,1.3495440483093262,0.03495532274246216,0.001018434762954712,-0.11930739879608154
25,-1.6482435036926475,-0.22960927144683962,-2.921223811235226,-0.9708365201950073,0.22759707272052765,0.07533923536539078,1.3583556413650513,-1.8669248819351196,-0.09087005257606506,0.4650229215621948,-0.10661013424396515,-0.22791194915771484
26,-1.6821741189722537,-0.2872343758915251,-2.8394298576801713,-0.9530888199806213,0.2833009958267212,0.10659406334161758,0.24300722777843475,0.6937123537063599,0.8694722056388855,0.38825422525405884,0.1584562063217163,0.11041641235351562
27,-1.712840958293515,-0.39448054454312087,-2.737590844790852,-0.9138985276222229,0.384328693151474,0.13069456815719604,1.164588451385498,-0.4081568121910095,0.7148412466049194,-0.2181662917137146,0.1875859797000885,0.04130244255065918
28,-1.729643144249166,-0.5550895895513235,-2.7221562860160393,-0.8391537070274353,0.5270194411277771,0.1344294548034668,0.2987293303012848,-0.5638071298599243,1.8654956817626953,-0.19754350185394287,0.13327401876449585,-0.14453080296516418
29,-1.7533781673571722,-0.6412332889977344,-2.55657996883338,-0.7880384922027588,0.5981842279434204,0.14550195634365082,2.079592704772949,-1.1042180061340332,0.2506129741668701,-0.27864229679107666,-0.015161216259002686,-0.0017793327569961548
30,-1.705972775840507,-0.6408658522374568,-2.3789419138985384,-0.7942659854888916,0.5978897213935852,0.10802482068538666,0.5789795517921448,-1.4043368101119995,-1.0813828706741333,-0.07507294416427612,-0.13795936107635498,0.013435117900371552
31,-1.7973436243888767,-0.5494730610563536,-2.340302387503528,-0.8310089707374573,0.5222379565238953,0.19155113399028778,-0.19399967789649963,0.19214263558387756,-0.5248672366142273,0.06564325094223022,0.10335719585418701,0.2123796045780182
32,-1.7850215571850025,-0.527923389525101,-2.399588582494902,-0.8441085815429688,0.5037405490875244,0.18364731967449188,-0.31151023507118225,0.32717132568359375,0.22339093685150146,0.09700775146484375,0.041242361068725586,-0.07984185218811035
33,-1.7819911954112773,-0.5500648766923376,-2.404855346876801,-0.8335490822792053,0.522742509841919,0.17870618402957916,0.32968491315841675,-0.14920271933078766,-0.0036716132890433073,-0.03279900550842285,-0.049598097801208496,-0.08465102314949036
34,-1.785568187913015,-0.5445925121983369,-2.361325155353121,-0.8356872200965881,0.5180695652961731,0.18229363858699799,0.013280712999403477,-0.15634573996067047,-0.047133833169937134,0.01468801498413086,-0.053836166858673096,0.13547062873840332
35,-1.788615316329607,-0.542224751733016,-2.3951260227563136,-0.8363231420516968,0.5160428881645203,0.18510378897190094,-0.3761652410030365,0.2050584852695465,0.06004546582698822,-0.015361487865447998,0.042383015155792236,-0.038268446922302246
36,-1.7830638179802636,-0.5446489807362088,-2.3916865399435494,-0.836112380027771,0.5181179046630859,0.18019400537014008,0.2796855866909027,-0.2407466322183609,0.015753064304590225,0.007895886898040771,-0.017416000366210938,-0.04208672046661377
37,-1.7989910514089698,-0.5326956872138809,-2.3824700313839906,-0.8391095995903015,0.5078573822975159,0.19487473368644714,-0.1247580274939537,0.09094655513763428,-0.2564970552921295,-0.019075214862823486,-0.026244163513183594,0.03216075897216797
38,-1.792010173291259,-0.49862979275660524,-2.3957987317753893,-0.8568373322486877,0.4782226085662842,0.19269785284996033,-0.4845663905143738,0.1752845197916031,-0.11802805960178375,0.05813145637512207,0.07153618335723877,0.0806175023317337
39,-1.7744010555166203,-0.5034352560881222,-2.4140022395892116,-0.8578373193740845,0.4824374318122864,0.17711393535137177,0.5136746168136597,-0.34302380681037903,0.1645713448524475,-0.0021328330039978027,-0.11663845181465149,-0.186574324965477
40,-1.7881445760532413,-0.5126511114833083,-2.351459880322544,-0.8509443402290344,0.49048927426338196,0.1879197508096695,0.15364110469818115,-0.3317280113697052,-0.08003120869398117,-0.0815354585647583,-0.06875166296958923,0.06119522452354431
41,-1.8139659592234985,-0.47698765621010064,-2.3693535266353902,-0.8622453212738037,0.45910516381263733,0.21390476822853088,-0.3730570673942566,-0.01743977703154087,-0.456542044878006,0.05902278423309326,0.08761721849441528,0.038796037435531616
42,-1.8129029821762865,-0.40172713598310594,-2.376272398837241,-0.8935441374778748,0.39100855588912964,0.22066131234169006,0.009382587857544422,-0.23068292438983917,-1.2311081886291504,0.08984839916229248,0.16042882204055786,-0.07750332355499268
43,-1.8051171181884758,-0.2970647788289209,-2.338672914118391,-0.930069088935852,0.29271480441093445,0.22201277315616608,0.14917859435081482,0.070719875395298,-1.0438077449798584,-0.04071033000946045,-0.12474608421325684,-0.03901410102844238
44,-1.791209512421608,-0.2230639203832977,-2.298104661592544,-0.9516309499740601,0.22121866047382355,0.21321605145931244,0.24687756597995758,-0.014002811163663864,-0.2181846797466278,-0.14414846897125244,-0.14413127303123474,-0.09744751453399658
45,-1.8082395454462663,-0.20294602974908493,-2.263947387149527,-0.9519954919815063,0.2015557736158371,0.2303909808397293,0.23225435614585876,-0.2104276567697525,-0.3918699622154236,-0.0037540793418884277,-0.01898437738418579,-0.03858804702758789
46,-1.8228700261227584,-0.15885032371059102,-2.205242997019642,-0.9562050104141235,0.15818311274051666,0.2462725043296814,0.5620489716529846,-0.36805135011672974,-0.704396665096283,-0.002016425132751465,0.02953052520751953,-0.02460801601409912
47,-1.8218749891122412,-0.12310652365869244,-2.132541892834064,-0.96131432056427,0.12279580533504486,0.2465686798095703,0.768414318561554,0.055561363697052,-0.25622519850730896,0.02837669849395752,0.24263691902160645,0.05105400085449219
48,-1.8202615117526317,-0.13355263829555844,-2.1006568409061854,-0.960415244102478,0.1331559717655182,0.24468721449375153,-0.31667399406433105,-0.09232206642627716,0.2445317953824997,0.04087495803833008,0.15006236732006073,0.06006130576133728
49,-1.8374093147427093,-0.1620161101164172,-2.1185336768482004,-0.9520355463027954,0.16130824387073517,0.2600152790546417,0.17460882663726807,-0.16111236810684204,0.33057379722595215,0.04557192325592041,0.049400344491004944,-0.08684328198432922
50,-1.820009814098315,-0.1801220207482064,-2.1076947633638716,-0.9534284472465515,0.17914962768554688,0.24265164136886597,-0.3400607705116272,0.474456787109375,0.024757368490099907,0.03613096475601196,0.03165058791637421,0.15584686398506165
51,-1.8218601388189162,-0.17162537115147,-2.15662895414787,-0.9544176459312439,0.17078407108783722,0.2447846531867981,-0.4896947145462036,-0.046699829399585724,-0.03835783153772354,0.03327518701553345,0.03607936203479767,-0.004580870270729065
52,-1.8252548954965322,-0.16067116850300026,-2.177427172164192,-0.955334484577179,0.15998077392578125,0.24847929179668427,0.1423143744468689,0.15655305981636047,-0.030784962698817253,0.02326667308807373,0.05995941162109375,-0.037496089935302734
53,-1.7980323067823434,-0.15712243523565922,-2.1826521678208968,-0.9622911214828491,0.15647673606872559,0.22251027822494507,-0.2814379632472992,0.036852821707725525,-0.046191319823265076,-0.011402726173400879,-0.001111745834350586,0.05593216419219971
54,-1.7992330302272008,-0.14721180079486787,-2.232498503028155,-0.9634864926338196,0.14668066799640656,0.22400575876235962,-0.7467277646064758,0.019704028964042664,0.16467376053333282,0.07045066356658936,0.005678340792655945,0.0007715076208114624
55,-1.8008338323910293,-0.14949970287349845,-2.2827565799865357,-0.9627973437309265,0.1489434391260147,0.22547069191932678,-0.12805061042308807,0.09758635610342026,0.09898403286933899,-0.000993490219116211,-0.025194644927978516,-0.0966407060623169
56,-1.7908493999841772,-0.15434826572599175,-2.277981443255069,-0.9642844796180725,0.1537361443042755,0.21568647027015686,0.140603169798851,0.06920556724071503,-0.028187178075313568,-0.03212970495223999,-0.06700518727302551,0.005642294883728027
57,-1.7834063967421758,-0.1464442290611691,-2.2783834422314353,-0.9670207500457764,0.14592134952545166,0.208753302693367,-0.0636257752776146,0.018919475376605988,0.02959432825446129,-0.006596803665161133,-0.02609407901763916,-0.029935479164123535
58,-1.7806091748152615,-0.1419836108359608,-2.2746147436657482,-0.9682279825210571,0.14150704443454742,0.20618104934692383,0.010017096064984798,0.0619472898542881,-0.0661761462688446,-0.004840373992919922,-0.04838262498378754,-0.01033446192741394
59,-1.7730918161652904,-0.13186584100204332,-2.282071760198371,-0.9711033701896667,0.1314840167760849,0.19917424023151398,-0.15545114874839783,0.028204042464494705,0.011394466273486614,-0.04841268062591553,0.0184488445520401,-0.01295587420463562
60,-1.7714775839352774,-0.1318917235656645,-2.2892130620608984,-0.971420168876648,0.1315096765756607,0.197605699300766,0.06737689673900604,-0.009507588110864162,-0.015665672719478607,-0.006973326206207275,-0.012781038880348206,-0.04796279966831207
61,-1.7669892061116588,-0.13035399864770914,-2.2851223816311097,-0.9724946618080139,0.12998513877391815,0.1932828426361084,0.006603782065212727,0.0065214745700359344,0.0010898472974076867,-0.01398611068725586,-0.010493561625480652,-0.02194187045097351
62,-1.7655470763771686,-0.1322462995154667,-2.286514979139768,-0.9725292325019836,0.13186116516590118,0.19183221459388733,-0.049297772347927094,0.0016428781673312187,0.08278690278530121,0.014048337936401367,-0.003870442509651184,-0.032835572957992554
63,-1.7641822092739838,-0.13974207492572088,-2.29741583944546,-0.9717926979064941,0.13928771018981934,0.1903093308210373,-0.0946190133690834,0.01393179502338171,0.0825861319899559,-0.011651396751403809,-0.010335668921470642,-0.019029393792152405
64,-1.7631370958869717,-0.14186601049263675,-2.3084933915665125,-0.9716985821723938,0.1413906216621399,0.1892366260290146,-0.14811331033706665,0.012113401666283607,0.00020204647444188595,-0.025310635566711426,0.0019657015800476074,0.03468608856201172
65,-1.774158328101121,-0.1459768604830468,-2.3280158677358394,-0.9689766764640808,0.14545896649360657,0.19981518387794495,-0.05607603117823601,-0.12909646332263947,0.1324310153722763,0.050687432289123535,0.030719012022018433,-0.02104318141937256
66,-1.7788137713126122,-0.15468566200799289,-2.331515352924239,-0.9667598009109497,0.15406952798366547,0.20405465364456177,-0.09148883819580078,0.007673128508031368,-0.014808038249611855,0.007271766662597656,0.04917757213115692,0.034989625215530396
67,-1.7742708630421675,-0.15731377775279554,-2.3501243510240677,-0.9672768115997314,0.15666572749614716,0.19957813620567322,-0.17217814922332764,0.08437356352806091,0.10661853104829788,0.01337367296218872,0.06925590336322784,0.02828143537044525
68,-1.7732055784199632,-0.16857770757657592,-2.3577622277023833,-0.965698778629303,0.16778038442134857,0.19818024337291718,-0.1100766584277153,0.09220650047063828,-0.0016803073231130838,-0.01773005723953247,0.00856541097164154,0.05384920537471771
69,-1.7631536311179021,-0.16687507868484022,-2.379016197237662,-0.967921257019043,0.16610164940357208,0.18851761519908905,-0.1351349651813507,0.1171700730919838,0.06457003951072693,0.023600459098815918,0.07068423926830292,0.008351355791091919
70,-1.75801297603447,-0.17722784103891576,-2.4021280215225165,-0.9671361446380615,0.1763015240430832,0.18320950865745544,-0.35365402698516846,0.12236148118972778,0.1268959939479828,0.027148902416229248,0.0326828807592392,0.04713715612888336
71,-1.75516273375131,-0.18024684991499565,-2.436778222377481,-0.9671264886856079,0.17927242815494537,0.18035374581813812,-0.3382743299007416,0.09877141565084457,0.06503976136445999,0.007180929183959961,0.0004913508892059326,0.01195274293422699
72,-1.7411477493713432,-0.17636165200049694,-2.4751405249375376,-0.970238447189331,0.17544883489608765,0.16689908504486084,-0.3883994221687317,0.3018936514854431,-0.01006227359175682,0.011788010597229004,-0.011187955737113953,0.051454201340675354
73,-1.7240797361243132,-0.17150481456081987,-2.505320276229813,-0.9737762808799744,0.17066527903079987,0.15044386684894562,-0.05296599119901657,0.18193237483501434,-0.0586148239672184,0.00513303279876709,-0.009486660361289978,-0.006385669112205505
74,-1.7177148411771284,-0.16768266769797469,-2.5007024845908816,-0.9753520488739014,0.1668979674577713,0.14433728158473969,0.11067026853561401,-0.08888748288154602,0.001375627820380032,0.020823359489440918,0.018694669008255005,0.017772063612937927
75,-1.7261521015821533,-0.16688437779856752,-2.4877154819906027,-0.9742310047149658,0.1661108285188675,0.15258194506168365,0.07971438765525818,-0.07117222994565964,-0.0969533771276474,0.00395512580871582,-0.0032690316438674927,0.010824441909790039
76,-1.7242188046829126,-0.15617189861762687,-2.4830745576497533,-0.9762266874313354,0.15553784370422363,0.15096144378185272,0.06074066460132599,0.06399142742156982,-0.1432095468044281,-0.008529722690582275,0.005610242486000061,-0.01383066177368164
77,-1.7159484606180015,-0.14751338340759934,-2.472728073509075,-0.9787377119064331,0.1469789743423462,0.14307208359241486,0.08975772559642792,0.05289607495069504,-0.07040001451969147,0.02210325002670288,0.04305398464202881,0.006799682974815369
78,-1.717003931780919,-0.1509612609864207,-2.4633303086197706,-0.9780788421630859,0.15038852393627167,0.14403033256530762,0.18700245022773743,-0.08080639690160751,-0.0038454020395874977,-0.024957478046417236,0.02910056710243225,-0.029864102602005005
79,-1.7285336717452988,-0.15719101607427144,-2.4306478194843693,-0.975409209728241,0.15654447674751282,0.15514734387397766,0.32356688380241394,-0.2875654995441437,0.007911947555840015,0.016760587692260742,-0.025028958916664124,-0.03438927233219147
80,-1.7444734878287522,-0.16218124298842,-2.393654617497817,-0.9720308184623718,0.1614712029695511,0.17053769528865814,0.38653263449668884,-0.10474859178066254,-0.23417992889881134,-0.09902936220169067,-0.15744291245937347,-0.04756714403629303
81,-1.7376219955680523,-0.12525453462314612,-2.3661385836717908,-0.9783916473388672,0.12492727488279343,0.1647520810365677,-0.012008840218186378,0.13439124822616577,-0.46547946333885193,0.03425389528274536,-0.017291754484176636,-0.05533130466938019
82,-1.7176487456864,-0.08295431193664088,-2.3635447442708974,-0.9858348369598389,0.08285920321941376,0.14582198858261108,-0.03355426713824272,0.18791882693767548,-0.12538592517375946,0.07074999809265137,0.12195952981710434,0.04529426991939545
83,-1.718042139991091,-0.1170967014254974,-2.3634088952462005,-0.9824051260948181,0.1168292835354805,0.14570961892604828,0.3094041645526886,-0.09788864850997925,0.5740951299667358,0.03230130672454834,-0.0954211950302124,-0.03377115726470947
84,-1.715532774117111,-0.17176899717048058,-2.299738347123419,-0.9749817252159119,0.1709255874156952,0.14210911095142365,1.0440409183502197,-0.12527844309806824,0.11679894477128983,-0.24239492416381836,-0.2605557441711426,0.0015982240438461304
85,-1.7231468592675678,-0.1620746802872526,-2.2373195870979696,-0.9754635095596313,0.1613660454750061,0.14977295696735382,0.17870064079761505,-0.03081503137946129,-0.34342241287231445,-0.030548453330993652,-0.1419568657875061,-0.0418781042098999
86,-1.696464897750664,-0.11411329176566264,-2.206050043231622,-0.9856614470481873,0.11386579275131226,0.1245228722691536,0.6032388806343079,0.47965341806411743,-0.5256159901618958,-0.008082330226898193,0.11803726851940155,-0.10987438261508942
87,-1.676699443365836,-0.09309212299828289,-2.1156692212246657,-0.9900916814804077,0.09295772016048431,0.10524755716323853,0.9047966003417969,-0.18946366012096405,-0.035985834896564484,0.12809234857559204,0.08930851519107819,-0.03281404823064804
88,-1.658500674220155,-0.11512427042235518,-2.0467981552510173,-0.989562451839447,0.11487013846635818,0.0870121419429779,0.6587854027748108,0.01652989163994789,0.17838314175605774,-0.07362419366836548,0.05396836996078491,0.04027664661407471
89,-1.6788069778950998,-0.14064592024714925,-2.0077566607323165,-0.984355628490448,0.14018268883228302,0.10673628747463226,0.27241143584251404,-0.14443360269069672,0.169818714261055,-0.005573451519012451,0.02598552405834198,0.09075818955898285
90,-1.6886162972998515,-0.14939373283098148,-2.001616533573392,-0.9820061326026917,0.14883863925933838,0.11623828858137131,-0.15539142489433289,-0.3763660192489624,0.12357142567634583,0.0676535964012146,0.08248461782932281,-0.025036558508872986
91,-1.7057486419085381,-0.1736777402489369,-2.0014464531718676,-0.9760005474090576,0.17280592024326324,0.13251899182796478,0.573992133140564,-0.29328277707099915,0.3506709039211273,0.046328186988830566,0.04142750799655914,-0.03905890882015228
92,-1.7188604753887746,-0.21204627207731705,-1.9234536358267376,-0.9669060111045837,0.21046078205108643,0.1442195624113083,0.6217873692512512,0.015058094635605812,0.028936464339494705,-0.11028832197189331,-0.09228143095970154,0.18363071978092194
93,-1.7373948067657892,-0.19910368328299577,-1.9351973664963664,-0.9666722416877747,0.19779080152511597,0.16255280375480652,-0.607516348361969,-0.2550453841686249,-0.19877396523952484,0.007062315940856934,-0.015494093298912048,0.0836019366979599
94,-1.745273090792032,-0.15642903009988646,-1.9766334788455004,-0.9727926850318909,0.15579183399677277,0.17147326469421387,-0.0012119151651859283,0.6153181791305542,-0.5634567737579346,0.07850569486618042,0.09411661326885223,-0.11185719072818756
95,-1.7077157068043023,-0.1016298931580484,-1.9440893871261138,-0.9855297207832336,0.10145503282546997,0.1357877105474472,0.38960301876068115,0.06846547871828079,-0.7070504426956177,-0.03610730171203613,0.09065313637256622,0.039413705468177795
96,-1.6712817800703084,-0.0020126867945589396,-2.0015138135691455,-0.9949535727500916,0.0020126854069530964,0.10031622648239136,-1.8222870826721191,0.31947067379951477,-0.7574248313903809,-0.027293741703033447,0.11020046472549438,0.06959032267332077
97,-1.6563490200456477,0.04985670033211111,-2.190502949388988,-0.9951047301292419,-0.04983604699373245,0.08534220606088638,-1.4043155908584595,-0.025916192680597305,-0.11045442521572113,0.0027187466621398926,0.05014120787382126,-0.0039212629199028015
98,-1.6591551083695666,0.07028563758427668,-2.22478004860877,-0.9936396479606628,-0.07022777944803238,0.08802598714828491,0.6020139455795288,0.5470214486122131,0.1053953543305397,-0.1634954810142517,-0.06392750889062881,0.02292061597108841
99,-1.6140797608146842,-0.003913371312376457,-2.0679236644185313,-0.9990558624267578,0.0039133611135184765,0.04326959326863289,2.277454376220703,-0.7038154006004333,0.6421500444412231,0.10196101665496826,-0.10292762517929077,-0.07747983932495117
100,-1.7034329629843374,-0.031852346322227935,-1.9156991122697156,-0.9907137155532837,0.03184695914387703,0.13218097388744354,0.2861109673976898,-0.16605797410011292,-0.10263598710298538,0.20923501253128052,0.015852026641368866,0.06526777148246765
101,-1.652532494402628,-0.030536710332647,-2.01512472425625,-0.9961966872215271,0.03053196519613266,0.08160711824893951,-1.4448918104171753,0.6567584276199341,0.3622700870037079,-0.12054818868637085,-0.021834464743733406,-0.05331731587648392
102,-1.6466550597151102,-0.03717267238340912,-2.1007694163262762,-0.9964351654052734,0.0371641106903553,0.07573363184928894,-0.07796502113342285,-0.12488986551761627,-0.14154201745986938,0.05127537250518799,-0.1064085140824318,0.10908077657222748
103,-1.6543794405594185,-0.030554130905719463,-2.1193126666342605,-0.9960437417030334,0.03054937720298767,0.08344685286283493,-0.3507693409919739,-0.06698492169380188,-0.019493961706757545,0.002116858959197998,-0.02092108502984047,0.012378327548503876
104,-1.6629851201262393,-0.02224413436260117,-2.132697583683358,-0.9955071806907654,0.02224230021238327,0.09203548729419708,-0.008814334869384766,-0.08565438538789749,-0.052557993680238724,0.009102880954742432,-0.006388427689671516,-0.02199769765138626
105,-1.6696629256920201,-0.018712534883758358,-2.1238582788324223,-0.9949424862861633,0.01871144212782383,0.09868833422660828,0.0654042586684227,-0.1648927479982376,-0.016747931018471718,-0.03292006254196167,0.017161965370178223,-0.013559579849243164
106,-1.6745432447030173,-0.018095664222135932,-2.1089472474553745,-0.99446040391922,0.018094677478075027,0.1035439595580101,0.22502876818180084,-0.08092951029539108,-0.03092491626739502,0.0971672534942627,-0.007001549005508423,-0.043988943099975586
107,-1.6748537592888526,-0.019446989901998345,-2.092135582679888,-0.9944029450416565,0.019445763900876045,0.1038501113653183,0.16454589366912842,-0.030279751867055893,0.023955177515745163,-0.021054327487945557,0.002984674647450447,-0.009749159216880798
108,-1.6720981725062307,-0.019847999822360518,-2.0720190709966126,-0.9946773052215576,0.01984669640660286,0.10110874474048615,0.35791948437690735,0.14336347579956055,-0.049778517335653305,0.03831756114959717,0.0015766602009534836,0.00811360776424408
109,-1.6664592078299723,-0.019558007573547666,-2.0529292710706963,-0.9952374696731567,0.019556760787963867,0.09549877792596817,-0.22836172580718994,0.03681126981973648,-0.02211185172200203,0.04876524209976196,-0.008997678756713867,0.03951096534729004
110,-1.663857428300109,-0.017030078711886144,-2.093323739235996,-0.9955286383628845,0.017029255628585815,0.09291336685419083,-0.31744498014450073,-0.007576965726912022,0.0014760325429961085,0.02761787176132202,0.006560832262039185,0.012753725051879883
111,-1.6678561623094408,-0.013102133654868415,-2.1367367861167366,-0.9952080249786377,0.013101758435368538,0.09689920395612717,-0.5827907919883728,0.031899675726890564,0.05243310704827309,-0.028275251388549805,-0.009668529033660889,0.03753066062927246
112,-1.6686818403784076,-0.00785264446676103,-2.1945327987605903,-0.9951823949813843,0.007852563634514809,0.0977262631058693,-0.6114208102226257,-0.017176007851958275,-0.04120989143848419,-0.07003366947174072,0.018194198608398438,0.03041708469390869
113,-1.6676374802064786,0.001023842374748258,-2.238059450275405,-0.9953138828277588,-0.0010238421382382512,0.09668979048728943,-0.3524736166000366,0.01632692664861679,-0.06211496889591217,0.08358615636825562,0.025849878787994385,-0.03168739378452301
114,-1.6664545857815403,0.012000135096856915,-2.2948505798281262,-0.9953564405441284,-0.011999847367405891,0.09550555050373077,-0.8732320070266724,-0.015370450913906097,-0.016061577945947647,-0.02716541290283203,0.02222323603928089,0.017562136054039
115,-1.6601941818013148,0.019675805586099833,-2.3718035851175383,-0.9958139657974243,-0.01967453584074974,0.08926155418157578,-0.6537647843360901,-0.03031139075756073,-0.042829692363739014,0.010111391544342041,0.05371689796447754,-0.023175708949565887
116,-1.6492024925749007,0.023494040794719426,-2.445839219557598,-0.9966527819633484,-0.023491879925131798,0.0783042460680008,-0.8044085502624512,0.14385105669498444,0.10698986798524857,0.017023146152496338,0.018334414809942245,-0.006053917109966278
117,-1.630180711439551,0.014947933867725161,-2.5111563964029533,-0.9981257319450378,-0.014947377145290375,0.05934285745024681,-0.2288774698972702,0.15175366401672363,0.08187634497880936,-0.04642987251281738,-0.03409436345100403,-0.02131795883178711
118,-1.635570470433291,0.006369002493451591,-2.52222688969778,-0.997882604598999,-0.0063689593225717545,0.0647275447845459,-0.4544105529785156,-0.054942626506090164,0.15359802544116974,0.0329321026802063,0.015615791082382202,0.034057848155498505
119,-1.6369254286251762,-0.009087875780936809,-2.6025768604387913,-0.9977729320526123,0.009087750688195229,0.06607817858457565,-0.6864985823631287,-0.04223975911736488,0.1608540117740631,-0.016554951667785645,-0.07360193133354187,-0.05701447278261185
120,-1.6484656640535353,-0.0163469254465265,-2.6610393390732305,-0.9968520998954773,0.016346197575330734,0.07758090645074844,-0.5821234583854675,-0.06652191281318665,0.1466677486896515,0.0072280168533325195,-0.01565954089164734,-0.051900386810302734
121,-1.6426046887310173,-0.030791001391261848,-2.714120884278313,-0.996950089931488,0.03078613616526127,0.07171265780925751,-0.16907133162021637,0.12795202434062958,0.1976286917924881,-0.1626567840576172,-0.029733287170529366,-0.033993013203144073
122,-1.643008537339651,-0.04921907557371841,-2.702750051599672,-0.9961859583854675,0.04919920489192009,0.07206209003925323,0.1356700211763382,0.022066300734877586,0.055367790162563324,0.022583723068237305,-0.04297361150383949,0.006596915423870087
123,-1.6336802640713786,-0.055398701647272744,-2.707317758395985,-0.9964924454689026,0.05537036806344986,0.06274610012769699,-0.23628272116184235,0.12722240388393402,0.15706755220890045,0.05180555582046509,-0.09432604908943176,0.004484057426452637
124,-1.6275985959299732,-0.06399625349516942,-2.726506493862026,-0.9963435530662537,0.06395258009433746,0.05665552243590355,0.008734078146517277,0.02219458296895027,0.076474629342556,0.007833361625671387,-0.13399040699005127,-0.03190576285123825
125,-1.6156366809333915,-0.042710793189285265,-2.7232605684635445,-0.9980838298797607,0.042697809636592865,0.04478444904088974,-0.10949674993753433,0.16525135934352875,-0.19932736456394196,0.04173922538757324,-0.05421820282936096,0.033172607421875
126,-1.6100027500173912,-0.014627913290109856,-2.7471030011999344,-0.9991246461868286,0.01462739147245884,0.039192188531160355,-0.2580243945121765,0.06238967180252075,-0.24737215042114258,-0.009801805019378662,0.005514206364750862,-0.008995052427053452
127,-1.5982117777144662,0.00645119596822121,-2.767348574392184,-0.9996034502983093,-0.006451151333749294,0.02741144597530365,-0.21723847091197968,0.09761806577444077,-0.17015418410301208,0.003830134868621826,0.046398669481277466,-0.0036840438842773438
128,-1.5867506101844997,0.016634915652255163,-2.7706207856004967,-0.9997344613075256,-0.016634147614240646,0.015951400622725487,0.26507139205932617,0.01516924612224102,-0.027900202199816704,-0.0011658072471618652,0.030092403292655945,-0.003271341323852539
129,-1.5980190945610262,0.01878677723073429,-2.73966604190614,-0.9994531273841858,-0.018785672262310982,0.02721460349857807,0.1807233691215515,-0.07390260696411133,-0.03922642022371292,0.06930786371231079,0.021562770009040833,-0.002495288848876953
130,-1.5972817535457144,0.017943389192461568,-2.7310130577078318,-0.9994885325431824,-0.01794242672622204,0.026478072628378868,0.15599112212657928,0.16141431033611298,-0.012190539389848709,-0.011131703853607178,0.012189863249659538,0.0006215609610080719
131,-1.5921848661835671,0.022858861649178143,-2.724247932626912,-0.9995102882385254,-0.02285687066614628,0.021381326019763947,-0.12433221936225891,0.05918663367629051,-0.09108233451843262,0.05024564266204834,0.051833316683769226,-0.002033112570643425
132,-1.5962970997701087,0.02372413076700904,-2.7674955948102804,-0.9993934631347656,-0.023721905425190926,0.025490831583738327,-0.7054392695426941,0.04812172055244446,0.04668482393026352,-0.038951754570007324,0.05837463214993477,0.0048130713403224945
133,-1.5952270536843842,0.018514733961671997,-2.8169260527451225,-0.9995303153991699,-0.018513675779104233,0.0244241114705801,-0.33906105160713196,-0.04354051500558853,0.10480421036481857,-0.010723590850830078,0.016102775931358337,-0.023615360260009766
134,-1.5944930815064153,0.00865728513113589,-2.8578448074050278,-0.9996816515922546,-0.008657176978886127,0.023693645372986794,-0.5051044225692749,0.009167232550680637,0.1272471845149994,0.0056021809577941895,-0.017542168498039246,-0.018475178629159927
135,-1.59218870043323,-0.0010047057462796972,-2.9053628923963988,-0.9997706413269043,0.001004705554805696,0.021390730515122414,-0.36441415548324585,0.03170955926179886,0.08283870667219162,0.019454538822174072,-0.02763129025697708,-0.004956962540745735
136,-1.5880722223586023,-0.009885958858798713,-2.934245576970619,-0.9998021125793457,0.009885798208415508,0.017274195328354836,-0.21890713274478912,0.049094099551439285,0.08210881054401398,-0.009093940258026123,-0.047101981937885284,-0.0033276062458753586
137,-1.5861432248359517,-0.011915545335471173,-2.950995686544492,-0.9998111724853516,0.011915263719856739,0.015345204621553421,-0.1368650197982788,-0.04524201899766922,-0.015392536297440529,0.007425367832183838,-0.026914656162261963,-0.017374634742736816
138,-1.5870373390729178,-0.0045471030943648166,-2.9715531428185957,-0.9998577833175659,0.004547087475657463,0.016240129247307777,-0.10006915777921677,-0.018037740141153336,0.02192481979727745,0.025935053825378418,0.0027008354663848877,-0.01595020294189453
139,-1.589307998047859,-0.00854389277300604,-2.968981588477377,-0.9997920393943787,0.008543788455426693,0.018509935587644577,0.11144065111875534,0.029904130846261978,0.02930409461259842,-0.04381746053695679,0.006211458705365658,0.011229394003748894
140,-1.5919106572150428,-0.009806479178420997,-2.951223473260678,-0.9997290372848511,0.009806321933865547,0.02111174538731575,0.20543362200260162,-0.09396341443061829,-0.029250014573335648,-0.010723233222961426,-0.015009568072855473,-0.011315586045384407
141,-1.6009687967826827,-0.006235541607826872,-2.92950886814461,-0.9995254278182983,0.006235501263290644,0.03016730770468712,0.1634097695350647,-0.09228041023015976,-0.032659366726875305,0.01727139949798584,0.009740449488162994,-0.028687119483947754
142,-1.5982075544516936,-0.0014285827994906617,-2.920657898994847,-0.9996232986450195,0.0014285823563113809,0.02740776725113392,0.03360270708799362,0.06123606488108635,-0.09885799884796143,0.008687078952789307,0.03796961158514023,-0.02868950553238392
143,-1.574178932361035,0.0006957461314961658,-2.916742936771021,-0.9999939799308777,-0.0006957461009733379,0.0033825980499386787,-0.013952440582215786,0.2992945611476898,0.01740669645369053,0.02773451805114746,0.046212710440158844,0.04337036609649658
144,-1.5732696394937364,-0.005650334824670662,-2.9258701136175245,-0.999981164932251,0.005650304723531008,0.002473271219059825,-0.12794284522533417,-0.15215736627578735,-0.00019349402282387018,-0.012622714042663574,-0.00957181304693222,0.04252493381500244
145,-1.5905130296012855,-0.005292595747469759,-2.92071158492536,-0.9997915625572205,0.005292571149766445,0.019715147092938423,0.21811987459659576,-0.14233694970607758,-0.026846840977668762,0.0013632774353027344,-0.02937094122171402,-0.022232891991734505
146,-1.5928261990760417,0.0006833556646785713,-2.8938162298561503,-0.9997572302818298,-0.0006833556108176708,0.022028088569641113,0.3625449538230896,0.019225317984819412,-0.04784790799021721,0.01597726345062256,-0.04059166461229324,-0.012918589636683464
147,-1.5941385612310148,0.006549407333813782,-2.8482537570414195,-0.9997062683105469,-0.006549360696226358,0.023339617997407913,0.5480403304100037,-0.027425821870565414,-0.08962719887495041,-0.020099759101867676,-0.04261445999145508,-0.0022518616169691086
148,-1.6022394412537915,0.012430105315679249,-2.776930471281955,-0.9994285106658936,-0.01242978498339653,0.03143550455570221,0.8289579153060913,-0.16700299084186554,-0.081807941198349,-0.027945756912231445,-0.03572694957256317,-0.026964664459228516
149,-1.6122444286304103,0.017143351091693765,-2.6994533755040533,-0.9989944100379944,-0.017142511904239655,0.04143014922738075,0.7033451795578003,-0.02209736779332161,-0.061543866991996765,0.011094629764556885,-0.018578320741653442,-0.031542420387268066
150,-1.6126307644488334,0.017615113616809473,-2.6146310275975497,-0.9989701509475708,-0.017614202573895454,0.04181575030088425,1.1153215169906616,0.016978349536657333,-0.039612967520952225,0.0170670747756958,-0.043298885226249695,-0.034750938415527344
151,-1.6166121639469562,0.01667514315527591,-2.506162222499258,-0.9988119006156921,-0.01667436957359314,0.04579344764351845,0.9715356230735779,-0.010617999359965324,-0.044829659163951874,0.018663465976715088,-0.05725446343421936,-0.027666088193655014
152,-1.6194808897440724,0.020670473941830643,-2.4167857058052142,-0.9986017942428589,-0.02066900208592415,0.048654936254024506,0.803867518901825,-0.006748580373823643,-0.10787685960531235,-0.007791638374328613,-0.038641899824142456,-0.026117682456970215
153,-1.62241303069867,0.0305523368492817,-2.3319086940973,-0.9982021450996399,-0.03054758347570896,0.05156971141695976,0.9361903667449951,-0.029102642089128494,-0.16072620451450348,-0.04397320747375488,-0.004593405872583389,-0.02794908732175827
154,-1.6317893663402838,0.04132273356703364,-2.2422498265340316,-0.9972885251045227,-0.04131097346544266,0.06090319901704788,0.682585597038269,-0.09879301488399506,-0.1351173222064972,0.018315017223358154,0.029576953500509262,-0.011190049350261688
155,-1.6437428961946845,0.04715904269647756,-2.1844205163880126,-0.996231734752655,-0.04714156314730644,0.07280085980892181,0.577461838722229,-0.06689321249723434,-0.051713280379772186,-0.014479875564575195,0.06516221165657043,-0.030061006546020508
156,-1.649523958921384,0.041340803061664266,-2.1170381228469815,-0.9960508942604065,-0.0413290299475193,0.0785791426897049,0.7490471601486206,-0.02783859521150589,0.039547983556985855,0.024081170558929443,0.031090375036001205,-0.0022852346301078796
157,-1.6600494019144842,0.029058153812988145,-2.046339272043525,-0.9955991506576538,-0.02905406430363655,0.08909700065851212,0.514773428440094,-0.22219617664813995,0.08124938607215881,0.004845976829528809,-0.02265799045562744,0.046477317810058594
158,-1.6886008426155275,0.017964218266158075,-2.007401638398452,-0.9929088354110718,-0.01796325296163559,0.1175132617354393,0.4234735071659088,-0.39273950457572937,0.019436828792095184,-0.0019642114639282227,-0.028606563806533813,-0.024449944496154785
159,-1.7132091499113364,0.01439131969249015,-1.961186827182635,-0.9897741675376892,-0.014390822499990463,0.14191725850105286,0.6549390554428101,-0.12928201258182526,-0.10333016514778137,0.012387514114379883,-0.0018903035670518875,-0.07210825383663177
160,-1.7409399429757257,0.011683047930969257,-1.8709041888752047,-0.9854933619499207,-0.01168278232216835,0.16931235790252686,0.8861384391784668,-0.40160152316093445,-0.13145890831947327,-0.005946636199951172,0.03331973776221275,0.013213321566581726
161,-1.7521808904086176,0.013657698602643924,-1.808226494662872,-0.9835031032562256,-0.013657273724675179,0.18037475645542145,0.5925468802452087,0.09676238894462585,-0.15831509232521057,-0.01812952756881714,0.04113835096359253,-0.07449401915073395
162,-1.7531945802584732,0.011634991282933861,-1.7141282400001532,-0.9833449721336365,-0.011634728871285915,0.18137629330158234,1.0635607242584229,-0.14007866382598877,-0.1156754419207573,0.018440186977386475,0.06925192475318909,-0.022440791130065918
163,-1.758565552728566,0.006194573353467756,-1.6444950271085788,-0.9824042916297913,-0.006194533780217171,0.18666422367095947,0.2732705771923065,-0.007655459921807051,0.0012541216565296054,0.010602474212646484,0.08688300848007202,0.012722387909889221
164,-1.7631219335168387,-0.0012006304667182598,-1.6364244148140987,-0.9815616607666016,0.0012006302131339908,0.1911419928073883,0.020757006481289864,-0.09906507283449173,0.09202844649553299,-0.0025844573974609375,0.05681329965591431,-0.010432243347167969
165,-1.7759173864073385,-0.011417307029584451,-1.6500569553253241,-0.9789724349975586,0.011417059227824211,0.203672394156456,-0.20989051461219788,-0.16561780869960785,0.0515269935131073,0.016600728034973145,-0.002429635263979435,0.023607224225997925
166,-1.7843800027651469,-0.011993952515852651,-1.6729715952636874,-0.9772072434425354,0.011993665248155594,0.2119482457637787,-0.19632035493850708,-0.08877904713153839,0.049318987876176834,0.0015451312065124512,0.03370639681816101,0.010723307728767395
167,-1.8521922286908683,-0.01147347333992891,-1.6913772060992256,-0.9606056213378906,0.011473221704363823,0.2776786684989929,-0.33108392357826233,-1.4108890295028687,0.034634098410606384,-0.004726529121398926,0.007066191174089909,0.04750135540962219
168,-1.8626080061842472,0.0016800458399685082,-1.7785273370146057,-0.9577229619026184,-0.0016800450393930078,0.28768739104270935,-1.2275025844573975,0.5394912362098694,0.14248086512088776,-0.006525695323944092,0.00882112979888916,-0.08593571186065674
169,-1.8416384096121596,0.007456033399097313,-1.849387842694959,-0.963519275188446,-0.007455964107066393,0.2675355076789856,-0.030950378626585007,0.11508727073669434,0.1539926826953888,0.01838982105255127,0.053232342004776,-0.11300969123840332
170,-1.8419635825024352,-0.0137671370899462,-1.8307989733498866,-0.9633675813674927,0.013766702264547348,0.26783084869384766,0.21861320734024048,0.004357260651886463,0.1756610870361328,-0.009517550468444824,-0.0013002753257751465,0.034979820251464844
171,-1.80487121354158,-0.03140204499299404,-1.8524579632877287,-0.9722496867179871,0.031396884471178055,0.23182883858680725,-0.5672464370727539,0.5856528282165527,0.22779646515846252,-0.005960643291473389,0.01805683597922325,-0.022371426224708557
172,-1.7695054025781254,-0.03844058859470389,-1.9098569846569096,-0.979597806930542,0.03843112289905548,0.1972580999135971,-0.3941652774810791,0.11101610958576202,0.16659459471702576,0.033904075622558594,0.017461828887462616,-0.011436626315116882
173,-1.8074754602831506,-0.04726093876403856,-1.9695235776699063,-0.9710367321968079,0.04724334552884102,0.23421387374401093,-0.9385468363761902,-0.5261849761009216,0.28108128905296326,-0.012056708335876465,-0.00026153773069381714,0.16761115193367004
174,-1.8160083297942504,-0.037459440094885915,-2.1280916956291303,-0.9694054126739502,0.037450678646564484,0.2425917088985443,-1.902258038520813,0.6295695304870605,0.19060249626636505,0.0031273365020751953,-0.024343401193618774,0.0604783296585083
175,-1.7440629748807253,-0.011589634739617669,-2.2565094666046623,-0.9849607944488525,0.01158937532454729,0.1723894476890564,-0.37239134311676025,0.8345850110054016,-0.05077391862869263,0.01915562152862549,-0.00293764378875494,-0.10984371602535248
176,-1.689238222107622,-0.01102509591246633,-2.1907898255038485,-0.9929336309432983,0.01102487277239561,0.11815798282623291,1.685808539390564,0.1398685723543167,-0.1814126968383789,-0.10394442081451416,-0.00777474045753479,-0.06043398380279541
177,-1.6797812959447365,-0.007888290568018739,-2.038758701688438,-0.994036078453064,0.007888209074735641,0.10876596719026566,0.3856850862503052,1.397261381149292,-0.17544697225093842,-0.027860283851623535,-0.008529067039489746,0.27665579319000244
178,-1.630545079879561,0.0031150398957450354,-2.0247921556290867,-0.998210608959198,-0.003115034895017743,0.059712912887334824,0.07550415396690369,-0.14300064742565155,-0.08727166801691055,0.03109341859817505,-0.018018364906311035,0.012888424098491669
179,-1.6503227813293,0.010386833294476738,-2.0442674006372816,-0.9967856407165527,-0.01038664672523737,0.07943836599588394,-0.4907972812652588,-0.20824569463729858,0.004634701181203127,0.04599529504776001,-0.01022797729820013,-0.015046365559101105
180,-1.6632644381241433,0.014665667695391032,-2.1085812053526682,-0.995620846748352,-0.014665141701698303,0.09232646971940994,-0.5932243466377258,0.002670207992196083,0.03818828612565994,-0.02719104290008545,-0.002043217420578003,-0.05301988124847412
181,-1.6654554601532188,0.012788679331168208,-2.13218249314824,-0.9954418540000916,-0.012788331136107445,0.09451011568307877,-0.022178230807185173,0.0007422128692269325,0.031160816550254822,0.007572472095489502,-0.026335211470723152,-0.07359026372432709
182,-1.650686601372046,0.009931201687960368,-2.1171437805649815,-0.9967613816261292,-0.00993103813380003,0.07980138808488846,0.38053879141807556,0.17903004586696625,0.047859352082014084,0.015911102294921875,-0.03291565179824829,-0.030164480209350586
183,-1.626474514617418,0.005994561686245294,-2.0705044509696995,-0.998432457447052,-0.005994525738060474,0.05564842373132706,0.48022204637527466,0.3055517077445984,-0.03510875627398491,-0.025188148021697998,-0.0495474636554718,0.04414403438568115
184,-1.6057457480975903,0.011178350503711222,-2.0219292660810884,-0.999326765537262,-0.011178117245435715,0.034940119832754135,0.3818730115890503,0.051245369017124176,-0.09465154260396957,-0.010576069355010986,-0.031226038932800293,0.06115972623229027
185,-1.6041153339422418,0.018463615504706928,-1.9970728046359687,-0.999274730682373,-0.018462566658854485,0.03330716863274574,0.19592714309692383,-0.06704549491405487,-0.0430975966155529,0.009253859519958496,0.0077356379479169846,0.045107726007699966
186,-1.6165890414791497,0.019508792351672202,-1.9846469419906614,-0.9987614750862122,-0.019507555291056633,0.045767996460199356,0.04148335009813309,-0.0943451076745987,-0.0036925533786416054,0.024899959564208984,0.0037452299147844315,-0.0022652186453342438
187,-1.6279447336882942,0.020380394540705143,-1.9871219112454384,-0.998160183429718,-0.02037898451089859,0.05710544437170029,-0.08708448708057404,-0.10606248676776886,-0.03271488472819328,-0.014016330242156982,0.016716867685317993,-0.036170363426208496
188,-1.627741085913673,0.025038045749549702,-1.9973892997961888,-0.9980663061141968,-0.025035429745912552,0.0568961575627327,-0.053138889372348785,0.022061649709939957,-0.03403240814805031,-0.028804540634155273,0.03393128141760826,-0.03651046007871628
189,-1.6197704618485542,0.02289215868649603,-1.9785143571138102,-0.9985392093658447,-0.022890159860253334,0.048941727727651596,0.3323580324649811,0.03567112237215042,-0.02152305282652378,0.004795432090759277,-0.009305862709879875,-0.0068885162472724915
190,-1.6154302543565755,0.02603777044789638,-1.9575199877229554,-0.9986653327941895,-0.026034828275442123,0.04460398107767105,0.06024695932865143,0.03370664268732071,-0.0708833560347557,-0.005713820457458496,-0.01150178536772728,0.029813047498464584
191,-1.6188094881753474,0.032321150412416656,-1.9591485560607533,-0.9983259439468384,-0.03231552243232727,0.047969650477170944,-0.09990331530570984,-0.0096085574477911,-0.029981203377246857,0.007954239845275879,0.02261093258857727,0.007206082344055176
192,-1.6200626125877045,0.03191561207921803,-1.969020963012134,-0.9982778429985046,-0.03191019594669342,0.04922126978635788,-0.10112631320953369,-0.023147139698266983,0.004668490029871464,0.0008109807968139648,0.008060697466135025,0.0022923871874809265
193,-1.619884816601795,0.02804729252018519,-1.9825847935257963,-0.9984025955200195,-0.028043614700436592,0.04904948174953461,-0.08424852043390274,-0.001305371057242155,0.06855911016464233,-0.010432243347167969,-0.009386181831359863,0.0143660306930542
194,-1.6235064014060945,0.02384707997899949,-1.9909311373349639,-0.9983270764350891,-0.023844819515943527,0.0526706837117672,-0.10813915729522705,-0.02944069541990757,0.04890502616763115,0.011175155639648438,-0.01506510004401207,0.011889208108186722
195,-1.6273712031131313,0.02218603622311593,-2.000192735010752,-0.99815434217453,-0.022184215486049652,0.05653078481554985,-0.05230499058961868,-0.02889101952314377,0.04538726806640625,0.01214665174484253,-0.017748026177287102,0.002017136663198471
196,-1.6303264983757213,0.020516817765982836,-2.0029697174998944,-0.9980185031890869,-0.020515378564596176,0.05948249623179436,-0.001086668111383915,-0.01256878674030304,0.024466486647725105,0.005922555923461914,-0.019508421421051025,-0.0014990568161010742
197,-1.6322324221078868,0.022487307579823968,-2.0029795342397962,-0.9978609681129456,-0.022485412657260895,0.061381928622722626,0.0044431621208786964,-0.0017730845138430595,-0.017233606427907944,-0.008196651935577393,-0.011190740391612053,-0.00689280778169632
198,-1.6308035868011665,0.027094596519655522,-1.9960414258864363,-0.9978337287902832,-0.02709128148853779,0.05994924157857895,0.0935080349445343,0.017795462161302567,-0.054774269461631775,0.009445667266845703,-0.013558149337768555,0.003252744674682617
199,-1.6286162276413039,0.033487847717307194,-1.990921888012303,-0.9977692365646362,-0.03348159044981003,0.05775529518723488,-0.04655581712722778,-0.008570442907512188,-0.05370644852519035,-0.01860344409942627,-0.026165038347244263,0.007994890213012695
200,-1.6290492483133996,0.041692429012851355,-1.9970182851261702,-0.9974362254142761,-0.04168035089969635,0.05816938728094101,0.05403371900320053,0.008409439586102962,-0.03518133983016014,-0.0066530704498291016,0.012032512575387955,-0.0005826987326145172
201,-1.6308154352136133,0.03766560090468771,-1.9874696893735135,-0.9974913597106934,-0.037656694650650024,0.059940535575151443,0.08695413172245026,-0.017572781071066856,0.0732719898223877,-0.007620275020599365,-0.005876626819372177,0.006664033979177475
202,-1.6353490768178085,0.030155010715027866,-1.9783151314402179,-0.9974635243415833,-0.030150441452860832,0.06447859853506088,0.0732286348938942,-0.05866730213165283,0.051537204533815384,-0.005145728588104248,-0.03041168861091137,-0.002024419605731964
203,-1.6382278559710362,0.030542785441919858,-1.968462976997451,-0.9972620606422424,-0.030538037419319153,0.06734901666641235,0.22040869295597076,-0.009008236229419708,-0.006492439657449722,0.005883276462554932,-0.002680361270904541,-0.018246173858642578
204,-1.636549447873075,0.027841144805723632,-1.9422515169570056,-0.9974524974822998,-0.027837548404932022,0.06568029522895813,0.1830233782529831,-0.029841633513569832,0.04138832166790962,-0.001693129539489746,-0.033869002014398575,-0.0014712736010551453
205,-1.635473286708529,0.030589683337893362,-1.930258562066526,-0.9974421858787537,-0.0305849127471447,0.06460163742303848,0.22333025932312012,0.05336735397577286,-0.07052905112504959,0.012273848056793213,-0.005105404183268547,-0.01351524144411087
206,-1.6294976542017605,0.03517430002053292,-1.901353750749408,-0.9976600408554077,-0.03516704589128494,0.058631327003240585,0.17913077771663666,0.14107389748096466,-0.03564393147826195,-0.0017753243446350098,0.06344160437583923,0.012245770543813705
207,-1.6237145496673453,0.03359389749083462,-1.9141473678387508,-0.9980366826057434,-0.03358757868409157,0.05286368355154991,-0.29433655738830566,-0.32207009196281433,0.06077912077307701,0.005330443382263184,0.03528130054473877,3.8504600524902344e-05
208,-1.6300064376407546,0.030290244564509856,-1.9187303626775623,-0.9977896213531494,-0.030285613611340523,0.05914837494492531,0.2594679892063141,0.05758877098560333,0.011606831103563309,-0.021039605140686035,0.04969478026032448,-0.02670813351869583
209,-1.6222279430082966,0.024793998975265994,-1.883129702417335,-0.9983705878257751,-0.024791458621621132,0.051393136382102966,0.19715876877307892,0.03979934751987457,0.03943968564271927,0.021853983402252197,0.06623432040214539,0.09141384810209274
210,-1.6276530398003022,0.01699936603645575,-1.88708087260902,-0.9982398152351379,-0.016998548060655594,0.05681787058711052,-0.06219708174467087,0.03056773543357849,0.06391477584838867,-0.007253289222717285,0.02273583598434925,-0.01192653551697731
211,-1.622862123902738,0.01110608912570269,-1.8788048369035353,-0.9985833764076233,-0.011105860583484173,0.052039068192243576,0.14610245823860168,0.07463760673999786,0.026188703253865242,-0.004193723201751709,0.012112945318222046,0.018914222717285156
212,-1.6181367135778397,0.007566566251901953,-1.876080974740448,-0.9988510012626648,-0.007566493935883045,0.04732134938240051,-0.199675053358078,-0.01616976596415043,0.021997472271323204,0.01542210578918457,0.017057448625564575,0.06924056261777878
213,-1.626581927632822,0.003538373973707897,-1.9015498588922968,-0.9984381198883057,-0.0035383666399866343,0.05575632303953171,0.037667978554964066,-0.08488571643829346,0.033989422023296356,-0.01622551679611206,-0.02781844139099121,-0.022446397691965103
214,-1.6403674652815778,0.00721476086624841,-1.8914753050149826,-0.9975550174713135,-0.007214698474854231,0.0695132240653038,0.010020202957093716,-0.022773927077651024,-0.051045745611190796,0.05700325965881348,0.02746310830116272,-0.0037784576416015625
215,-1.64240975591557,0.004233364255007534,-1.9030414942925378,-0.9974278807640076,-0.004233351442962885,0.07155159115791321,-0.24489258229732513,-0.10334759205579758,0.03684964403510094,-0.041024208068847656,0.005148888099938631,-0.009204156696796417
216,-1.6420909208590109,0.005166436191024835,-1.9172234533054933,-0.9974463582038879,-0.005166413262486458,0.07123326510190964,0.09707408398389816,0.026649396866559982,-0.03393402323126793,0.0027869343757629395,0.005990386009216309,-0.039632320404052734
217,-1.6332474652133033,0.010931939927272797,-1.9141565292142406,-0.9979909658432007,-0.01093172188848257,0.06240682303905487,-0.26014065742492676,0.03382549062371254,-0.06807566434144974,0.021321654319763184,0.025259733200073242,0.07560896873474121
218,-1.640864365317711,0.016389169802350334,-1.9466168006702285,-0.9974123239517212,-0.016388436779379845,0.07000131905078888,-0.2545834481716156,-0.058031074702739716,-0.03766053169965744,-0.01799905300140381,0.012482166290283203,-0.02642226219177246
219,-1.640717770836177,0.020361162828447535,-1.9585531807151435,-0.997349739074707,-0.02035975642502308,0.06985000520944595,-0.0048965103924274445,0.05241486430168152,-0.01209791749715805,0.004460334777832031,0.02499842643737793,-0.006617546081542969
220,-1.631864219613102,0.018269980642777434,-1.9624158628080197,-0.9979692697525024,-0.018268965184688568,0.06101975217461586,-0.18240013718605042,-0.053271979093551636,-0.03788327798247337,0.021361112594604492,-0.042399972677230835,0.0711977407336235
221,-1.647155828252726,0.020803444209625134,-2.0042730670999895,-0.996870219707489,-0.02080194279551506,0.07626880705356598,-0.42962759733200073,0.01672513782978058,0.06856613606214523,-0.02922224998474121,0.008747518062591553,-0.053365349769592285
222,-1.6384951043684515,0.01918803410116492,-2.024814912792056,-0.9975256323814392,-0.019186856225132942,0.06763462722301483,-0.05568120628595352,0.11600478738546371,0.02056165225803852,0.18504095077514648,0.029471278190612793,-0.05413055419921875
223,-1.598363594645363,0.015238562491728495,-2.069880415318396,-0.9995039701461792,-0.01523797307163477,0.027560574933886528,-1.3903117179870605,0.6303867101669312,0.013800930231809616,-0.1528702974319458,-0.058187335729599,0.25719892978668213
224,-1.6001448900237318,0.023428011297173458,-2.215014797879556,-0.9992950558662415,-0.023425867781043053,0.029336297884583473,-0.6068811416625977,0.5223300457000732,-0.13737590610980988,-0.06787413358688354,-0.1013757586479187,-0.04134500026702881
225,-1.5888576681236803,0.025053205003045198,-2.182153454065087,-0.9995232224464417,-0.025050584226846695,0.018054693937301636,0.5303215384483337,0.05272604152560234,0.024881402030587196,-0.03773874044418335,0.031062543392181396,0.04777169227600098
226,-1.5930361101866404,0.02702540225624591,-2.1506785746783224,-0.9993875622749329,-0.027022112160921097,0.02222982794046402,0.29446685314178467,-0.018966052681207657,-0.045204948633909225,0.05193889141082764,-0.011246945708990097,-0.031919121742248535
227,-1.5934867935372445,0.03250656454105911,-2.1255154540887813,-0.9992143511772156,-0.03250084072351456,0.022676531225442886,0.11122603714466095,0.07531923055648804,-0.03565240278840065,-0.10082215070724487,0.06193504109978676,0.004209516569972038
228,-1.5877136689959528,-0.002059912456047784,-2.144285736849324,-0.9998548030853271,0.002059910912066698,0.01691650040447712,0.15729457139968872,0.25743627548217773,1.5313098430633545,-0.02754998207092285,-0.3934783637523651,0.007711172103881836
229,-1.611404119828927,-0.0664584384377347,-2.059822485304272,-0.9969697594642639,0.06640952825546265,0.040507011115550995,0.7978407144546509,-0.7444044351577759,-0.3660745620727539,-0.04227566719055176,0.08422522991895676,-0.030787114053964615
230,-1.5815176281514889,-0.033515814011190116,-1.9525714128818878,-0.999380886554718,0.03350954130291939,0.01071507390588522,1.2493888139724731,0.01822224259376526,-0.5589644908905029,0.21665090322494507,0.09095638990402222,-0.04347562789916992
231,-1.735754344392186,0.0029544404925247684,-1.9526763197429449,-0.9864209294319153,-0.002954436233267188,0.16421020030975342,-1.911173701286316,-2.3189663887023926,0.17490212619304657,0.02414071559906006,0.14212986826896667,0.1439257711172104
232,-1.7976272513795737,-0.05594596109799254,-2.1975803146708253,-0.9728595614433289,0.05591678246855736,0.2245389223098755,-2.0708446502685547,1.119194746017456,1.3656818866729736,-0.07668572664260864,0.18852904438972473,0.1927279233932495
233,-1.7366494183736005,-0.13664688168494568,-2.344082817168453,-0.9770842790603638,0.1362220197916031,0.1635548621416092,-0.6334782242774963,1.012157678604126,0.8978305459022522,0.0020475387573242188,0.1074456125497818,-0.11649678647518158
234,-1.6554273107609019,-0.22809002598397898,-2.4151363686038096,-0.9706136584281921,0.22611743211746216,0.08234066516160965,-0.4398631453514099,0.6126740574836731,1.185581088066101,0.001192331314086914,0.029116302728652954,-0.24637258052825928
235,-1.6668727080944952,-0.3234512877316365,-2.386430225941451,-0.943771481513977,0.3178407549858093,0.09095417708158493,0.8710911870002747,-0.4380953013896942,0.8023369908332825,-0.15493762493133545,0.030227482318878174,-0.09124410152435303
236,-1.764132915876072,-0.40205769770288435,-2.313065848897331,-0.90311199426651,0.39131277799606323,0.17681312561035156,0.20116117596626282,-0.34690961241722107,0.5129920244216919,-0.030649542808532715,-0.21264764666557312,0.12848471105098724
237,-1.7252996788321504,-0.4382948296725175,-2.318715968211246,-0.8946906924247742,0.4243960976600647,0.1393432468175888,0.15863892436027527,-0.6272808909416199,0.22656230628490448,0.07251662015914917,-0.0640750527381897,-0.2779541015625
238,-1.6807009698371826,-0.48218782398188104,-2.2755747603904624,-0.8806371092796326,0.4637186527252197,0.09717769920825958,0.7206522822380066,0.3212914764881134,0.8134515285491943,-0.021752476692199707,0.010204106569290161,-0.22576354444026947
239,-1.6171606062968522,-0.5649793527485492,-2.2095296400756355,-0.8436920046806335,0.5353983640670776,0.039145227521657944,-0.22523443400859833,0.2077367752790451,1.014217495918274,-0.11683344841003418,-0.2822245955467224,0.24710965156555176
240,-1.493756247414307,-0.6592798281042633,-2.3111238841399957,-0.7880890965461731,0.612547755241394,-0.0608348473906517,-0.41695109009742737,4.421572685241699,0.10235027223825455,-0.1284148097038269,-0.04824721813201904,0.4350413680076599
241,-1.4644296684055493,-0.6532470272040559,-2.346363736961481,-0.7896263599395752,0.6077681183815002,-0.08430811017751694,-0.18169181048870087,-0.6999049782752991,0.7268255352973938,-0.347229540348053,-0.26685631275177,-0.15053993463516235
242,-1.4946344055891094,-0.6320990641731629,-2.3576992298397603,-0.8044503927230835,0.5908395648002625,-0.06138722971081734,-0.060359105467796326,-0.7163654565811157,-0.4175889194011688,0.028907060623168945,-0.0653420090675354,-0.08889658004045486
243,-1.5953689745217734,-0.5943885739424217,-2.386951976053414,-0.8282408714294434,0.560002326965332,0.02035616897046566,-0.511717677116394,-0.5788540840148926,-0.635945200920105,-0.06905215978622437,0.0651349425315857,-0.029435159638524055
244,-1.7123163867707194,-0.5339266574462196,-2.378604801478178,-0.852209746837616,0.5089173913002014,0.12141643464565277,0.6450722217559814,-1.0397639274597168,-0.747003436088562,-9.000301361083984e-06,0.21759939193725586,-0.05310283601284027
245,-1.7567986320489517,-0.5091158455379827,-2.359816837557319,-0.8581147193908691,0.4874054193496704,0.16147783398628235,-0.17070908844470978,-0.21135246753692627,0.2288050800561905,0.21175247430801392,-0.0330597460269928,-0.058694615960121155
246,-1.7369233047388557,-0.5624235640621642,-2.4037621077359197,-0.8343185186386108,0.5332379937171936,0.139892116189003,-0.5881810188293457,0.42651471495628357,0.9676706194877625,0.28759610652923584,-0.0677991509437561,-0.0675654411315918
247,-1.7215556011413984,-0.6735317998688995,-2.4388656978840872,-0.7727578282356262,0.6237503886222839,0.11739112436771393,0.09032164514064789,0.5703296065330505,0.7027198076248169,-0.131538987159729,0.09445017576217651,-0.07367468625307083
248,-1.6480749507979247,-0.7267932069643884,-2.3419075620464462,-0.7450789213180542,0.6644765734672546,0.057693567126989365,1.1289057731628418,-0.42606016993522644,0.08179879188537598,-0.10521715879440308,-0.03505146503448486,0.016235239803791046
249,-1.6211076955015666,-0.724898559452983,-2.28901015935208,-0.7476195693016052,0.6630595326423645,0.03764553368091583,-0.21849776804447174,0.0994098111987114,0.03611631691455841,-0.050094664096832275,-0.021061241626739502,0.06278789043426514
250,-1.636217444913416,-0.7279624075033837,-2.310790107630123,-0.7449345588684082,0.6653499007225037,0.04880409687757492,-0.06317640841007233,-0.1484731137752533,-0.04838089272379875,-0.05943244695663452,-0.04729270935058594,-0.03523898869752884
251,-1.6690925417811968,-0.7045885197479234,-2.351842747549096,-0.7582004070281982,0.6477203965187073,0.07476919889450073,-0.6931332945823669,0.07691643387079239,-0.08542473614215851,-0.03855246305465698,0.027053773403167725,-0.03428757190704346
252,-1.691197717384251,-0.7089242117790884,-2.406153918365856,-0.753567636013031,0.6510175466537476,0.09117157012224197,0.03513040393590927,-0.010457065887749195,0.13813023269176483,0.10845637321472168,-0.004075348377227783,-0.0993654653429985
253,-1.689550425162089,-0.7335668102969441,-2.393411881550032,-0.7375594973564148,0.669523298740387,0.0880022868514061,0.22384198009967804,-0.09370063245296478,0.01889149658381939,-0.05717921257019043,0.05784785747528076,0.019755356013774872
254,-1.6871516321084725,-0.7434929704099166,-2.388592667702069,-0.7311314344406128,0.6768632531166077,0.08545702695846558,-0.20453321933746338,-0.06671946495771408,-0.05013871192932129,-0.09922128915786743,-0.009779572486877441,0.09319280833005905
255,-1.7492361501477844,-0.6770168601897318,-2.379732276324427,-0.7670690417289734,0.6264706254005432,0.13834714889526367,-0.149135559797287,-0.8814113140106201,-0.7922909259796143,-0.05219066143035889,0.06360816955566406,0.019459262490272522
256,-1.788567270570832,-0.6118437349923292,-2.3892266751385582,-0.799256443977356,0.574377715587616,0.176859512925148,-0.2568504214286804,-0.16609616577625275,-0.39867153763771057,0.20311087369918823,-0.05019259452819824,-0.0010324865579605103
257,-1.799020716364599,-0.6193057406554583,-2.419305738933698,-0.793166995048523,0.5804699659347534,0.18422983586788177,0.13040968775749207,-0.10724247992038727,0.5553958415985107,0.253875732421875,-0.05616277456283569,-0.11887647211551666
258,-1.784844269206799,-0.6996523248257335,-2.423202576054427,-0.7476065754890442,0.6439517140388489,0.16251319646835327,0.23773810267448425,0.45155584812164307,0.7235912680625916,-0.07424700260162354,0.07174646854400635,0.0015187263488769531
259,-1.763633618000311,-0.765438302394404,-2.3899235056670043,-0.70771324634552,0.6928530931472778,0.13819070160388947,0.2727263271808624,-0.19617249071598053,0.2144513875246048,-0.13937848806381226,-0.007077336311340332,0.07590533792972565
260,-1.7479052461787479,-0.7522379756919865,-2.391908337699436,-0.7187398076057434,0.6832745671272278,0.12864312529563904,-0.050247978419065475,0.07713773846626282,-0.25649064779281616,0.006871521472930908,-0.005189239978790283,-0.050487637519836426
261,-1.7381240191363427,-0.7467306521711692,-2.395735131764618,-0.7236632108688354,0.6792429685592651,0.12223180383443832,-0.12730439007282257,0.17732486128807068,0.04450640454888344,0.029968202114105225,0.024690747261047363,0.009100675582885742
262,-1.7482992167451412,-0.7547603642357159,-2.428924823516617,-0.7169904112815857,0.6851141452789307,0.12862154841423035,-0.19921930134296417,0.03449195995926857,0.12528984248638153,-0.010899543762207031,-0.007913768291473389,-0.017125606536865234
263,-1.7766646255307317,-0.7609240242399605,-2.4790972221530567,-0.708906888961792,0.6895909309387207,0.14803877472877502,-0.45083463191986084,0.11014491319656372,0.19973298907279968,0.005278289318084717,0.030532419681549072,-0.027555450797080994
264,-1.8002305129729412,-0.7705446681275819,-2.5354454156791357,-0.698728621006012,0.6965261697769165,0.16318568587303162,-0.29492083191871643,0.08416220545768738,0.1429717093706131,0.03411680459976196,0.03557521104812622,-0.0882803350687027
265,-1.805410459947225,-0.7853769712203555,-2.593406721336238,-0.6877497434616089,0.7070918083190918,0.16438302397727966,-0.4287746846675873,0.4266717731952667,0.3304315209388733,0.02841740846633911,0.02670341730117798,-0.035293564200401306
266,-1.800264197395101,-0.80310279743847,-2.6645398432775886,-0.6762735843658447,0.7195143699645996,0.15796542167663574,-0.6058622598648071,0.702329158782959,0.22862011194229126,-0.009334266185760498,0.021208226680755615,0.024941667914390564
267,-1.8067606269072927,-0.8091800566575251,-2.85703853069904,-0.6709691286087036,0.7237215638160706,0.1613301783800125,-0.7560175061225891,0.4775458872318268,0.2980578541755676,0.014276623725891113,0.005068659782409668,-0.017790794372558594
268,-1.8364069510145895,-0.820705624575709,-3.0622260610819003,-0.6577995419502258,0.7316270470619202,0.17894664406776428,-0.9006885886192322,0.6365549564361572,0.3556760847568512,0.03862839937210083,-4.4345855712890625e-05,0.01610638201236725
269,-1.8774047210835396,-0.8386989328553376,3.0010304996716375,-0.6372573971748352,0.7437740564346313,0.20175054669380188,-0.5337004661560059,0.38294562697410583,0.40988460183143616,-0.05729210376739502,-0.03211939334869385,-0.08242678642272949
270,-1.8828140814755334,-0.8542166318346934,2.900244161097829,-0.6250960230827332,0.7540566325187683,0.20162707567214966,-0.19312134385108948,0.3235379755496979,0.14386621117591858,-0.01844334602355957,-0.03785485029220581,-0.06060528755187988
271,-1.8489194208683748,-0.8514525490815908,2.8835039320962363,-0.6335715651512146,0.7522382736206055,0.1808994561433792,-0.14210420846939087,0.501476526260376,-0.03511713445186615,0.0355491042137146,0.023365914821624756,0.019433125853538513
272,-1.8204077969868553,-0.8520229103719786,2.8673054842019887,-0.6380553841590881,0.7526139616966248,0.16265824437141418,-0.17343810200691223,0.40396109223365784,0.10268668830394745,-0.026632726192474365,0.036814749240875244,0.0830235481262207
273,-1.8199433111634158,-0.8435375979524152,2.803672460861947,-0.6442967057228088,0.7469996809959412,0.16393066942691803,-0.5990015268325806,0.41795438528060913,0.01913287863135338,0.03130543231964111,-0.006261765956878662,-0.001943349838256836
274,-1.8247371994039654,-0.8400453072986629,2.754129589698802,-0.6460244059562683,0.7446733713150024,0.16767175495624542,-0.1835060715675354,0.30133938789367676,0.03853265941143036,-0.02321070432662964,-0.008177459239959717,-0.06581927835941315
275,-1.80818619535995,-0.839331967312848,2.736172373234395,-0.6492273211479187,0.7441970705986023,0.15708185732364655,-0.16209614276885986,0.3466225266456604,0.02170930989086628,-0.0023229122161865234,-0.01401817798614502,-0.03276848793029785
276,-1.794302154052344,-0.8388145774650017,2.7062061263384996,-0.6517209410667419,0.743851363658905,0.14813843369483948,-0.1770690679550171,0.3651949167251587,0.08749596029520035,-0.004132270812988281,0.0016778111457824707,-0.04030454158782959
277,-1.7836629722058945,-0.8435401027875971,2.670960631142947,-0.649817168712616,0.7470013499259949,0.14045223593711853,-0.2811439633369446,0.40233662724494934,0.07307372987270355,-0.01865518093109131,-0.027946114540100098,-0.042933329939842224
278,-1.7749138142388288,-0.8491537826534579,2.6305668228560912,-0.6469044089317322,0.7507216334342957,0.1339094191789627,-0.1343284249305725,0.3584491014480591,0.1623830646276474,-0.05803638696670532,0.003978073596954346,-0.06518387794494629
279,-1.7603440399064776,-0.8578089451869936,2.606801249150894,-0.6423811316490173,0.7564111948013306,0.1232413798570633,-0.18463201820850372,0.27584272623062134,0.07991023361682892,-0.05004739761352539,-0.037584900856018066,-0.033458709716796875
280,-1.7473684513745678,-0.8599525889930808,2.5893662264994513,-0.6423285007476807,0.7578116059303284,0.11461089551448822,-0.02482432872056961,0.26126688718795776,-0.007634451147168875,-0.043706655502319336,-0.01365572214126587,-0.055940866470336914
281,-1.7252632208926983,-0.8572852936890972,2.5822695412672125,-0.6466999650001526,0.7560685873031616,0.1006958857178688,-0.1723717302083969,0.2968365252017975,0.0300328079611063,-0.012907028198242188,0.0007827281951904297,0.020062223076820374
282,-1.720536107308455,-0.8543141251038381,2.545327691797723,-0.6493870615959167,0.7541206479072571,0.09797242283821106,-0.19057026505470276,0.31386667490005493,-0.005020618438720703,-0.017971336841583252,-0.009995222091674805,-0.03664730489253998
283,-1.7138445079158053,-0.8527542067872071,2.5265752364507246,-0.6511915326118469,0.753095269203186,0.0937923938035965,0.003194178454577923,0.17718392610549927,-0.036597732454538345,-0.037529170513153076,-0.04337853193283081,-0.07215547561645508
284,-1.6866170221751513,-0.8399669893157742,2.5313300460167225,-0.6630153656005859,0.7446210980415344,0.07713612169027328,-0.06222720444202423,0.3317719101905823,-0.16293808817863464,-0.03434175252914429,0.0240708589553833,-0.044650204479694366
285,-1.656311047417703,-0.8234300092763048,2.502537499257882,-0.677225649356842,0.7334815263748169,0.05805434286594391,-0.3559742569923401,0.6200144290924072,-0.04766686633229256,0.06664520502090454,0.0019463300704956055,-0.020532965660095215
286,-1.6345702966652478,-0.82394524671773,2.4570287175869496,-0.6779505014419556,0.7338316440582275,0.04329430311918259,-0.25127702951431274,0.5945490002632141,0.031936030834913254,-0.02273315191268921,-0.004369914531707764,0.00010168924927711487
287,-1.6136113552919653,-0.8212047853005492,2.4121650226311355,-0.6807155013084412,0.7319672107696533,0.029162675142288208,-0.31969115138053894,0.49232029914855957,-0.027959920465946198,-0.04010969400405884,0.014568984508514404,-0.0023682117462158203
288,-1.5958579169582523,-0.8211429973737878,2.380260322922321,-0.681171178817749,0.7319251298904419,0.017074808478355408,-0.20024022459983826,0.37466737627983093,0.026663318276405334,-0.025738000869750977,-0.009207844734191895,-0.013870477676391602
289,-1.5787948834482068,-0.8187415533421927,2.363069530337031,-0.6831187605857849,0.730286717414856,0.005464080721139908,-0.10269403457641602,0.38004156947135925,-0.04484676942229271,0.03565788269042969,0.03385812044143677,-0.0017409329302608967
290,-1.5535803242776582,-0.828432668733724,2.347568433679985,-0.6759313941001892,0.7368727326393127,-0.01163798663765192,-0.22085894644260406,0.4388549029827118,0.25317689776420593,0.07494872808456421,0.09673017263412476,0.0001785755157470703
291,-1.5508759400068683,-0.8616246021496067,2.2921598877687757,-0.6510761976242065,0.7589015364646912,-0.012971405871212482,-0.38078197836875916,0.4595888555049896,0.29452288150787354,0.005293726921081543,-0.015005052089691162,-0.06651163101196289
292,-1.538566804941402,-0.8866916617578007,2.2420006715746155,-0.6316511034965515,0.7749851942062378,-0.02036486379802227,-0.3656392991542816,0.52028489112854,0.1785297393798828,-0.007402241230010986,-0.004096031188964844,-0.025380967184901237
293,-1.540747161275836,-0.9049748031282205,2.174204803069787,-0.6174266934394836,0.7864096164703369,-0.018558742478489876,-0.5135595202445984,0.5622166395187378,0.23465600609779358,-0.0019428730010986328,0.001432180404663086,-0.07522177696228027
294,-1.5409351785472494,-0.9280910630868697,2.0991167386303187,-0.5990957617759705,0.8004772663116455,-0.017895007506012917,-0.4817606806755066,0.782827615737915,0.12394990026950836,-0.026377201080322266,-0.05584841966629028,-0.07210135459899902
295,-1.5244212451842414,-0.9348111523001444,2.0036094949371073,-0.5933316349983215,0.8044869303703308,-0.027535544708371162,-0.743356466293335,1.0656996965408325,-0.022886736318469048,-0.01721823215484619,-0.045545339584350586,-0.06712996959686279
296,-1.5202874341812296,-0.9271927448288569,1.8513673960000505,-0.5993164777755737,0.7999384999275208,-0.030296580865979195,-1.1189194917678833,1.3932461738586426,-0.24150562286376953,-0.043337881565093994,-0.007107198238372803,-0.09189581871032715
297,-1.4957002064591873,-0.8977412339806935,1.6708467532048554,-0.6216208338737488,0.781920850276947,-0.046769265085458755,-0.9182599782943726,1.8249013423919678,-0.36455923318862915,0.06844395399093628,0.04664665460586548,-0.05326735973358154
298,-1.463055745895062,-0.8833297736028616,1.4759793662139769,-0.6309018731117249,0.7728561758995056,-0.06823797523975372,-1.4614896774291992,1.439266562461853,-0.07785521447658539,0.05314302444458008,0.08799898624420166,-0.02047663927078247
299,-1.5105997113699094,-0.9038143074695869,1.241600590630172,-0.6174973845481873,0.7856922149658203,-0.03721621632575989,-1.355172872543335,1.3835004568099976,0.1848377138376236,-0.0068618059158325195,-0.05865657329559326,-0.12223809957504272
300,-1.5026524781273547,-0.9162526371189159,1.0881401610900276,-0.6073845028877258,0.7933257818222046,-0.04145370423793793,-0.654242992401123,1.082733392715454,-0.05108506605029106,-0.03540724515914917,-0.046011269092559814,-0.04488057270646095
301,-1.4758119392372455,-0.9146266975676103,0.9900656081185132,-0.6073362827301025,0.7923349142074585,-0.057861581444740295,-0.5755669474601746,1.0356450080871582,-0.02956544980406761,-0.036233603954315186,0.009209215641021729,0.0058290995657444
302,-1.4642280688769302,-0.9162621141629661,0.8998397491535924,-0.6053360104560852,0.7933315634727478,-0.0647549256682396,-0.47625869512557983,0.6868947148323059,-0.056607987731695175,0.02135169506072998,-0.021862566471099854,-0.0396457239985466
303,-1.4645398104381804,-0.9109083294156086,0.804920796179428,-0.6095709800720215,0.7900608777999878,-0.0650157555937767,-0.5770933032035828,0.8916448354721069,-0.1360621154308319,-0.049929141998291016,0.07460892200469971,-0.06933790445327759
304,-1.4197674826103623,-0.9035596999616434,0.7614533403894962,-0.6117736101150513,0.785534679889679,-0.09310443699359894,0.11204445362091064,0.5440482497215271,-0.24791398644447327,0.010317981243133545,-0.14622193574905396,-0.011860787868499756
305,-1.4150395632642145,-0.8765174587153494,0.7534665813285796,-0.632085919380188,0.7685152888298035,-0.09925561398267746,-0.18002156913280487,-0.00289728119969368,-0.326008677482605,-0.12021815776824951,0.09676486253738403,-0.025164544582366943
306,-1.404733012158709,-0.8399019824680982,0.7339071729927782,-0.658352792263031,0.7445777058601379,-0.11034443974494934,-0.07834465801715851,0.19315630197525024,-0.3725358247756958,0.065884530544281,0.08048033714294434,0.010811388492584229
307,-1.4352550599618439,-0.8056200902436774,0.689997355417967,-0.6863110661506653,0.7212603092193604,-0.09359735250473022,-0.33367305994033813,-0.017054202035069466,-0.3077307343482971,0.07890450954437256,0.09493225812911987,0.04733271151781082
308,-1.491028279357457,-0.783998561337868,0.6246652184131773,-0.7058441042900085,0.7061164379119873,-0.056423529982566833,-0.33551979064941406,-0.28698140382766724,-0.3204733431339264,-0.022747814655303955,0.18229597806930542,-0.018573399633169174
309,-1.5645910570091692,-0.7684209554602247,0.5611780636739233,-0.7189952731132507,0.6950007677078247,-0.004461617209017277,-0.7164682149887085,0.16046813130378723,-0.1580735743045807,0.14901846647262573,0.013037562370300293,0.041479408740997314
310,-1.6450379589626802,-0.7654927649648056,0.42968648546761057,-0.719054639339447,0.6928923726081848,0.05348208546638489,-0.9721683263778687,0.2075773924589157,0.07062693685293198,0.009551525115966797,0.1572052240371704,-0.1070251539349556
311,-1.6696273774855483,-0.7638376740929294,0.34697693610337643,-0.7186627984046936,0.6916980743408203,0.07125835865736008,-0.6047950387001038,0.22417569160461426,0.058039214462041855,0.1171918511390686,0.05329704284667969,0.0235903263092041
312,-1.7025732322384899,-0.7623389526441823,0.24093606108450558,-0.7169520854949951,0.6906149387359619,0.09502843022346497,-0.5574561953544617,0.7651267051696777,0.21339064836502075,0.021624445915222168,0.07589495182037354,-0.03219272196292877
313,-1.7068695036911823,-0.783753784266847,0.15186089087881263,-0.7017217874526978,0.7059430480003357,0.09607924520969391,-0.7244569659233093,0.48054948449134827,0.18812207877635956,-0.02374213933944702,-0.05514043569564819,0.013433113694190979
314,-1.7376987208014554,-0.7768202394768617,0.016897110680665683,-0.7032365202903748,0.7010153532028198,0.11847399920225143,-1.0740487575531006,0.6353377103805542,0.10815800726413727,0.06612098217010498,0.02983492612838745,-0.03288744390010834
315,-1.7477022872638461,-0.7876950968674156,-0.1014806915027877,-0.6944701075553894,0.708729088306427,0.12415377050638199,-0.6411065459251404,0.8374208807945251,0.2745150625705719,0.045345962047576904,-0.009037375450134277,0.012626037001609802
316,-1.7541944578123572,-0.8096683027748718,-0.2152145708130915,-0.6781715154647827,0.7240584492683411,0.1257888674736023,-0.6938321590423584,0.7969115376472473,0.4195331633090973,0.048197150230407715,-0.046049416065216064,0.00963294506072998
317,-1.7348667374581819,-0.8395589208630461,-0.29995753723166557,-0.6588233113288879,0.7443486452102661,0.10907389968633652,-0.36094221472740173,0.7480771541595459,0.4684523940086365,-0.09265679121017456,0.017217516899108887,-0.0009348392486572266
318,-1.707507735889128,-0.8479287993664613,-0.3378480014605093,-0.6553652286529541,0.7499118447303772,0.09015829116106033,-0.20756971836090088,0.3615778088569641,-0.12577518820762634,-0.09338349103927612,-0.10101664066314697,0.04175399988889694
319,-1.743391487862796,-0.8109197955392791,-0.3979208655863968,-0.6785974502563477,0.7249210476875305,0.11829965561628342,-0.4557183086872101,-0.17065580189228058,-0.5866724848747253,-0.33312124013900757,0.07236588001251221,-0.1504042148590088
320,-1.767039440840094,-0.7153422848956199,-0.39486732884734577,-0.7403797507286072,0.6558758616447449,0.14718876779079437,0.036472104489803314,-0.786715567111969,-0.892803430557251,-0.027808666229248047,0.10263854265213013,-0.14000190794467926
321,-1.792330105107976,-0.6075007570444599,-0.30789903084793135,-0.8010113835334778,0.5708171725273132,0.1804121434688568,0.5733556747436523,-0.09588917344808578,-1.41144859790802,-0.05027645826339722,0.29560738801956177,-0.0342177152633667
322,-1.7939121002522675,-0.49468797120704805,-0.1721918445962377,-0.8583012819290161,0.47475704550743103,0.19474279880523682,0.816973090171814,0.158473938703537,-0.529685914516449,0.2628575563430786,0.2953997850418091,0.06718957424163818
323,-1.6346024211030452,-0.5059851208034312,-0.1224839530986597,-0.8729177117347717,0.48466935753822327,0.05577317625284195,0.291303813457489,1.314538836479187,0.2895374298095703,0.2230914831161499,0.026393353939056396,0.08286822587251663
324,-1.4058155973663737,-0.5444416768758252,-0.031096338257266543,-0.8438013792037964,0.5179405808448792,-0.1404879093170166,1.6658772230148315,1.4213955402374268,0.9172443747520447,0.2717646360397339,0.06894290447235107,0.1423037201166153
325,-1.0563443739701093,-0.77144536735013,0.2666585208996249,-0.6241095066070557,0.6971721649169922,-0.3527580499649048,0.9371973872184753,3.317770481109619,4.248082160949707,-0.21416252851486206,0.30221742391586304,0.4117027819156647
326,-0.6081096596611463,-0.9367682823805796,0.7288089038506617,-0.33844515681266785,0.8056478500366211,-0.48619574308395386,-0.06462390720844269,-0.047231245785951614,3.586287498474121,0.028951138257980347,0.17826932668685913,0.17001840472221375
327,-0.42698438370227854,-1.1701544196582796,0.8401678529655976,-0.1615137904882431,0.9208108186721802,-0.3549939692020416,-2.5959763526916504,1.6383378505706787,-2.2993476390838623,-0.9608006477355957,-0.2577248811721802,0.09544193744659424
328,-1.3112364424911787,-0.7651477148725583,-0.39100076512488646,-0.6971192359924316,0.6926435232162476,-0.18512023985385895,-2.9435923099517822,1.8723174333572388,-10.33785343170166,-0.3495878577232361,0.2897782325744629,-0.45672544836997986
329,-1.0497837969969055,0.11599987811471514,-0.9529062732939593,-0.8614869117736816,-0.11573990434408188,-0.49441343545913696,-1.4739876985549927,3.868330478668213,-8.978080749511719,0.4816957116127014,0.9029865860939026,0.17719846963882446
330,-0.5225552209542883,0.2937868907531218,-1.442455052546553,-0.4777117669582367,-0.28957894444465637,-0.8294187188148499,-2.3545210361480713,3.9731478691101074,-2.982551097869873,0.037327855825424194,0.14224007725715637,0.03199446201324463
331,-0.1558303371471391,0.35685868354382133,-1.6704328541697964,-0.14542262256145477,-0.3493325412273407,-0.9256451725959778,0.2686508595943451,0.11797652393579483,-0.6706864237785339,-0.23674900829792023,-0.17122098803520203,-0.16017019748687744
332,-0.07858983186893352,0.32868448902915903,-1.662594695437045,-0.0743061974644661,-0.3227982223033905,-0.94354647397995,-1.4059832096099854,-0.06681754440069199,0.30087560415267944,-0.10690716654062271,-0.1275191307067871,-0.29656583070755005
333,-0.04945958908447489,0.3047785592604325,-1.6613108329054593,-0.047160930931568146,-0.30008193850517273,-0.9527469277381897,0.9926497936248779,0.042881131172180176,-0.5505825281143188,-0.15730683505535126,0.01768752932548523,-0.026302754878997803
334,-0.027559652995135263,0.3485645235641474,-1.6993163003991605,-0.025899045169353485,-0.34154900908470154,-0.9395070672035217,-0.14437244832515717,0.46015945076942444,-0.5568373203277588,-0.1606854349374771,0.029979795217514038,-0.0020517706871032715
335,0.004761364946734112,0.3378809083436677,-1.7486211543597743,0.004492136649787426,-0.33148854970932007,-0.943448543548584,0.2752377390861511,-0.05364158749580383,-0.06332871317863464,0.009973198175430298,0.01715749502182007,-0.06384515762329102
336,-0.030572434026337813,0.3564151903600536,-1.7546741029425146,-0.02864660508930683,-0.3489169776439667,-0.9367157220840454,-0.5293554067611694,-0.44385480880737305,-0.1355651319026947,-0.031076297163963318,-0.03999906778335571,0.08020937442779541
337,-0.030033517624414943,0.35031981621484987,-1.7828398581690468,-0.028205132111907005,-0.3431982100009918,-0.9388394355773926,0.3570002019405365,0.08353547006845474,-0.26492786407470703,-0.0018088966608047485,0.02497616410255432,-0.027652263641357422
338,-0.00019283667739067504,0.341507654417762,-1.8079948387851603,-0.00018170051043853164,-0.33490806818008423,-0.9422507882118225,-0.14150558412075043,0.08909770846366882,-0.16764239966869354,-0.02543780207633972,0.02080589532852173,-0.00039142370223999023
339,0.017943095498283355,0.34410303543505033,-1.8333636507799997,0.016890335828065872,-0.3373524248600006,-0.9412268996238708,-0.05492515116930008,0.12281891703605652,-0.31165042519569397,-0.06849555671215057,0.00040784478187561035,0.03393930196762085
340,0.030196284241719697,0.3357085797377027,-1.8619907234922632,0.028506308794021606,-0.3294382691383362,-0.9437466859817505,-0.23405571281909943,0.012868385761976242,-0.2846248149871826,-0.1012449562549591,-0.01614278554916382,0.03767979145050049
341,0.042345859061463514,0.3162086292121345,-1.905663334831163,0.04023437574505806,-0.3109654188156128,-0.9495692253112793,0.01134895533323288,-0.23115815222263336,-0.46732041239738464,-0.11278991401195526,-0.025597691535949707,0.004165172576904297
342,0.03472664102412483,0.3090873143452914,-1.950809723705411,0.03307435289025307,-0.3041893243789673,-0.9520372748374939,-0.2167218029499054,-0.3426867723464966,-0.3661373555660248,-0.03315064311027527,-0.038675665855407715,0.053691327571868896
343,0.012137607491246403,0.28738091343589284,-1.9805637938111047,0.011639552190899849,-0.2834415137767792,-0.9589188694953918,-0.06138594076037407,-0.2877388000488281,-0.06641511619091034,0.0958433598279953,0.05703163146972656,-0.08998554944992065
344,0.021209600580112953,0.2642930589324538,-1.9812727006720365,0.020471613854169846,-0.26122695207595825,-0.965060293674469,0.03227744251489639,0.012949613854289055,0.06878385692834854,0.08632465451955795,0.00043901801109313965,-0.02789008617401123
345,0.037712815098817555,0.27152480502044163,-1.983582588992609,0.03632252290844917,-0.26820069551467896,-0.962678074836731,-0.02723087929189205,0.32544004917144775,-0.052338261157274246,0.0061884671449661255,0.032894909381866455,0.006379246711730957
346,0.030231293438798924,0.2683228131703403,-1.991290037708942,0.02914508432149887,-0.2651146352291107,-0.9637763500213623,-0.2708292603492737,-0.12056450545787811,-0.09647800028324127,0.007216602563858032,0.026650279760360718,0.009598493576049805
347,0.05495117622333455,0.23862385561393537,-1.9927459535425374,0.05336721986532211,-0.23636570572853088,-0.9701974987983704,0.008103708736598492,0.12219586968421936,0.16210408508777618,0.04721871018409729,-0.007805436849594116,-0.02777308225631714
348,0.04216844927970311,0.25144651029117854,-1.9811830254772007,0.04083029925823212,-0.2488052397966385,-0.9676925539970398,0.05058988556265831,-0.11832250654697418,0.044460851699113846,-0.019315406680107117,-0.007649213075637817,-0.024845898151397705
349,0.04992530491366959,0.25329712970830925,-1.9704680198043725,0.04831218346953392,-0.2505972385406494,-0.9668852090835571,0.04221171885728836,0.08685975521802902,0.10394790768623352,-0.011492729187011719,0.005296945571899414,0.006619095802307129
350,0.03445611218296191,0.2537298300230919,-1.9453025687246424,0.033346328884363174,-0.25101611018180847,-0.9674083590507507,0.14102062582969666,-0.11102436482906342,0.34948351979255676,0.0002687796950340271,-0.004354983568191528,-0.0013568997383117676
351,0.033888870984057934,0.2563640683894121,-1.914661177176894,0.03277505189180374,-0.25356513261795044,-0.966762900352478,-0.10264968127012253,-0.01911669224500656,0.32864657044410706,0.012406222522258759,-0.0046593546867370605,0.027538657188415527
352,0.009281550819678411,0.24333934639371907,-1.8752098428953865,0.009007975459098816,-0.24094492197036743,-0.9704969525337219,-0.04746148735284805,-0.14626824855804443,0.3363289535045624,0.001078084111213684,-0.009528100490570068,-0.0392838716506958
353,0.003984610272662548,0.2582776238973108,-1.832179214108839,0.003852435853332281,-0.255415678024292,-0.9668236374855042,0.14220090210437775,0.06085079535841942,0.4903281033039093,0.05260509252548218,-0.02787896990776062,0.012523770332336426
354,-0.0035111609105274236,0.2585321533757334,-1.7762983782671409,-0.003394464962184429,-0.2556617558002472,-0.9667603373527527,0.05407058447599411,0.1854049414396286,0.7481459975242615,0.0535348504781723,0.03396680951118469,0.0023590922355651855
355,-0.002926250222437228,0.2679998840533832,-1.6937622421856298,-0.0028217863291502,-0.2648032605648041,-0.9642983078956604,0.10273490846157074,0.24448135495185852,0.8462119698524475,0.014754161238670349,-0.013349175453186035,0.009327054023742676
356,0.00010128248090090757,0.2646364779549734,-1.6115468154174766,9.775660146260634e-05,-0.2615584135055542,-0.965187668800354,-0.049379825592041016,0.28814780712127686,0.8737502694129944,-0.028189197182655334,0.0207289457321167,-0.015494704246520996
357,0.0025383817263379994,0.2632023428480708,-1.5189034736271887,0.002450961619615555,-0.2601739466190338,-0.965558648109436,-0.182644784450531,0.2602500915527344,0.9786049723625183,-0.02320292592048645,0.025722652673721313,-0.018709540367126465
358,0.007439888956603657,0.2689833841185284,-1.4285245060469167,0.0071722958236932755,-0.26575151085853577,-0.9640148878097534,0.06818896532058716,0.21541288495063782,0.8318402171134949,-0.08439701795578003,0.030720382928848267,0.004511713981628418
359,0.019246499081049803,0.26447817758261494,-1.3588415925697932,0.018576132133603096,-0.2614056169986725,-0.9650502800941467,0.07356613874435425,0.09868770837783813,0.6173246502876282,-0.08080147951841354,0.048270851373672485,-0.0015329718589782715
360,0.02029019382733003,0.25343276378321616,-1.3037842685131578,0.0196407251060009,-0.2507285475730896,-0.9678581953048706,0.05391131341457367,0.18789377808570862,0.557839572429657,-0.0876186266541481,0.0418509840965271,-0.0791541337966919
361,0.019628218137237245,0.25602678920007277,-1.264752023389826,0.018987193703651428,-0.25323885679244995,-0.9672174453735352,-0.08092230558395386,0.10600145906209946,0.1910739541053772,-0.12062598019838333,0.02101534605026245,-0.009833335876464844
362,0.013128855259459908,0.2555525714692731,-1.2485780936486,0.012702114880084991,-0.25278007984161377,-0.9674403667449951,-0.05192000791430473,-0.17814940214157104,0.16628000140190125,-0.06403268128633499,0.00891411304473877,0.025820493698120117
363,0.004904689300575967,0.24588853040479033,-1.245646414445252,0.004757144022732973,-0.24341823160648346,-0.9699097275733948,0.14250442385673523,-0.06606480479240417,0.05860442295670509,-0.025463320314884186,0.010721683502197266,-0.032195985317230225
364,-0.0001532422064288839,0.24061222449269212,-1.2464208682493967,-0.00014882764662615955,-0.2382972538471222,-0.9711922407150269,-0.027058763429522514,0.03633762151002884,0.03724817931652069,-0.03934092074632645,0.040360257029533386,-0.03687959909439087
365,-0.00861758572357631,0.24592619159227824,-1.249833777984077,-0.008358198218047619,-0.24345475435256958,-0.969876229763031,-0.02111097052693367,-0.008425622247159481,-0.05616971477866173,-0.058505818247795105,-0.015700504183769226,-0.012179374694824219
366,-0.024914346961962708,0.24994384780059367,-1.2662093842953615,-0.024137668311595917,-0.2473495453596115,-0.9686256051063538,-0.1283440738916397,-0.20348931849002838,-0.22621677815914154,0.004423320293426514,0.009785458445549011,0.00811535120010376
367,-0.025849736764647364,0.25104130430567134,-1.2777717060599454,-0.02503667026758194,-0.24841275811195374,-0.9683306813240051,0.13459180295467377,-0.07491569966077805,-0.07544487714767456,0.026532039046287537,0.044402748346328735,0.014610588550567627
368,-0.02574020823737336,0.2468954495158473,-1.2826547377158557,-0.024956902489066124,-0.24439473450183868,-0.9693546295166016,-0.046303197741508484,-0.08917782455682755,-0.056511182337999344,-0.025229260325431824,0.001123860478401184,-0.009969711303710938
369,-0.030517535176573997,0.24748004397624895,-1.2905169905656368,-0.02958315797150135,-0.24496155977249146,-0.9690813422203064,0.009679529815912247,-0.06725923717021942,-0.09579712897539139,-0.005725672468543053,0.01852114498615265,0.00019407272338867188
370,-0.03652189570826509,0.24509566158632057,-1.290450427057495,-0.03542253002524376,-0.2426491230726242,-0.9694672226905823,0.07740853726863861,-0.01116822101175785,0.05517356097698212,-0.00783614069223404,0.0078774094581604,-0.009414613246917725
371,-0.036286431156622986,0.24602793036957898,-1.2931780465091747,-0.0351860336959362,-0.24355342984199524,-0.9692490100860596,-0.03580709174275398,0.0519477054476738,-0.03830789402127266,-0.022431157529354095,0.0016863644123077393,0.0005447864532470703
372,-0.036036643472468974,0.24779244336387843,-1.3004736906989378,-0.03492838889360428,-0.2452644258737564,-0.9688268303871155,-0.048171937465667725,0.019509147852659225,-0.08924965560436249,-0.004652906209230423,0.0054725706577301025,0.014893114566802979
373,-0.0343973506981816,0.24227939433442483,-1.302097636286618,-0.033386144787073135,-0.23991607129573822,-0.9702193737030029,-0.038108598440885544,0.07301037758588791,-0.005906278733164072,-0.023269731551408768,-0.00323273241519928,-0.003352344036102295
374,-0.03928245318493776,0.23537339036064706,-1.3030548683919394,-0.03818950802087784,-0.23320609331130981,-0.9716771245002747,-0.06146666407585144,-0.003766313660889864,0.001120294793508947,-0.02574482187628746,-0.0035645216703414917,-0.022295594215393066
375,-0.04195844966275145,0.2354212439965005,-1.3027503811095218,-0.040789104998111725,-0.2332526296377182,-0.9715602993965149,-0.04906673729419708,-0.008572939783334732,0.015913834795355797,0.012529827654361725,0.0020819753408432007,0.011263668537139893
376,-0.04017837652940371,0.2296789461192506,-1.3033010082493062,-0.039112746715545654,-0.22766491770744324,-0.9729536771774292,0.009762046858668327,0.1020735651254654,0.06447205692529678,0.0007368922233581543,0.0003699958324432373,-0.0283128023147583
377,-0.03969853165004995,0.23251358297871655,-1.3000277011315668,-0.03862011060118675,-0.2304241955280304,-0.9723235964775085,-0.008491415530443192,0.009314891882240772,-0.022172756493091583,-0.035873301327228546,-0.015562742948532104,0.016925036907196045
378,-0.0396084373364252,0.23751384352799987,-1.3098839045981856,-0.03848640248179436,-0.23528699576854706,-0.9711636304855347,-0.015951253473758698,0.029050862416625023,-0.11577596515417099,0.0006446018815040588,0.003826439380645752,0.028994441032409668
379,-0.039439528872564036,0.23624016335934758,-1.3188394005682342,-0.03833414986729622,-0.23404888808727264,-0.9714688062667847,-0.005393683910369873,0.0012634405866265297,-0.08794433623552322,-0.005611158907413483,-0.00215718150138855,-0.006482243537902832
380,-0.03929493688727683,0.24070472790171843,-1.3256380027534058,-0.03815225139260292,-0.2383870929479599,-0.9704205393791199,0.04804111272096634,0.056478843092918396,-0.09609421342611313,-0.03060384839773178,-0.018631935119628906,-0.013695061206817627
381,-0.03147465531813474,0.2592054908701689,-1.3364097810087958,-0.030418187379837036,-0.25631266832351685,-0.9661151766777039,0.13276764750480652,-0.009918542578816414,-0.18734405934810638,-0.02346060425043106,-0.009602248668670654,0.03622931241989136
382,-0.033321786415684604,0.2608824200028481,-1.3508175612248232,-0.03218831121921539,-0.25793319940567017,-0.9656264185905457,0.034762248396873474,-0.020955480635166168,-0.20008301734924316,-0.023994557559490204,0.006895601749420166,-0.021327316761016846
383,-0.023358798229493667,0.26762354564867347,-1.3661695911808864,-0.022525224834680557,-0.2644403278827667,-0.9641389846801758,0.15917614102363586,-0.03927303105592728,-0.19517603516578674,-0.021206460893154144,0.0038354694843292236,-0.0007658004760742188
384,-0.019484070948395844,0.26849372643773184,-1.386579009948414,-0.018784798681735992,-0.2652794420719147,-0.9639885425567627,-0.08017325401306152,-0.09284030646085739,-0.23833103477954865,-0.01981993578374386,-0.0015509724617004395,0.006850540637969971
385,-0.021551500247029592,0.2654977252432257,-1.409725975043893,-0.020794769749045372,-0.262389600276947,-0.9647379517555237,0.1760053187608719,0.03960391879081726,-0.2635633945465088,-0.034121617674827576,0.0011438727378845215,-0.06552022695541382
386,-0.02135905936673531,0.28571356133096076,-1.4333508642827366,-0.020491622388362885,-0.2818421423435211,-0.9592419266700745,0.10792809724807739,-0.028836052864789963,-0.32492271065711975,-0.01599213480949402,0.026059091091156006,0.025388777256011963
387,-0.020222109298398214,0.2962789946387369,-1.4762047325415149,-0.019339704886078835,-0.2919633686542511,-0.9562339782714844,0.0214291512966156,-0.13069921731948853,-0.43703076243400574,0.04489818215370178,0.04268050193786621,-0.010913848876953125
388,-0.013061411804489892,0.3115563555516059,-1.5176181560756723,-0.012432251125574112,-0.30654042959213257,-0.9517764449119568,0.20645679533481598,-0.04109689220786095,-0.41650232672691345,0.05326478183269501,0.03928273916244507,-0.012075483798980713
389,-0.009515884806188377,0.32242058774793353,-1.5539227903944588,-0.00902540609240532,-0.31686335802078247,-0.9484282732009888,-0.13380084931850433,-0.1589190512895584,-0.35498231649398804,0.049278080463409424,0.01878291368484497,0.02762138843536377
390,-0.005229521845501001,0.3244416549225569,-1.5876096082872821,-0.004956669174134731,-0.3187796175479889,-0.9478158950805664,0.12278499454259872,-0.170608252286911,-0.3117408752441406,0.08294433355331421,0.02523106336593628,0.009018957614898682
391,-0.002197006823824821,0.3243120888031697,-1.6211186358182132,-0.002082475461065769,-0.3186568021774292,-0.9478678703308105,-0.05862273648381233,-0.12772491574287415,-0.34467267990112305,0.0642315149307251,0.0216292142868042,0.0009379386901855469
392,0.006550452665146205,0.32039089337464605,-1.6594750972011185,0.006217071320861578,-0.3149375915527344,-0.9490920305252075,0.004848772659897804,-0.07346370071172714,-0.25978535413742065,0.09011165797710419,0.043193817138671875,-0.01187598705291748
393,0.008768686154876049,0.32580561872443126,-1.680363943140868,0.008307287469506264,-0.32007211446762085,-0.9473567605018616,0.006162313744425774,-0.1073446273803711,-0.18708859384059906,0.05877034366130829,0.01301950216293335,-0.0022892355918884277
394,0.01574007862221677,0.3230067261953183,-1.7078862347534596,0.01492546871304512,-0.31741923093795776,-0.9481678605079651,0.05646539479494095,-0.08800212293863297,-0.26298224925994873,0.024182796478271484,0.035635173320770264,0.003923475742340088
395,0.015665268752875335,0.31103390905227074,-1.725399746434066,0.014913002029061317,-0.3060430884361267,-0.951900839805603,-0.005431891418993473,0.04520287364721298,-0.16849195957183838,-0.019154950976371765,-0.015139162540435791,-0.028064370155334473
396,0.018757655640378176,0.3179268741101753,-1.7466866869977484,0.017816580832004547,-0.31259799003601074,-0.9497184157371521,-0.012879280373454094,0.04788828641176224,-0.14815753698349,0.00429341197013855,-0.002801179885864258,0.0330466628074646
397,0.0177568236448477,0.31159965931878053,-1.7594454063255067,0.016900844871997833,-0.30658164620399475,-0.9516943097114563,-0.15867654979228973,-0.13628743588924408,-0.03705104812979698,-0.00417502224445343,-0.01946815848350525,0.006305515766143799
398,0.005999482182930613,0.30917405687426214,-1.761496903005336,0.005714983679354191,-0.30427196621894836,-0.9525680541992188,-0.0669519379734993,-0.14664782583713531,-0.15719150006771088,-0.048729509115219116,-0.034930914640426636,0.01992034912109375
399,-0.00622938490502673,0.301615076895271,-1.7748085976999743,-0.005948139354586601,-0.2970627546310425,-0.9548394083976746,-0.09032121300697327,-0.13552509248256683,-0.13010649383068085,-0.01654331386089325,0.03230750560760498,0.01901787519454956
400,-0.012375686003025022,0.2866646210925107,-1.7851029914029775,-0.011870360001921654,-0.2827545404434204,-0.9591188430786133,-0.11071155220270157,-0.04795984923839569,-0.11811859905719757,-0.0205240398645401,-0.00475156307220459,-0.05134868621826172
401,-0.009132353905502107,0.2912595774918984,-1.7970259400812165,-0.008747604675590992,-0.2871589660644531,-0.957843005657196,0.008488113060593605,-0.07731032371520996,-0.09187620878219604,0.0007825195789337158,0.020130157470703125,0.026614367961883545
402,-0.008755885219996595,0.28915641037291057,-1.8051895896345742,-0.0083922753110528,-0.28514376282691956,-0.9584479928016663,-0.03451778367161751,-0.07842130213975906,-0.039429254829883575,0.018402040004730225,0.026736199855804443,0.018521904945373535
403,-0.008404227429718726,0.2812706596894697,-1.8044681748644096,-0.008073875680565834,-0.27757659554481506,-0.9606695771217346,0.07153681665658951,0.03091510757803917,0.02218983694911003,-0.0011424263939261436,-0.014888584613800049,-0.026802897453308105
404,-0.008863888103648425,0.2791041916558759,-1.8062098172722387,-0.008520767092704773,-0.27549460530281067,-0.9612648487091064,-0.05426023155450821,-0.01723279431462288,4.129367880523205e-05,0.03162257373332977,0.01772788166999817,-0.004677534103393555
405,-0.009295848521394895,0.27703145937998275,-1.7982830019294607,-0.008941283449530602,-0.27350151538848877,-0.9618300199508667,-0.004517245106399059,-0.015311392024159431,0.11363822966814041,0.010589227080345154,0.00967705249786377,0.0115126371383667
406,-0.0069633785929690065,0.26913255774729294,-1.7920798748548585,-0.006712656002491713,-0.2658953070640564,-0.9639785289764404,-0.015708304941654205,0.019645249471068382,0.04667314141988754,-0.010728135704994202,-0.023182451725006104,0.00912928581237793
407,-0.01328090781479843,0.2659869293269725,-1.7949891798673874,-0.012813488952815533,-0.26286160945892334,-0.9647484421730042,-0.08210281282663345,-0.042584143579006195,-0.04546697065234184,0.01987830549478531,0.01359403133392334,0.02463918924331665
408,-0.017767258237171898,0.2499732014813832,-1.799644867247043,-0.017214128747582436,-0.24737799167633057,-0.9687661528587341,-0.05466821417212486,0.013551255688071251,0.14247271418571472,0.04788430035114288,0.014757752418518066,-0.10716158151626587
409,-0.014772241412128842,0.2733884445764041,-1.7863056736525316,-0.01422310620546341,-0.2699955701828003,-0.9627565145492554,0.23566481471061707,0.15350842475891113,0.016588110476732254,-0.03713797777891159,-0.004311680793762207,0.014453291893005371
410,-0.01875229374043293,0.28743818410623395,-1.7876395341729063,-0.017981894314289093,-0.2834964394569397,-0.9588046669960022,0.04577149823307991,0.02495092898607254,-0.021325383335351944,9.860098361968994e-05,0.0590243935585022,0.0376163125038147
411,-0.017210654233505356,0.2744332574349586,-1.78839251485047,-0.016565795987844467,-0.2710014581680298,-0.9624363780021667,-0.08038955181837082,0.0029339641332626343,0.21432387828826904,0.056696414947509766,0.052800774574279785,-0.030865013599395752
412,-0.018365806863958747,0.2676396546830755,-1.7660307303989662,-0.01771094836294651,-0.2644558548927307,-0.9642351269721985,-0.05075150355696678,-0.058811284601688385,0.18080101907253265,-0.02786705456674099,0.0183163583278656,-0.015073895454406738
413,-0.018184011308865017,0.2707294852755721,-1.759126928204034,-0.017520712688565254,-0.26743441820144653,-0.9634167551994324,-6.264820694923401e-05,-0.11960351467132568,-0.06857678294181824,-0.019451335072517395,-0.0004488825798034668,0.029548346996307373
414,-0.020552719641299455,0.26636538935389076,-1.760912122654851,-0.019826510921120644,-0.2632267475128174,-0.9645302295684814,0.030252419412136078,0.01781289651989937,0.05359746143221855,-0.023477932438254356,0.03342941403388977,-0.007378280162811279
415,-0.022402241429228562,0.2635159107109302,-1.7653552330651723,-0.021627109497785568,-0.2604767084121704,-0.9652378559112549,-0.07657210528850555,0.04662812128663063,-0.1506022810935974,-0.016199417412281036,-0.03185117244720459,0.04452252388000488
416,-0.02678106305874161,0.252325329385651,-1.7824109537405164,-0.025929927825927734,-0.2496563345193863,-0.9679872989654541,-0.13146471977233887,-0.029179763048887253,-0.07627198845148087,0.04015112668275833,-0.008186697959899902,-0.0238797664642334
417,-0.025586224432244578,0.25919742024476233,-1.7818437945545935,-0.024728843942284584,-0.25630486011505127,-0.9662796258926392,0.1109599769115448,-0.0051210420206189156,0.10532639175653458,0.0029698163270950317,-0.0071228742599487305,-0.02073514461517334
418,-0.030799150071493534,0.2701263813386735,-1.7780421741546042,-0.02967759408056736,-0.2668532431125641,-0.9632801413536072,-0.0007599741220474243,-0.07478686422109604,-0.07747510820627213,-0.03236463665962219,-0.016532987356185913,0.03247874975204468
419,-0.036061869766576486,0.27214090753479625,-1.7857125354481294,-0.034727178514003754,-0.2687941789627075,-0.962571382522583,0.10192516446113586,0.012746280990540981,-0.07932101935148239,-0.01864805445075035,0.006800800561904907,-0.023314177989959717
420,-0.03222452137661433,0.2839703001245474,-1.7913421171778279,-0.0309285968542099,-0.28016912937164307,-0.9594522714614868,0.17097312211990356,-0.027686292305588722,0.03562634065747261,0.0124044269323349,0.006273865699768066,0.012079834938049316
421,-0.03533546742431251,0.2798335851091283,-1.7937168501286378,-0.03395390138030052,-0.2761957049369812,-0.960501492023468,-0.035808008164167404,0.0040953392162919044,0.015677668154239655,0.016375776380300522,0.010021418333053589,-0.010491549968719482
422,-0.0368484364756711,0.2826797023970497,-1.7886209175890322,-0.03537796810269356,-0.27893000841140747,-0.9596595764160156,0.006572319194674492,-0.05400934815406799,0.021052848547697067,0.0025715678930282593,-0.006195724010467529,0.031391143798828125
423,-0.04071785210879063,0.2798481174563518,-1.7858896131553046,-0.03912300989031792,-0.27620968222618103,-0.9603008031845093,-0.03576323017477989,-0.09515771269798279,0.030935686081647873,0.02636665850877762,-0.00641360878944397,-0.006114602088928223
424,-0.037776689783624584,0.27690785248198546,-1.7781807579147189,-0.036328960210084915,-0.27338260412216187,-0.961219072341919,-0.07408581674098969,0.018208689987659454,0.12599697709083557,0.038068462163209915,0.018774479627609253,0.02889186143875122
425,-0.036428099498918114,0.267957743561576,-1.7624757483723283,-0.035120341926813126,-0.26476261019706726,-0.9636738300323486,-0.11023692786693573,0.027229534462094307,0.0017836069455370307,-0.035909321159124374,-0.015007257461547852,-0.003504455089569092
426,-0.032015383836790395,0.26559801947411826,-1.753990952794563,-0.030887510627508163,-0.26248636841773987,-0.9644412398338318,0.11491450667381287,-0.007856840267777443,0.0745808407664299,-0.016185849905014038,-0.007609456777572632,-0.019262373447418213
427,-0.031082242868668175,0.265602464054179,-1.749472224941293,-0.029987500980496407,-0.2624906599521637,-0.9644684791564941,0.04355788230895996,0.02215062826871872,0.07158122956752777,0.007480785250663757,0.013421416282653809,-0.006982326507568359
428,-0.030840250501117064,0.26748244712851865,-1.735897385195667,-0.029738835990428925,-0.2643042504787445,-0.9639807343482971,0.05920680612325668,0.03475271165370941,0.19837956130504608,0.012648992240428925,0.003226369619369507,-0.02689450979232788
429,-0.00827701367177423,0.28207702064582796,-1.7105166061514754,-0.007949810475111008,-0.27835118770599365,-0.9604464769363403,0.18234722316265106,0.11309728026390076,0.1453661024570465,-0.006774917244911194,0.05677831172943115,-0.009920954704284668
430,0.02111622261135069,0.25523225650830333,-1.716952292045145,0.020430637523531914,-0.25247013568878174,-0.9673889875411987,-0.6003217101097107,0.5111216306686401,-0.3057805895805359,-0.04499728977680206,0.07996952533721924,-0.0036956071853637695
431,0.026228950469465828,0.24048449237385683,-1.7421370743936153,0.02547123096883297,-0.2381732016801834,-0.970888614654541,-0.03725147992372513,0.2450864464044571,-0.04092811420559883,0.006953699514269829,0.0739886462688446,-0.02312988042831421
432,0.0597691845135693,0.23369029860630636,-1.7079172771694136,0.05810995399951935,-0.2315690815448761,-0.9710813760757446,0.05307898297905922,0.46315303444862366,1.2001675367355347,-0.05205221474170685,-0.0213148295879364,0.013424515724182129
433,-0.010203680400254904,0.2634968910064928,-1.6061117335719133,-0.00985132995992899,-0.2604583203792572,-0.9654348492622375,0.25533512234687805,-0.9225924015045166,0.6945303082466125,-0.172186017036438,-0.0836884081363678,0.05686551332473755
434,-0.07473525860122551,0.22875404863990978,-1.58354035123664,-0.07272063940763474,-0.22676420211791992,-0.9712310433387756,-0.4795076549053192,-0.4070810079574585,0.3273596167564392,0.016171574592590332,0.05653715133666992,0.006173670291900635
435,-0.0742940905547844,0.21608824652419592,-1.5619418234473879,-0.07249954342842102,-0.21441049873828888,-0.9740492701530457,0.10347694903612137,0.18759971857070923,-0.09175444394350052,-0.08423874527215958,-0.06778556108474731,-0.018382370471954346
436,-0.06987681312504447,0.22345652510094355,-1.5837727521456673,-0.06808404624462128,-0.22160153090953827,-0.9727575778961182,0.029889006167650223,0.019148554652929306,-0.1897677779197693,0.0026238486170768738,0.02514462172985077,0.043131113052368164
437,-0.058152506569972284,0.23242642880806594,-1.5973769701526723,-0.05655691772699356,-0.23033937811851501,-0.9714654088020325,0.12539821863174438,0.11567269265651703,0.03999724239110947,0.004387129098176956,-0.0046459585428237915,0.0007165670394897461
438,-0.04916454471333628,0.24226773281506428,-1.5963527394543378,-0.04770953953266144,-0.2399047464132309,-0.9696233868598938,-0.024456949904561043,0.1969594955444336,-0.07632420212030411,-0.06526654213666916,-0.02262270450592041,-0.0171777606010437
439,-0.03379472468990524,0.2601216356875633,-1.6092447799979972,-0.03265161067247391,-0.2571980953216553,-0.9658069014549255,0.6311246752738953,0.4132019579410553,-0.05011146143078804,0.0868813544511795,0.05057886242866516,0.029161453247070312
440,-0.01582651020122461,0.28367916100320867,-1.6025649999312235,-0.015193324536085129,-0.27988964319229126,-0.9599119424819946,-0.3518112897872925,0.09480337053537369,0.12663322687149048,0.005946502089500427,-0.02449268102645874,0.12366926670074463
441,-0.029465365744704278,0.2372340360615466,-1.6154269867134423,-0.028635947033762932,-0.23501503467559814,-0.971569836139679,-0.3034988045692444,0.014098869636654854,-0.13912217319011688,0.11344429850578308,-0.046448588371276855,-0.22876280546188354
442,-0.02360806844231068,0.2797244723028927,-1.588965752921709,-0.022688351571559906,-0.2760908305644989,-0.9608637094497681,0.7956414222717285,0.03947329893708229,0.4839222729206085,0.05579991638660431,0.07253861427307129,0.15458929538726807
443,-0.03071818958536099,0.30584456194279186,-1.5650856742021488,-0.029288044199347496,-0.30109864473342896,-0.9531431198120117,-0.21288780868053436,0.09949416667222977,-0.07099349051713943,-0.05399443209171295,0.003186047077178955,0.05354595184326172
444,-0.02726529777421801,0.2826101201706734,-1.5744123441345992,-0.026180462911725044,-0.27886316180229187,-0.959973931312561,0.15697447955608368,-0.07095849514007568,-0.027976302430033684,0.029064372181892395,-0.004660367965698242,-0.15468060970306396
445,-0.033430733229343285,0.3041395669256123,-1.5617124811366943,-0.03189048916101456,-0.2994723320007324,-0.9535718560218811,-0.19119220972061157,0.00658129807561636,0.21677814424037933,0.02738913893699646,0.05835294723510742,0.1601148247718811
446,-0.03482281855601708,0.27026542635447476,-1.5614282917846392,-0.03355196863412857,-0.26698723435401917,-0.9631158113479614,-0.0562884546816349,-0.047697920352220535,-0.12036711722612381,0.012800019234418869,-0.015605509281158447,-0.1095770001411438
447,-0.029574757953222137,0.28138857436893217,-1.5589333523597932,-0.028407463803887367,-0.2776898741722107,-0.9602506756782532,0.015164405107498169,0.0008935164660215378,0.16216953098773956,0.024287588894367218,0.007426202297210693,0.045547306537628174
448,-0.02908500468628321,0.2760017588430529,-1.5577797216963494,-0.027980269864201546,-0.27251091599464417,-0.9617457389831543,-0.09376834332942963,-0.043091047555208206,-0.1564612239599228,0.0009417012333869934,0.018848806619644165,0.010253429412841797
449,-0.03612337897548419,0.2776851484471689,-1.5712761048970298,-0.03473203256726265,-0.2741301953792572,-0.9610651731491089,-0.024031326174736023,0.04577972739934921,-0.29190146923065186,-0.04497987776994705,-0.01929628849029541,-0.006540417671203613
450,-0.03919547117742203,0.2785271194635105,-1.5987885417840204,-0.03767528384923935,-0.2749398350715637,-0.9607229828834534,0.177216038107872,-0.12357065826654434,-0.2877742648124695,-0.007048226892948151,0.06798487901687622,-0.07756131887435913
451,-0.01927090760958222,0.29652469058245345,-1.614458098528566,-0.01842874102294445,-0.2921983301639557,-0.9561801552772522,0.033477939665317535,0.4658203721046448,-0.12695440649986267,-0.0243874192237854,0.006202876567840576,0.0431247353553772
452,0.004503715497392494,0.28538302352994177,-1.608815801886483,0.004321543034166098,-0.28152501583099365,-0.9595441818237305,-0.1801089644432068,-0.056906163692474365,-0.048583295196294785,-0.03152795135974884,0.009857535362243652,-0.07217884063720703
453,0.011123701618880426,0.3056290152169407,-1.612648526974585,0.010607986710965633,-0.300893098115921,-0.9535988569259644,0.09719953685998917,-0.006852579303085804,-0.1472788155078888,-0.018985062837600708,-0.020075500011444092,0.04640287160873413
454,0.019686366922448306,0.3065794148115384,-1.6395591775266123,0.018767207860946655,-0.30179932713508606,-0.9531867504119873,0.40728574991226196,0.22015449404716492,-0.21502842009067535,0.017136722803115845,0.02765992283821106,-0.037078142166137695
455,0.023831270267395392,0.3180132634535052,-1.6471435705284692,0.022634191438555717,-0.31268006563186646,-0.9495887756347656,-0.5284206867218018,0.010943653993308544,-0.1147293671965599,0.027841880917549133,-0.026538074016571045,0.049930572509765625
456,0.029170625785499046,0.3035610042627685,-1.6463952184185007,0.027832942083477974,-0.29892027378082275,-0.9538720846176147,0.015319816768169403,-0.027188461273908615,0.1591784656047821,0.037032172083854675,0.02832093834877014,0.02610725164413452
457,0.018637171081543027,0.28274124737533274,-1.640155761872377,0.017896132543683052,-0.27898910641670227,-0.9601274728775024,-0.3334522545337677,-0.13042061030864716,-0.10123793035745621,-0.005917981266975403,-0.01254531741142273,-0.02726876735687256
458,0.014672058274940324,0.28123869141935065,-1.638342829178664,0.014095121994614601,-0.27754589915275574,-0.960608959197998,0.05267307162284851,0.003053555265069008,0.002362492959946394,0.02359408140182495,0.007846802473068237,0.022849619388580322
459,0.011100404437782584,0.27051468785753546,-1.6376571674228368,0.010696501471102238,-0.267227441072464,-0.9635741114616394,-0.15510183572769165,-0.15168194472789764,0.019530899822711945,0.029464632272720337,0.01495388150215149,-0.015139877796173096
460,0.007034030239567891,0.2712161547827412,-1.6357479371395949,0.006776851136237383,-0.26790332794189453,-0.9634219408035278,0.053579311817884445,0.0018114708364009857,0.0997840017080307,0.026609376072883606,0.00027945637702941895,-0.014498531818389893
461,0.006153214219316376,0.2741522996578723,-1.6251648816741588,0.005923385266214609,-0.27073100209236145,-0.9626368284225464,-0.030761392787098885,-0.08298629522323608,0.1137114092707634,0.01252448558807373,0.0068607330322265625,0.027517199516296387
462,-0.012013053873998132,0.2636064295596255,-1.6088977673523683,-0.011597802862524986,-0.26056408882141113,-0.9653868675231934,0.07070832699537277,-0.11873602122068405,0.2748773694038391,0.04065054655075073,0.03645828366279602,-0.057653844356536865
463,-0.022664870379982716,0.28269238676978903,-1.5590801124371025,-0.02176338993012905,-0.27894216775894165,-0.960061252117157,0.3026815950870514,0.0264030322432518,0.7873148918151855,0.0885053426027298,0.04572686553001404,-0.05785250663757324
464,-0.07127840515731557,0.33532348836395975,-1.4415281444072137,-0.06725149601697922,-0.3290746510028839,-0.9419060945510864,0.6596804857254028,-0.2907554805278778,1.5674489736557007,0.10974723100662231,0.0826147198677063,-0.025684237480163574
465,-0.13089402960318317,0.37521166171963705,-1.2666730625093134,-0.12144026905298233,-0.36646947264671326,-0.9224708080291748,0.2608993947505951,-0.0667996034026146,1.5961564779281616,-0.06268754601478577,-0.007676035165786743,0.1056220531463623
466,-0.19209781017305136,0.34162457480955444,-1.1117292624050876,-0.17988567054271698,-0.33501821756362915,-0.9248805046081543,-0.20928065478801727,-0.06552556157112122,1.071418046951294,-0.1664888560771942,-0.00778573751449585,-0.015411853790283203
467,-0.22361902945409123,0.30980889626437086,-1.001472719530172,-0.21120239794254303,-0.3048766255378723,-0.9286785125732422,-0.261452853679657,-0.062071144580841064,1.577453374862671,0.10846498608589172,-0.0008942484855651855,0.028562545776367188
468,-0.2820488296074574,0.2354154333760612,-0.8492847357374752,-0.27064722776412964,-0.23324698209762573,-0.9339945912361145,-0.39021608233451843,0.14445509016513824,0.9764406681060791,-0.25962620973587036,0.0003215670585632324,0.027988731861114502
469,-0.28982302333701127,0.19892243484451136,-0.7691864450742789,-0.2801470160484314,-0.19761313498020172,-0.9393969774246216,0.2928610146045685,0.005207444541156292,0.982621431350708,-0.007435351610183716,-0.017825722694396973,-0.12488830089569092
470,-0.288558613789113,0.2449707548888188,-0.6834420969545625,-0.27607470750808716,-0.24252794682979584,-0.9300338625907898,1.0501080751419067,0.35189297795295715,0.6484396457672119,0.03860217332839966,0.007939323782920837,-0.009434521198272705
471,-0.2956475246758024,0.3073095844735374,-0.5823135703100311,-0.27770939469337463,-0.3024953603744507,-0.9117971658706665,0.9567486047744751,-0.02893134579062462,0.9192929863929749,0.13523811101913452,0.06825768947601318,-0.073966383934021
472,-0.32007363029344815,0.39331034799858827,-0.4420685292709145,-0.29061251878738403,-0.38324809074401855,-0.8767355680465698,1.0741223096847534,0.5416248440742493,1.1378819942474365,0.20704013109207153,0.007912427186965942,0.13950717449188232
473,-0.32685588609873306,0.41933623397008546,-0.33015283336768525,-0.2932495176792145,-0.40715429186820984,-0.8650029301643372,0.407900869846344,-0.3024214804172516,0.6088239550590515,-0.03614190220832825,-0.11347559094429016,-0.24975836277008057
474,-0.5412990543864188,0.542851426947383,-0.16344563048825428,-0.44117704033851624,-0.5165795683860779,-0.7338312864303589,3.2369420528411865,-2.453874111175537,0.9436416625976562,0.07765164971351624,0.12467288970947266,-0.2616215944290161
475,-1.0228642421218488,0.7504056749128571,0.2521595631340218,-0.6243361830711365,-0.6819355487823486,-0.38100963830947876,3.2477784156799316,-1.8041071891784668,0.7155441641807556,0.10657495260238647,0.08632397651672363,0.26545482873916626
476,-1.2741952919809063,0.7890535061584038,0.5136507557134902,-0.6737549304962158,-0.7096867561340332,-0.20591023564338684,0.5259260535240173,-0.44609129428863525,0.28824305534362793,-0.04353022575378418,-0.029708385467529297,0.16094255447387695
477,-1.3501960929437244,0.7930668381094998,0.6197664251728671,-0.6846596598625183,-0.712508499622345,-0.15353475511074066,0.4785125255584717,0.29212629795074463,0.1346220076084137,0.0068032145500183105,0.03088313341140747,0.0020302534103393555
478,-1.4108695981797934,0.7866051401998743,0.7115454229309806,-0.69724041223526,-0.7079597115516663,-0.11246786266565323,0.3215947151184082,0.22435471415519714,0.17451408505439758,0.10069799423217773,0.03458935022354126,0.004664525389671326
479,-1.4149248688183433,0.7651203364969873,0.7558516906905671,-0.712554395198822,-0.6926237940788269,-0.11197520792484283,0.25870564579963684,0.2791769504547119,0.3133084774017334,-0.0763096809387207,0.05312800407409668,-0.031182758510112762
480,-1.408582710022077,0.7457961385216857,0.7933702100232726,-0.7249050140380859,-0.6785567998886108,-0.11863182485103607,0.20427589118480682,0.2987580895423889,0.2764638364315033,-0.07288551330566406,0.03672635555267334,-0.033025264739990234
481,-1.3875040254743178,0.731446494206932,0.8328620628029865,-0.7317426204681396,-0.6679468154907227,-0.13564525544643402,0.12268276512622833,0.369584858417511,0.07349739968776703,0.0083235502243042,0.06070810556411743,-0.02158127725124359
482,-1.365619473371204,0.7258540173369422,0.8609872637325914,-0.7322450876235962,-0.6637744307518005,-0.15238410234451294,0.06849218904972076,0.3725902736186981,0.05292956158518791,-0.07721847295761108,0.04368770122528076,-0.007390692830085754
