,attitude.roll,attitude.pitch,attitude.yaw,gravity.x,gravity.y,gravity.z,rotationRate.x,rotationRate.y,rotationRate.z,userAcceleration.x,userAcceleration.y,userAcceleration.z
0,-0.06546850303146806,0.6211950752530702,-0.6031538527834391,-0.0531998835504055,-0.5820074081420898,-0.8114414215087891,-0.1399829387664795,0.2438688576221466,0.0029285121709108353,-0.0117415189743042,-0.009774208068847656,-0.0034999847412109375
1,-0.01796992070049629,0.6291957884013635,-0.7177155840085071,-0.014527917839586735,-0.5884947180747986,-0.8083705306053162,0.0728105828166008,-0.04108715057373047,0.043759867548942566,-0.00982511043548584,-0.007772982120513916,0.0014705061912536621
2,-0.041219149907592414,0.6207221177333471,-0.7137904129786394,-0.03352058306336403,-0.5816227197647095,-0.812767744064331,-0.16921091079711914,-0.07207324355840683,-0.0004054493037983775,-0.0063506364822387695,0.015597939491271973,0.005425214767456055
3,-0.04409294162221023,0.6330123279183933,-0.7086508902043778,-0.03553837910294533,-0.591576099395752,-0.8054655194282532,0.2137448638677597,0.04347328096628189,0.05805662274360657,0.00999516248703003,-0.010398387908935547,0.00973498821258545
4,-0.04647072115551398,0.6715830977766696,-0.7124640769956858,-0.03636593371629715,-0.6222260594367981,-0.7819924354553223,0.7889676690101624,0.1886138916015625,-0.30948537588119507,-0.19474367797374725,0.004077315330505371,-0.012654721736907959
5,-0.037366191327068886,0.7476248353383832,-0.7538926663948621,-0.02739446982741356,-0.6798989772796631,-0.7327939867973328,0.7992838025093079,-0.6150484085083008,-0.27918216586112976,-0.050013378262519836,0.006864309310913086,0.07123386859893799
6,-0.16062301825364794,0.8780743836659322,-0.7769243791812728,-0.10213881731033325,-0.7695105671882629,-0.6304135322570801,1.1114391088485718,-2.086066961288452,-0.2734045088291168,0.025539696216583252,0.19320136308670044,0.0940975546836853
7,-0.21940057640862295,0.9052366482253023,-0.8558405246001306,-0.13439542055130005,-0.7865713238716125,-0.6026967763900757,-0.17396417260169983,0.5090558528900146,0.1569349765777588,0.18453581631183624,-0.08043307065963745,-0.07512909173965454
8,-0.3509063077287797,0.9649410658497936,-0.8284910640520295,-0.19575312733650208,-0.8220153450965881,-0.5347629189491272,0.122229665517807,-1.1585241556167603,-1.0483291149139404,-0.13118168711662292,0.1484619379043579,0.2130466103553772
9,-0.49712673660175816,1.0109299139108119,-0.7988408131270734,-0.253269761800766,-0.8473260402679443,-0.46678996086120605,0.7783306241035461,-1.029589056968689,0.46009397506713867,-0.1363939344882965,0.03894597291946411,0.05381086468696594
10,-0.7530258820110427,1.0353476439721445,-0.5721571317489346,-0.34891849756240845,-0.8600397706031799,-0.3722732663154602,0.9679778218269348,-0.4710675776004791,1.7181432247161865,-0.12131160497665405,0.1435481309890747,0.04518589377403259
11,-1.294242930081124,0.9084474403674996,-0.01920978749566981,-0.5916033983230591,-0.7885499000549316,-0.16791266202926636,1.556229829788208,0.07243179529905319,3.8359975814819336,0.03961664438247681,0.1961272954940796,0.014210864901542664
12,-1.3584492560207875,0.5044679523472413,0.1284098097894915,-0.855768620967865,-0.4833417236804962,-0.18450146913528442,1.4379197359085083,0.028586579486727715,4.366286277770996,-0.03729778528213501,0.1652112603187561,-0.2719804644584656
13,-1.365616646427533,0.0036511503447472595,0.28358950264618715,-0.9790177345275879,-0.003651142120361328,-0.20374168455600739,0.3806930482387543,0.19581443071365356,5.700407981872559,-0.19899111986160278,-0.21938657760620117,-0.3026059567928314
14,-1.183564207103618,-0.4711092928169998,0.5824838131413872,-0.8250889778137207,0.45387500524520874,-0.336490273475647,1.90200674533844,1.780070424079895,4.419190406799316,-0.4281916618347168,-0.30505603551864624,-0.025081992149353027
15,-1.031900024465875,-0.5487104348369366,0.7108352869724208,-0.7322789430618286,0.5215874314308167,-0.43785178661346436,-0.23436567187309265,1.0461158752441406,0.2824743390083313,-0.2529200315475464,-0.21520620584487915,0.15893638134002686
16,-1.0670853903398176,-0.5141323229647446,0.677613466263868,-0.7625741362571716,0.49177953600883484,-0.42027807235717773,-1.1190255880355835,-0.19497108459472656,-1.438131332397461,-0.26307588815689087,0.24392297863960266,0.42676299810409546
17,-1.182977590596971,-0.4786422815815668,0.5697841458074966,-0.8217028379440308,0.4605744481086731,-0.33567166328430176,-0.30452394485473633,-1.2525070905685425,-0.16815486550331116,0.21820253133773804,-0.08148515224456787,0.024346619844436646
18,-1.1930142262199865,-0.4464031119493145,0.4905386259416287,-0.8384008407592773,0.4317239224910736,-0.3327137529850006,-1.3826439380645752,1.0100696086883545,-1.3421218395233154,-0.04869931936264038,-0.03487333655357361,0.09917798638343811
19,-1.144612992240044,-0.3789219539013358,0.32581764196502083,-0.8459593057632446,0.3699191212654114,-0.3840736746788025,-0.8614285588264465,0.7469373941421509,-1.0605026483535767,0.1530272364616394,0.062102943658828735,-0.029531031847000122
20,-1.3165484205080678,-0.10958759583572789,0.15945017230725372,-0.96204674243927,0.10936837643384933,-0.250008761882782,-0.3692435622215271,-3.0025575160980225,-4.348062992095947,-0.25070643424987793,0.18030445277690887,-0.29770544171333313
21,-1.5296555061560309,0.3826056856850343,0.02067660845053633,-0.9269099831581116,-0.3733390271663666,-0.038155365735292435,-1.3310343027114868,-1.6994117498397827,-3.2422447204589844,0.07742273807525635,0.05270606279373169,-0.34570997953414917
22,-1.6567862678752105,0.5999141944760354,0.04785601633653371,-0.8223344087600708,-0.5645716786384583,0.07088729739189148,1.0667386054992676,0.6169363856315613,-1.0155247449874878,0.2425462007522583,0.24288582801818848,0.34329724311828613
23,-1.5512302337934367,0.6584030130739612,0.08404123113834076,-0.7908190488815308,-0.6118544340133667,-0.015475213527679443,-0.1767284870147705,3.047157049179077,1.4740912914276123,0.37487971782684326,0.0894545316696167,0.10711950063705444
24,-1.3069736380848056,0.5242948771076161,0.03804312882025319,-0.8357248306274414,-0.5006027221679688,-0.22574511170387268,-1.2018790245056152,2.569819927215576,2.6896674633026123,0.3910074830055237,-0.08539575338363647,0.233633890748024
25,-1.2673550444549233,0.3668354159648518,-0.02838958458962244,-0.8908206224441528,-0.3586632013320923,-0.2789255976676941,-1.2594999074935913,-0.9417226314544678,0.4403828978538513,-0.13865947723388672,0.2043357789516449,-0.07155349850654602
26,-1.3615182141297937,0.3777101544046257,-0.12380839235455318,-0.9092307090759277,-0.3687930107116699,-0.19310957193374634,-0.00754886120557785,-0.7316994667053223,-0.7122952342033386,-0.21465539932250977,-0.06715059280395508,-0.07100480794906616
27,-1.6122263095682938,0.5397502796191166,0.04322129288625121,-0.8571009635925293,-0.5139217972755432,0.035530008375644684,1.230741024017334,-0.40172478556632996,-1.3447484970092773,-0.0366063117980957,-0.02916896343231201,0.07640838623046875
28,-1.4906931097358187,0.5706031864804696,0.010883726426172404,-0.8388769030570984,-0.5401397943496704,-0.06734082847833633,-1.643893837928772,0.9339818358421326,0.06250431388616562,-0.05542558431625366,0.14780575037002563,-0.10679245740175247
29,-1.4748550655374804,0.7186109740112274,0.028944862367871704,-0.7492590546607971,-0.6583397388458252,-0.07210623472929001,2.8511030673980713,0.4729694128036499,-3.548011541366577,-0.08882981538772583,0.026717543601989746,-0.1641913503408432
30,-1.981162239727255,1.155242529879719,0.6296914285356064,-0.37018004059791565,-0.9148929119110107,0.161052867770195,2.0860283374786377,-2.3122012615203857,-4.477725505828857,0.5225695371627808,0.2747865915298462,-0.3781853914260864
31,-2.483206378065172,1.339044388970488,1.4968645248311707,-0.14052940905094147,-0.9732654690742493,0.18167464435100555,-0.40769249200820923,4.96364688873291,-2.3714160919189453,0.19350795447826385,0.7178182005882263,-0.027240410447120667
32,-2.308449164339251,1.0987035825212548,1.4534058807231878,-0.3365381360054016,-0.8906185626983643,0.3058440685272217,1.6041167974472046,-2.2691774368286133,2.57806658744812,0.021596759557724,0.5729153752326965,-0.48249509930610657
33,-2.4471424179061017,1.0867839605478729,1.3518686190916671,-0.29779696464538574,-0.8851349353790283,0.3575657308101654,0.42540842294692993,-0.36574727296829224,0.36951830983161926,0.19368624687194824,-0.1614348292350769,0.09653592109680176
34,-2.460275995820862,1.0752811495315193,1.38645752364894,-0.2994682490825653,-0.879723846912384,0.3693302571773529,-0.0943479984998703,-0.07832604646682739,-0.13217520713806152,-0.004959851503372192,-0.009329557418823242,-0.07788726687431335
35,-2.4565772302243616,1.0820506563394257,1.3660956703854483,-0.29705750942230225,-0.8829224705696106,0.3635997474193573,-0.15834283828735352,0.22587808966636658,0.05393549054861069,-0.02459779381752014,0.040423691272735596,0.014299392700195312
36,-2.4047607815173953,1.0830681742750374,1.3253684129146943,-0.31488683819770813,-0.8833997845649719,0.3470604717731476,-0.19013172388076782,0.35163822770118713,0.07239704579114914,0.016196072101593018,-0.0031509995460510254,-0.016082078218460083
37,-2.2887091193648748,1.098249799234643,1.250567281848985,-0.3428139090538025,-0.8904120922088623,0.2994074523448944,-0.416849821805954,0.5724859833717346,0.17706546187400818,-0.02153545618057251,0.00753861665725708,-0.08132889866828918
38,-2.1395329392155356,1.104430014525299,1.129528378258768,-0.37886151671409607,-0.8932080268859863,0.2421635538339615,-0.3103676438331604,-0.2853448688983917,0.4662737548351288,-0.035170406103134155,0.0002943277359008789,-0.00788012146949768
39,-2.0994974927749395,1.0775808351204346,1.0308376468944647,-0.4088157117366791,-0.8808150291442871,0.23881936073303223,-0.0678945928812027,-0.3668873906135559,0.296640545129776,0.032701849937438965,-0.03065347671508789,-0.017872095108032227
40,-2.111225405839278,1.0478231697930591,0.9587062078406734,-0.4282792806625366,-0.8663380146026611,0.25697314739227295,-0.310152143239975,-1.2327827215194702,0.6900156140327454,-0.006748765707015991,-0.015589416027069092,-0.11653128266334534
41,-2.0736572717392647,0.9789014091496909,0.7745279406089902,-0.4888664484024048,-0.829884946346283,0.26888784766197205,-0.4528813660144806,-0.06919871270656586,1.52961266040802,-0.055155158042907715,-0.02134186029434204,0.07165789604187012
42,-1.9089232835925014,0.8262528838701305,0.5941765616643995,-0.6392667889595032,-0.7353973388671875,0.2247859239578247,-0.5019825100898743,0.11003098636865616,1.331913948059082,-0.10563677549362183,0.1367645263671875,-0.009240269660949707
43,-1.920802261496471,0.806230913190943,0.4956171744391523,-0.6502543687820435,-0.7216832637786865,0.2373657524585724,-0.29295065999031067,-1.8497709035873413,0.4179989695549011,0.12921249866485596,-0.0042536258697509766,-0.079437255859375
44,-2.020922185686563,0.7588020274344117,0.4609928450444337,-0.6533793210983276,-0.6880525946617126,0.3157196342945099,0.11282895505428314,-0.3651130497455597,0.18620924651622772,0.006483018398284912,0.008868753910064697,-0.07223513722419739
45,-2.059311363873496,0.7572089422592331,0.5160292121911706,-0.6417479515075684,-0.6868957281112671,0.34107762575149536,0.24689710140228271,0.3371007740497589,-0.37517374753952026,0.006722927093505859,-0.1571747064590454,-0.11881804466247559
46,-2.0081540621744,0.7954132292432335,0.5129586590145238,-0.6341024041175842,-0.7141529321670532,0.2964787781238556,-1.1107139587402344,0.37542954087257385,0.07181692868471146,-0.05474036931991577,0.043163001537323,0.2901453673839569
47,-1.9823646747025794,0.822407698934119,0.37641552953492846,-0.6236368417739868,-0.7327862977981567,0.27221566438674927,-0.7263417840003967,-0.7309218645095825,0.09460574388504028,-0.06877648830413818,0.05825626850128174,0.05343735218048096
48,-2.0063248871263246,0.8369059499711259,0.3173279929674613,-0.6072391867637634,-0.7425743937492371,0.2825663089752197,-0.3783734142780304,-0.6736103892326355,-0.014276406727731228,-0.0461573600769043,-0.002435922622680664,0.014919012784957886
49,-2.046213909689573,0.8484362004656817,0.25989852842780753,-0.5878362059593201,-0.7502474188804626,0.30261820554733276,-0.4219297170639038,-0.8664276599884033,0.13711358606815338,-0.03228104114532471,0.042117416858673096,-0.0467739999294281
50,-2.0725377637642266,0.849365032378955,0.19649190800652497,-0.579055666923523,-0.7508611679077148,0.31765016913414,-0.2057677060365677,-0.5570048689842224,0.17571966350078583,-0.0004730224609375,0.01952284574508667,-0.038917988538742065
51,-2.118792736552012,0.8401669552708553,0.18269483192869157,-0.5696199536323547,-0.7447545528411865,0.3476685881614685,-0.1490762084722519,-0.3138526678085327,0.13957977294921875,0.08719813823699951,-0.0193292498588562,-0.01772788166999817
52,-2.1462158617486575,0.841367926280554,0.15580909878542332,-0.5591223835945129,-0.7455554604530334,0.3626699149608612,-0.08510144799947739,-0.1764315366744995,0.001238172291778028,0.053400278091430664,-0.09331178665161133,0.012864142656326294
53,-2.124378912283893,0.8514199620793481,0.12290066652058522,-0.5605040192604065,-0.7522168159484863,0.3464169204235077,-0.34554237127304077,-0.6945587396621704,0.1927281767129898,0.06903374195098877,0.033848464488983154,-0.011074632406234741
54,-2.158164724442205,0.8371959446872811,0.12122747305068902,-0.5573333501815796,-0.7427685856819153,0.37104520201683044,0.09910522401332855,-0.2047230750322342,0.2089998424053192,0.052587807178497314,-0.06963992118835449,-0.020642369985580444
55,-2.1796263394535416,0.838165557131338,0.08800359955718705,-0.5486512184143066,-0.7434174418449402,0.38250797986984253,0.15064440667629242,-0.26690784096717834,-0.15261061489582062,-0.006204068660736084,0.009713828563690186,-0.018158704042434692
56,-2.1808178304128725,0.8435507373593231,0.07075742779841344,-0.5449060201644897,-0.7470083832740784,0.3808625340461731,-0.25762438774108887,-0.27140331268310547,-0.004424434155225754,0.005492508411407471,0.009139060974121094,-0.031039416790008545
57,-2.169883276740246,0.8476459391426874,0.03859376793550211,-0.5465067028999329,-0.7497246861457825,0.3731532692909241,-0.26835766434669495,-0.006125784013420343,0.09771799296140671,0.005292713642120361,-0.02020329236984253,0.020935416221618652
58,-2.152586754966835,0.8511038612698403,0.001351596546826496,-0.5507094860076904,-0.7520084977149963,0.3622184097766876,-0.08798939734697342,-0.23694588243961334,0.20103949308395386,-0.03521263599395752,-0.003255784511566162,0.006357640027999878
59,-2.152132281462461,0.8541908336261151,-0.05852780524131976,-0.548931360244751,-0.7540397047996521,0.3606915771961212,-0.13090437650680542,-0.6449137926101685,0.316560834646225,0.018154501914978027,-0.0482826828956604,0.018809765577316284
60,-2.164444206732891,0.8372025360645821,-0.06814928982639705,-0.5549880266189575,-0.7427729964256287,0.3745347261428833,-0.061404332518577576,-0.5400976538658142,0.15264403820037842,0.07786107063293457,-0.07486909627914429,-0.08397692441940308
61,-2.1833787164729377,0.8512273791411432,-0.11195823799159513,-0.5392206907272339,-0.7520899176597595,0.3789479732513428,-0.5828853845596313,-0.5739133358001709,-0.1908118724822998,-0.08669471740722656,0.0872797966003418,-0.08854272961616516
62,-2.187561931332204,0.868448518936582,-0.176996684214813,-0.5269864201545715,-0.7633275985717773,0.3736530542373657,-0.5782351493835449,-0.32725241780281067,0.1839655488729477,-0.15660738945007324,0.10083663463592529,0.047901540994644165
63,-2.1749173620292686,0.8783846889866767,-0.2969342165822807,-0.5254002809524536,-0.7697086930274963,0.36263325810432434,-0.5134803056716919,-0.9872782230377197,0.5068213939666748,0.07239741086959839,0.013773083686828613,-0.01856294274330139
64,-2.1785993899414704,0.8863086223082964,-0.38764393447173967,-0.5190382599830627,-0.7747430801391602,0.3610709309577942,-0.1650826781988144,-0.8530206680297852,0.4420144259929657,0.031031787395477295,-0.04366195201873779,-0.05807715654373169
65,-2.1859911751408716,0.8832118851235303,-0.4659369076068834,-0.5183120965957642,-0.7727813720703125,0.36628058552742004,-0.6039031744003296,-1.0494979619979858,0.40440234541893005,0.08358925580978394,-0.0014953017234802246,0.029334038496017456
66,-2.1987491488509288,0.9058535692059114,-0.5738947294889626,-0.4993074834346771,-0.7869520783424377,0.3624891936779022,-0.6142686009407043,-1.2113186120986938,0.2991269528865814,-0.021795421838760376,-0.02229773998260498,-0.076509028673172
67,-2.2258493070978203,0.9372087121432916,-0.6732808936690685,-0.46949678659439087,-0.8059086799621582,0.36067134141921997,-0.41035065054893494,-0.6939850449562073,0.12857764959335327,-0.07051172852516174,0.08276420831680298,-0.06651249527931213
68,-2.2156498690854503,0.9414276475819262,-0.7632019356054882,-0.47042974829673767,-0.8083992600440979,0.3538174033164978,-0.37993964552879333,-0.5455952286720276,0.3008694052696228,-0.04685854911804199,0.036899566650390625,-0.08567461371421814
69,-2.1925854266568523,0.9302501382376548,-0.8729718775341041,-0.48577880859375,-0.8017694354057312,0.34811559319496155,-0.5926465392112732,-0.7073439359664917,0.4732101559638977,-0.035949647426605225,0.008693993091583252,-0.015092641115188599
70,-2.194944672383034,0.9118562522077832,-0.9336712599749462,-0.4968409538269043,-0.7906416654586792,0.3578200042247772,-0.1638338565826416,-0.3027089834213257,0.2661719024181366,0.02789252996444702,-0.003151237964630127,-0.015153378248214722
71,-2.201631263498108,0.8892601511962234,-0.9505277086593056,-0.5087365508079529,-0.7766058444976807,0.37157830595970154,0.12934666872024536,-0.1149207279086113,0.2125522345304489,0.014901161193847656,-0.01126641035079956,-0.06609725952148438
72,-2.1736524643728967,0.8865250575483912,-0.9832901314810819,-0.5206802487373352,-0.7748798727989197,0.3584039509296417,-0.14764656126499176,0.36447200179100037,0.14819343388080597,-0.05503392219543457,0.0472949743270874,0.0328618586063385
73,-2.1419373005297127,0.8765131430181785,-1.027897616477488,-0.5382832288742065,-0.7685125470161438,0.34588971734046936,-0.25058865547180176,0.02419567108154297,-0.0002482363488525152,-0.027802586555480957,0.0835607647895813,0.09688973426818848
74,-2.1307185233578187,0.8707265207227232,-1.0394298271164435,-0.5458887815475464,-0.7647972106933594,0.34218552708625793,-0.020530177280306816,-0.044136226177215576,0.12986356019973755,0.06357365846633911,-0.038684964179992676,0.002480059862136841
75,-2.121661711483108,0.8939111552963871,-1.0575421770647835,-0.5337103605270386,-0.7795275449752808,0.3278564214706421,-0.03704577311873436,-0.10375215113162994,-0.010261060670018196,0.032749056816101074,-0.05859196186065674,-0.02176550030708313
76,-2.132746734817688,0.890982265072919,-1.063875974969108,-0.531973123550415,-0.7776896357536316,0.3349674642086029,-0.07466407865285873,-0.2567121684551239,-0.014557226561009884,0.06516104936599731,0.03612786531448364,0.0010767877101898193
77,-2.1660046844046885,0.88926387399396,-1.0511390961947162,-0.5216467976570129,-0.7766082286834717,0.35322028398513794,0.01320980116724968,-0.021028436720371246,-0.023257654160261154,-0.01677495241165161,-0.02409684658050537,-0.11223813891410828
78,-2.1453373851310076,0.8986411122663236,-1.050987629543675,-0.522698700428009,-0.7824814915657043,0.3383920192718506,-0.02754923701286316,0.28976935148239136,-0.05610405653715134,-0.05504488945007324,-0.047703564167022705,-0.0017525851726531982
79,-2.135583495190746,0.9056362909766906,-1.0524990965593577,-0.5213378071784973,-0.7868180274963379,0.3303396999835968,0.1452016979455948,0.15412719547748566,-0.031036805361509323,-0.0008026957511901855,0.02950906753540039,-0.08009552955627441
80,-2.137609420542748,0.891633146457684,-1.0087464706962672,-0.5299109220504761,-0.7780986428260803,0.33727848529815674,0.45333415269851685,0.5213114023208618,-0.05163983628153801,0.0007361769676208496,0.015937507152557373,-0.06823542714118958
81,-2.113133751796323,0.8660517203122686,-0.9560889699286058,-0.5548774600028992,-0.7617770433425903,0.3343754708766937,-0.1207185834646225,0.03285270929336548,-0.09358225762844086,-0.030022501945495605,0.12395954132080078,0.10783949494361877
82,-2.1145935195131855,0.8790692048287287,-0.9679680154248459,-0.5458558201789856,-0.7701454758644104,0.3300260901451111,-0.14093296229839325,0.17789696156978607,-0.05527046322822571,-0.09106123447418213,-0.07575595378875732,0.21381232142448425
83,-2.150156141763985,0.8741787534487656,-0.9180233053028855,-0.5369217395782471,-0.7670168280601501,0.35128313302993774,0.6762585043907166,0.2304282784461975,-0.22928468883037567,-0.001606583595275879,0.1312900185585022,0.0030563175678253174
84,-2.177367331178209,0.8473714826202369,-0.851339932754799,-0.5438677668571472,-0.7495430111885071,0.37735018134117126,0.3002653419971466,-0.024250078946352005,0.12957699596881866,-0.08610659837722778,0.058579325675964355,-0.1261904239654541
85,-2.157130879605594,0.8341508527109729,-0.8659201272121899,-0.5595980882644653,-0.7407262921333313,0.3717185854911804,-0.09546652436256409,0.44498878717422485,0.15117841958999634,-0.10472381114959717,-0.00048464536666870117,-0.06561195850372314
86,-2.0891979425039295,0.8295266303247378,-0.9087128316488265,-0.5865085124969482,-0.7376118302345276,0.33456873893737793,-0.24396662414073944,0.22872427105903625,0.2975505292415619,-0.03531754016876221,0.10266321897506714,0.047816455364227295
87,-2.054507074168675,0.805728451776414,-0.9598466114393364,-0.6131293177604675,-0.7213353514671326,0.3220992088317871,-0.4822685420513153,0.06417812407016754,0.3962041139602661,-0.08348017930984497,0.02313894033432007,0.01977396011352539
88,-2.0102032065552815,0.7956307292400607,-1.0533984811839583,-0.6333529949188232,-0.7143051624298096,0.29771149158477783,-0.27728328108787537,-0.5047308206558228,0.36676689982414246,0.04471468925476074,0.04714512825012207,0.09695708751678467
89,-2.0355902912799797,0.7795363096129133,-1.0629937889509484,-0.6357870101928711,-0.7029497027397156,0.318805068731308,0.0331089086830616,-0.014016200788319111,-0.0074920812621712685,-0.028443336486816406,-0.011192142963409424,-0.05998551845550537
90,-2.019961739436323,0.7879246390995618,-1.0871933266214904,-0.6353573203086853,-0.7088910341262817,0.30625882744789124,-0.38694852590560913,-0.21135380864143372,-0.026539666578173637,-0.007144451141357422,0.10528391599655151,0.028183192014694214
91,-2.0054697472854586,0.8107868394623515,-1.1444225415795906,-0.6248630881309509,-0.7248294949531555,0.29011741280555725,-0.40441131591796875,-0.1455451250076294,-0.0068714008666574955,-0.1177821159362793,0.12868398427963257,0.02754002809524536
92,-1.991665566423552,0.8129036597701524,-1.2181366277666028,-0.6274064779281616,-0.7262861728668213,0.28083688020706177,-0.5183243155479431,-0.5321671962738037,0.31861549615859985,-0.059605181217193604,-0.00671541690826416,0.06045636534690857
93,-1.9978808280133518,0.817884243046284,-1.307635183830203,-0.6223486661911011,-0.7297008037567139,0.2832289934158325,-0.49439239501953125,-0.6298749446868896,0.09145183116197586,0.01712411642074585,0.05240899324417114,0.05504307150840759
94,-2.01465541341056,0.8204267141588989,-1.378934212414659,-0.6158331632614136,-0.7314368486404419,0.29283082485198975,-0.5085854530334473,-0.8005368709564209,0.19602569937705994,0.0469549298286438,-0.00948423147201538,-0.04046568274497986
95,-2.03900749888569,0.8189270759127317,-1.4682648225368362,-0.6094984412193298,-0.7304134368896484,0.3082340359687805,-0.4534705877304077,-1.080336570739746,0.4353335499763489,0.02932870388031006,-0.04722028970718384,-0.11388275027275085
96,-2.089245507181625,0.7919028835979515,-1.5356417650587788,-0.6101769804954529,-0.7116913199424744,0.3481086790561676,-0.10934334248304367,-0.38635775446891785,0.334943950176239,-0.01450258493423462,-0.12938839197158813,-0.14039075374603271
97,-2.0561271706019064,0.7909087034869188,-1.5710889434099378,-0.6219946146011353,-0.7109925746917725,0.3280433416366577,-0.5218227505683899,0.3261655271053314,-0.10383035987615585,0.15387016534805298,-0.028524696826934814,0.019139915704727173
98,-1.9891939131605127,0.8301717642656691,-1.6102724887985664,-0.6165459752082825,-0.7380473017692566,0.2741483747959137,-0.2501055598258972,0.4098157584667206,-0.29811349511146545,-0.05642765760421753,-0.006932556629180908,0.1892915964126587
99,-1.9775709512652841,0.8337094380554548,-1.6207765244751944,-0.6172889471054077,-0.740429699420929,0.265929251909256,0.05737539380788803,-0.23397672176361084,0.2601390480995178,-0.023900628089904785,-0.03302311897277832,-0.004790306091308594
100,-2.0102393795990903,0.8120911151285544,-1.6246058492141984,-0.6226160526275635,-0.7257274389266968,0.29269200563430786,-0.1752195656299591,-0.563133955001831,0.11433014273643494,0.09096944332122803,0.028660297393798828,-0.08514195680618286
101,-2.026635664632963,0.8067251201488155,-1.6711172010087147,-0.6212213635444641,-0.7220252752304077,0.3045707941055298,-0.22802628576755524,-0.3209874629974365,0.08574072271585464,-0.03573054075241089,-0.02095562219619751,-0.004613548517227173
102,-2.009501987834976,0.8085926290014621,-1.6859810839797473,-0.6251265406608582,-0.7233160734176636,0.2933095395565033,-0.0035811765119433403,0.15535466372966766,0.11494247615337372,-0.00724339485168457,0.09462350606918335,0.02475985884666443
103,-2.018423486474527,0.795172557895093,-1.7074967444554325,-0.6311792731285095,-0.7139844298362732,0.3030492961406708,-0.17895272374153137,-0.3421885371208191,0.24731115996837616,-0.1144108772277832,0.06487560272216797,-0.04554203152656555
104,-2.0113878964300183,0.7734411861824009,-1.7654274807787498,-0.647179365158081,-0.6986016035079956,0.30514729022979736,-0.3159010410308838,-0.3802552819252014,0.6003267168998718,-0.11606526374816895,0.06636887788772583,-0.03912556171417236
105,-1.989266542595896,0.7333336382103656,-1.8314913628733875,-0.6788392663002014,-0.6693500876426697,0.3019062578678131,-0.44795170426368713,-0.2279820442199707,0.5352646708488464,0.016745269298553467,0.03803300857543945,0.02606603503227234
106,-1.962916352933132,0.7165657939167261,-1.947198685898897,-0.6968330144882202,-0.6567989587783813,0.28816506266593933,-0.5889230370521545,-0.5348049998283386,0.4317930340766907,-0.03046196699142456,0.019134104251861572,0.10174277424812317
107,-1.9912425952391797,0.6941549206141984,-2.0192833783739146,-0.7016555070877075,-0.6397361159324646,0.31371572613716125,-0.3006730079650879,-0.6354934573173523,0.33842363953590393,0.054957449436187744,0.0227317214012146,-0.03417465090751648
108,-2.0101473029277495,0.6853493056030936,-2.075435850413201,-0.7006706595420837,-0.6329435110092163,0.3293067514896393,-0.42789432406425476,-0.507101833820343,0.19528241455554962,0.02708679437637329,-0.002020418643951416,0.00582200288772583
109,-2.0114066773005557,0.6920261162769872,-2.133674708256396,-0.6964175701141357,-0.6380985379219055,0.32837924361228943,-0.48476627469062805,-0.38539326190948486,0.12013061344623566,-0.03696560859680176,0.04686623811721802,0.028523921966552734
110,-2.0128235004842767,0.6964430369061668,-2.210345954640861,-0.693397045135498,-0.6414930820465088,0.32815665006637573,-0.6291633248329163,-0.6404340863227844,0.3200221359729767,-0.0341571569442749,0.09181058406829834,-0.006211578845977783
111,-2.0144793335531337,0.6953905160495883,-2.302331812479332,-0.6934624910354614,-0.6406853199005127,0.3295941650867462,-0.641037106513977,-0.6281200051307678,0.29540303349494934,0.01398855447769165,0.01168745756149292,0.0029559433460235596
112,-2.0136954555482833,0.7034178637659535,-2.3905471387410486,-0.6890515685081482,-0.6468280553817749,0.3268358111381531,-0.5854889750480652,-0.4894331395626068,0.19745782017707825,-0.022877812385559082,-0.04135864973068237,0.04285421967506409
113,-2.0212630560683853,0.7180551010487999,-2.4940154754195287,-0.6779618263244629,-0.6579212546348572,0.327883243560791,-0.7672821879386902,-0.7860738635063171,0.17799915373325348,0.037901461124420166,0.018684804439544678,0.050031185150146484
114,-2.0358580964090436,0.7349436153800427,-2.5542395940096676,-0.6630775332450867,-0.6705453395843506,0.33271172642707825,-0.46529653668403625,-0.5187644958496094,0.029412420466542244,0.045218706130981445,0.025220632553100586,-0.00823354721069336
115,-2.031454434772826,0.74530634010349,-2.6196195619752602,-0.658276379108429,-0.6781969666481018,0.3266819417476654,-0.5040165185928345,-0.2551134526729584,0.21207162737846375,0.014065563678741455,0.019703924655914307,-0.07147872447967529
116,-1.9956254295687403,0.741980555347812,-2.6829689273731696,-0.6716073155403137,-0.6757491827011108,0.303819864988327,-0.5877553820610046,-0.20190225541591644,0.316692590713501,0.059592604637145996,0.0007615089416503906,-0.03581446409225464
117,-1.9513542820460366,0.7382580909550048,-2.7918905468924504,-0.6867260336875916,-0.6730005145072937,0.27473151683807373,-0.811888575553894,-0.3985448181629181,0.3794451057910919,0.019260942935943604,-0.07464951276779175,0.022769063711166382
118,-1.9170054890957415,0.7384536961766209,-2.9090847261885275,-0.6956321001052856,-0.6731452345848083,0.2509412467479706,-0.5795194506645203,-0.48517054319381714,0.21302145719528198,0.11576759815216064,-0.04481130838394165,0.09677597880363464
119,-1.915831591206244,0.7400009307408927,-2.9356294598318007,-0.6949453353881836,-0.6742885708808899,0.24977195262908936,-0.18326854705810547,-0.1018928661942482,0.04846886545419693,0.07893270254135132,-0.06965368986129761,0.0023490488529205322
120,-1.906189905382682,0.7471520771065627,-2.918961980468678,-0.6927498579025269,-0.6795521974563599,0.24146659672260284,0.04695744812488556,0.26752981543540955,-0.1346479207277298,0.0721292495727539,-0.07534575462341309,0.019244983792304993
121,-1.8901485898989103,0.7648927174916781,-2.892492683363261,-0.6849788427352905,-0.6924595832824707,0.2265024185180664,0.24787677824497223,0.43938884139060974,-0.17929315567016602,0.07033973932266235,-0.05569392442703247,0.03185933828353882
122,-1.8777941099374527,0.7803159262416599,-2.825995729212569,-0.6774628162384033,-0.7035039663314819,0.21476954221725464,0.5882188677787781,0.6533727645874023,-0.3238756060600281,0.03354203701019287,-0.048006534576416016,0.043485358357429504
123,-1.8813272994044703,0.7964596697384496,-2.736661947314494,-0.6657982468605042,-0.7148850560188293,0.21366333961486816,0.6813594698905945,0.7227084636688232,-0.3777565658092499,-0.03027719259262085,-0.056507766246795654,0.06917354464530945
124,-1.8918718325090775,0.796276610546374,-2.5909912080289175,-0.6636326313018799,-0.7147570252418518,0.22071322798728943,1.1404613256454468,0.9288445115089417,-0.3039563000202179,0.10155981779098511,-0.04670238494873047,0.09679165482521057
125,-1.9484168319592627,0.7840029901146082,-2.4434280734503924,-0.6582035422325134,-0.7061195373535156,0.2610805630683899,0.945517897605896,0.21291238069534302,-0.25900164246559143,0.0779576301574707,-0.0873526930809021,-0.06437948346138
126,-2.0038289495088004,0.7748802259319091,-2.2987051984073332,-0.6485541462898254,-0.6996304988861084,0.29982438683509827,1.0378893613815308,0.6673271656036377,-0.3456849753856659,0.02820807695388794,-0.0787355899810791,-0.06865382194519043
127,-2.035481319064528,0.7631458521072373,-2.1309988622153258,-0.6460358500480652,-0.6911982297897339,0.32385608553886414,1.0526362657546997,0.9900953769683838,-0.47544431686401367,0.05619204044342041,-0.015817761421203613,-0.12033438682556152
128,-2.037745443729406,0.7515738256145865,-1.9764996105267352,-0.6523999571800232,-0.6827894449234009,0.32889682054519653,1.1021649837493896,0.8544144630432129,-0.31971171498298645,0.020594477653503418,-0.05016648769378662,-0.06397363543510437
129,-2.0350400613807715,0.7443442483699827,-1.8063483259048079,-0.6576840877532959,-0.6774896383285522,0.32933226227760315,1.289538860321045,1.5759505033493042,-0.5602509379386902,0.004897773265838623,0.02467280626296997,-0.034089893102645874
130,-2.028435521414732,0.719635217754437,-1.6227217370005922,-0.6746591925621033,-0.6591103672981262,0.33227765560150146,1.2774238586425781,1.1037999391555786,-0.3905875086784363,0.06360578536987305,-0.054558396339416504,-0.03894272446632385
131,-2.027042325087111,0.709279386251502,-1.426319860776856,-0.6812127828598022,-0.6512871384620667,0.33432692289352417,1.3896318674087524,1.2732235193252563,-0.6711710691452026,0.03564387559890747,-0.0420265793800354,-0.05313798785209656
132,-2.033992709614855,0.7147708817430486,-1.205806676613955,-0.6756623983383179,-0.6554443836212158,0.33745017647743225,1.528630256652832,1.4698342084884644,-0.8305826783180237,-0.0971035361289978,-0.060864031314849854,-0.11310026049613953
133,-2.044326171965827,0.7326194899342497,-0.9883055931752323,-0.6616218090057373,-0.6688193082809448,0.3390246331691742,1.2462880611419678,1.5100923776626587,-0.968864381313324,-0.04457038640975952,0.055949866771698,-0.11565116047859192
134,-2.039043937386479,0.742977756003299,-0.7911055755193538,-0.6571855545043945,-0.6764838695526123,0.3323803246021271,1.2474217414855957,1.0261752605438232,-0.49877482652664185,-0.14591503143310547,0.0879828929901123,-0.19622623920440674
135,-2.020789555173723,0.7358228594100837,-0.6040790864052559,-0.6674844622612,-0.6711973547935486,0.3224261701107025,1.0345025062561035,1.3576487302780151,-0.5220202803611755,-0.04520779848098755,0.06336349248886108,-0.0977710485458374
136,-2.013173446517562,0.7405806597572,-0.46162552989951805,-0.6670271754264832,-0.674716591835022,0.3159625828266144,0.8909645676612854,1.0252094268798828,-0.478704571723938,-0.09267747402191162,0.04262125492095947,-0.10591006278991699
137,-2.0049968305788117,0.7371868744833998,-0.3623773470883122,-0.6716619729995728,-0.6722078323364258,0.31145963072776794,0.3622555434703827,0.032318975776433945,0.005742256063967943,-0.05343574285507202,0.085598886013031,-0.17969998717308044
138,-2.002549970337223,0.7381351138576322,-0.29547557512458084,-0.6718428134918213,-0.6729095578193665,0.30954834818840027,0.47708961367607117,1.0490806102752686,-0.2695038914680481,-0.273515522480011,-0.04965519905090332,0.0035009682178497314
139,-1.9404266438554667,0.7341009941675684,-0.265895049179193,-0.6922901272773743,-0.6699199676513672,0.2682194709777832,0.1471700221300125,-0.4386509358882904,0.21613629162311554,0.005965113639831543,0.05610466003417969,0.1230158805847168
140,-2.0144753419022816,0.714035928459892,-0.23133728349320723,-0.6825546622276306,-0.6548891663551331,0.3244064748287201,0.05169866979122162,-0.23209702968597412,-0.012324418872594833,0.10476523637771606,-0.02528667449951172,0.04902186989784241
141,-2.0568425802038712,0.7202790023679821,-0.26306503411147714,-0.6645740866661072,-0.6595944166183472,0.3511079251766205,-0.49999746680259705,-0.8066553473472595,0.11393719166517258,0.0467303991317749,-0.019009768962860107,-0.015139788389205933
142,-2.080851909341388,0.7268798860427411,-0.3099037254240146,-0.6521393656730652,-0.6645413637161255,0.364827424287796,-0.15815694630146027,-0.5018444061279297,0.1440649926662445,0.042474448680877686,0.06226170063018799,-0.06413769721984863
143,-2.0940668761461207,0.7153217869006596,-0.3484794758171702,-0.6538709998130798,-0.6558603644371033,0.37722647190093994,-0.16811728477478027,-0.17715124785900116,0.3220251500606537,-0.005735933780670166,-0.09088945388793945,-0.05131405591964722
144,-2.109408394136845,0.6991567198669507,-0.3354764364843397,-0.6570229530334473,-0.6435725092887878,0.39260050654411316,0.35065457224845886,0.1930486559867859,-0.04383738711476326,0.05790191888809204,-0.003445863723754883,0.029091328382492065
145,-2.111827278512387,0.6820984337530832,-0.33137957010089436,-0.6653857231140137,-0.6304233074188232,0.39978495240211487,-0.043456584215164185,-0.3412862718105316,0.38459357619285583,0.029048502445220947,0.013357996940612793,0.12455278635025024
146,-2.1160566299804477,0.6656122991740756,-0.35108803384450865,-0.6724845170974731,-0.6175408363342285,0.4079309403896332,-0.4389212727546692,-0.5246374011039734,0.3895014524459839,0.15376204252243042,-0.09556329250335693,-0.004366457462310791
147,-2.1331547243113866,0.6829144720256741,-0.4925141963111411,-0.6562734246253967,-0.631056547164917,0.41360965371131897,-1.0957989692687988,-1.4232597351074219,0.4289925992488861,-0.09450483322143555,0.07494992017745972,-0.14542120695114136
148,-2.1533086393894965,0.6898978367521472,-0.5852024953447197,-0.6441087126731873,-0.6364583969116211,0.42431631684303284,-0.20287886261940002,0.18851573765277863,0.2346414476633072,-0.2036847472190857,0.20382606983184814,-0.04161080718040466
149,-2.1180203523733905,0.6566488572151861,-0.6448467970391577,-0.6763821840286255,-0.6104660630226135,0.4121144115924835,-0.36761441826820374,-0.4211950898170471,0.6913179755210876,0.009741008281707764,0.0978318452835083,0.07920333743095398
150,-2.1188582806822147,0.6313638238301674,-0.743439005162928,-0.6889942288398743,-0.5902462005615234,0.42059090733528137,-0.4713667631149292,-0.5122858285903931,0.4479769170284271,-0.011353671550750732,-0.016275465488433838,0.004641115665435791
151,-2.1052671915868983,0.6204210075603459,-0.8041399866947595,-0.7001631855964661,-0.5813777446746826,0.41445356607437134,-0.3283644914627075,-0.03852546215057373,0.28559231758117676,0.1335737705230713,0.03868359327316284,0.030126631259918213
152,-2.0934040575039474,0.6224440679918553,-0.8550999015455913,-0.7040095925331116,-0.5830225944519043,0.4055303931236267,-0.4465327858924866,-0.2403891682624817,0.036588214337825775,0.16856354475021362,-0.020279347896575928,0.07928702235221863
153,-2.094781745733716,0.6585629916916981,-0.889830272762565,-0.6847628355026245,-0.6119809746742249,0.3957011103630066,-0.2937494218349457,-0.19339044392108917,-0.37357309460639954,0.040841877460479736,-0.09279203414916992,0.1592915654182434
154,-2.1210361062579848,0.7025809726494737,-0.9007156198837682,-0.6505314111709595,-0.6461895704269409,0.39905884861946106,-0.07603367418050766,-0.20276544988155365,-0.3231930434703827,-0.014629721641540527,0.05462157726287842,0.023594379425048828
155,-2.146144863807588,0.7136240589569075,-0.8783081409164083,-0.6342816948890686,-0.6545778512954712,0.41135740280151367,-0.09095257520675659,-0.41265228390693665,0.12884944677352905,-0.12885624170303345,-0.07381588220596313,-0.11707630753517151
156,-2.1584624653920064,0.7117836994879447,-0.8987784059176465,-0.630168080329895,-0.6531854271888733,0.4198058247566223,-0.029152749106287956,0.2428031712770462,-0.09680433571338654,-0.008198559284210205,-0.019223570823669434,-0.15683582425117493
157,-2.1274742653502092,0.7162114515619776,-0.8949969562925062,-0.6404109597206116,-0.6565316915512085,0.3985477685928345,-0.03881295397877693,0.2014538049697876,0.05467690899968147,0.026015758514404297,0.04459315538406372,-0.011844217777252197
158,-2.1154946441645843,0.7084256324381842,-0.9103652257015464,-0.6494916081428528,-0.650638997554779,0.3934842050075531,-0.02396855503320694,-0.13089889287948608,0.16975921392440796,0.024003207683563232,0.0017131567001342773,-0.006628096103668213
159,-2.1285903022065185,0.6942227998129828,-0.9093618577637436,-0.6520580053329468,-0.6397883296012878,0.4068063795566559,0.1164742186665535,-0.04928209260106087,0.02438957616686821,-0.04374277591705322,-0.11083734035491943,0.008675217628479004
160,-2.14398332657971,0.7022444415840443,-0.930111149420882,-0.6413864493370056,-0.6459327340126038,0.4139983654022217,-0.3250921964645386,-0.5734847187995911,0.03160914033651352,-0.04091036319732666,0.09425115585327148,-0.027569472789764404
161,-2.1883476436149265,0.7229086687220002,-0.9610449419486404,-0.6113802790641785,-0.6615686416625977,0.4342137277126312,-0.2574562132358551,-0.29465827345848083,-0.1438002586364746,-0.19904464483261108,0.17969590425491333,-0.07279399037361145
162,-2.1598937118841057,0.714270974768748,-0.9807049571759641,-0.6282139420509338,-0.6550667881965637,0.4198034405708313,-0.036422885954380035,0.007307138293981552,0.5612954497337341,-0.06778520345687866,0.17513203620910645,0.11400997638702393
163,-2.1630915127026897,0.6665663910749634,-1.025249503089051,-0.6520718336105347,-0.6182910203933716,0.43876928091049194,0.13636432588100433,-0.2188410460948944,0.4220970869064331,0.03402984142303467,0.014714360237121582,0.014660835266113281
164,-2.1746837846054548,0.6472949991835935,-1.0459712345143501,-0.6566290259361267,-0.603030800819397,0.45298147201538086,-0.25529077649116516,-0.29300475120544434,0.1437850445508957,0.061139583587646484,-0.016018271446228027,-0.01125478744506836
165,-2.175063016798063,0.657516371773688,-1.0779384696712169,-0.651350736618042,-0.6111528873443604,0.4497048556804657,-0.2564120888710022,-0.004540323279798031,-0.04233062267303467,0.026503324508666992,0.014137506484985352,-0.029401540756225586
166,-2.1525165209126427,0.6835347597541812,-1.1151456519668987,-0.6478154063224792,-0.6315376162528992,0.4260227084159851,-0.4148980379104614,-0.09075919538736343,-0.01707480289041996,0.04788559675216675,0.08753126859664917,0.10292315483093262
167,-2.138195368019848,0.7083757276754165,-1.1565835108986269,-0.6404196619987488,-0.6506011486053467,0.40814271569252014,-0.39844292402267456,-0.12665633857250214,-0.0904245674610138,0.033867597579956055,0.043453991413116455,0.12223738431930542
168,-2.1278515146470838,0.7381191712242446,-1.1769971847299716,-0.6278989911079407,-0.6728978157043457,0.39108988642692566,-0.26254215836524963,-0.015691477805376053,-0.23095063865184784,-0.004486203193664551,0.04431205987930298,0.11675319075584412
169,-2.1324097672576197,0.7656696656895695,-1.1810262950374695,-0.61018306016922,-0.6930199265480042,0.3839268386363983,-0.061949171125888824,-0.155191570520401,-0.14936959743499756,-0.13172972202301025,-0.004703402519226074,0.10781806707382202
170,-2.1534941296851344,0.7760099966003305,-1.2066945385419476,-0.5959379076957703,-0.7004373073577881,0.3927415907382965,-0.3739932179450989,-0.6724046468734741,0.1856313794851303,-0.005594193935394287,0.08984148502349854,-0.043147504329681396
171,-2.1849263613098007,0.7691080061408225,-1.2594603188951057,-0.5872376561164856,-0.6954945921897888,0.41405197978019714,-0.18706777691841125,-0.5751433968544006,0.29043301939964294,-0.057446181774139404,-0.030640602111816406,-0.1441240906715393
172,-2.180522846035072,0.7564269976989877,-1.2899289393470017,-0.5962380766868591,-0.6863272190093994,0.41647934913635254,-0.17039160430431366,0.011517595499753952,0.2033596932888031,0.04907315969467163,-0.01026695966720581,-0.06363514065742493
173,-2.162049248440722,0.7524580975464727,-1.3518889474813471,-0.6060863137245178,-0.6834352612495422,0.4069092571735382,-0.46375465393066406,-0.48277711868286133,0.390846848487854,0.07260864973068237,0.022409439086914062,-0.05258497595787048
174,-2.146696228862807,0.7480804087532102,-1.4409117568970191,-0.6147655844688416,-0.6802329421043396,0.3991820812225342,-0.5736647844314575,-0.34414854645729065,0.419933557510376,0.05960506200790405,0.011455535888671875,-0.08343195915222168
175,-2.1014767604983384,0.7298904849745693,-1.5401160332636525,-0.6427480578422546,-0.6667880415916443,0.37718474864959717,-0.5643321871757507,-0.09754985570907593,0.633959174156189,0.04075843095779419,-0.09308433532714844,-0.023287713527679443
176,-2.016608115457516,0.6915690996215713,-1.6497466073143452,-0.6949631571769714,-0.6377465724945068,0.3321228623390198,-0.5683214664459229,0.267217218875885,0.8214759826660156,0.13144081830978394,-0.12546753883361816,0.13438403606414795
177,-1.9467654314773957,0.6341470783018252,-1.7753701976845764,-0.7493097186088562,-0.5924906134605408,0.2957872152328491,-0.7417364120483398,-0.44018062949180603,1.079681158065796,0.004161953926086426,-0.16498619318008423,0.05359330773353577
178,-1.9136452560418071,0.5730623807023797,-1.8758602350419153,-0.7913428544998169,-0.5422077178955078,0.2824662923812866,-0.4995357096195221,0.6111528873443604,0.4149650037288666,0.06009596586227417,0.05993849039077759,-0.05332508683204651
179,-1.8385596544881149,0.545952331624711,-1.9617641598723385,-0.8241783976554871,-0.5192322134971619,0.2261146903038025,-0.8254305720329285,-0.13342446088790894,0.42251476645469666,-0.16105115413665771,0.040686070919036865,-0.04816672205924988
180,-1.7197455684289389,0.5412817271284867,-2.0544775546112413,-0.8475595116615295,-0.5152349472045898,0.12718531489372253,-0.7237434387207031,0.18775267899036407,0.5596476793289185,-0.11174535751342773,0.2894352674484253,0.04963351786136627
181,-1.6932341063031575,0.4549158598713842,-2.1306617181221323,-0.8915733098983765,-0.4393867254257202,0.10971102863550186,-0.24710440635681152,0.21998558938503265,1.0423023700714111,-0.08326500654220581,0.2278236448764801,0.011977791786193848
182,-1.6654044709668145,0.353259427997991,-2.1574795502235373,-0.9340542554855347,-0.34595778584480286,0.08863374590873718,-0.11088115721940994,-0.18405069410800934,0.958259642124176,0.05864232778549194,-0.019978463649749756,0.09569239616394043
183,-1.6717046267592803,0.27683002261385975,-2.1672862267600173,-0.9570333957672119,-0.273307740688324,0.09690173715353012,-0.10498828440904617,-0.12299960106611252,0.6178460717201233,0.048418283462524414,-0.016975432634353638,0.0030434131622314453
184,-1.6884116059421725,0.2344755653555109,-2.1885258589399164,-0.9659165740013123,-0.23233292996883392,0.1141333132982254,-0.05234294384717941,-0.09371085464954376,0.30779126286506653,-0.008006095886230469,0.027575284242630005,-0.04992438852787018
185,-1.667413118874979,0.21243406832805045,-2.178929876007523,-0.9729616641998291,-0.2108398675918579,0.09429803490638733,0.18065814673900604,0.3425375521183014,0.033512845635414124,-0.021331489086151123,-0.07124938070774078,0.01919686049222946
186,-1.643504105483979,0.22625421433007795,-2.1703106184720395,-0.9719386696815491,-0.22432878613471985,0.0707922950387001,-0.001856052316725254,-0.003894470166414976,-0.27415868639945984,-0.09420806169509888,-0.06223125755786896,0.04680716246366501
187,-1.6486832637470032,0.268913171174747,-2.1900836345027623,-0.961137592792511,-0.2656838297843933,0.07501180469989777,-0.5367429256439209,-0.3637720048427582,-0.43484270572662354,-0.10917496681213379,0.1061532199382782,0.0823369026184082
188,-1.6866056084976988,0.3181348655331678,-2.2479470135794966,-0.9434583783149719,-0.3127955496311188,0.10975233465433121,-0.6988683938980103,-0.3545716106891632,-0.6332526206970215,-0.12668639421463013,0.14067640900611877,0.19536246359348297
189,-1.716884395435916,0.39032054735155874,-2.3334410748415304,-0.9149364829063416,-0.3804848790168762,0.13462033867835999,-1.0346548557281494,0.32028868794441223,-0.9546204209327698,0.156147301197052,0.008261919021606445,0.06620050966739655
190,-1.7210672223038879,0.4917160395534738,-2.364121808991455,-0.8715898394584656,-0.47213929891586304,0.13196943700313568,0.05493093281984329,0.6447728276252747,-1.0747082233428955,0.059166014194488525,0.26194944977760315,0.010074630379676819
191,-1.653783968886865,0.5730581391506002,-2.3309848665562822,-0.8373551368713379,-0.5422042012214661,0.0696500912308693,0.17879724502563477,0.2552754282951355,-0.9945382475852966,0.1743760108947754,-0.02148604393005371,0.03671884536743164
192,-1.527506384333258,0.6536241051186885,-2.260638124201447,-0.7931414246559143,-0.608067512512207,-0.03435651212930679,1.6417502164840698,1.1570748090744019,-0.10367534309625626,-0.21105462312698364,-0.1168622374534607,0.1767209768295288
193,-1.8064239809687206,0.633468645012088,-1.8754735066238897,-0.783708393573761,-0.5919439792633057,0.1881585270166397,2.3306775093078613,-1.9908984899520874,-0.6933100819587708,-0.09017777442932129,0.5817511081695557,0.009458065032958984
194,-1.918887848172081,0.6317502619579282,-1.7487777318181386,-0.7585960030555725,-0.5905581116676331,0.27526962757110596,0.11005415767431259,-0.823632001876831,-0.5731796622276306,0.16312170028686523,-0.12443828582763672,-0.47432050108909607
195,-1.9113486291189457,0.7249741263667934,-1.7048185911016218,-0.705529510974884,-0.6631160974502563,0.25001031160354614,0.7600314617156982,-2.005246877670288,-1.382983922958374,0.011178314685821533,-0.5638736486434937,-0.5000103712081909
196,-1.736952963506566,0.8084894160534631,-1.6939212589894053,-0.6810809373855591,-0.7232447862625122,0.11421917378902435,0.03637094795703888,3.7308366298675537,-1.5170350074768066,0.0931597352027893,-0.004095971584320068,-0.08350323140621185
197,-1.7181002778570271,0.8650072009518294,-1.8880917752132031,-0.6416102051734924,-0.7610999345779419,0.0952012836933136,-0.8913077116012573,-3.2357373237609863,0.5528196096420288,-0.14264583587646484,0.0741797685623169,0.3151228427886963
198,-1.834706522655889,0.8506256619052791,-1.861735554600345,-0.6366789937019348,-0.7516931891441345,0.17203883826732635,-0.7873603105545044,0.5015959143638611,-0.04532359912991524,-0.15003365278244019,0.0029442906379699707,-0.01194356381893158
199,-1.7160500967503023,0.9027981324386304,-2.082134498998619,-0.6128929853439331,-0.7850632071495056,0.08965644985437393,-0.8847624659538269,-0.6727599501609802,-1.2163736820220947,0.00392991304397583,0.061689674854278564,0.08067739754915237
200,-1.7108924808085872,0.9638507672037276,-2.095737650742335,-0.5647733807563782,-0.8213939666748047,0.07964432239532471,-0.18084967136383057,-0.7036392688751221,-0.2018592208623886,0.2997128963470459,-0.08064466714859009,-0.01934158056974411
201,-1.846918632318775,0.9718467953957335,-2.095852898865202,-0.5424193143844604,-0.825928270816803,0.15370029211044312,-0.1580285280942917,-1.232300043106079,-0.4008691906929016,-0.22183239459991455,-0.0596156120300293,0.0399794727563858
202,-1.828445863456612,1.0568284662327678,-2.1241013499275296,-0.47540804743766785,-0.8708006143569946,0.12527301907539368,-0.3344247043132782,0.37319040298461914,-0.7635658979415894,-0.05504840612411499,-0.08822941780090332,0.004319891333580017
203,-1.703048735720579,1.1617470001879502,-2.309240804113712,-0.3942640423774719,-0.9174993634223938,0.052448514848947525,-1.6261347532272339,-1.131503939628601,-1.0494089126586914,0.029182255268096924,-0.0386926531791687,-0.024967432022094727
204,-1.5327192053649976,1.200712459535746,-2.6195656093244577,-0.36143141984939575,-0.9322969913482666,-0.013768923468887806,-0.6025105118751526,-0.46664541959762573,-0.29715484380722046,0.12873488664627075,0.08403044939041138,0.07867980003356934
205,-1.6908173588742215,1.2564210578307435,-2.39999139346413,-0.3069981038570404,-0.9509897232055664,0.037024177610874176,0.2622373700141907,-0.016447223722934723,-0.5210641026496887,-0.012215763330459595,-0.1800374984741211,-0.30042147636413574
206,-1.556452633046251,1.3680939562165284,-2.4751312644703205,-0.2012966126203537,-0.9795261025428772,-0.002887534908950329,0.05365069955587387,2.0694570541381836,-1.8837984800338745,-0.07421606779098511,0.03245890140533447,0.1024511456489563
207,1.1548046531464387,1.5345303308534095,1.3588444001251243,0.033169668167829514,-0.9993424415588379,-0.014653477817773819,-0.36075276136398315,2.6426658630371094,-1.787024736404419,-0.08010569214820862,-0.02891695499420166,0.05843096971511841
208,1.34557387693445,1.4336976388963183,1.3363058936010714,0.13321822881698608,-0.9906166791915894,-0.030521560460329056,-0.34383082389831543,1.5649938583374023,-0.5273000001907349,0.05451066792011261,0.07054215669631958,0.03262728080153465
209,1.18315516147356,1.295185237080887,1.5435057815946136,0.2519436180591583,-0.96225905418396,-0.10286863148212433,-1.1212693452835083,-0.7118890285491943,-1.1726891994476318,-0.004171401262283325,-0.12378525733947754,0.03240358829498291
210,1.0813513479314518,1.1789433970527559,1.6505517073383134,0.33706384897232056,-0.9242030382156372,-0.17954562604427338,-0.7941507697105408,-0.18219779431819916,-0.44145169854164124,-0.12371546030044556,-0.03862649202346802,-0.047276243567466736
211,0.9888156817965578,1.1184094312359996,1.7766034701132756,0.365153968334198,-0.8994063138961792,-0.2402724027633667,-0.7530560493469238,0.39446109533309937,0.1035308837890625,-0.014140784740447998,-0.0299302339553833,-0.0431596040725708
212,0.9664791280309284,1.0740762012921596,1.8272482678347872,0.3921439051628113,-0.8791502714157104,-0.2707728147506714,-0.33888599276542664,-0.25201067328453064,0.01405359711498022,-0.14026707410812378,-0.11041265726089478,-0.07616627216339111
213,0.5893782503895402,0.9612965207284365,2.039606812980869,0.3181971609592438,-0.8199344873428345,-0.4758760631084442,-1.9672831296920776,-3.319755792617798,-0.15014302730560303,-0.03873246908187866,0.03496134281158447,0.2695924937725067
214,0.333955066936667,0.8501903304351635,2.171946263653343,0.21628382802009583,-0.7514060139656067,-0.6233862042427063,-1.2942224740982056,-0.993967592716217,0.8474889993667603,0.2565860152244568,-0.2392403483390808,0.0215948224067688
215,0.15987157003519922,0.768862338105914,2.361966108150298,0.11441121995449066,-0.6953180432319641,-0.709537148475647,-0.17353491485118866,0.5779989957809448,0.8927279114723206,0.36257851123809814,0.05489140748977661,0.16366922855377197
216,0.2114316528727884,0.779235974650658,2.4111285178181183,0.14930494129657745,-0.7027360796928406,-0.6956076622009277,0.37470743060112,0.7268306612968445,-0.72797691822052,0.46829456090927124,0.6032487750053406,-0.10326623916625977
217,0.4432418941241527,0.7151004529580947,2.1893984429416653,0.32380881905555725,-0.6556932926177979,-0.6820660829544067,-0.7935073971748352,0.4399583339691162,-2.263272285461426,0.054853230714797974,0.5558245182037354,-0.1541460156440735
218,0.5537250806587757,0.5023972968664411,2.0492416663865196,0.46087926626205444,-0.48152798414230347,-0.7454670667648315,-2.4508423805236816,-0.30164048075675964,-0.9535660743713379,-0.34907811880111694,0.06400173902511597,-0.6831523180007935
219,0.5500283792059318,0.2826209556116799,2.2216907662550263,0.50197434425354,-0.27887359261512756,-0.8186887502670288,-2.5031700134277344,0.6128686666488647,0.8796577453613281,-0.10555100440979004,-0.24555575847625732,-0.1450258493423462
220,0.5555088548462168,0.1921998169382182,2.4489157562171573,0.5176648497581482,-0.19101867079734802,-0.8339874148368835,-1.193572759628296,0.2608051896095276,1.301888108253479,-0.0914868712425232,-0.2826904058456421,0.14673155546188354
221,0.45590002918898753,0.21779515242776754,2.5814822018273667,0.42986974120140076,-0.21607738733291626,-0.8766541481018066,0.22850339114665985,-1.0924019813537598,0.9628372192382812,-0.08004680275917053,-0.15494006872177124,0.10794693231582642
222,0.3569659106355636,0.2321741746263231,2.6399501532495457,0.3400571942329407,-0.23009389638900757,-0.911821186542511,-0.3790762424468994,0.21912692487239838,0.5468010306358337,-0.11880475282669067,-0.11162666976451874,0.134660542011261
223,0.32727879956726386,0.15556588912701963,2.7650884328986463,0.31758543848991394,-0.1549391746520996,-0.9354856014251709,-1.7152469158172607,-0.6493944525718689,1.3431471586227417,0.14452701807022095,-0.2428727149963379,-0.0786898136138916
224,0.2282598987615868,0.039876275074585125,2.965448232269012,0.2261030226945877,-0.039865706115961075,-0.9732872843742371,-0.6299954652786255,-0.26613593101501465,2.2113285064697266,0.10231189429759979,-0.18959596753120422,-0.30115729570388794
225,0.19194950431255822,0.13968548568452005,3.122892011260006,0.18891479074954987,-0.13923166692256927,-0.9720728993415833,0.2741299867630005,0.7061406373977661,1.6308977603912354,-0.21474793553352356,0.027369484305381775,0.20592910051345825
226,0.20983339493695932,0.11685216719211187,-3.0912018679784348,0.2068764865398407,-0.11658642441034317,-0.97139573097229,-0.5114111304283142,-0.46463727951049805,0.04886101186275482,-0.06434415280818939,0.06154797971248627,-0.044397056102752686
227,0.1602084698116831,0.14957302051515273,-3.103325181111049,0.15774288773536682,-0.14901593327522278,-0.9761718511581421,0.598837673664093,-0.2573751211166382,-0.2992989122867584,-0.0004095137119293213,0.08987286686897278,0.06477963924407959
228,0.13408553378103427,0.17491355334970468,-3.1247970193494443,0.13164430856704712,-0.17402301728725433,-0.9759025573730469,0.2719987630844116,-0.15530508756637573,-0.24866557121276855,0.055275872349739075,0.029476508498191833,0.07618331909179688
229,0.14776936855736966,0.255986098404391,3.1077164539374813,0.1424344778060913,-0.2531994879245758,-0.9568711519241333,1.1001818180084229,0.11101455986499786,-0.3792048394680023,0.0637117326259613,0.017344415187835693,0.058021724224090576
230,0.15885340987267896,0.27000033336258217,3.0713618764219843,0.1524551957845688,-0.26673176884651184,-0.9516362547874451,0.2046837955713272,-0.128492534160614,-0.22595441341400146,0.03683008253574371,0.12441301345825195,-0.04064279794692993
231,0.1646873120198632,0.28070191259082555,3.067206725146885,0.15752731263637543,-0.27703016996383667,-0.9478604197502136,-0.20714308321475983,-0.2877047061920166,-0.1714264452457428,-0.031352415680885315,-0.04076460003852844,0.0465848445892334
232,0.14773108776547753,0.27565084139532997,3.0521227917825726,0.14163747429847717,-0.2721732556819916,-0.9517670273780823,-0.22292286157608032,-0.41970255970954895,-0.08732584863901138,-0.04713979363441467,0.019457191228866577,0.03582775592803955
233,0.12548530128717952,0.2540288028247535,3.040789492391681,0.12113969773054123,-0.251305490732193,-0.9602972269058228,-0.2782546877861023,0.161592036485672,0.08111660927534103,-0.02966325730085373,-0.014288991689682007,0.060669541358947754
234,0.13079521715531167,0.21412752876438979,3.0495679318869158,0.1274440437555313,-0.21249496936798096,-0.9688157439231873,-0.56451416015625,0.003931240178644657,-0.060515739023685455,-0.01719929277896881,-0.13336074352264404,0.016392648220062256
235,0.12738927392171737,0.1797146728919483,3.0359921899606364,0.12499891221523285,-0.17874884605407715,-0.975922167301178,0.35243120789527893,-0.21327604353427887,-0.1433011293411255,0.001603245735168457,-0.07434867322444916,-0.10606324672698975
236,0.11972578027475408,0.23690765394076266,3.0129363142421703,0.11610380560159683,-0.23469778895378113,-0.9651097655296326,0.3989343047142029,-0.17575296759605408,-0.12910570204257965,-0.025939621031284332,-0.030561000108718872,0.19109243154525757
237,0.128034906196271,0.26496236661500583,3.0180583016053184,0.12322945892810822,-0.26187294721603394,-0.9572027325630188,0.11204132437705994,0.019619526341557503,0.02543722279369831,-0.12376351654529572,-0.023268043994903564,0.1153448224067688
238,0.19419862959237374,0.24436465291657233,3.061764914373029,0.18724708259105682,-0.24193990230560303,-0.9520522952079773,0.16838453710079193,-0.10946505516767502,-0.09161733090877533,-0.07903175055980682,0.05753743648529053,-0.2462356686592102
239,0.16961493013186174,0.26721299807105126,3.056623807351558,0.16281209886074066,-0.2640443742275238,-0.9506696462631226,0.7802354097366333,-0.5222053527832031,0.031537268310785294,-0.16560445725917816,0.027227967977523804,-0.04005300998687744
240,0.1446727801933565,0.31629875999201085,3.0497775289156217,0.1370168924331665,-0.31105107069015503,-0.9404645562171936,0.09870845079421997,0.2660159170627594,0.5132578015327454,-0.1015097051858902,-0.13560417294502258,0.09615004062652588
241,0.10204815008639921,0.34696206078148284,3.1075173645534577,0.09580063074827194,-0.34004247188568115,-0.9355176687240601,-0.11686068773269653,-0.1136091947555542,0.5280394554138184,-0.19122910499572754,-0.05956992506980896,0.005814969539642334
242,0.0774928382069208,0.3296656286547003,-3.1184125454100022,0.0732465386390686,-0.32372668385505676,-0.9433111548423767,-0.35415247082710266,-0.39127665758132935,0.3580053150653839,-0.039677202701568604,0.011104613542556763,-0.2210107445716858
243,0.1237651712101319,0.3073363415753115,3.1110009774731036,0.11766494065523148,-0.30252087116241455,-0.9458520412445068,0.34884217381477356,0.4170979857444763,-1.0092467069625854,-0.005955345928668976,0.05903637409210205,-0.14145874977111816
244,0.1349797865634332,0.2964761004163961,3.03474111292333,0.12869924306869507,-0.29215186834335327,-0.9476728439331055,0.03804716467857361,-0.15047284960746765,-0.41656890511512756,0.04100900888442993,-0.00020653009414672852,0.08112621307373047
245,0.12938019960469233,0.2867856552512358,3.013685122417512,0.12375014275312424,-0.2828706204891205,-0.9511414766311646,-0.3730069100856781,-0.1305195391178131,-0.43404504656791687,0.17788559198379517,0.12015092372894287,0.04368603229522705
246,0.12841023099194737,0.2768957215070931,2.972345072528694,0.12317974120378494,-0.2733709514141083,-0.9539890289306641,-0.21083085238933563,-0.03126945346593857,-0.20548634231090546,0.13699786365032196,-0.046956807374954224,0.06575965881347656
247,0.155618259690936,0.30651992862017896,2.9279169029544034,0.14776670932769775,-0.3017426133155823,-0.9418686032295227,0.7225289940834045,0.2206769734621048,-0.100356325507164,0.21536195278167725,-0.06747430562973022,0.025502026081085205
248,0.17232233409251047,0.3480199502171722,2.931035079982635,0.16119104623794556,-0.3410371243953705,-0.9261269569396973,-0.41666924953460693,0.35368621349334717,-0.21116872131824493,-0.05724817514419556,0.05929887294769287,0.026651859283447266
249,0.1852194508663625,0.3434209339926589,2.944426386610377,0.17340868711471558,-0.33671024441719055,-0.9255028963088989,-0.19809794425964355,0.25190335512161255,0.5533719062805176,-0.11103077232837677,-0.046025991439819336,0.06533443927764893
250,0.1621509913065874,0.28081680699757483,3.01957327530052,0.15511760115623474,-0.2771405577659607,-0.9482255578041077,-0.5947762727737427,-0.34116873145103455,0.8637524247169495,-0.06789836287498474,0.033381372690200806,-0.17146438360214233
251,0.06353600630205174,0.2387446836190583,3.1198377241587423,0.06169231981039047,-0.23648309707641602,-0.9696751236915588,-0.20948459208011627,-0.8100804090499878,0.6343727111816406,-0.19900617003440857,0.15703058242797852,0.03823286294937134
252,0.02103194129368941,0.24894524217702932,-3.1216709653288963,0.02038208395242691,-0.24638184905052185,-0.9689584970474243,-0.29705893993377686,0.37323683500289917,0.17674443125724792,-0.11364380270242691,0.06866274774074554,0.18383276462554932
253,0.06772997961513788,0.2208198598574853,-3.0790050288768134,0.06603486090898514,-0.21902965009212494,-0.9734810590744019,-0.7586240768432617,0.40131983160972595,0.8217340707778931,0.005315236747264862,-0.07161976397037506,-0.060927510261535645
254,0.05759894999580208,0.1711018714895898,-3.013378947381733,0.056726496666669846,-0.1702682375907898,-0.9837636351585388,-0.03383178263902664,0.02243896946310997,0.4027588665485382,0.025564156472682953,0.0938369631767273,-0.06272989511489868
255,0.06088284811164205,0.17783861788530012,-2.9990804304616114,0.05988561362028122,-0.17690269649028778,-0.9824047684669495,-0.40003466606140137,0.4235847294330597,0.10884115099906921,0.12733972072601318,-0.05649574100971222,0.06413090229034424
256,0.10211081729228563,0.18440315753686515,-3.012828073083077,0.10020527243614197,-0.18335984647274017,-0.9779254198074341,0.4851014018058777,-0.04711967334151268,-0.29463672637939453,0.11773601919412613,-0.017155900597572327,-0.08809936046600342
257,0.09536889158308118,0.20180842482919953,-3.045742706669911,0.09329187870025635,-0.200441375374794,-0.9752537608146667,0.21603745222091675,0.08659573644399643,-0.25785112380981445,0.03501927852630615,-0.1050548404455185,0.04626816511154175
258,0.1037306795837918,0.19173281836253686,-3.025410420756935,0.10164734721183777,-0.1905602514743805,-0.976398766040802,0.45459815859794617,-0.4742797613143921,0.21971100568771362,-0.014351829886436462,0.12271969020366669,-0.16006052494049072
259,0.08832447750984,0.22936197785379464,-3.0543824196415685,0.08589961379766464,-0.22735625505447388,-0.9700156450271606,-0.15149244666099548,-0.08334176242351532,-0.3342228829860687,-0.05239131301641464,0.021148979663848877,0.038222432136535645
260,0.07429246401295139,0.20622816761355256,-3.112737728828082,0.07265134900808334,-0.20476946234703064,-0.9761102795600891,0.29858097434043884,-0.19337661564350128,-0.55348140001297,-0.08081480115652084,0.00434526801109314,0.004705250263214111
261,0.0597677477474405,0.22006201407306522,-3.1401920889661823,0.05829166620969772,-0.21829013526439667,-0.9741414189338684,-0.02551664598286152,-0.08837064355611801,-0.18978941440582275,-0.031115759164094925,0.02084141969680786,0.06076556444168091
262,0.059067446864435436,0.19480375166784913,3.1349095085756793,0.05791653320193291,-0.193573996424675,-0.9793747067451477,0.0208599716424942,-0.19271798431873322,-0.0639498308300972,0.021658051759004593,-0.05648703873157501,-0.0824386477470398
263,0.04418594734929968,0.17593674172203802,3.126207016743201,0.043489694595336914,-0.17503049969673157,-0.9836020469665527,-0.32813361287117004,-0.3689609467983246,-0.043221522122621536,-0.005312204360961914,-0.03203126788139343,-0.021036624908447266
264,0.02419891792970534,0.15538445448169325,3.0765317213550443,0.023905038833618164,-0.15475992858409882,-0.9876628518104553,-0.04095084220170975,-0.15876628458499908,-0.12166289240121841,-0.012766122817993164,-0.023233845829963684,-0.04262584447860718
265,0.02435300007030388,0.1605974573535863,3.0269693697029285,0.024037247523665428,-0.1599080115556717,-0.986839234828949,0.08424610644578934,-0.06995129585266113,-0.14459818601608276,-0.03915870934724808,-0.012638375163078308,0.010139405727386475
266,0.020313247820932277,0.1638038551554946,3.0095378562125594,0.020039958879351616,-0.16307231783866882,-0.9864105582237244,-0.04963061586022377,0.11938489973545074,-0.0361996591091156,-0.017857953906059265,-0.023725762963294983,0.01215219497680664
267,0.030145893787348155,0.16471778822815134,2.9996191391455214,0.029733356088399887,-0.16397394239902496,-0.9860164523124695,-0.13569161295890808,0.0649971291422844,-0.029713373631238937,0.006124798208475113,-0.006771907210350037,0.025658786296844482
268,0.04502908183622021,0.16818035279362462,2.984819426499931,0.04437876492738724,-0.1673886477947235,-0.9848916530609131,0.021466877311468124,0.31513914465904236,-0.20841604471206665,-0.04204417020082474,0.0004422515630722046,0.058332204818725586
269,0.06797357477180468,0.16282331461491334,2.9728436660121265,0.0670228824019432,-0.16210481524467468,-0.9844948053359985,0.04429744929075241,0.04040799289941788,-0.22010180354118347,-0.023413263261318207,-0.022114530205726624,-0.050615668296813965
270,0.07836739257175757,0.17584394644197232,2.9642459147305815,0.07707995176315308,-0.1749391257762909,-0.9815574288368225,-0.018907124176621437,-0.13551296293735504,0.03105757012963295,-0.010643184185028076,-0.026568427681922913,-0.04102557897567749
271,0.04042259642575625,0.17048010904328567,2.967356900857789,0.03982575982809067,-0.16965551674365997,-0.9846984148025513,0.16531150043010712,0.08918460458517075,0.05565721169114113,-0.05725129693746567,0.03205175697803497,0.13963615894317627
272,0.0721980917452936,0.18051069490776828,2.9542656792657125,0.07096333801746368,-0.179531991481781,-0.9811893105506897,-0.3060797452926636,-0.041377417743206024,-0.18897290527820587,0.05605081468820572,0.0461091548204422,-0.030804038047790527
273,0.06715595303451187,0.1590510980997871,2.946521120446065,0.06625848263502121,-0.1583813577890396,-0.9851523637771606,0.010960853658616543,0.23633094131946564,-0.04204171150922775,-0.01916985958814621,-0.03601562976837158,0.012511372566223145
274,0.10298960075107393,0.17380702250916277,2.93233837467532,0.10125868767499924,-0.17293325066566467,-0.9797146320343018,0.1521705538034439,0.20085835456848145,-0.04929114133119583,0.06548935920000076,0.0005547106266021729,-0.06111788749694824
275,0.12582575212590955,0.20406895871962064,2.9178303541944235,0.12289001047611237,-0.20265552401542664,-0.9715085029602051,0.5072627067565918,0.6193573474884033,-0.3359728753566742,-0.08993102610111237,0.029056280851364136,0.06670808792114258
276,0.20340992674810868,0.24591990603998856,2.896707612307893,0.19593240320682526,-0.2434486597776413,-0.9499174952507019,0.17128556966781616,0.019351908937096596,-0.3945065140724182,-0.034189239144325256,0.0612281858921051,-0.1237214207649231
277,0.24998990244838884,0.31181586578167136,2.8648497374789605,0.23546434938907623,-0.3067874312400818,-0.9221919178962708,0.9023240804672241,0.4585516154766083,0.14019721746444702,0.06269238889217377,-0.010366469621658325,0.14683187007904053
278,0.3214466942266125,0.39749539383560756,2.8598805517946904,0.2913067638874054,-0.38711023330688477,-0.87480628490448,1.000694990158081,0.7935410141944885,0.7143282890319824,0.2304522693157196,-0.06616735458374023,0.12517249584197998
279,0.4748246852273827,0.49576161880373587,2.797768961142316,0.4021407961845398,-0.4757017195224762,-0.7822983264923096,0.17021693289279938,1.044458031654358,0.1235361248254776,0.06610563397407532,0.049950987100601196,0.04931187629699707
280,0.4944770120060643,0.4235457171657299,2.7862395916698017,0.4326370060443878,-0.4109954237937927,-0.8024387359619141,-0.9903004169464111,-0.09001346677541733,-0.6394175887107849,0.1368209719657898,0.267913818359375,-0.19185441732406616
281,0.6776262301568078,0.3889124667920681,2.570905353964522,0.5801264643669128,-0.3791823089122772,-0.7208842635154724,1.1244572401046753,2.268772840499878,-2.203972578048706,0.08208972215652466,0.1873793601989746,0.2561778426170349
282,0.9149932309289799,0.24964128640365008,2.3595163350120325,0.7679900527000427,-0.24705637991428375,-0.5908929705619812,-0.9055858254432678,0.1572551727294922,-2.372454881668091,0.1240081787109375,-0.09214650094509125,-0.4170873761177063
283,0.8717990166230878,0.05843058148526126,2.253318455064372,0.7641814351081848,-0.058397337794303894,-0.6423524022102356,0.24590618908405304,-1.8826881647109985,-1.8234939575195312,0.31379109621047974,-0.1771678328514099,-0.5687377452850342
284,0.6027384053572881,-0.009199144206076919,2.1438457337169083,0.5668764710426331,0.009199014864861965,-0.8237514495849609,0.9978566765785217,-1.8910071849822998,-0.7696909308433533,0.13141149282455444,-0.26940715312957764,-0.0070743560791015625
285,0.5636473447738313,0.0673670743963799,2.026370422601559,0.5330610275268555,-0.06731612980365753,-0.8433946371078491,1.3420803546905518,0.46333062648773193,-0.42451339960098267,-0.06722545623779297,-0.09262651205062866,0.2640336751937866
286,0.6067187716840925,0.12006375754177966,1.8797908920582813,0.5660702586174011,-0.11977550387382507,-0.8156091570854187,0.6796025633811951,-0.19842851161956787,-1.2538050413131714,0.05332976579666138,0.016610831022262573,0.16662240028381348
287,0.6484974466026404,0.08758710166292269,1.787085292602317,0.6016743183135986,-0.08747515827417374,-0.7939371466636658,0.5106501579284668,0.9043425917625427,-0.6471001505851746,0.10766100883483887,-0.520236611366272,-0.010460495948791504
288,0.8012289159713559,0.10870483890679569,1.7105495547407403,0.7139724493026733,-0.10849087685346603,-0.6917175054550171,0.8801936507225037,2.0922694206237793,-0.9412516355514526,-0.12539517879486084,-0.005492269992828369,0.2432159185409546
289,0.993201626590468,0.05084928112898808,1.6365130685550027,0.8366955518722534,-0.05082736909389496,-0.5453046560287476,-0.41221383213996887,-0.0735926628112793,-1.0251202583312988,-0.07242858409881592,0.39425691962242126,-0.28260672092437744
290,1.0861994618474329,-0.06109077254906588,1.619405327902282,0.8832120895385742,0.06105278059840202,-0.4649825990200043,-0.5172030329704285,1.0158116817474365,-0.5908054113388062,0.164303719997406,-0.005663368850946426,-0.08398279547691345
291,1.0973923651021982,-0.03109962353114788,1.6410277239868551,0.8895911574363708,0.031094610691070557,-0.45569807291030884,0.21568770706653595,-1.2748206853866577,0.9281840324401855,0.014675140380859375,0.21103185415267944,-0.25272172689437866
292,0.9733843898420161,0.030141872306522294,1.6061286432042572,0.8264185786247253,-0.030137307941913605,-0.5622490644454956,0.44102799892425537,-0.7352054119110107,-0.9274796843528748,-0.5285670757293701,0.385331392288208,0.3270195722579956
293,0.9975598084086451,-0.258172500028285,1.4522699268974464,0.8123059272766113,0.25531405210494995,-0.5243794322013855,0.051756758242845535,0.6730931401252747,-3.7499473094940186,0.37913084030151367,0.08788666129112244,-0.3888285756111145
294,0.9405861267201158,-0.3017752719752499,1.343561369563189,0.7713947892189026,0.2972157299518585,-0.5626837015151978,0.6898366212844849,-0.7638439536094666,1.154759407043457,0.3901805281639099,-0.23953750729560852,0.024536728858947754
295,0.9042937271272077,-0.09698250737021802,1.4312123998330013,0.782295286655426,0.09683054685592651,-0.6153357028961182,0.18950635194778442,-0.672208845615387,2.5306448936462402,-0.08710485696792603,0.1257341504096985,0.18233704566955566
296,0.9993366326932491,-0.0007828795929643697,1.611271501290138,0.8411120772361755,0.0007828795351088047,-0.5408601760864258,-1.1938207149505615,1.71708083152771,0.5266706943511963,-0.3360004425048828,0.18300923705101013,-0.22459691762924194
297,1.0928416571612942,-0.14599038080601862,1.6554023024416158,0.8784919381141663,0.14547234773635864,-0.4550710618495941,-1.5120211839675903,1.7970186471939087,-2.61942720413208,0.07499921321868896,-0.05805474519729614,0.313210129737854
298,1.1520735743611474,-0.2857428315598194,1.613454360194167,0.8765644431114197,0.2818702459335327,-0.39010751247406006,0.37634673714637756,-0.7924626469612122,-1.2841545343399048,-0.10207414627075195,0.22682726383209229,-0.007521271705627441
299,1.147235016697366,-0.4441033298085336,1.5018672258713288,0.823199450969696,0.42964836955070496,-0.3711402416229248,0.04522867500782013,-0.062070123851299286,-0.7153438329696655,0.47134101390838623,-0.2640904188156128,-0.09397819638252258
300,0.9615705533504812,-0.47148726580948197,1.5499522104848602,0.730614185333252,0.4542117714881897,-0.509798526763916,-0.6966885328292847,-2.9620981216430664,0.9441388249397278,0.35121864080429077,-0.24632605910301208,0.1467767357826233
301,0.8893156583595829,-0.28433625427998904,1.7653806568798578,0.7454572319984436,0.28052040934562683,-0.6046501994132996,-0.3784293532371521,-1.1035666465759277,3.2204437255859375,0.030040204524993896,-0.013827323913574219,-0.10892707109451294
302,0.9456638446638376,-0.11621476167938236,2.070625362591235,0.8054159283638,0.11595334112644196,-0.5812572836875916,-1.2100223302841187,1.0299229621887207,3.3654561042785645,0.01591891050338745,0.12483033537864685,-0.18853330612182617
303,0.9274415472388691,0.04248783150341392,2.341013456879168,0.799365758895874,-0.04247504845261574,-0.5993415713310242,-1.5639265775680542,-0.2943723797798157,1.9422967433929443,-0.07612967491149902,0.3212073743343353,0.16254347562789917
304,0.9322265204585105,-0.011215319094525706,2.4423848345462704,0.8028985857963562,0.011215084232389927,-0.5960102081298828,-2.08612322807312,2.6268672943115234,-0.949245035648346,-0.2710687518119812,0.09193432331085205,0.3656940460205078
305,1.0219998765750915,-0.0645755428109425,2.5040195402303174,0.8513747453689575,0.06453067064285278,-0.5205734968185425,0.19489909708499908,-0.31677383184432983,0.4388047158718109,0.00017249584197998047,0.013518020510673523,0.09740149974822998
306,1.0940407709179438,0.010550425731542514,2.4368048770540383,0.8884390592575073,-0.01055022981017828,-0.4588734209537506,2.5382189750671387,1.291514277458191,0.704246461391449,-0.018855929374694824,-0.0024197399616241455,0.18990671634674072
307,1.2961289002670087,0.14949529348019233,2.2925238397088954,0.9517799019813538,-0.1489390730857849,-0.26820167899131775,1.8374402523040771,2.0355327129364014,0.7394745349884033,0.18110883235931396,0.0888652354478836,-0.14998069405555725
308,1.4502434756886273,0.2750646121573294,2.1434993153932744,0.9554228186607361,-0.2716091275215149,-0.11574017256498337,0.2924962341785431,1.0083216428756714,1.1961029767990112,-0.005486905574798584,-0.04948157072067261,0.22632062435150146
309,1.572126491746225,0.3555057462297391,2.1358248197211713,0.9374697208404541,-0.3480645418167114,0.0012469901703298092,0.13761939108371735,1.1161489486694336,0.6005701422691345,-0.06651335954666138,0.037502408027648926,0.05023622512817383
310,1.6221472704329853,0.3830371339086791,2.1105042043228086,0.9263112545013428,-0.37373924255371094,0.047608811408281326,-0.11060579121112823,0.10876869410276413,0.11179342865943909,0.07475697994232178,0.02869221568107605,0.2057175636291504
311,1.613364653338038,0.39234548877265435,2.1504028248987117,0.9231778383255005,-0.382356733083725,0.039321888238191605,-0.18447288870811462,-0.07606203109025955,0.03750676289200783,0.030893325805664062,0.1340962052345276,-0.0396881066262722
312,1.58460670862038,0.39695283299059714,2.188087145979507,0.9221553802490234,-0.38660991191864014,0.012736127711832523,-0.8073114156723022,-0.014896627515554428,0.018954498693346977,-0.05205351114273071,0.06150615215301514,0.009053467772901058
313,1.5742491284401516,0.4056335309689833,2.2210258671318535,0.9188471436500549,-0.3946009576320648,0.0031726094894111156,-0.7631763815879822,0.26884758472442627,0.14895476400852203,-0.05130869150161743,-0.0029819905757904053,-0.08198428153991699
314,1.5655579255572745,0.4179804857970136,2.241690578889874,0.9138981103897095,-0.40591561794281006,-0.004787408746778965,-0.8412707448005676,0.2601599395275116,0.1711450219154358,0.019527792930603027,-0.046263307332992554,0.037334442138671875
315,1.5524247795800405,0.4327829053251932,2.2655650675624197,0.9076488614082336,-0.4193987548351288,-0.01667678914964199,-0.3992268741130829,0.038816291838884354,0.041140493005514145,-0.05245482921600342,-0.03599974513053894,-0.15512192249298096
316,1.551234518407182,0.4390065876489668,2.2406460330031925,0.9050012826919556,-0.42504045367240906,-0.01770571991801262,-0.1987946480512619,0.36485719680786133,0.25976547598838806,0.0020880699157714844,-0.15853199362754822,0.049093008041381836
317,1.5629858987436407,0.4596131230604809,2.195453857952086,0.8961967825889587,-0.4436013996601105,-0.006999822799116373,0.16269701719284058,0.015225760638713837,0.23677250742912292,0.05688232183456421,-0.09398096799850464,-0.061451077461242676
318,1.580192714543626,0.4755323930434528,2.134807708065481,0.8890097737312317,-0.4578118324279785,0.00835372693836689,0.2720382511615753,0.2353057563304901,0.3462929129600525,-0.030367255210876465,-0.0465826690196991,-0.0057139405980706215
319,1.6093616813952374,0.4940242453400728,2.056055129183851,0.879777193069458,-0.47417280077934265,0.03394575044512749,0.42527881264686584,-0.02718406170606613,-0.002844850765541196,0.027861356735229492,-0.07268697023391724,-0.04326891899108887
320,1.6253825395515529,0.5099305781408109,1.986183631548875,0.8714783787727356,-0.48811665177345276,0.04761800542473793,0.4192059636116028,0.039858344942331314,0.21290330588817596,-0.04227006435394287,-0.03605318069458008,-0.06530285626649857
321,1.6353172695426546,0.5458630994385821,1.9172481215140775,0.852901041507721,-0.5191559791564941,0.05510646849870682,0.3537624180316925,-0.33560726046562195,0.3918827474117279,-0.05608713626861572,-0.008752286434173584,-0.12039888650178909
322,1.6313245932773093,0.5694750484393373,1.8157291449091002,0.8406418561935425,-0.5391899943351746,0.050944823771715164,0.61346036195755,-0.24389539659023285,0.11666431277990341,0.03507530689239502,0.015386343002319336,0.05531740188598633
323,1.6377600023587895,0.5776418730929798,1.749364272086667,0.8358748555183411,-0.546049952507019,0.05605706945061684,0.21330073475837708,-0.20387552678585052,0.10174417495727539,0.0027327537536621094,-0.013932228088378906,-0.02949155494570732
324,1.6370448333041592,0.5867707731999575,1.6837627655860332,0.8309062123298645,-0.5536748170852661,0.055126968771219254,0.3874024748802185,-0.16846351325511932,0.059593141078948975,0.0026050806045532227,-0.03252202272415161,-0.04960322752594948
325,1.637738209235749,0.5851884487247738,1.6257238751160166,0.8317409753799438,-0.552356481552124,0.05576162412762642,0.29634755849838257,-0.18073490262031555,-0.09800568222999573,-0.021865487098693848,0.04587149620056152,0.005517721176147461
326,1.6495479571708582,0.5600738795210457,1.5478942337847759,0.8445901870727539,-0.5312488079071045,0.06665069609880447,0.2774783968925476,-0.1216680034995079,-0.15438267588615417,-0.029084086418151855,0.004698455333709717,0.032455213367938995
327,1.648620812788912,0.54917485927434,1.5092193118436001,0.8503735661506653,-0.5219836235046387,0.06631381809711456,0.22899273037910461,-0.033901557326316833,-0.17212475836277008,0.026213109493255615,0.03390079736709595,0.013718470931053162
328,1.6698553556300106,0.5146757689052801,1.4543098936362382,0.866185188293457,-0.4922526478767395,0.08608522266149521,0.3972215950489044,0.057244766503572464,-0.47318342328071594,-0.008656501770019531,0.0873454213142395,-0.00031554698944091797
329,1.699548208627885,0.4444291787377216,1.3998719325803315,0.8953831195831299,-0.4299425780773163,0.11592352390289307,0.22213080525398254,0.07388585805892944,-1.0400285720825195,-0.008206725120544434,0.00954774022102356,0.06142936646938324
330,1.703241893014068,0.363752470201109,1.3510310944883128,0.9263831377029419,-0.3557836711406708,0.12341784685850143,0.47386547923088074,0.3136903643608093,-0.8763958811759949,0.02813023328781128,0.14373230934143066,0.11088082939386368
331,1.7036367530961956,0.25615350469539866,1.293169860779954,0.9588486552238464,-0.25336143374443054,0.12812842428684235,0.9992730617523193,-0.7805098295211792,-0.9905118942260742,0.04736149311065674,0.16786649823188782,-0.04806557297706604
332,1.6372339156810312,0.16855482899985622,1.2238046184667057,0.9836532473564148,-0.16775783896446228,0.06544787436723709,0.34897568821907043,-0.42250722646713257,-1.1327526569366455,0.012501418590545654,0.15838895738124847,0.039471618831157684
333,1.4946462816931014,-0.027880705681241423,1.061307596805801,0.9967144131660461,0.027877094224095345,-0.0760468989610672,2.605694055557251,-0.7296544313430786,-2.380017042160034,0.2538043260574341,0.6222083568572998,0.286343514919281
334,1.5147916088752826,-0.21604218799696284,0.764669730665351,0.9752220511436462,0.21436551213264465,-0.054674211889505386,0.8062640428543091,-0.7309964895248413,-2.0374062061309814,0.22773504257202148,-0.08582548797130585,0.2183399796485901
335,1.3608600967603544,-0.6422017263883898,0.788399231458582,0.7831971049308777,0.5989599823951721,-0.16688032448291779,-1.1338461637496948,-0.05823935195803642,-4.480752468109131,0.21751999855041504,-0.1062995195388794,0.03525806963443756
336,1.4660282738047803,-0.7275646371807959,1.170406909205,0.7427014708518982,0.6650528907775879,-0.07809733599424362,-4.27302360534668,-1.6027311086654663,4.207198143005371,0.8276415467262268,-0.8038620948791504,0.15883159637451172
337,1.527952714097179,-0.06127856789871942,1.793269768108479,0.9972070455551147,0.06124022603034973,-0.04275011271238327,-6.065226078033447,-3.6771657466888428,7.989058971405029,0.464417040348053,0.20378965139389038,-0.25267529487609863
338,0.880246676815053,0.4101033487445166,2.414749321442717,0.7069730162620544,-0.3987041115760803,-0.5841439366340637,-1.7380845546722412,-3.9916253089904785,4.269162178039551,-0.05992412567138672,0.6723399758338928,0.4323647618293762
339,0.613419048576395,0.4610885352920782,2.5872723159076254,0.5155488848686218,-0.4449232220649719,-0.7322927117347717,0.0888335257768631,-0.8404054641723633,0.6392871737480164,0.1869046688079834,-0.1504288911819458,0.1949087381362915
340,0.5382848180601992,0.45165776803191515,2.64131151133446,0.46125659346580505,-0.43645766377449036,-0.7724940180778503,-0.5387775301933289,-0.23475413024425507,-0.07688349485397339,-0.01727163791656494,0.025889456272125244,0.13572949171066284
341,0.555861445490821,0.41569245871122573,2.6447707276766788,0.4827367663383484,-0.40382352471351624,-0.7771047353744507,0.04905939847230911,0.25507134199142456,-0.6204782128334045,-0.044428080320358276,0.09626737236976624,-0.060007691383361816
342,0.573050890251548,0.4045887981173557,2.6216771180542,0.49842333793640137,-0.39364078640937805,-0.7724124789237976,-0.2249649614095688,-0.4148998260498047,-0.16214871406555176,-0.037318021059036255,0.02309638261795044,-0.04667925834655762
343,0.5609347802897205,0.4015015460395937,2.5947008764814274,0.48967254161834717,-0.39080092310905457,-0.7794199585914612,0.5991367697715759,-0.034667640924453735,-0.3858402967453003,-0.014239192008972168,0.053978413343429565,-0.02029317617416382
344,0.590269030072565,0.40181451836625404,2.5643549222082727,0.5122541785240173,-0.39108899235725403,-0.7646209001541138,0.3756553828716278,0.6994876861572266,-0.2678249776363373,-0.01622152328491211,0.01927807927131653,0.08661186695098877
345,0.7029088361843046,0.4034791748466139,2.5954883400129782,0.5945310592651367,-0.3926205039024353,-0.701699435710907,-0.6944872736930847,1.6630948781967163,0.5627535581588745,-0.02849102020263672,0.1098446249961853,0.06255453824996948
346,0.8811910821173728,0.3886919128707554,2.4989052693343905,0.7139478325843811,-0.3789782226085663,-0.5887733101844788,1.1728888750076294,3.597843647003174,-1.2741265296936035,-0.2898145914077759,0.22446772456169128,0.460263729095459
347,1.1622975315850717,0.3266343805092217,2.3502758535991304,0.8691961765289307,-0.3208571672439575,-0.376229465007782,1.2742494344711304,0.14788751304149628,-2.4085748195648193,-0.00872260332107544,0.2649032175540924,-0.32208898663520813
348,1.2423944165501244,0.13680740688734433,2.135477924338786,0.9377147555351257,-0.13638104498386383,-0.3195171654224396,0.9974591135978699,0.5575895309448242,-2.2931602001190186,0.214979887008667,-0.11705216765403748,0.05241209268569946
349,1.3402838780791173,-0.09925012915624476,1.885847947891519,0.9687583446502686,0.09908726066350937,-0.2273520529270172,1.0562667846679688,1.2229773998260498,-3.7919490337371826,0.060569047927856445,0.17303797602653503,0.5052756667137146
350,1.3246883997076393,-0.5502378300307235,1.6789971957553644,0.8267156481742859,0.5228899717330933,-0.207671120762825,1.3632020950317383,0.10891716182231903,-6.237284183502197,0.010351002216339111,0.46296507120132446,-0.2488107532262802
351,0.9775182956473105,-0.8947401378194156,1.1859974702457952,0.518793523311615,0.7800465226173401,-0.3498295843601227,1.6921195983886719,-0.6475468277931213,-2.1236507892608643,0.9451041221618652,-0.3356037735939026,-0.048241645097732544
352,0.7811517160380478,-0.8941566491428355,0.9625930542088779,0.44088950753211975,0.7796812653541565,-0.44464990496635437,0.7438621520996094,0.8761807680130005,-0.7963182926177979,-0.09315696358680725,0.22616279125213623,0.39452484250068665
353,0.7667677293189176,-0.9347334387405936,0.8381390452611006,0.41214653849601746,0.8044407367706299,-0.427796870470047,-0.028760898858308792,0.2777869999408722,-1.0508723258972168,-0.19097045063972473,0.12535345554351807,0.13437038660049438
354,0.6695181300626094,-1.0348387784055884,0.6654733772210722,0.3169225752353668,0.8597800135612488,-0.4004226624965668,-0.09696885198354721,-0.20264285802841187,-1.18414306640625,0.1405816674232483,-0.06762003898620605,-0.14951932430267334
355,0.5581898677466577,-1.030789974310882,0.5501222651082656,0.2723158895969391,0.8577054142951965,-0.43610259890556335,1.0034337043762207,-0.12196999788284302,0.49091604351997375,0.5249253511428833,-0.028024017810821533,-0.23259854316711426
356,0.6409486802764809,-0.839400324962197,0.7009751775505385,0.3993803858757019,0.7442427277565002,-0.5353484749794006,0.8729910254478455,0.45974409580230713,2.7415459156036377,0.1501038670539856,-0.09662920236587524,0.15400081872940063
357,0.8268230904935397,-0.6025809214678192,1.043677782389209,0.6061941385269165,0.5667707324028015,-0.557942271232605,-1.6042766571044922,-1.038062572479248,3.836714267730713,-0.3213889002799988,-0.3377363085746765,0.35019391775131226
358,1.2188577589548302,-0.4919337530923905,1.5781344372813164,0.8273954391479492,0.4723312258720398,-0.30384188890457153,-3.509089469909668,4.106935977935791,2.979222536087036,0.1291932463645935,0.22766569256782532,-0.08803430199623108
359,1.435991990712209,-0.3048968842176014,1.9272019314140028,0.9452239871025085,0.3001948297023773,-0.1281977742910385,-1.0173554420471191,-1.7247318029403687,2.130431652069092,0.08648377656936646,-0.07373911142349243,-0.2199925184249878
360,1.401947702124492,0.09336986494372203,1.795363306472328,0.9814850091934204,-0.09323425590991974,-0.16731546819210052,2.3461101055145264,-1.2113761901855469,3.5461580753326416,-0.017770469188690186,-0.01150204986333847,-0.03188799321651459
361,1.2641198896759531,0.0948872914644068,1.6232356312295262,0.9490535855293274,-0.0947449654340744,-0.3005337715148926,0.857985258102417,1.0474276542663574,-2.915863513946533,-0.29411596059799194,0.3665192723274231,0.5169644355773926
362,1.4216822040153738,-0.09189437192480551,1.4272956405769377,0.98473060131073,0.09176509082317352,-0.14793531596660614,1.2909595966339111,0.6578161716461182,-2.2270002365112305,0.21856224536895752,0.29141363501548767,0.026017606258392334
363,1.514392334493303,-0.29157875989837106,1.3944194900913782,0.9562680721282959,0.2874647080898285,-0.05399460718035698,-0.3721070885658264,0.7680523991584778,-1.7653913497924805,0.1857759952545166,-0.2498670220375061,-0.09134536981582642
364,1.4999950009912733,-0.355209821826219,1.4118108371170526,0.9352245330810547,0.347787082195282,-0.06632599979639053,-0.5651254057884216,-0.1547367423772812,-0.3369387090206146,-0.08552366495132446,-0.09615445137023926,0.22269809246063232
365,1.5753226545022787,-0.3670262208011668,1.5346552684322234,0.9333891272544861,0.35884130001068115,0.004224853590130806,-0.5544152855873108,0.34088411927223206,-0.22597737610340118,0.010183930397033691,0.11564603447914124,-0.02667057514190674
366,1.5887834800365104,-0.3661629873825479,1.5785669236023638,0.9335569143295288,0.3580354154109955,0.01679384335875511,-1.2965576648712158,-0.5844257473945618,0.3810249865055084,0.18750625848770142,0.11362898349761963,0.10339963436126709
367,1.6072509986261458,-0.3479810960755202,1.6680271808163163,0.9394384026527405,0.34100061655044556,0.034262098371982574,-0.5063315033912659,-0.08481287211179733,-0.06417274475097656,-0.08221495151519775,0.04579436779022217,-0.007071021944284439
368,1.6046177717583154,-0.3562542508374107,1.7040836794285577,0.9366738200187683,0.34876614809036255,0.031691744923591614,-0.17217063903808594,-0.007425103802233934,-0.38108256459236145,-0.1496407389640808,0.10097140073776245,-0.009932756423950195
369,1.632457376632432,-0.4171905707022671,1.7455968153681662,0.9124934673309326,0.40519359707832336,0.056336723268032074,-0.27986785769462585,0.18257561326026917,-0.6442416310310364,0.023724794387817383,0.054050177335739136,0.01795828342437744
370,1.6538965911796182,-0.4756770017063224,1.7742782795436802,0.8859152793884277,0.45794039964675903,0.07378973066806793,-0.18257743120193481,0.04408136010169983,-0.375475138425827,0.09253942966461182,0.03578829765319824,0.13137996196746826
371,1.6636919226522058,-0.5023070650839342,1.776199018172554,0.8726950287818909,0.4814488887786865,0.08130352944135666,0.03699997812509537,0.2771334946155548,-0.15935689210891724,-0.014510273933410645,0.06907287240028381,0.06182383745908737
372,1.6750250926706949,-0.5093441312896293,1.7851236092154592,0.8683264255523682,0.4876047372817993,0.09083376079797745,-0.18956948816776276,-0.10297320038080215,-3.573519643396139e-05,-0.08967047929763794,-0.012400269508361816,-0.027586109936237335
373,1.6752212693383355,-0.5220867923169421,1.792657626720631,0.8620585799217224,0.49869000911712646,0.09034906327724457,-0.047695718705654144,-0.1140168309211731,-0.06072421744465828,0.08642756938934326,-0.020922154188156128,-0.07498348504304886
374,1.6597906268368532,-0.5224440639105001,1.8032108912179658,0.8631725907325745,0.4989996552467346,0.07702088356018066,-0.2795548141002655,-0.14417392015457153,-0.029267096891999245,0.007295429706573486,-0.015036731958389282,-0.008280053734779358
375,1.661006040674111,-0.5179437354431617,1.8355637451660987,0.8653061389923096,0.4950946271419525,0.07827144861221313,-0.3370593786239624,-0.19522486627101898,0.033353812992572784,0.02830946445465088,0.012260079383850098,0.050482265651226044
376,1.6741198307765612,-0.5060245126675287,1.9088713808695026,0.8700135946273804,0.48470380902290344,0.09021411836147308,-0.7866553664207458,-0.27492642402648926,0.08026720583438873,0.02143537998199463,-0.02254563570022583,-0.017078757286071777
377,1.6906272997168326,-0.49295256382693886,1.9747235537085819,0.8746221661567688,0.47322899103164673,0.10531137883663177,-0.33217698335647583,0.018775664269924164,0.04794692620635033,0.05143380165100098,-0.01366475224494934,-0.10381603240966797
378,1.7024583601324808,-0.47742131756175904,1.995866401770437,0.880495548248291,0.4594903588294983,0.11660237610340118,-0.12742599844932556,0.03476817160844803,0.1907023787498474,0.01778930425643921,-0.06833133101463318,-0.018823988735675812
379,1.7060176825735998,-0.45605321985983566,2.0185414134752024,0.8896021246910095,0.4404081404209137,0.12103178352117538,-0.30302494764328003,-0.14893612265586853,0.17670904099941254,0.02349907159805298,-0.059518277645111084,-0.027739524841308594
380,1.7027751403294438,-0.4399132732915639,2.0353789219508327,0.8969199657440186,0.4258610010147095,0.11906655132770538,0.015913505107164383,-0.05787542834877968,0.07821869850158691,0.00885695219039917,0.00733599066734314,-0.04272688180208206
381,1.6954371201647838,-0.43813359523288736,2.0277118404141574,0.8985202312469482,0.4242500960826874,0.11257584393024445,0.12646685540676117,0.06954185664653778,-0.03330710530281067,-0.003119230270385742,-0.0028939247131347656,0.016315221786499023
382,1.7020841321518405,-0.4429759339001485,2.024963101605671,0.8957047462463379,0.4286300539970398,0.11827544122934341,0.0753650963306427,0.12599363923072815,-0.06154286116361618,0.02099740505218506,-0.02251744270324707,-0.040043607354164124
383,1.7063122442943106,-0.4467125024648176,2.010915667849325,0.893603503704071,0.4320029616355896,0.12184429168701172,0.2058129608631134,0.2324349582195282,-0.08476237952709198,-0.014529526233673096,-0.001598358154296875,-0.019244201481342316
384,1.7116581731393843,-0.4572122887058814,1.985082719430945,0.8883993625640869,0.441448450088501,0.12597589194774628,0.20037177205085754,0.1713818609714508,-0.07700468599796295,0.017774343490600586,-0.008022576570510864,0.0004889965057373047
385,1.7141744528517286,-0.4654133147389418,1.9615707184718199,0.8844664692878723,0.4487921893596649,0.12768933176994324,0.22221359610557556,0.07821972668170929,-0.02672300674021244,0.03252565860748291,-0.013611525297164917,-0.01681901514530182
386,1.7119928325136757,-0.4657462156366109,1.95026836326327,0.8845951557159424,0.4490896463394165,0.12573844194412231,0.07859333604574203,0.024891739711165428,-0.005639188922941685,-0.007123112678527832,-0.0038076043128967285,0.001031532883644104
387,1.7104516356018147,-0.4671902987597328,1.9413248905301435,0.8841447234153748,0.45037946105003357,0.12428455799818039,0.09148012846708298,0.005640028044581413,-0.02435983531177044,0.02392113208770752,-0.0028086304664611816,-0.02528548240661621
388,1.7012151772116866,-0.4662714249641731,1.9258469218206562,0.8856648206710815,0.4495588541030884,0.11616676300764084,0.11883290112018585,-0.006692730821669102,0.05152576044201851,0.014847874641418457,-0.002323746681213379,0.01962125301361084
389,1.6911600265897666,-0.4615888976344532,1.9105107707242803,0.8888682723045349,0.44537127017974854,0.1075071468949318,0.18911682069301605,-0.01163745392113924,0.05176176503300667,-0.03828227519989014,0.008730292320251465,-0.01935708522796631
390,1.6783379229595607,-0.46112174131617606,1.8760890508982915,0.8903802633285522,0.44495296478271484,0.09612376242876053,0.2959509789943695,0.02379629574716091,0.056841086596250534,-0.0065302252769470215,0.05497071146965027,0.030692093074321747
391,1.6714860468259127,-0.45764609308302395,1.8477659662530057,0.8925512433052063,0.4418376684188843,0.09017568826675415,0.12006548792123795,0.05950082838535309,0.07428939640522003,-0.029758334159851074,0.06917917728424072,0.06596755981445312
392,1.67522333525941,-0.4600335772154218,1.850363980735584,0.8911563754081726,0.4439781904220581,0.09340055286884308,-0.07421286404132843,-0.07209926843643188,-0.07524952292442322,-0.08436316251754761,0.052008748054504395,0.02143704891204834
393,1.6759163600478946,-0.4774479419428589,1.8527451146219853,0.883267879486084,0.4595140218734741,0.09319266676902771,0.038888249546289444,-0.007902370765805244,-0.045512937009334564,0.050920963287353516,0.016422897577285767,0.024193167686462402
394,1.6775207961920386,-0.47617075836258355,1.8630519540012869,0.883699893951416,0.45837926864624023,0.09467211365699768,-0.20991908013820648,-0.09486259520053864,-0.013002272695302963,-0.07081848382949829,0.02700275182723999,0.02173721045255661
395,1.68125102787787,-0.4844125537361599,1.883406437762382,0.8795560598373413,0.4656885862350464,0.09754812717437744,-0.03600091114640236,-0.030489543452858925,-0.051469020545482635,0.03696322441101074,-0.013662159442901611,-0.018477067351341248
396,1.6838920307623777,-0.484379122961792,1.8847555226976915,0.8793107271194458,0.4656589925289154,0.09987244009971619,-0.12528973817825317,0.0046980176120996475,0.031192544847726822,0.0454176664352417,-0.028509944677352905,-0.019672274589538574
397,1.682472478995682,-0.47572307001922753,1.8978646596111173,0.8834241628646851,0.4579813480377197,0.09906961023807526,-0.047765202820301056,-0.03425063192844391,0.03044842556118965,0.020735323429107666,-0.018818169832229614,-0.03281594067811966
398,1.679953680122962,-0.46685265166647477,1.8977184688643693,0.8876742720603943,0.45007798075675964,0.09728286415338516,-0.030192077159881592,0.039108164608478546,0.10545110702514648,0.011892259120941162,-0.014378577470779419,-0.007118716835975647
399,1.6826451539098661,-0.4546276546597111,1.9044632392395044,0.8928106427192688,0.4391278326511383,0.100278340280056,-0.08293748646974564,-0.0043823448941111565,0.05368044599890709,-0.006122469902038574,-0.009516626596450806,-0.03794623166322708
400,1.6785243318392782,-0.45010485536906314,1.9035668956332092,0.8951818346977234,0.43505993485450745,0.0968109518289566,-0.022695641964673996,-0.004833904094994068,0.03741076961159706,0.02846318483352661,-0.009324491024017334,0.00708615779876709
401,1.6771122933007736,-0.44395828058150344,1.9090708222760913,0.8979596495628357,0.42951738834381104,0.09582877904176712,-0.1485343873500824,-0.05338841676712036,0.04620490223169327,0.0020494461059570312,-0.027036309242248535,0.019466638565063477
402,1.6807402094951853,-0.44083813085382306,1.9187651623029731,0.8989339470863342,0.42669761180877686,0.09923244267702103,0.0729149878025055,0.02645556814968586,-0.030887041240930557,-0.0018544793128967285,-0.0070503950119018555,-0.06107020378112793
403,1.6741694803599823,-0.4444291000075324,1.9089496494850124,0.8980366587638855,0.4299425184726715,0.09316497296094894,0.030223175883293152,0.013960114680230618,-0.03967255726456642,0.016880393028259277,-0.01609364151954651,0.022847652435302734
404,1.6745934613290814,-0.44559952209996917,1.9039658413113867,0.8974959254264832,0.43099895119667053,0.0934935063123703,0.10260497778654099,0.02769266441464424,-0.023141678422689438,0.009990036487579346,-0.018996387720108032,-0.007174491882324219
405,1.671673689197907,-0.4476765920135594,1.8900972207372901,0.8968724012374878,0.4328722655773163,0.0907822772860527,0.13025517761707306,0.015585754066705704,-0.034285396337509155,-0.0011968016624450684,-0.011485546827316284,-0.0153733491897583
406,1.665180358478525,-0.44912784389192195,1.877876040528658,0.8968168497085571,0.43418005108833313,0.08489743620157242,0.0738559365272522,0.002750569023191929,0.005306987091898918,0.018649578094482422,0.013772308826446533,0.03825629502534866
407,1.666684524383687,-0.44586576153812985,1.8786159507829716,0.898093044757843,0.43123915791511536,0.08638142794370651,-0.02762739174067974,0.04040902107954025,0.04200927913188934,-0.014777004718780518,0.007267892360687256,0.029768459498882294
408,1.6743709184289144,-0.4424657126631451,1.8796494795251475,0.8988556265830994,0.42816901206970215,0.0934329479932785,-0.0025654491037130356,0.029116421937942505,0.028900668025016785,-0.07628488540649414,0.020622432231903076,0.00725971907377243
409,1.6759534169901507,-0.44878791342800045,1.8786211201006922,0.8959969282150269,0.4338738024234772,0.09456927329301834,0.016364039853215218,-0.04064544290304184,-0.07228292524814606,0.0033409595489501953,0.08754962682723999,0.021534934639930725
410,1.676794211788635,-0.4601398948170862,1.8858588036570507,0.8909615278244019,0.44407346844673157,0.0947953313589096,-0.14690521359443665,-0.010324866510927677,-0.04052327200770378,0.055403709411621094,0.035159289836883545,0.044120654463768005
411,1.6833580087744693,-0.4619066629644193,1.904816156149572,0.8895390629768372,0.4456557631492615,0.10055305063724518,-0.11936146020889282,-0.03718548268079758,-0.057391803711652756,-0.049222469329833984,-0.04125213623046875,-0.05618049204349518
412,1.6761081771751913,-0.4660038409521014,1.9042192373513642,0.8884214758872986,0.44931983947753906,0.09390873461961746,0.03490384668111801,-0.037425216287374496,-0.028823941946029663,0.02005624771118164,-0.020242691040039062,0.01142263412475586
413,1.6729896045248986,-0.46433834616892333,1.9101705015746733,0.8894532918930054,0.44783130288124084,0.0912139043211937,-0.10619670897722244,-0.07432420551776886,0.012702258303761482,0.042278826236724854,-0.012696444988250732,-0.01557612419128418
414,1.6727004404827548,-0.4607732722566051,1.9200365644770148,0.8910622000694275,0.4446408748626709,0.09111852198839188,-0.13072451949119568,-0.04381462559103966,-0.007222323212772608,-0.019144535064697266,-0.015502691268920898,0.005683176219463348
415,1.6747892020554598,-0.46033737851369033,1.9323061771247703,0.8910627961158752,0.4442504048347473,0.09299967437982559,0.005803968291729689,0.017191685736179352,-0.02334553189575672,-0.015589714050292969,0.02071547508239746,-0.024197809398174286
416,1.6687125767905118,-0.46286601627205837,1.9274878425602884,0.8904904723167419,0.446514368057251,0.08747321367263794,-0.02165103703737259,-0.030255474150180817,0.039345886558294296,0.06574726104736328,0.00690045952796936,0.05663084238767624
417,1.6730107184161584,-0.4610378991180041,1.9289986226018208,0.8909169435501099,0.44487789273262024,0.09138300269842148,0.03751332312822342,-0.00267271650955081,-0.05169413238763809,-0.07956123352050781,-0.054954707622528076,-0.08057975023984909
418,1.6570489681624727,-0.46475369112503645,1.8963357090302093,0.8906088471412659,0.44820263981819153,0.07700842618942261,0.41200709342956543,0.012830877676606178,0.00839022547006607,0.032746195793151855,0.013833492994308472,0.027163267135620117
419,1.6472208609312609,-0.4655944409136929,1.8751261696780614,0.8909467458724976,0.4489540457725525,0.06822306662797928,-0.002648051828145981,0.05290660262107849,0.0007319115102291107,-0.03912472724914551,-0.015116125345230103,0.01959133893251419
420,1.6573457024723892,-0.46470479508789553,1.873111212529168,0.8906077146530151,0.4481589198112488,0.07727459073066711,0.10838829725980759,0.06607580184936523,-0.015726014971733093,-0.028531968593597412,0.07520225644111633,-0.047870881855487823
421,1.6386940496787776,-0.46402077306106065,1.855011394244945,0.8921997547149658,0.4475473463535309,0.060671593993902206,-0.014669295400381088,-0.18462766706943512,0.0904800072312355,0.02436518669128418,0.053886979818344116,0.11913800239562988
422,1.648879225559112,-0.4597526092416537,1.873722771266304,0.8934316635131836,0.44372642040252686,0.06990385800600052,-0.2575203478336334,-0.05169472098350525,-0.02304290421307087,-0.02256685495376587,-0.04423609375953674,-0.05710173398256302
423,1.6413899861927783,-0.4572989599975142,1.8778197537894583,0.8950135707855225,0.4415262043476105,0.06328744441270828,0.17147192358970642,-0.009185274131596088,0.04497746005654335,-0.03920912742614746,-0.010297566652297974,-0.006082296371459961
424,1.6332195463887778,-0.4571723858282239,1.8740813186754792,0.8955565690994263,0.44141265749931335,0.055976253002882004,-0.12794408202171326,-0.0897485613822937,-0.007888060994446278,0.04575812816619873,-0.017584502696990967,0.004784226417541504
425,1.6370966694697149,-0.4557391152315672,1.8753555972173657,0.8959633708000183,0.44012612104415894,0.05948987230658531,0.06737859547138214,0.0017459392547607422,-0.0017876664642244577,0.03921741247177124,0.00887906551361084,0.009632475674152374
426,1.636522757444024,-0.45543212288530116,1.874875368147933,0.8961318731307983,0.43985041975975037,0.058984510600566864,0.011646252125501633,0.04732067137956619,-0.021978560835123062,-0.017683446407318115,-0.006119370460510254,0.00977158173918724
427,1.639034581892192,-0.4581639432774953,1.8651386118006141,0.8947789669036865,0.4423021674156189,0.0611531063914299,0.17398646473884583,0.028932616114616394,0.0011161742731928825,0.04148519039154053,0.004978805780410767,-0.020335786044597626
428,1.6326945117471765,-0.45668010282126775,1.8545164795611735,0.8958026766777039,0.44097086787223816,0.055519480258226395,0.01073976419866085,-0.010950022377073765,-0.001194648677483201,-0.024510562419891357,-0.009742200374603271,0.010169625282287598
429,1.6337795754411686,-0.45964808564954474,1.8512489626324364,0.8944317102432251,0.44363275170326233,0.056408826261758804,0.122721366584301,0.08538077771663666,-0.054678093641996384,0.006050467491149902,0.012177795171737671,-0.03318500518798828
430,1.6326807421747063,-0.46118219341782496,1.8369862793835117,0.8938126564025879,0.4450071156024933,0.05538379028439522,0.0037237191572785378,0.02645973488688469,0.043099384754896164,0.03209054470062256,-0.003158390522003174,0.06699167937040329
431,1.6425427658472331,-0.45744351767109515,1.8361493817845318,0.89487624168396,0.4416559040546417,0.0643145740032196,0.11055498570203781,0.0995892733335495,-0.01007707230746746,-0.0035189390182495117,0.015329539775848389,-0.013121373951435089
432,1.6428320659018174,-0.4621857114666938,1.8125387085814422,0.8927587866783142,0.44590556621551514,0.06442200392484665,0.3077114224433899,0.17094847559928894,0.03250289335846901,0.028612732887268066,0.014009624719619751,-0.045562148094177246
433,1.633587777051877,-0.45801817026112424,1.7862673834611587,0.89516282081604,0.4421714246273041,0.056282561272382736,0.03592197224497795,-0.02595660090446472,0.04427122697234154,-0.10637509822845459,0.006269097328186035,0.04244183748960495
434,1.6322180013165308,-0.4590125056275142,1.7946597914778,0.8947997689247131,0.44306305050849915,0.05502931773662567,-0.12200374156236649,-0.1244526132941246,-0.013795360922813416,0.005239725112915039,-0.015145659446716309,-0.014150992035865784
435,1.6285424513951858,-0.465243041177495,1.7940281624163572,0.892223060131073,0.44864001870155334,0.05157976970076561,0.18612393736839294,0.004300103522837162,-0.05185111239552498,0.04704713821411133,0.03735250234603882,-0.003041498363018036
436,1.6257582350793796,-0.46989480740219697,1.7945940392260562,0.8902695775032043,0.4527924954891205,0.04898024722933769,-0.12658406794071198,-0.008511959575116634,-0.03715689480304718,-0.016246140003204346,-0.013476699590682983,0.024384021759033203
437,1.6371029065951825,-0.4715213751540828,1.8012071348595744,0.8889203667640686,0.45424216985702515,0.05902780219912529,0.07585516571998596,0.08763088285923004,-0.0074024079367518425,0.03199315071105957,0.04385039210319519,-0.05368722602725029
438,1.6482787129126508,-0.46659740704943525,1.7802946355859044,0.8904245495796204,0.44985002279281616,0.06913061439990997,0.5399235486984253,0.4051372706890106,0.1861381083726883,0.022173047065734863,0.12583351135253906,-0.03281474858522415
439,1.6344983175764283,-0.46136260735577206,1.7015046643308815,0.8936305046081543,0.445168673992157,0.057003166526556015,0.483166366815567,0.20582249760627747,-0.1789182871580124,-0.14471393823623657,-0.10038110613822937,0.10194766521453857
440,1.64820158857758,-0.4919355447780179,1.685622746171866,0.8787809014320374,0.47233280539512634,0.06815844774246216,0.0022934298031032085,-0.028940726071596146,-0.1391071230173111,0.09044194221496582,-0.13390818238258362,-0.06229913979768753
441,1.640232918050198,-0.4920335776760736,1.684087987102541,0.8792499899864197,0.47241920232772827,0.061150431632995605,-0.050668105483055115,-0.20963634550571442,0.10301586985588074,0.05203956365585327,-0.03676554560661316,-0.042916182428598404
442,1.6238111809868017,-0.47248876246780086,1.6916142333777024,0.8891871571540833,0.4551037847995758,0.04718434065580368,-0.128323495388031,0.009026829153299332,0.05914756655693054,0.0070680975914001465,0.06076529622077942,0.08716928213834763
443,1.638328912290909,-0.46650278436443593,1.7022311357614415,0.8911107182502747,0.44976550340652466,0.06027066335082054,-0.0017363158985972404,0.05434972047805786,0.09271743148565292,0.0037256479263305664,0.004335999488830566,-0.012312296777963638
444,1.6421624311694187,-0.4594892677315303,1.6959779072823784,0.8939976096153259,0.4434904158115387,0.06390966475009918,0.08325618505477905,0.03566330298781395,0.08521119505167007,0.00015217065811157227,-0.028008878231048584,-0.013845570385456085
445,1.638554321566365,-0.44824338721368406,1.6981254182659764,0.8991417288780212,0.43338313698768616,0.06101744994521141,-0.06806213408708572,-0.06778016686439514,0.05297029763460159,-0.013338565826416016,0.06580811738967896,-0.021802429109811783
446,1.6333591940601921,-0.4490531235637311,1.7031385554316143,0.8990961313247681,0.4341127276420593,0.05632353946566582,-0.0880570262670517,-0.08987651020288467,-0.001650715246796608,0.035565733909606934,0.07234174013137817,0.009914875030517578
447,1.627333801344559,-0.45376441568438236,1.717594183133655,0.8973671793937683,0.438352108001709,0.0507890023291111,-0.3178122341632843,-0.2702127695083618,-0.017783410847187042,-0.07945036888122559,-0.0388769805431366,0.0454481840133667
448,1.6184078577233056,-0.4618423300884487,1.7242294786794772,0.8942185640335083,0.44559818506240845,0.04260731488466263,0.046997830271720886,-0.1043035164475441,-0.05660304054617882,0.14049512147903442,0.033466726541519165,-0.0037126541137695312
449,1.607708696272487,-0.4644840318864036,1.717540536835585,0.8934438228607178,0.44796156883239746,0.032994113862514496,-0.17649725079536438,-0.07987260073423386,0.014803655445575714,-0.007991552352905273,-0.09861165285110474,0.09954369068145752
450,1.6060866597271375,-0.4565074545413832,1.7850422416722294,0.897038459777832,0.44081589579582214,0.03166993334889412,-0.39786019921302795,-0.17879657447338104,0.17027442157268524,0.06989556550979614,0.011210381984710693,-0.054832823574543
451,1.6060123296784945,-0.4447242123725846,1.7912544859057702,0.9021696448326111,0.4302089214324951,0.031783949583768845,0.4013623297214508,0.22021980583667755,0.0007980773225426674,-0.06092214584350586,0.0001957416534423828,-0.14077746868133545
452,1.6057669320602366,-0.4471842139405962,1.7623415241340377,0.9011170268058777,0.43242835998535156,0.03152545914053917,0.006551546044647694,0.05677466839551926,0.040599241852760315,0.024114906787872314,0.04038047790527344,0.10616981983184814
453,1.6213231716086698,-0.4419751181461569,1.770005701746536,0.9027549028396606,0.427725613117218,0.04565221443772316,-0.04401877894997597,0.07904039323329926,0.03724663704633713,0.012604475021362305,-0.012610316276550293,-0.032254938036203384
454,1.6276856000736746,-0.44107057419523754,1.7639599619218858,0.9028321504592896,0.42690783739089966,0.051416944712400436,0.12960493564605713,0.15340904891490936,-0.011936446651816368,-0.023605525493621826,0.003847777843475342,-0.034845832735300064
455,1.622529525784794,-0.44367567855634904,1.7507132747950995,0.9019715785980225,0.4292621612548828,0.04670354723930359,0.028492838144302368,0.0026006055995821953,-0.018854256719350815,-0.03533339500427246,0.0184306800365448,0.05983328819274902
456,1.6220938982557191,-0.4470484861080354,1.746062722804551,0.9005409479141235,0.4323059618473053,0.046236127614974976,0.028850257396697998,-0.04407034069299698,0.014064120128750801,0.08574151992797852,0.022146612405776978,0.0018290318548679352
457,1.613422963375039,-0.44866969029845427,1.733296558849604,0.9002063274383545,0.43376728892326355,0.03839602693915367,0.16991539299488068,-0.0031539802439510822,-0.05479792132973671,-0.06619155406951904,-0.040823012590408325,-0.03178894892334938
458,1.6043275943447983,-0.45252045284713355,1.7217755591631008,0.8988423347473145,0.43723368644714355,0.030150622129440308,-0.0030946852639317513,-0.006929018534719944,-3.3754389733076096e-05,0.015555799007415771,0.0038826465606689453,0.0642249584197998
459,1.6077104235902075,-0.4520996943173307,1.7241454912346987,0.8989190459251404,0.4368552267551422,0.03319786489009857,0.009092421270906925,-0.025189407169818878,-0.013606954365968704,-0.003457009792327881,-0.009044557809829712,-0.008463382720947266
460,1.607732530438798,-0.4518097772931281,1.7259742102598026,0.8990448713302612,0.4365944266319275,0.033222414553165436,-0.016056090593338013,-0.027677275240421295,0.0022024186328053474,-0.0022858381271362305,-0.01455157995223999,0.010356664657592773
461,1.6054255461048135,-0.45184673998523334,1.7275650157541238,0.899103045463562,0.43662768602371216,0.031147688627243042,0.002721287775784731,-0.04260406270623207,-0.0031750937923789024,0.014913678169250488,-0.01032760739326477,-0.01765894889831543
462,1.602609398543685,-0.44961974393800824,1.7274637825009411,0.9001566171646118,0.4346230924129486,0.02864641137421131,-0.02475360780954361,-0.00018372945487499237,0.016776174306869507,0.031087160110473633,-0.009177625179290771,-0.002553943544626236
463,1.607554861453154,-0.4462239354942166,1.7328236392829481,0.9014736413955688,0.43156230449676514,0.0331517830491066,-0.08716697245836258,0.05651764199137688,0.00979231484234333,0.0029757022857666016,0.0012989938259124756,0.004140730947256088
464,1.613237755476929,-0.4458154804637595,1.7434213097825595,0.9014468193054199,0.4311937987804413,0.03828167915344238,0.03052894026041031,-0.005823259241878986,-0.03242601826786995,-0.011310160160064697,0.002872973680496216,-0.05859113112092018
465,1.60506824809729,-0.450359142814055,1.7280592809848276,0.8997622132301331,0.4352889060974121,0.030848657712340355,0.1442171037197113,0.018235784024000168,-0.02869090996682644,0.011431634426116943,-0.03749224543571472,0.01634669303894043
466,1.603728611440004,-0.44446186916818636,1.718155498809769,0.9023526906967163,0.4299720823764801,0.029727283865213394,0.007807845249772072,0.04492397606372833,0.0846850723028183,0.04865133762359619,-0.0017952322959899902,0.01650691032409668
467,1.6103927285427502,-0.43419087716870164,1.718174044021689,0.9064996242523193,0.42067649960517883,0.0359128937125206,0.09745380282402039,0.09079589694738388,0.051938075572252274,-0.027211904525756836,0.004494428634643555,-0.0017484426498413086
468,1.6144216715484967,-0.43336938689597937,1.703410120361609,0.9066925048828125,0.4199310839176178,0.03957988694310188,0.07366398721933365,0.036818426102399826,0.026595979928970337,0.0179595947265625,0.024389594793319702,0.0003066062927246094
469,1.6157852430713655,-0.4308545415139549,1.7006527487247551,0.9076899290084839,0.4176473915576935,0.040863558650016785,0.002221621572971344,0.012421113438904285,0.0032476666383445263,-0.004171133041381836,0.051255255937576294,-0.028320785611867905
470,1.6143104582708505,-0.43606124335051333,1.6994325282841025,0.9055642485618591,0.42237257957458496,0.03942973166704178,0.03486530855298042,0.007675515487790108,-0.030611859634518623,-0.003983497619628906,0.003103494644165039,0.005263328552246094
471,1.6095465872406711,-0.44402607949356393,1.690250497126246,0.9023515582084656,0.42957860231399536,0.03498386964201927,0.12607572972774506,-0.01677866280078888,-0.0785207599401474,-0.02843499183654785,-0.03524571657180786,-0.00942540168762207
472,1.6049619529017527,-0.4461683458979245,1.6831440398158353,0.901580810546875,0.43151214718818665,0.030815064907073975,-0.07687941193580627,-0.04253467172384262,0.01079895906150341,0.06390392780303955,0.006552517414093018,0.0633164644241333
473,1.6124267987957246,-0.43615402361007183,1.6992579028279122,0.9055979251861572,0.42245668172836304,0.03772226348519325,-0.1535666137933731,-0.04298548772931099,0.0973818451166153,0.0024527311325073242,-0.05888545513153076,0.00033319368958473206
474,1.6203327610150553,-0.4243410753709121,1.7161710264930174,0.9101923704147339,0.4117203950881958,0.045124601572752,-0.3259281814098358,-0.09921195358037949,0.12197486311197281,0.07184803485870361,0.0344313383102417,0.05761277675628662
475,1.6218407232353456,-0.4050241219995783,1.7642870223333256,0.9178958535194397,0.39404094219207764,0.046894174069166183,-0.5002601146697998,-0.32951462268829346,0.3224624693393707,0.05567598342895508,0.05482685565948486,0.041210055351257324
476,1.6140914228593615,-0.3874970825259207,1.8139591024399102,0.9249899983406067,0.3778722584247589,0.040072571486234665,-0.21085244417190552,0.009935391135513783,-0.022006729617714882,-0.01323169469833374,0.027523189783096313,-0.14445793628692627
477,1.6105965559887125,-0.3867828041512345,1.805281898953562,0.9253941178321838,0.3772108256816864,0.03685035929083824,0.19446437060832977,-0.03219836577773094,0.030556462705135345,0.025793135166168213,-0.004942089319229126,-0.07612645626068115
478,1.6037565185422906,-0.38987571570926294,1.7877156592511525,0.9244539141654968,0.3800734579563141,0.030481217429041862,-0.030045583844184875,0.168921560049057,-0.06954923272132874,-0.039856135845184326,-0.019218385219573975,0.06177341938018799
479,1.6185002504068595,-0.3973915546071456,1.7960755300497073,0.921024739742279,0.3870144784450531,0.04396985098719597,-0.09933853894472122,0.07886131852865219,-0.08416131883859634,-0.025898396968841553,-0.0038815438747406006,-0.07964491844177246
480,1.621032609864554,-0.40237716769482357,1.8181265975019374,0.918971836566925,0.39160674810409546,0.04620460420846939,-0.39441168308258057,-0.11651912331581116,-0.016027305275201797,0.027271389961242676,0.014429599046707153,0.016234394162893295
481,1.6282859488254129,-0.40634306963846156,1.8708919772387336,0.9170547723770142,0.3952528238296509,0.052779290825128555,-0.5767342448234558,-0.17414754629135132,-0.1584116369485855,-0.060792624950408936,0.05923023819923401,-0.037139058113098145
482,1.6349043441191677,-0.42521122296879377,1.953081370150656,0.909080445766449,0.41251319646835327,0.05835931375622749,-1.024889349937439,-0.29509076476097107,-0.308731347322464,-0.061469852924346924,0.1674887239933014,0.07781017571687698
483,1.6473602976715551,-0.45574482529299704,2.0993468059337146,0.8953028917312622,0.4401312470436096,0.06868220120668411,-1.5238571166992188,-0.5762212872505188,-0.4245530962944031,-0.06185257434844971,0.11643308401107788,0.09498357772827148
484,1.661886619227259,-0.48367196667617307,2.274119424197863,0.8816231489181519,0.46503308415412903,0.08053016662597656,-1.284411072731018,-0.6361749172210693,-0.3893740773200989,0.021514177322387695,0.009637415409088135,-0.059488289058208466
485,1.6572128903110022,-0.49887506850808966,2.3989151066673484,0.8748444318771362,0.47843801975250244,0.07578980177640915,-0.9779341816902161,-0.6012431383132935,-0.0902431383728981,-0.0038576126098632812,-0.09358087182044983,0.06932126730680466
486,1.6487689032844206,-0.49247426217767676,2.4999343794998254,0.8784883618354797,0.47280755639076233,0.06863715499639511,-0.7849492430686951,-0.5750669240951538,0.06293893605470657,0.005239605903625488,-0.014540404081344604,0.021160833537578583
487,1.6333522938414562,-0.4811841033700437,2.578198389263529,0.8847135901451111,0.4628291428089142,0.055416420102119446,-0.7188120484352112,-0.4868190884590149,0.08265192061662674,-0.01879262924194336,0.0012516379356384277,0.13325846195220947
488,1.6289033685865841,-0.4662515143770155,2.649001834902053,0.8917520642280579,0.4495410919189453,0.05187547206878662,-0.6397044658660889,-0.3194843530654907,0.13139505684375763,0.06805628538131714,0.017652511596679688,0.04785597324371338
489,1.622547098434085,-0.4451680143173833,2.7269204005228946,0.9013301134109497,0.4306095242500305,0.046686213463544846,-0.7741337418556213,-0.4123617112636566,0.1583157479763031,-0.12502390146255493,-0.03227880597114563,0.056096915155649185
490,1.631420687912871,-0.4354055497225655,2.820401639992191,0.9050332307815552,0.42177814245224,0.05493437871336937,-0.4329507350921631,-0.3265015184879303,0.06314992159605026,0.063274085521698,0.013555020093917847,-0.18527497351169586
