,attitude.roll,attitude.pitch,attitude.yaw,gravity.x,gravity.y,gravity.z,rotationRate.x,rotationRate.y,rotationRate.z,userAcceleration.x,userAcceleration.y,userAcceleration.z
0,0.0017205080224355176,0.6955871147879839,-0.8045466635294699,0.001320794690400362,-0.640836238861084,-0.7676764130592346,-0.08932866156101227,-0.058391034603118896,-0.035870857536792755,0.004050299525260925,0.00394970178604126,-0.056725382804870605
1,-0.010890380928667863,0.6927821714506207,-0.7991115370567142,-0.00837967824190855,-0.6386804580688477,-0.7694264650344849,-0.14572960138320923,-0.15836867690086365,0.02970031090080738,-0.006085649132728577,-0.025290489196777344,0.0006581544876098633
2,-0.016777522621151682,0.6745691120911732,-0.8021175422640734,-0.013102229684591293,-0.6245608329772949,-0.7808662056922913,-0.012532656081020832,-0.020495761185884476,-0.08379322290420532,-0.024068176746368408,-0.007305562496185303,-0.07036054134368896
3,-0.021001424427101702,0.6784111331010125,-0.8054439601831216,-0.016349894925951958,-0.6275568008422852,-0.7783991098403931,-0.10985291004180908,0.05126737430691719,-0.011062558740377426,-0.008216753602027893,-0.009375572204589844,-0.004834532737731934
4,-0.02763868968836892,0.6712479191837848,-0.8071170035048335,-0.021639613434672356,-0.621963620185852,-0.7827470302581787,-0.09810872375965118,-0.06456471979618073,-0.015920912846922874,-0.020764557644724846,-0.014800846576690674,-0.017133891582489014
5,-0.02683799740928736,0.6605753978261433,-0.8101615349144232,-0.021189793944358826,-0.613571286201477,-0.7893549799919128,-0.08499161154031754,0.032264940440654755,-0.014303471893072128,-0.008580103516578674,-0.009795963764190674,-0.017789185047149658
6,-0.024935636737295493,0.6531695171126491,-0.8102009096693218,-0.019800875335931778,-0.6077065467834473,-0.793914794921875,-0.06955230981111526,-0.030374865978956223,0.08461928367614746,0.006129011511802673,-0.008290767669677734,-0.023956298828125
7,-0.028840761438518797,0.645055185320118,-0.8078060185242865,-0.02304249443113804,-0.6012425422668457,-0.7987343072891235,-0.07609690725803375,-0.04399843141436577,0.009340820834040642,-0.0010969191789627075,-0.014022350311279297,-0.030199408531188965
8,-0.03213823424695436,0.6447985836736015,-0.8043945203968761,-0.02568112686276436,-0.6010375022888184,-0.7988081574440002,0.039198681712150574,-0.03661658987402916,-0.05902327224612236,-0.026534438133239746,-0.03389596939086914,-0.0010575652122497559
9,-0.03195980926883706,0.6397153457705752,-0.8087242163419512,-0.025635894387960434,-0.5969671010971069,-0.8018559813499451,-0.06347230076789856,0.0609498955309391,-0.04630487784743309,-0.016035854816436768,-0.007464051246643066,-0.022637367248535156
10,-0.03219521454594668,0.6333942056955635,-0.8265785021078664,-0.02594560571014881,-0.5918839573860168,-0.8056054711341858,-0.26127955317497253,-0.28823137283325195,-0.20333988964557648,-0.014169752597808838,0.007563948631286621,-0.010632932186126709
11,-0.024517251468734673,0.6087826879800211,-0.8485708123287572,-0.020110584795475006,-0.5718692541122437,-0.8200982213020325,-0.0005670501850545406,0.07455289363861084,-0.22219376266002655,-0.01817372441291809,0.004242300987243652,-0.08850163221359253
12,-0.0059251339229601675,0.6128496777940615,-0.8669550172473977,-0.00484680337831378,-0.5752008557319641,-0.8179978132247925,-0.14184685051441193,0.1290823519229889,-0.026328910142183304,0.02736876904964447,0.0007838010787963867,0.031163156032562256
13,-0.031100298711018784,0.5855589981729562,-0.8515050824438735,-0.025914913043379784,-0.5526653528213501,-0.8330002427101135,-0.7065560817718506,-0.46839794516563416,0.6137274503707886,0.013387441635131836,0.006782174110412598,0.0034714937210083008
14,-0.05695295271726182,0.5088634249222229,-0.808922167195288,-0.04971006140112877,-0.487185001373291,-0.8718827962875366,-0.6618177890777588,0.22354832291603088,0.4589458405971527,0.032498154789209366,0.0317101776599884,0.037867963314056396
15,-0.06389051121648305,0.5313386144840113,-0.7753125443310023,-0.05504443496465683,-0.5066878795623779,-0.8603705763816833,0.9914607405662537,-0.06955919414758682,-0.30404138565063477,-0.04644176363945007,0.03412318229675293,0.0033606886863708496
16,-0.09159039246733731,0.5708260444433663,-0.7849324847004373,-0.07696148008108139,-0.5403273105621338,-0.8379279971122742,-0.007362794131040573,-0.0973658561706543,-0.5508785247802734,-0.0851173847913742,0.003965616226196289,0.10860371589660645
17,-0.07424476876580001,0.5693229804215819,-0.8438189354644577,-0.062476418912410736,-0.539061963558197,-0.8399457931518555,0.3794291019439697,-0.9629563093185425,-0.44833439588546753,0.007483735680580139,-0.03318840265274048,-0.11951160430908203
18,-0.15127354053532413,0.5977302181667169,-0.862176730784478,-0.12456861883401871,-0.5627676844596863,-0.8171750903129578,-0.43064361810684204,-0.10053998231887817,-0.0243825800716877,-0.0828898549079895,0.02201145887374878,0.04927659034729004
19,-0.13203514777838776,0.5702298517138393,-0.8809875992583621,-0.11082148551940918,-0.5398255586624146,-0.8344501256942749,-0.32015460729599,0.37958669662475586,0.09203831851482391,0.0008208900690078735,-0.03324878215789795,-0.0674816370010376
20,-0.12557501069014565,0.5808911586892684,-0.8536340803187825,-0.10470174998044968,-0.5487691164016724,-0.8293913006782532,0.7989656329154968,-0.20347920060157776,-0.12085142731666565,-0.08659767359495163,0.015291392803192139,-0.16029369831085205
21,-0.11019343952929514,0.6364592361940565,-0.8604107869369444,-0.08843891322612762,-0.5943516492843628,-0.7993276715278625,0.24309208989143372,0.1926494836807251,-0.0760020762681961,-0.01849469542503357,-0.022835850715637207,-0.02801913022994995
22,-0.11597094534234445,0.6690424704569637,-0.8651864339757772,-0.09076567739248276,-0.6202351450920105,-0.7791469097137451,0.22691330313682556,-0.1376771777868271,-0.03261600434780121,0.02036161720752716,-0.022373437881469727,0.023638486862182617
23,-0.13266815564922085,0.6654640747725125,-0.866131415907615,-0.10405492782592773,-0.6174242496490479,-0.7797178626060486,0.0979771614074707,-0.14041650295257568,-0.0033715656027197838,-0.016108036041259766,0.00032830238342285156,-0.09160476922988892
24,-0.1434887933237486,0.6694830407833315,-0.8627052527982257,-0.11212997138500214,-0.6205806732177734,-0.7760840654373169,0.06823356449604034,-0.18829700350761414,0.007644703146070242,-0.00409621000289917,-0.011331558227539062,-0.035515666007995605
25,-0.15909025938937868,0.6759651643598362,-0.8553257545403913,-0.12358400970697403,-0.6256505250930786,-0.7702521681785583,0.2786814868450165,-0.3119148313999176,0.17303167283535004,0.024798601865768433,0.07956898212432861,-0.04737478494644165
26,-0.14526375259421626,0.7170419101506266,-0.8990178359638776,-0.10910831391811371,-0.6571578979492188,-0.7458142638206482,-0.04259195551276207,0.13190509378910065,0.24426579475402832,0.1987384408712387,-0.25399017333984375,0.020930230617523193
27,-0.18880341392383396,0.7492568822372669,-0.9018319598828852,-0.13742110133171082,-0.6810948252677917,-0.7191836833953857,0.8832639455795288,-1.064455509185791,-0.48836520314216614,-0.09684707224369049,0.16049551963806152,-0.10634726285934448
28,-0.26908034684407317,0.8161598570582909,-0.8432647952790369,-0.18211017549037933,-0.7285206317901611,-0.660373866558075,0.5636224150657654,-0.1533762514591217,0.6867545247077942,-0.05235636234283447,0.20007824897766113,-0.02128201723098755
29,-0.4020299584513792,0.8285500271136829,-0.6789394820838157,-0.26448869705200195,-0.7369520664215088,-0.6220510005950928,0.31348153948783875,-0.2535102963447571,1.4698783159255981,-0.007453441619873047,0.06518387794494629,0.09853720664978027
30,-0.5416652043529867,0.715319230291598,-0.4836575478789148,-0.38919058442115784,-0.6558584570884705,-0.6468232274055481,-0.0732509195804596,0.21238486468791962,1.326251745223999,-0.15040600299835205,-0.06260162591934204,-0.14852583408355713
31,-0.6230290770038495,0.6175976207947231,-0.3976721004007053,-0.4757094085216522,-0.5790782570838928,-0.6620943546295166,-0.728145956993103,-0.577917754650116,0.9929925203323364,0.036927640438079834,0.03993946313858032,0.0075075626373291016
32,-0.6245462579898714,0.5893624082942082,-0.3900613222152832,-0.48608264327049255,-0.5558311343193054,-0.6743704080581665,-0.3074314594268799,-0.18351653218269348,-0.6077953577041626,0.10523852705955505,-0.21594315767288208,0.06578892469406128
33,-0.6289749200080973,0.49904455725375024,-0.3437890501328758,-0.5165652632713318,-0.4785868525505066,-0.7100105881690979,-0.4370920956134796,0.48918306827545166,0.7485227584838867,0.03370088338851929,-0.1360219120979309,0.0009651780128479004
34,-0.6544832242392702,0.4616688122912288,-0.3303830391287435,-0.5450195670127869,-0.4454428255558014,-0.7103057503700256,0.015331683680415154,-0.11161798983812332,-0.07712512463331223,0.03369760513305664,-0.14197474718093872,-0.11701047420501709
35,-0.6569292917106538,0.47288277483578856,-0.33176453655733656,-0.5436705946922302,-0.45545458793640137,-0.7049704790115356,0.1400129646062851,-0.16306748986244202,-0.07625236362218857,0.034210205078125,-0.06154370307922363,-0.027787089347839355
36,-0.6563281672465477,0.4938526649029342,-0.3081482012079923,-0.5372996926307678,-0.4740217328071594,-0.697576105594635,0.47048380970954895,0.021321356296539307,-0.018420126289129257,-0.05223888158798218,-0.053108394145965576,-0.00025409460067749023
37,-0.6631807316699626,0.531370006196376,-0.3177045280043909,-0.5307400226593018,-0.506714940071106,-0.6793784499168396,0.10455901175737381,0.017650656402111053,-0.5741360783576965,-0.07739901542663574,0.018159031867980957,-0.0461311936378479
38,-0.6446954945388919,0.5625244157287327,-0.3627401459469577,-0.5083547830581665,-0.533323347568512,-0.6761224865913391,0.05999750271439552,-0.18698647618293762,-0.31799784302711487,0.05550450086593628,0.026197493076324463,-0.02552241086959839
39,-0.6442501898185704,0.574741857794174,-0.3755159574116994,-0.5041024684906006,-0.5436181426048279,-0.671088695526123,-0.01045981701463461,-0.10604572296142578,-0.07361140102148056,0.026700735092163086,-0.06618410348892212,-0.004753589630126953
40,-0.6415293414396954,0.5914863223401303,-0.3924245390238757,-0.49675729870796204,-0.557595431804657,-0.6650710701942444,0.09419723600149155,-0.03258169814944267,-0.2078622430562973,-0.008171230554580688,-0.05751681327819824,-0.045851171016693115
41,-0.646352383563465,0.6217804965547764,-0.4066681102861909,-0.4895577132701874,-0.5824833512306213,-0.6488808989524841,0.022993676364421844,-0.2422342598438263,-0.36158645153045654,0.027033329010009766,-0.04120439291000366,0.01097196340560913
42,-0.6597448111514834,0.6385050314765309,-0.48591954445119856,-0.49216336011886597,-0.5959956645965576,-0.6344796419143677,-0.64683997631073,-1.0212531089782715,-0.8365713357925415,0.10430020093917847,-0.10348248481750488,0.012653470039367676
43,-0.6918443798397309,0.6441766675706243,-0.6477768433976118,-0.5101081728935242,-0.600540280342102,-0.6157442927360535,-0.8503079414367676,-1.4729366302490234,-1.0181461572647095,0.13405531644821167,-0.04634082317352295,-0.13614779710769653
44,-0.7352500819462814,0.6403837676669354,-0.7488994042879771,-0.5378701090812683,-0.5975032448768616,-0.5947147607803345,-0.15893211960792542,-1.1933928728103638,-0.7760637998580933,-0.02670508623123169,0.1058344841003418,-0.3628658056259155
45,-0.7510172836949279,0.7415317824436338,-0.7177547021519625,-0.5032128095626831,-0.6754183173179626,-0.5390612483024597,0.9510608315467834,0.8431863784790039,-0.17695893347263336,-0.0655432939529419,0.10525840520858765,-0.025849640369415283
46,-0.7034751011072591,0.8109780762666843,-0.6944702978049374,-0.4455585777759552,-0.7249612212181091,-0.5252702832221985,-0.4835575520992279,0.5712586641311646,-0.41921350359916687,-0.08897203207015991,0.02926725149154663,0.403184711933136
47,-0.7130084193197109,0.8804144966118684,-0.7162004207160638,-0.4165593981742859,-0.7710028886795044,-0.48169782757759094,1.4851232767105103,0.26932865381240845,-0.30048784613609314,-0.05580693483352661,0.0715399980545044,-0.12895894050598145
48,-0.7531008326397787,0.9578643995132881,-0.6419309597942428,-0.3934284746646881,-0.8179649114608765,-0.41969946026802063,1.4358596801757812,-0.008867859840393066,-0.8939106464385986,-0.06152760982513428,0.17558503150939941,-0.09452176094055176
49,-0.8423232981746464,1.0954674338876642,-0.5441922994290705,-0.3414805233478546,-0.8891422748565674,-0.3046591579914093,0.7779504656791687,0.45329028367996216,-1.25375497341156,0.07121685147285461,0.12891876697540283,0.022737711668014526
50,-0.6278922103235517,1.188793511583335,-0.6951403709907137,-0.21898576617240906,-0.927919864654541,-0.30167844891548157,-0.5619760155677795,0.18351484835147858,-0.22051697969436646,-0.07869790494441986,-0.11317199468612671,-0.22699281573295593
51,-0.5813231074912312,1.1573275066049455,-0.8150938226674563,-0.22063404321670532,-0.9157326221466064,-0.3357892334461212,-0.8310978412628174,-1.3208485841751099,0.04856551066040993,-0.006309926509857178,0.24095845222473145,-0.21856260299682617
52,-0.6725425264897843,1.0346294563341756,-0.8498715119564351,-0.31824442744255066,-0.8596731424331665,-0.3996032774448395,-2.9668843746185303,-1.1098741292953491,1.0210233926773071,0.04766029119491577,0.5040059089660645,0.3090575933456421
53,-0.7562951796804427,0.6328317286212969,-0.9133194957638235,-0.5533466935157776,-0.5914304852485657,-0.5865299105644226,-1.7064692974090576,-1.8189948797225952,3.37312912940979,-0.2954234480857849,-0.23571789264678955,-0.3055294156074524
54,-0.9040414013124594,0.2509645978042171,-0.8296538273997536,-0.7612151503562927,-0.2483384609222412,-0.5990655422210693,-1.9371675252914429,-0.6016433238983154,2.533778667449951,-0.3960724472999573,-0.3079512119293213,-0.18677735328674316
55,-1.0611306014635358,-0.04940305974001131,-0.8285938890009105,-0.871842622756958,0.04938296601176262,-0.48729023337364197,-2.057234764099121,-2.8806660175323486,1.4930014610290527,-0.4065691828727722,-0.5723016858100891,-0.12736430764198303
56,-1.3043991012113982,-0.21235798133239797,-0.8448348869932066,-0.9430545568466187,0.21076549589633942,-0.2573437988758087,-0.5757379531860352,-2.1200709342956543,1.2401264905929565,0.012680530548095703,-0.5913654565811157,-0.5015062093734741
57,-1.3913271489503145,-0.3006140088439245,-0.9214847555143983,-0.9398137331008911,0.2961067259311676,-0.17050211131572723,-0.7935936450958252,0.19056838750839233,0.028784651309251785,0.06308948993682861,-0.07845532894134521,-0.16780054569244385
58,-1.4668600521802542,-0.2805563999151776,-1.0258886591668053,-0.955716073513031,0.2768903374671936,-0.09969280660152435,-1.8298335075378418,-0.9207378029823303,-0.010299580171704292,0.357144296169281,0.2361558973789215,0.08197736740112305
59,-1.5838858984239745,-0.27459454829336816,-1.138597053468165,-0.9624528288841248,0.2711566984653473,0.012598815374076366,0.15985935926437378,0.04366932064294815,-1.1930890083312988,-0.18531328439712524,-0.6704486608505249,-0.07438158988952637
60,-1.5301239972010594,-0.1519961760779114,-1.048892780090047,-0.9876533150672913,0.15141159296035767,-0.04019232466816902,0.030229931697249413,0.17470192909240723,-1.5720638036727905,0.02277904748916626,0.028138533234596252,0.1128852367401123
61,-1.504065827195405,-0.05731424450151827,-1.0809541032129748,-0.9961358904838562,0.05728287249803543,-0.06657148897647858,-0.5706475377082825,0.3369296193122864,0.22691276669502258,-0.15832877159118652,-0.05357498303055763,-0.09488176554441452
62,-1.4749124995636511,-0.15507693558499977,-1.1063545186274517,-0.9834614396095276,0.15445610880851746,-0.09458809345960617,-0.26234742999076843,0.009000105783343315,1.687761664390564,0.2097187638282776,0.12383367121219635,0.02276492863893509
63,-1.5022727668528852,-0.448259062675243,-1.1227661082947613,-0.8990880846977234,0.4333972632884979,-0.0617053247988224,-0.24236585199832916,0.16746343672275543,3.0278756618499756,0.1896154284477234,0.07406425476074219,0.2081897258758545
64,-1.4366632253118234,-0.7486350176754282,-1.1940442828345317,-0.726037859916687,0.680639386177063,-0.09797398746013641,-0.1895800679922104,1.01864755153656,2.280186891555786,0.024560868740081787,0.07250386476516724,-0.14079557359218597
65,-1.3541098570852388,-0.872748613735194,-1.1754523409029398,-0.6276934742927551,0.7660984396934509,-0.1381821632385254,-0.860429584980011,0.6139113903045654,0.8354070782661438,0.03810906410217285,0.21969568729400635,-0.11428976058959961
66,-1.2661295507677985,-1.0676945551690429,-1.2805326947137763,-0.4599408805370331,0.8760913014411926,-0.14463163912296295,-2.2807743549346924,1.7380268573760986,4.228542327880859,-0.10985282063484192,-0.2934650182723999,-0.06267420947551727
67,-1.2451227387403379,-1.2507602042731827,-1.5709466339748515,-0.298063725233078,0.949224054813385,-0.10065551847219467,-0.9918585419654846,3.0385043621063232,1.6958339214324951,0.01942300796508789,-0.08153313398361206,-0.09908197820186615
68,-1.1542462834417568,-1.4438242502921055,-1.363938279746302,-0.11580365896224976,0.9919498562812805,-0.05123627930879593,-0.4583870470523834,-1.790292501449585,1.6936619281768799,0.060109078884124756,-0.4959476590156555,-0.16575896739959717
69,0.9772115290402855,-1.5046578712155774,0.7308388344789067,0.05478465557098389,0.9978136420249939,-0.03696649521589279,-0.06210748478770256,-0.17076371610164642,1.8650075197219849,-0.10054577887058258,-0.11088132858276367,-0.03224736079573631
70,1.4950149765074807,-1.2682748824588814,1.352524438932528,0.2970730662345886,0.9545882940292358,-0.022555790841579437,-0.8472327589988708,-0.8110775351524353,2.8752453327178955,0.17410308122634888,0.18840175867080688,0.17868369817733765
71,1.6898659784923473,-1.2381003820184373,1.5480139024227726,0.3242802917957306,0.9451652765274048,0.038795456290245056,0.04914255812764168,-0.39619097113609314,-1.1423879861831665,-0.1464390754699707,0.06792682409286499,-0.15859222412109375
72,1.716219177142116,-1.2822382889345758,1.603072621953881,0.2815665304660797,0.9586552381515503,0.04123730957508087,-0.12449872493743896,-0.2653149962425232,-0.21378308534622192,0.027195066213607788,-0.04950600862503052,-0.002800464630126953
73,1.8049235760626545,-1.3043781266680947,1.7227934894743815,0.25609472393989563,0.9647200703620911,0.06107887625694275,-0.05797535553574562,-0.17463703453540802,-0.2741183340549469,0.022744417190551758,-0.00471341609954834,-0.03674113750457764
74,1.7717971913403283,-1.3564126751518617,1.702778659228461,0.20846180617809296,0.9771077036857605,0.04247456043958664,0.17953304946422577,0.0004940289072692394,-0.7206653952598572,-0.010631635785102844,0.05231118202209473,-0.004068139940500259
75,1.7871281993877668,-1.4567186325800714,1.6874153437378197,0.11117655038833618,0.9935001730918884,0.024433381855487823,0.37884825468063354,0.7286901473999023,-0.9059450030326843,-0.15763957798480988,-0.03044182062149048,-0.11322426795959473
76,1.7253583057646498,-1.4665641937380094,1.5831371314019544,0.10280409455299377,0.9945727586746216,0.016017356887459755,0.12262638658285141,-0.03101998195052147,0.10947310924530029,0.007562726736068726,-0.06210809946060181,-0.022166728973388672
77,1.6757338119311131,-1.4631510903678566,1.5171276366806732,0.10684584826231003,0.9942118525505066,0.011253472417593002,0.08990555256605148,0.3647916316986084,0.007988881319761276,0.07863999158143997,-0.03940844535827637,-0.010322690941393375
78,1.7206663788599625,-1.4650212094431363,1.512684928253818,0.10439479351043701,0.994411051273346,0.01576385460793972,-0.11307062953710556,0.30733510851860046,-0.08244623243808746,-0.06334865093231201,0.002171039581298828,-0.02545320987701416
79,1.6721100637689819,-1.4696624352288095,1.44525997627304,0.10044434666633606,0.9948903322219849,0.010211354121565819,0.1634826809167862,0.12478896230459213,0.006032868754118681,0.03514525294303894,0.009565234184265137,-0.04208695888519287
80,1.397543128421045,-1.4663205517633042,1.1787439540596978,0.10272549092769623,0.9945473670959473,-0.0179777592420578,0.26313909888267517,0.014366918243467808,-0.20790225267410278,-0.11145350337028503,0.07506334781646729,-0.023297252133488655
81,1.3451826519295655,-1.4667004579057636,1.0997338325070385,0.10127367824316025,0.9945869445800781,-0.02324446476995945,0.006021417677402496,0.2074020802974701,-0.023517567664384842,-0.02453725039958954,-0.0416145920753479,-0.021433232352137566
82,1.283909096538721,-1.4656788067417101,1.030822169465488,0.10063549876213074,0.9944802522659302,-0.029690084978938103,0.06322029232978821,0.0730457678437233,-0.011905998922884464,-0.02548597753047943,0.0008962750434875488,-0.003101048991084099
83,1.202496845307559,-1.4654713717345698,0.9566046125691238,0.09808062016963959,0.9944584369659424,-0.03785010427236557,-0.014070841483771801,-0.052863944321870804,-0.05025032162666321,-0.028149589896202087,-0.007245302200317383,0.03101414442062378
84,1.1275116973749133,-1.4644495671867859,0.905580345561412,0.09588722139596939,0.9943504929542542,-0.04552718997001648,-0.023824431002140045,-0.29874441027641296,-0.02075032889842987,0.018889397382736206,-0.03084951639175415,0.006144225597381592
85,1.0408129312624932,-1.4619648571193025,0.8505821479666381,0.09371592104434967,0.9940837025642395,-0.0549076609313488,0.07913214713335037,-0.2340414673089981,-0.08097560703754425,0.05910085141658783,-0.023716330528259277,0.0015019215643405914
86,0.8801995894763425,-1.4728021533712516,0.6868803334286512,0.07542023807764053,0.9952024221420288,-0.062322746962308884,0.19337627291679382,-0.1513918936252594,0.0024272038135677576,-0.062328189611434937,0.004614472389221191,-0.08968532085418701
87,0.8422117677698648,-1.4621074569170363,0.6620413706580907,0.08093555271625519,0.9940991997718811,-0.07222459465265274,0.056990332901477814,-0.1847873330116272,0.1365043967962265,0.013165399432182312,-0.0024304986000061035,-0.012766838073730469
88,0.8442455124008376,-1.4480091485286322,0.682969354884002,0.09154951572418213,0.9924710988998413,-0.08136235177516937,0.007057970389723778,-0.1851930022239685,0.11757141351699829,0.021869070827960968,-0.006478667259216309,0.0001245737075805664
89,0.8714233169014158,-1.4389539229693225,0.7310239979040953,0.10060007870197296,0.9913213849067688,-0.08462651073932648,0.02242954447865486,-0.20057517290115356,0.08624771237373352,0.0036174505949020386,-0.010700047016143799,-0.011946380138397217
90,0.8786116613920101,-1.4366300518187032,0.7597167255949718,0.10297907143831253,0.9910131692886353,-0.08537124842405319,0.0018389306496828794,-0.23156176507472992,0.050590816885232925,0.00955449789762497,-0.005188643932342529,-0.02256941795349121
91,0.8512951481388662,-1.4297826542388354,0.7580261604314502,0.10571034252643585,0.9900740385055542,-0.09262189269065857,0.03874500095844269,-0.23993182182312012,0.002897419035434723,-0.03899891674518585,-0.0120772123336792,-0.012221217155456543
92,0.7849332476263094,-1.4285148756598698,0.7175381674887421,0.10022250562906265,0.9898950457572937,-0.10031574219465256,0.04766719415783882,-0.18029530346393585,-0.012346645817160606,-0.016131319105625153,-0.0380212664604187,0.012486159801483154
93,0.747836381966568,-1.4255630316501011,0.6996928366169527,0.0984196811914444,0.9894721508026123,-0.10610563308000565,-0.05830007791519165,-0.025287818163633347,-0.014288331381976604,-0.016617313027381897,-0.007279157638549805,0.02108365297317505
94,0.7608001164303374,-1.424095995575525,0.7112604198003468,0.1007876992225647,0.9892587661743164,-0.10587215423583984,-0.0051625994965434074,-0.020318329334259033,-0.011976204812526703,-0.023181498050689697,-0.010376930236816406,-0.038033485412597656
95,0.7050292697765257,-1.4232407418491153,0.6543683600463678,0.0952775701880455,0.9891334176063538,-0.11196976900100708,0.043518148362636566,0.09170953184366226,-0.04597507789731026,-0.0382402241230011,-0.009305596351623535,-0.015700511634349823
96,0.663971638785902,-1.4237614625884831,0.5967206621838168,0.09028437733650208,0.9892098307609558,-0.11538108438253403,0.031852301210165024,0.1835336536169052,-0.06634719669818878,-0.010831862688064575,-0.00890892744064331,-0.021261394023895264
97,0.6203622233380419,-1.4234637820755227,0.5300499730957478,0.08533908426761627,0.9891662001609802,-0.11944624036550522,0.044997651129961014,0.26441851258277893,-0.05416954681277275,-0.0001340135931968689,-0.0141754150390625,0.0014195516705513
98,0.6029406283069981,-1.4228184731811715,0.4854430331932728,0.08360760658979416,0.989071249961853,-0.12144104391336441,0.016652338206768036,0.25597548484802246,-0.03958125039935112,0.013636656105518341,-0.016491293907165527,0.006130337715148926
99,0.6112733761809974,-1.4236475526303902,0.4729835192520125,0.08414554595947266,0.9891931414604187,-0.12006796896457672,-0.004213355481624603,0.1327103227376938,-0.012726442888379097,0.024863235652446747,-0.018825769424438477,0.0036434009671211243
100,0.6424326091683735,-1.4230007896552603,0.4970565998502563,0.0882287546992302,0.9890981316566467,-0.11790057271718979,0.0032273828983306885,0.012405827641487122,0.015441273339092731,0.024976201355457306,-0.011803209781646729,0.00013328343629837036
101,0.6661841060246976,-1.421119640777731,0.5225384376119641,0.0921541377902031,0.9888193607330322,-0.1172352284193039,-0.00654572295024991,-0.0484280064702034,0.015086810104548931,0.0021451860666275024,-0.010669827461242676,-0.0035839229822158813
102,0.6730044423243929,-1.419888980124228,0.5340973486153159,0.09370943903923035,0.9886350631713867,-0.1175546869635582,-0.0018880069255828857,-0.034833312034606934,0.011909565888345242,-0.015492886304855347,-0.01277458667755127,-0.0053853243589401245
103,0.6694115169268697,-1.4198231944897528,0.5315677913014821,0.09332742542028427,0.988625168800354,-0.11794237792491913,0.0009134554420597851,0.016752544790506363,0.0006603996735066175,-0.011204615235328674,-0.013115525245666504,-0.006950795650482178
104,0.6622084907282136,-1.4202305597017078,0.5212034899597071,0.09222772717475891,0.9886863827705383,-0.11829379200935364,0.0011737437453120947,0.06297990679740906,0.0016348289791494608,-0.007907658815383911,-0.01686936616897583,0.0032578110694885254
105,0.6713439592160821,-1.4210741780117608,0.521235747459523,0.0927850753068924,0.9888125658035278,-0.1167924702167511,-0.013973082415759563,0.11387696862220764,0.0016612156759947538,-0.006481379270553589,-0.004666566848754883,-0.0005628913640975952
106,0.6850143504338897,-1.423034733195074,0.5234063924912399,0.09314590692520142,0.9891030788421631,-0.1140112653374672,-0.030461201444268227,0.11035361140966415,-0.00287404446862638,-0.00014360249042510986,-0.014036118984222412,0.0027594193816184998
107,0.7082876695499649,-1.425328218090038,0.5354691421480877,0.09429821372032166,0.9894381761550903,-0.11009000241756439,-0.02150002308189869,0.1142897754907608,0.001509475870989263,0.00018419325351715088,-0.007046878337860107,-0.00212310254573822
108,0.7187138804578158,-1.4259935393506868,0.5364450400647026,0.09500809013843536,0.9895343780517578,-0.10860611498355865,-0.01253408845514059,0.07697460055351257,-0.0047841258347034454,0.0004203692078590393,-0.013002395629882812,-0.002264261245727539
109,0.7286796893077119,-1.4267113161222178,0.5393377657605021,0.09561222791671753,0.9896376729011536,-0.10712343454360962,-0.009615675546228886,0.06330883502960205,-0.0066259996965527534,-0.0017249062657356262,-0.012663304805755615,-0.001427583396434784
110,0.7435652734765016,-1.4273043781863972,0.5479333905288148,0.0967988595366478,0.9897226691246033,-0.1052563413977623,-0.019498687237501144,0.054659295827150345,0.0075211431831121445,-0.00021072477102279663,-0.015922069549560547,0.0023357942700386047
111,0.7627876429107979,-1.4279986190441776,0.5628600802573407,0.09832955151796341,0.98982173204422,-0.10287977755069733,-0.021726049482822418,0.031339049339294434,0.014333732426166534,-0.007036216557025909,-0.01478511095046997,0.0004017949104309082
112,0.7858259877992404,-1.4284951555214542,0.5827232036385619,0.10032573342323303,0.9898922443389893,-0.10023992508649826,-0.017899824306368828,0.029356975108385086,0.02635740488767624,0.0011299476027488708,-0.011040985584259033,0.005757518112659454
113,0.8116382485143928,-1.4278263014593637,0.6069627741327619,0.10335994511842728,0.9897971749305725,-0.09807310998439789,-0.01582084223628044,0.014183048158884048,0.04247944429516792,-0.0001800060272216797,-0.01151043176651001,-0.0024365782737731934
114,0.8456753987300529,-1.4261554849332267,0.6418092073643605,0.1078752726316452,0.9895577430725098,-0.09559572488069534,-0.01929415762424469,-0.0301818810403347,0.0595368929207325,0.005192361772060394,-0.009607791900634766,0.011214613914489746
115,0.9052241678793063,-1.4221101645283465,0.7030465590078324,0.11652067303657532,0.9889665842056274,-0.09147714823484421,-0.06491594016551971,0.12179475277662277,0.16099710762500763,-0.0011642351746559143,-0.015608429908752441,0.0334479883313179
116,1.0938465764793537,-1.4043654237975893,0.860892610195754,0.14717604219913483,0.9861823320388794,-0.0760517492890358,-0.2023804485797882,0.2838515341281891,0.1673857420682907,-0.027898088097572327,0.07950681447982788,-0.07586473226547241
117,1.1897013633359002,-1.3955376291473829,0.960820676425521,0.16185438632965088,0.9846814870834351,-0.0648522898554802,0.0019315836252644658,-0.38061094284057617,0.14056116342544556,0.04862534999847412,-0.012772798538208008,0.003038935363292694
118,1.1737577979214522,-1.3828765597922008,1.0006486081810446,0.17228402197360992,0.9823949933052063,-0.07223984599113464,0.012265373021364212,-0.667693555355072,0.17215019464492798,-0.0017212629318237305,-0.011951088905334473,0.026066772639751434
119,1.1686873142124092,-1.3666545440652629,1.0579235021669078,0.18655648827552795,0.9792353510856628,-0.07933901250362396,-0.1282835751771927,-0.4841621518135071,0.21752150356769562,0.008069336414337158,-0.011690855026245117,0.05642033368349075
120,1.2247273806216494,-1.3486593484932,1.1565710224946057,0.20725290477275848,0.9754288792610168,-0.0747312530875206,-0.12108685076236725,-0.35690805315971375,0.2816486954689026,0.022620752453804016,-0.020381271839141846,-0.008383393287658691
121,1.270289509916471,-1.331618862448705,1.2417243847260253,0.22628743946552277,0.9715331792831421,-0.07012458890676498,-0.16270329058170319,-0.4514113664627075,0.1262010931968689,-0.02468833327293396,-0.011190712451934814,-0.010136663913726807
122,1.2897677040895479,-1.333818106207841,1.3091075125578608,0.22555658221244812,0.9720517992973328,-0.06511104106903076,-0.15709473192691803,-0.5121354460716248,-0.06757275015115738,-0.00557062029838562,-0.001867532730102539,-0.02233707904815674
123,1.2778623172466337,-1.3479671034224308,1.362123017332781,0.21157516539096832,0.9752761125564575,-0.06381337344646454,-0.13377459347248077,-0.6792173385620117,-0.11011140048503876,0.0415680855512619,-0.019740402698516846,-0.0017078965902328491
124,1.244186750716424,-1.3622069708003608,1.403772296811913,0.1961328685283661,0.9783239960670471,-0.06643825769424438,-0.14268620312213898,-0.8231214284896851,-0.12504872679710388,0.07199457287788391,-0.02886110544204712,0.032914698123931885
125,1.1971191745409246,-1.3800637325738405,1.4492682555360423,0.17649590969085693,0.981865644454956,-0.06920397281646729,-0.18572162091732025,-0.9687275886535645,-0.14432908594608307,0.04805241525173187,-0.041802167892456055,0.044438958168029785
126,1.158945329950152,-1.3998011429667387,1.5120765573884305,0.15593503415584564,0.9854159355163574,-0.0681176707148552,-0.12411175668239594,-1.053477168083191,-0.12748724222183228,0.09093691408634186,-0.01602494716644287,-0.015546269714832306
127,1.0735327691548262,-1.4199453299813194,1.5409938538867292,0.1320795714855194,0.9886435270309448,-0.07168680429458618,-0.13239994645118713,-1.1207786798477173,-0.19549435377120972,0.03051808476448059,-0.02320462465286255,0.006653837859630585
128,1.0065295878642588,-1.4487202926009428,1.5824313350110297,0.10289628803730011,0.992557942867279,-0.0651240274310112,-0.2376369833946228,-0.9883366227149963,-0.22963891923427582,0.04747907817363739,-0.03812074661254883,0.0348811149597168
129,1.0336884941773503,-1.4757569685909986,1.703834707314381,0.08153460919857025,0.9954871535301208,-0.048554275184869766,-0.28183797001838684,-0.8875221014022827,-0.10679882764816284,0.06705549359321594,-0.03493112325668335,0.024063944816589355
130,1.1986930839195857,-1.4902623673027624,1.9513888483678121,0.07494282722473145,0.9967588782310486,-0.029249045997858047,-0.16143541038036346,-0.8339688777923584,0.016800276935100555,0.07016826421022415,-0.03203713893890381,-0.008958939462900162
131,1.3883211607844905,-1.4939960372961898,2.226454069544653,0.0754513293504715,0.9970523118972778,-0.013922869227826595,-0.3168984353542328,-0.862334668636322,-0.03443937748670578,0.01192048192024231,-0.003186345100402832,0.044684529304504395
132,1.615458218620029,-1.5093767118809898,2.543116399268907,0.06132172420620918,0.9981144070625305,0.0027405666187405586,-0.17329972982406616,-0.8345787525177002,-0.2590712308883667,-0.0985378846526146,0.002114593982696533,0.012502908706665039
133,1.952781522294227,-1.5245073308677002,2.958573005690688,0.04293850436806679,0.9989288449287415,0.017249103635549545,-0.1311032772064209,-0.9877419471740723,-0.1879829615354538,-0.08665493130683899,0.019580066204071045,-0.043616294860839844
134,1.9415712583178404,-1.5402092640694591,3.054952827683677,0.02850240282714367,0.9995322227478027,0.011080450378358364,0.01314814854413271,-1.0757172107696533,-0.17326126992702484,-0.06870931386947632,-0.03354412317276001,-0.08781695365905762
135,1.8933486793771586,-1.5544205077845548,3.10818714957528,0.015526635572314262,0.9998658895492554,0.005189381539821625,0.05849631130695343,-0.8762884140014648,-0.07493948936462402,-0.021752240136265755,-0.015399456024169922,-0.01417684555053711
136,1.7161605179967037,-1.5591877808542494,3.0115130589780224,0.011491833254694939,0.9999326467514038,0.001682367641478777,-0.006171870045363903,-0.722214937210083,-0.008361443877220154,-0.021684706211090088,-0.019540071487426758,-0.023120999336242676
137,1.7443352419326292,-1.5565578005427116,3.102785683313292,0.014020003378391266,0.9998986124992371,0.002457737922668457,-0.04172930866479874,-0.552686333656311,0.043169740587472916,-0.05407431721687317,-0.02661687135696411,-0.05586349964141846
138,1.809686027191877,-1.543697984581913,-3.0712378936048697,0.02632649801671505,0.9996328353881836,0.006411561276763678,-0.016813570633530617,-0.4218984842300415,0.17827962338924408,-0.016072601079940796,-0.009398460388183594,-0.08937358856201172
139,1.6880710631241889,-1.522810784017429,3.1238141953538308,0.047637492418289185,0.9988489151000977,0.0056124283000826836,0.0017280797474086285,-0.27052754163742065,0.20707164704799652,-0.09994462132453918,0.005331933498382568,-0.08663654327392578
140,1.5898091903805518,-1.5032667295350617,3.045063702135838,0.06746771931648254,0.9977207183837891,0.0012829091865569353,0.02232949435710907,-0.09457619488239288,0.1738271415233612,-0.052575111389160156,0.010259628295898438,-0.014817476272583008
141,1.56274403346225,-1.4823348305206656,3.029185918388808,0.08834344893693924,0.9960898160934448,-0.0007113827741704881,-0.0019385605119168758,-0.021080411970615387,0.22185645997524261,0.06320685148239136,0.032062649726867676,0.03756141662597656
142,1.5504456065143686,-1.4568060092303319,3.007404813782666,0.11372049897909164,0.9935101270675659,-0.002314613666385412,0.06573080271482468,0.07896994054317474,0.252918004989624,0.08491843938827515,-0.10206115245819092,-0.022221505641937256
143,1.5333432066391501,-1.4325371932596656,2.987825545260388,0.13772225379943848,0.9904574155807495,-0.005160541273653507,0.04406706616282463,0.0009647822007536888,0.23349429666996002,0.07652638852596283,-0.010232865810394287,0.06366276741027832
144,1.5155979078399564,-1.4075753690652524,2.9673087030835,0.16224981844425201,0.9867089986801147,-0.008965040557086468,0.10576572269201279,-0.03997192159295082,0.14839696884155273,0.10400080680847168,0.002350449562072754,-0.03319501876831055
145,1.4738231451333161,-1.3826022502437256,2.930093165507103,0.1862061768770218,0.9823436737060547,-0.018113819882273674,0.07031664997339249,-0.06475703418254852,0.15865670144557953,0.04003585875034332,-0.04989439249038696,0.00563216395676136
146,1.4422487020478383,-1.3579911985812063,2.8987778546004974,0.20946022868156433,0.9774423241615295,-0.027074912562966347,0.10373067110776901,0.060322582721710205,0.20913994312286377,0.018597662448883057,-0.028757572174072266,-0.02803981304168701
147,1.3769731911012124,-1.332882090360833,2.821650915772023,0.23126307129859924,0.9718316793441772,-0.04539400711655617,0.275637686252594,0.1752365529537201,0.2864706516265869,-0.000351831316947937,0.021515488624572754,-0.06085294112563133
148,1.3129574057532893,-1.3114785279817056,2.7280753609223676,0.24794511497020721,0.9665651321411133,-0.06538531929254532,0.1836571842432022,0.4020162522792816,0.023535508662462234,-0.05934646725654602,-0.03701496124267578,-0.07336288690567017
149,1.3197339993984907,-1.3165645465840965,2.6831010193449405,0.24361711740493774,0.967856764793396,-0.062481410801410675,0.09777889400720596,0.6258834004402161,-0.13323593139648438,-0.030390828847885132,-0.01941627264022827,-0.021472454071044922
150,1.3056810009140158,-1.3244962403808658,2.6004183860180743,0.23529908061027527,0.9698211550712585,-0.06388520449399948,0.03829546272754669,0.7248967885971069,-0.21218642592430115,0.02336794137954712,-0.009127795696258545,-0.015475749969482422
151,1.3546141995551113,-1.3514353897572802,2.567307807931456,0.21254047751426697,0.9760367274284363,-0.0466768741607666,-0.03846602514386177,0.8338621258735657,-0.30475056171417236,0.03774942457675934,-0.049401044845581055,-0.0068814717233181
152,1.4085401179354475,-1.381111435094677,2.538623476545075,0.18607336282730103,0.9820637106895447,-0.03045932948589325,-0.022647246718406677,0.8342130184173584,-0.24742060899734497,0.04885093867778778,0.010703742504119873,-0.030560556799173355
153,1.4287736991626534,-1.403860661849273,2.4639203812563477,0.16448858380317688,0.98609858751297,-0.023519447073340416,0.11173120141029358,0.875157356262207,-0.2871658205986023,0.01776239275932312,0.00914067029953003,-0.07299238443374634
154,1.4316880995248427,-1.4260089130786244,2.3816208483138976,0.142888605594635,0.9895365834236145,-0.020006196573376656,0.14588476717472076,1.0680179595947266,-0.21455085277557373,0.008676961064338684,-0.023914575576782227,-0.018171312287449837
155,1.4219385482197913,-1.4449688750611758,2.2526763104433436,0.12410882115364075,0.9920941591262817,-0.018612241372466087,0.10866829752922058,1.2608126401901245,-0.22936344146728516,-0.02451471984386444,-0.03506278991699219,0.03893697261810303
156,1.4681890137688036,-1.4680833159503928,2.1642125032821067,0.10199207812547684,0.9947296380996704,-0.010502014309167862,-0.01517310831695795,1.42044198513031,-0.26253315806388855,-0.027697041630744934,-0.037393391132354736,0.09674465656280518
157,1.6776089172519755,-1.4932234936018332,2.2276092597382906,0.07705365121364594,0.9969927072525024,0.008261743001639843,-0.08494618535041809,1.3789314031600952,-0.21528710424900055,-0.061321839690208435,0.021226227283477783,0.004311561584472656
158,1.982952116680834,-1.5092610941025753,2.406787563659801,0.05634450167417526,0.9981073141098022,0.024633627384901047,0.009531179443001747,1.217262864112854,-0.13781094551086426,0.013830669224262238,-0.029036998748779297,-0.03888535872101784
159,2.057895759407997,-1.519564993271441,2.3680681441787366,0.04525298252701759,0.9986879825592041,0.02396906167268753,0.12691359221935272,1.0462387800216675,-0.05914115160703659,-0.009730517864227295,0.0018308162689208984,-0.045728087425231934
160,1.968978920779912,-1.5283335162183664,2.1839368486580337,0.03912688419222832,0.9990985989570618,0.016458826139569283,0.11167392134666443,0.9087458848953247,-0.010315289720892906,-0.016513369977474213,-0.014754235744476318,0.006383534520864487
161,1.7519502773878142,-1.530309122972058,1.8758974447395975,0.039812613278627396,0.9991804957389832,0.007292155642062426,0.12668076157569885,0.8879695534706116,0.0581519640982151,-0.04045348986983299,-0.00764918327331543,0.004624962341040373
162,1.4931130388847522,-1.5219254299270872,1.5297249458789643,0.04870372638106346,0.9988060593605042,-0.0037910945247858763,0.14500679075717926,0.8035947680473328,0.10841201990842819,-0.04136424884200096,-0.007000088691711426,0.006537675857543945
163,1.352302500649372,-1.5087055407673728,1.3175496170434318,0.06057536602020264,0.9980729818344116,-0.013450060971081257,0.10522399842739105,0.6062493324279785,0.11839192360639572,-0.016279105097055435,-0.017863690853118896,0.02718299627304077
164,1.2782505788104894,-1.4916860736117992,1.1973477038947384,0.0756697952747345,0.9968724250793457,-0.022790784016251564,0.1193392276763916,0.3655971586704254,0.17275577783584595,0.030287228524684906,-0.013947069644927979,0.029992880299687386
165,1.2496627307265824,-1.4723761745918862,1.137843086930994,0.09323848783969879,0.9951606392860413,-0.031015591695904732,0.10309036076068878,0.26806575059890747,0.14667126536369324,-0.0018383413553237915,-0.03031688928604126,-0.016668081283569336
166,1.225890022126266,-1.4558531177503962,1.0896541700374585,0.10793605446815491,0.993401288986206,-0.03877783566713333,0.1353984773159027,0.1999020129442215,0.15269427001476288,0.04308018088340759,-0.022316694259643555,-0.017252445220947266
167,1.1994139735149687,-1.43712621387871,1.0345848911753017,0.1241869181394577,0.9910794496536255,-0.04836513474583626,0.08333435654640198,0.3134582042694092,0.13485801219940186,0.0473523885011673,-0.010686993598937988,-0.024922847747802734
168,1.1662298485543257,-1.417309044023809,0.9619232076249168,0.14054371416568756,0.9882439374923706,-0.06017891317605972,0.20518118143081665,0.4815763831138611,0.11402634531259537,0.048405855894088745,-0.016060709953308105,-0.060777485370635986
169,1.160356587570053,-1.407254906803478,0.9062083953228469,0.1492909938097,0.986656904220581,-0.06496459245681763,0.05255209282040596,0.41673651337623596,0.0034653060138225555,0.06128029525279999,-0.043694257736206055,0.028404533863067627
170,1.146657167299799,-1.4091517715183395,0.8458098161880472,0.14668084681034088,0.9869639277458191,-0.06623320281505585,0.07947064936161041,0.4498709440231323,-0.13326218724250793,0.009386032819747925,-0.04578661918640137,-0.04094450920820236
171,1.1041598841095945,-1.4268905574323414,0.7597674174981961,0.1280766874551773,0.9896634221076965,-0.0645175650715828,0.009237268939614296,0.3453393280506134,-0.2605435252189636,0.0639551430940628,0.047262728214263916,-0.003719739615917206
172,1.015252589945739,-1.4398246530845369,0.6405648636201441,0.11095798760652542,0.9914354681968689,-0.0688781589269638,0.06145566701889038,0.16668915748596191,-0.14966219663619995,0.09001551568508148,-0.04966294765472412,-0.0356292724609375
173,0.9406829315450365,-1.444135628635809,0.5560532092143677,0.10206358134746552,0.991989254951477,-0.07443378865718842,0.06809073686599731,0.12664827704429626,-0.07948639243841171,0.002626970410346985,-0.01737987995147705,0.0036025047302246094
174,0.8794682332174177,-1.4435470424191998,0.489074623288461,0.09776768833398819,0.9919147491455078,-0.08090973645448685,0.09374663233757019,-0.01964006945490837,-0.06760186702013016,0.01702415943145752,-0.016176342964172363,-0.047767624258995056
175,0.816567254429326,-1.4389025192233398,0.42742136376353135,0.09584595263004303,0.9913145899772644,-0.0900498703122139,0.041159022599458694,0.03301234543323517,-0.02719283290207386,-0.003179311752319336,-0.004665970802307129,0.005760364234447479
176,0.7877875300802522,-1.4380867272964073,0.40082197005402737,0.09378834068775177,0.9912070035934448,-0.09334121644496918,0.014063100330531597,-0.09719192236661911,-0.018721317872405052,0.01009349524974823,-0.009731173515319824,0.0030243992805480957
177,0.773268511348061,-1.4374699560820907,0.40043301734798614,0.09284964948892593,0.991125226020813,-0.09512989223003387,0.002026441041380167,-0.1340097188949585,0.008591697551310062,-0.019775323569774628,-0.016714274883270264,-0.0018244311213493347
178,0.7612323692076323,-1.4360234702655528,0.39936715142509366,0.09268742054700851,0.9909318685531616,-0.09727900475263596,0.005937187932431698,-0.08532705903053284,0.027424583211541176,-0.011586949229240417,-0.01874864101409912,-0.010081887245178223
179,0.7575215741350227,-1.4352008717956757,0.40134294139735865,0.09288494288921356,0.9908210039138794,-0.09821349382400513,-0.011701214127242565,-0.01875203289091587,0.025293443351984024,-0.02319806069135666,-0.016059160232543945,-0.02317015826702118
180,0.7487006463690487,-1.4346942201753434,0.39386801408670485,0.0923578292131424,0.9907523989677429,-0.09939794987440109,-0.027091842144727707,-0.0017863353714346886,0.015160175040364265,-0.016567416489124298,-0.01554781198501587,-0.01067902147769928
181,0.7553946986493753,-1.4355495426669895,0.40254602401754314,0.0924401804804802,0.990868091583252,-0.09816057980060577,-0.027409939095377922,-0.022385533899068832,0.0040937429293990135,0.013822019100189209,-0.020683705806732178,-0.01336592435836792
182,0.7735833295281332,-1.4332852258559585,0.4258342716965211,0.09577745199203491,0.9905602335929871,-0.09806780517101288,-0.03254704177379608,-0.055250607430934906,0.046927668154239655,0.012132719159126282,-0.01799541711807251,-0.0003056079149246216
183,0.8199865893330456,-1.4312086765961571,0.47905111436090353,0.10172563791275024,0.9902734756469727,-0.09492121636867523,-0.0394454263150692,-0.10452426970005035,0.05059172958135605,0.035771287977695465,-0.011376559734344482,0.00010307878255844116
184,0.8477579297062383,-1.4282329512587946,0.5282026773104989,0.10653243213891983,0.9898550510406494,-0.09401039779186249,-0.03849572688341141,-0.3436177968978882,0.045810528099536896,0.05302871763706207,-0.012895822525024414,0.006424963474273682
185,0.8646658243317324,-1.4258242691382559,0.5860792729554456,0.10991956293582916,0.9895099401473999,-0.09374189376831055,-0.052308760583400726,-0.4206773042678833,0.07083672285079956,-0.0019636452198028564,-0.010246753692626953,-0.007240764796733856
186,0.8931369253054006,-1.424509351147619,0.660302008815785,0.11355768144130707,0.9893191456794739,-0.0913909375667572,-0.12362819164991379,-0.5333302617073059,0.08818759769201279,0.017744190990924835,-0.008484184741973877,0.025747597217559814
187,0.943221390785589,-1.4286762680071883,0.7884173238432202,0.1146530956029892,0.9899179339408875,-0.08317016065120697,-0.22879056632518768,-1.0140221118927002,0.09170649200677872,0.0873885378241539,-0.02388399839401245,0.06354737281799316
188,1.0080324815206823,-1.4337194423820405,0.9813648510294971,0.11557463556528091,0.9906196594238281,-0.07290522009134293,-0.24025747179985046,-1.5134063959121704,0.12370792776346207,0.04998323321342468,-0.043537139892578125,0.021071135997772217
189,1.0720805177817172,-1.4313433426273472,1.2131246661639496,0.12207034230232239,0.9902921915054321,-0.06648392975330353,-0.22626428306102753,-1.8126248121261597,0.20932061970233917,0.046707116067409515,-0.007824599742889404,0.06288284808397293
190,1.0893725357637452,-1.4242758107720117,1.4309657214283182,0.12940242886543274,0.9892850518226624,-0.06760265678167343,-0.3004816472530365,-2.1406967639923096,0.19305208325386047,0.01215335726737976,0.0004610419273376465,0.07381296157836914
191,1.057823077827506,-1.4244460410120352,1.6193368652309954,0.12705841660499573,0.9893099069595337,-0.07156803458929062,-0.1794775128364563,-2.1503844261169434,0.08928567916154861,-0.06306305527687073,0.015603363513946533,0.028446681797504425
192,0.9427513617685281,-1.4195059950786821,1.7057799924561894,0.12195443361997604,0.9885774254798889,-0.08855412155389786,-0.01759498007595539,-1.702093243598938,0.12539571523666382,-0.06891489028930664,-0.018118441104888916,-0.005104362964630127
193,0.8629864539062149,-1.4119557718296285,1.7496421572187382,0.12017834186553955,0.9874113202095032,-0.10283992439508438,0.029049865901470184,-0.8024888038635254,0.059461094439029694,-0.16574108600616455,0.015030086040496826,-0.03409242630004883
194,0.8387492671775426,-1.4096532165371598,1.7616723078050949,0.11934186518192291,0.9870445132255554,-0.10724189132452011,0.019877402111887932,0.0930279791355133,-0.022543149068951607,-0.14131450653076172,0.00195389986038208,-0.0728117823600769
195,0.8506792790929335,-1.4076922341839415,1.7007017828002389,0.1220669150352478,0.9867280125617981,-0.10708624869585037,0.14019396901130676,1.3072186708450317,-0.08772128820419312,-0.1330227255821228,0.005520462989807129,-0.05168145149946213
196,0.874855025763535,-1.4047631937557499,1.5486045540964373,0.12683746218681335,0.9862481355667114,-0.10595669597387314,0.2364693433046341,2.0088372230529785,-0.16021841764450073,-0.10356782376766205,0.011539340019226074,-0.00041234493255615234
197,0.8942360414674029,-1.403846319969736,1.3435640471452965,0.12957251071929932,0.986096203327179,-0.10404518246650696,0.30382052063941956,2.5089893341064453,-0.22028066217899323,-0.10261023044586182,0.015399158000946045,0.06673747301101685
198,0.9617339571861454,-1.3983016767651706,1.1384114554089932,0.14077691733837128,0.9851596355438232,-0.09819529950618744,0.35535427927970886,2.7742326259613037,-0.18211592733860016,-0.03437739610671997,-0.10979348421096802,0.12178540974855423
199,0.9447250092850815,-1.3908642298798475,0.834021845875267,0.14502021670341492,0.9838558435440063,-0.10486624389886856,0.3041553795337677,2.8411507606506348,-0.32278206944465637,-0.028900831937789917,0.07833898067474365,-0.010429143905639648
200,1.0514005653824823,-1.4100260792067523,0.6473126420738775,0.1389675736427307,0.9871042966842651,-0.07945606857538223,0.24541205167770386,2.912778377532959,-0.32025638222694397,0.002603486180305481,0.003923535346984863,0.08604782819747925
201,1.086498691621362,-1.4241411494683711,0.3972944296757687,0.1293260008096695,0.9892653822898865,-0.06803654879331589,0.04358121380209923,2.6497199535369873,-0.34513968229293823,0.046012744307518005,-0.060493290424346924,0.10630559176206589
202,1.289862721104501,-1.4515761645864647,0.338343170055532,0.11427513509988785,0.9929016828536987,-0.03297584876418114,0.030173219740390778,2.4721953868865967,-0.19676874577999115,0.05576881021261215,0.016390860080718994,0.12803804874420166
203,1.7208472507822035,-1.4621029385481474,0.5240561200225845,0.10726023465394974,0.9940986633300781,0.01621638610959053,-0.17880210280418396,2.551104784011841,-0.09160184860229492,-0.09628919512033463,-0.0712013840675354,0.08220279216766357
204,1.9441867254357006,-1.4670432191260296,0.5039689306862721,0.09643035382032394,0.9946224689483643,0.037778399884700775,0.168270081281662,2.4589829444885254,0.08355873078107834,-0.07117707282304764,0.023230254650115967,-0.06593084335327148
205,1.8514833542374265,-1.4647029902096185,0.16113751759916473,0.10174932330846786,0.9943773746490479,0.029334157705307007,0.4191657602787018,2.1315488815307617,0.18425364792346954,-0.11569584906101227,0.0695873498916626,-0.010550621896982193
206,1.6583134881184936,-1.452660717344123,-0.23610489613751706,0.11741120368242264,0.9930300712585449,0.010301809757947922,0.28943684697151184,2.096055507659912,0.1799871325492859,-0.19950346648693085,-0.058215558528900146,0.11901640892028809
207,1.6842223351321948,-1.4430083145983852,-0.40817486494902955,0.12662212550640106,0.9918462038040161,0.014424152672290802,0.338864266872406,1.8692516088485718,0.0827179029583931,-0.021000772714614868,-0.03629505634307861,0.08495640754699707
208,1.5906114319900921,-1.4346362437373774,-0.7052978746400028,0.13571427762508392,0.9907445311546326,0.002689544577151537,0.7310312390327454,2.173454999923706,0.22574804723262787,0.12811021506786346,-0.006018459796905518,-0.13789761066436768
209,1.4902475650735825,-1.4210028326079625,-1.0348395850142535,0.14875003695487976,0.988801896572113,-0.01200761180371046,0.27977219223976135,2.057593584060669,0.06932887434959412,-0.03528566658496857,0.0005779266357421875,-0.012436985969543457
210,1.4866391533051728,-1.4161264170958627,-1.24557410642858,0.1535085290670395,0.9880624413490295,-0.012949429452419281,0.3541986346244812,2.151324987411499,-0.04131731018424034,-0.020177245140075684,-0.026239991188049316,-0.005010186694562435
211,1.5026614632195257,-1.415276746537012,-1.4548793285754058,0.15453483164310455,0.9879311919212341,-0.010545534081757069,0.2886245548725128,2.4270670413970947,0.11977420747280121,0.09511420130729675,0.043395161628723145,0.0028856396675109863
212,1.5348873902911533,-1.427790717158187,-1.6382318347593894,0.14242663979530334,0.9897921085357666,-0.005116588436067104,0.12599292397499084,1.502647042274475,-0.27402395009994507,-0.05210988223552704,-0.07078582048416138,-0.0007733101956546307
213,1.6145958236436009,-1.4515100373225214,-1.737579233628567,0.11889056861400604,0.9928938150405884,0.005210679490119219,-0.07191669195890427,1.9392774105072021,-0.22507745027542114,-0.02582719922065735,-0.024433612823486328,0.15750908851623535
214,1.7347966510026882,-1.4706651537629276,-1.7901769292259977,0.09862338751554489,0.9949910640716553,0.01632085256278515,0.06288058310747147,1.7790203094482422,-0.23241207003593445,-0.06926548480987549,-0.03789877891540527,-0.02218019962310791
215,1.880478112196745,-1.4924201484086836,-1.8047370494886479,0.07457242906093597,0.9969301819801331,0.023861438035964966,0.10154464840888977,1.45281183719635,-0.1712559163570404,-0.03956875950098038,0.041064321994781494,-0.02489900216460228
216,1.9274821660349843,-1.5080033895293785,-1.8982682976675898,0.05880217254161835,0.9980291724205017,0.02191109210252762,0.17151974141597748,1.2120585441589355,-0.06860329955816269,-0.0032449066638946533,0.003740847110748291,-0.0635981559753418
217,1.7266053446376786,-1.5141082508031587,-2.2024265542254495,0.05596992373466492,0.9983936548233032,0.008791879750788212,0.2173062562942505,0.8054010272026062,0.03346587345004082,-0.024994589388370514,-0.0039784908294677734,-0.02810955047607422
218,1.4825052575227577,-1.5100147476408945,-2.514022213737288,0.0605095811188221,0.9981533885002136,-0.005356380715966225,0.17611399292945862,0.5686696767807007,0.05949409678578377,0.0636206567287445,-0.003966927528381348,0.03109794855117798
219,1.4642584317082388,-1.505496804547797,-2.5839161018485033,0.06488531827926636,0.9978687167167664,-0.006939019076526165,-0.027870863676071167,0.2267128974199295,0.0068078432232141495,0.05642206221818924,-0.03427606821060181,-0.036731600761413574
220,1.4748054201685987,-1.5048974272659443,-2.56557627187863,0.06554841250181198,0.9978294372558594,-0.006311448756605387,-0.12528112530708313,-0.32632607221603394,0.01650676131248474,0.12732267379760742,-0.035701751708984375,0.03672224283218384
221,1.595182939702095,-1.4917580846847285,-2.368163628561926,0.0789346918463707,0.9968780875205994,0.0019253315404057503,-0.07207073271274567,-1.0295032262802124,0.1272306740283966,0.13082793354988098,-0.09538865089416504,-0.04719817638397217
222,1.4203464944107869,-1.4808644989679496,-2.4096172547742727,0.08879680931568146,0.9959588646888733,-0.01346118375658989,0.048094965517520905,-1.6939500570297241,0.11084757000207901,-0.054754436016082764,0.05972045660018921,0.019305288791656494
223,1.2921792256677525,-1.469789102896162,-2.3346962066638937,0.09694796800613403,0.9949030876159668,-0.027732711285352707,-0.09155941754579544,-2.443182945251465,0.08189285546541214,-0.08388642966747284,0.03720146417617798,0.0932234525680542
224,1.3199816722078923,-1.4602169236593672,-2.0376182344197193,0.10690087080001831,0.9938923120498657,-0.027389058843255043,-0.3518478572368622,-2.572218656539917,0.30667707324028015,-0.01717919111251831,-0.0534932017326355,0.1360011100769043
225,1.6357779566687491,-1.428109495995645,-1.4602108120654531,0.1419024020433426,0.9898374676704407,0.009234050288796425,-0.7056432962417603,-2.512699604034424,0.47001996636390686,0.040424853563308716,-0.046005189418792725,0.058102965354919434
226,1.5566795311398518,-1.3982083777590524,-1.2890366183004294,0.17171591520309448,0.9851436018943787,-0.0024242396466434,-0.19740894436836243,-2.780071258544922,0.03531503677368164,-0.024087131023406982,0.028772413730621338,-0.08432197570800781
227,1.48203033713926,-1.4177524859740929,-1.0622655202275988,0.15184630453586578,0.9883116483688354,-0.013514300808310509,-0.37493589520454407,-2.958742618560791,-0.21168646216392517,-0.07855835556983948,-0.0516204833984375,0.021006347611546516
228,1.5362835186389692,-1.4423923592914756,-0.711139217972179,0.1279757022857666,0.9917675256729126,-0.004418555181473494,-0.5045158267021179,-2.9229536056518555,-0.19878213107585907,0.1054990291595459,-0.013801217079162598,0.029458284378051758
229,1.5549947057474702,-1.4579210816632846,-0.40616915884887334,0.11262161284685135,0.9936363697052002,-0.0017797522014006972,-0.2066240906715393,-2.646925449371338,-0.10016979277133942,-0.030147850513458252,-0.022338151931762695,-0.021184682846069336
230,1.4572055456141135,-1.4671290472286902,-0.2642184874625776,0.10281512886285782,0.9946313500404358,-0.011729341931641102,-0.24249260127544403,-2.346675157546997,-0.08266761898994446,-0.16620011627674103,-0.13412714004516602,0.08335411548614502
231,1.3362872770019767,-1.4659948043616218,-0.15304637661339682,0.10174698382616043,0.9945133328437805,-0.02430783025920391,-0.03704638034105301,-2.4611217975616455,-0.01745576038956642,-0.11212290823459625,0.10663723945617676,0.08526670932769775
232,1.132954827299807,-1.4787817390414089,-0.0991682642796564,0.08321696519851685,0.9957696199417114,-0.03895771503448486,-0.2620598375797272,-2.295719861984253,-0.1152060404419899,-0.15021827816963196,-0.0401117205619812,0.10002338886260986
233,1.1512816547307796,-1.495164351757811,0.14385518133422093,0.0690067782998085,0.9971412420272827,-0.030776372179389,-0.2482820302248001,-2.386164426803589,-0.028501084074378014,-0.0902164950966835,-0.028131961822509766,0.041182875633239746
234,1.2287492609689128,-1.5010214062041884,0.4521087363736383,0.06567861884832382,0.9975666999816895,-0.02338433265686035,-0.16289107501506805,-2.1702542304992676,0.060866061598062515,-0.12410453706979752,-0.003227829933166504,0.05271172523498535
235,1.172414299652578,-1.4995473277899418,0.597797507921088,0.0656149834394455,0.9974628686904907,-0.02761651575565338,-0.11238082498311996,-2.3137636184692383,0.0730184018611908,-0.1077444851398468,-0.006175637245178223,0.05042845010757446
236,1.2864522642174498,-1.4919245710807647,0.9480690054726243,0.07562772184610367,0.9968912601470947,-0.022103222087025642,-0.2744642198085785,-2.1899149417877197,0.2272338569164276,0.04644259810447693,-0.05745333433151245,0.16642087697982788
237,1.4486927411123658,-1.465020890468821,1.298002600025545,0.10479258000850677,0.9944109916687012,-0.012859522365033627,-0.1773410141468048,-1.5616008043289185,0.37368044257164,0.03590870648622513,0.026615619659423828,-0.0265081524848938
238,1.3801158379272027,-1.4426412474907633,1.3890930578612464,0.1254885196685791,0.9917993545532227,-0.024222496896982193,0.09236818552017212,-1.5249632596969604,0.06625749170780182,-0.0859987735748291,-0.036889076232910156,-0.0997399091720581
239,1.2856014936465379,-1.4556430188825629,1.4349181726977145,0.11025850474834442,0.9933772087097168,-0.03232637792825699,-0.1447237879037857,-1.380454182624817,-0.2488124668598175,0.01185760647058487,-0.020308852195739746,-0.043387774378061295
240,1.1820469019671824,-1.482308770400307,1.4843341284710108,0.08177755028009415,0.9960875511169434,-0.033495575189590454,-0.10464505106210709,-1.5417248010635376,-0.2215825319290161,0.13860511779785156,-0.016076624393463135,-0.040952082723379135
241,0.9927022002876889,-1.5041881190501452,1.423800858686871,0.055744074285030365,0.9977824687957764,-0.03637010231614113,-0.07655796408653259,-1.014847993850708,-0.14562992751598358,0.04288873076438904,0.07819104194641113,0.03110581636428833
242,0.8611469135579971,-1.5132683106251452,1.3761852161798014,0.043614886701107025,0.9983457326889038,-0.03746166452765465,0.0500330924987793,-0.8403106927871704,0.055556654930114746,-0.02069619670510292,0.040182650089263916,-0.14498764276504517
243,1.0115963544757611,-1.5012090279757309,1.5978657780773613,0.05893956869840622,0.9975797533988953,-0.03688647970557213,-0.03964076191186905,-0.3443344831466675,0.2227870374917984,-0.04160559922456741,-0.0006011128425598145,0.013693097978830338
244,1.1600618031267442,-1.4799173853517937,1.7626243854159038,0.08320721983909607,0.9958733320236206,-0.036237142980098724,0.025329479947686195,-0.32811999320983887,0.1487007737159729,-0.13292035460472107,-0.023689985275268555,0.005658503621816635
245,1.047583655762207,-1.4609134464733304,1.704395690356174,0.0949908196926117,0.9939689636230469,-0.054794084280729294,0.09165719151496887,-0.7733362913131714,0.15811727941036224,-0.006550893187522888,-0.04674917459487915,-0.024719469249248505
246,0.9970273283042502,-1.4375521870171328,1.6681560162192308,0.11157618463039398,0.9911361336708069,-0.0721115693449974,0.14957210421562195,0.5094529986381531,0.12518756091594696,-0.05504235625267029,-0.015748560428619385,0.033171117305755615
247,0.976017666302468,-1.4336009258180795,1.634157240987833,0.11327993869781494,0.9906034469604492,-0.0766337513923645,0.03889637812972069,-0.17793384194374084,-0.009739422239363194,-0.02433645725250244,-0.021319270133972168,-0.020381636917591095
248,0.9346985204367838,-1.4301979657428354,1.5763213574023485,0.11272799968719482,0.9901323318481445,-0.08324917405843735,0.0988692119717598,0.5155538320541382,0.00543526466935873,-0.008403658866882324,-0.00041675567626953125,-0.03261083364486694
249,0.9529167777459606,-1.4275177514458368,1.544692366427126,0.11638765037059784,0.9897531867027283,-0.08271817862987518,0.07804545015096664,0.5627228617668152,-0.041195984929800034,-0.02967195212841034,-0.019111216068267822,-0.022430114448070526
250,0.9486647620560122,-1.4289729895595868,1.471555188880134,0.1148645281791687,0.9899598956108093,-0.08237301558256149,0.08531013131141663,0.8144423961639404,-0.08263061940670013,-0.062328532338142395,-0.009643852710723877,-0.022515885531902313
251,0.9610983674503052,-1.4306636863969595,1.387855731106686,0.11450757831335068,0.990197479724884,-0.0799800381064415,0.08690778911113739,1.0505130290985107,-0.07738037407398224,-0.02463332563638687,-0.011391997337341309,-0.016623370349407196
252,0.9853449224947538,-1.4294235608463288,1.2924289543356122,0.1174369677901268,0.9900234937667847,-0.07785928249359131,0.16609495878219604,1.2960562705993652,-0.06739946454763412,-0.0058799684047698975,0.009167790412902832,-0.02100241184234619
253,0.9611435735268298,-1.4206077792234137,1.135890958003383,0.12266888469457626,0.9887428879737854,-0.08567220717668533,0.3010299503803253,1.319439172744751,-0.027311302721500397,0.011257506906986237,-0.033542752265930176,-0.03435336798429489
254,0.942583409587198,-1.4057807768083734,0.9785604401507584,0.13290561735630035,0.9864158034324646,-0.09654014557600021,0.24667388200759888,1.428598165512085,-0.025335535407066345,0.058180198073387146,-0.0266074538230896,0.05451744794845581
255,0.9275520882791349,-1.3957017240984775,0.8316500529721956,0.1393882781267166,0.9847100377082825,-0.10448527336120605,0.32236596941947937,1.2509791851043701,-0.11521117389202118,0.06349258124828339,-0.0023034214973449707,0.012123823165893555
256,0.9104999710926595,-1.382711765446009,0.6984137291259668,0.14767687022686005,0.9823641777038574,-0.1146828830242157,0.22638031840324402,1.07317316532135,-0.07870924472808838,0.13331373035907745,-0.04571866989135742,-0.021898508071899414
257,0.9073686226208271,-1.3798259636927477,0.6180870251082107,0.14955011010169983,0.9818205237388611,-0.11689014732837677,0.07022316753864288,0.5813667178153992,-0.05907297879457474,0.14218267798423767,-0.07239669561386108,0.045829951763153076
258,0.9923015358101951,-1.377176781381212,0.6568985625890823,0.16110438108444214,0.9813142418861389,-0.1052042618393898,0.03266621381044388,0.6171621680259705,0.0635448545217514,0.20832617580890656,-0.07613223791122437,0.0677286833524704
259,1.1154437179962882,-1.371010246860516,0.7131982997195385,0.1782376617193222,0.9801090359687805,-0.0872783213853836,0.08918221294879913,0.7831211686134338,0.12364090979099274,0.05218532681465149,0.09377396106719971,-0.017839491367340088
260,1.2506913576828094,-1.3852946613962833,0.7518507523963625,0.17507034540176392,0.9828438758850098,-0.05803685262799263,-0.21151496469974518,0.8904491066932678,-0.03224359452724457,-0.2308870106935501,-0.04070526361465454,-0.014198236167430878
261,1.398267214687337,-1.40237020803193,0.827887527294357,0.1651424914598465,0.9858497977256775,-0.028777994215488434,-0.04436367005109787,0.6858339309692383,-0.19653543829917908,-0.1629452109336853,0.05920940637588501,-0.008026182651519775
262,1.4636691592029505,-1.4217240837798335,0.8479990457682103,0.1476699858903885,0.9889093041419983,-0.015880262479186058,0.022991210222244263,0.3488912284374237,-0.10709070414304733,0.018330395221710205,-0.03360217809677124,-0.0745280385017395
263,1.4273227911546407,-1.4237041650695645,0.7619966315336439,0.14505568146705627,0.9892014265060425,-0.020955638960003853,0.10470069199800491,0.48744094371795654,0.015100700780749321,-0.08093826472759247,0.02231884002685547,0.012197138741612434
264,1.4188917223543893,-1.4162873920203027,0.712852617719548,0.1521230936050415,0.9880872368812561,-0.023287594318389893,0.024515794590115547,0.33727726340293884,0.13119368255138397,-0.05495510995388031,0.004649639129638672,0.03756982088088989
265,1.482220791270466,-1.3956918909547456,0.747729589136779,0.1735282987356186,0.9847083687782288,-0.01541068498045206,-0.07503415644168854,0.3323085308074951,0.2776133716106415,0.019190192222595215,-0.04049450159072876,0.0780022144317627
266,1.583231378159515,-1.3698310387682298,0.8266279694899741,0.19959954917430878,0.9798743724822998,0.002482158597558737,-0.05153400078415871,-0.06394830346107483,0.2720845341682434,0.04988163709640503,0.01028364896774292,-0.08812975883483887
267,1.6054467509170107,-1.341651683767056,0.864591328562825,0.2270086705684662,0.973861038684845,0.007869096472859383,-0.08341346681118011,-0.137494295835495,0.24358950555324554,0.05578248202800751,-0.04357844591140747,-0.02312779426574707
268,1.5825469362204407,-1.3273896651918482,0.8513117484942014,0.24099361896514893,0.9705225825309753,0.002831952180713415,0.12551338970661163,-0.1429271399974823,0.036154817789793015,-0.028743863105773926,-0.008104979991912842,-0.09993886947631836
269,1.473385920719974,-1.337777362997164,0.7558052384917262,0.22982168197631836,0.9729737043380737,-0.02245810069143772,0.18255361914634705,-0.134598046541214,-0.2529919147491455,-0.02695608139038086,-0.06718146800994873,-0.04281896352767944
270,1.3560545920950755,-1.3702474075625304,0.6435805171687783,0.1946319192647934,0.9799574017524719,-0.04245012626051903,0.24469836056232452,-0.07881701737642288,-0.3959769308567047,0.01702272891998291,-0.01927924156188965,-0.01370227336883545
271,1.115444429667568,-1.401430422476398,0.4194687600357678,0.15138199925422668,0.9856918454170227,-0.0741276741027832,-0.030947353690862656,-0.24643518030643463,-0.18264685571193695,0.08822676539421082,0.19271379709243774,-0.0299067422747612
272,1.0578882534394052,-1.4038115514568517,0.37835262532443914,0.1448224037885666,0.9860904216766357,-0.08156149834394455,0.005897830240428448,-0.07261393219232559,-0.058740295469760895,0.017988890409469604,-0.09250515699386597,0.039554059505462646
273,1.0303690770658218,-1.4073383950975227,0.37413905042956414,0.13953973352909088,0.9866704940795898,-0.08372530341148376,0.025630705058574677,-0.36612990498542786,-0.08757040649652481,0.005723923444747925,0.02062314748764038,0.020019836723804474
274,0.9768683872926863,-1.4089697971182753,0.3503308890826008,0.13352875411510468,0.9869346618652344,-0.09016656875610352,-0.01550897303968668,-0.2732728123664856,-0.03509926050901413,-0.04798801243305206,-0.027462005615234375,0.0046868398785591125
275,0.9689994075349337,-1.4073756411621103,0.36140886119428817,0.1341114640235901,0.9866765141487122,-0.09210480749607086,-0.03536921739578247,-0.12769922614097595,0.0630478635430336,-0.019258573651313782,-0.014722347259521484,-0.002316586673259735
276,0.9589699108664886,-1.4041331725812787,0.37730524220692563,0.13580018281936646,0.9861438274383545,-0.09528297185897827,0.0403018444776535,-0.3662395477294922,0.03389595076441765,0.05092160403728485,-0.04418826103210449,0.01619666814804077
277,0.9069932187316158,-1.4016695093665066,0.3625678296701364,0.13257989287376404,0.9857321381568909,-0.10370621830224991,0.011297473683953285,-0.3629266321659088,-0.009301960468292236,-0.01655203104019165,-0.0023793578147888184,0.010963305830955505
278,0.8676012249029845,-1.4021285901292644,0.35207591470577515,0.12804710865020752,0.9858092665672302,-0.10855385661125183,-0.004372150171548128,-0.16769368946552277,0.0015289557632058859,-0.030680790543556213,-0.0129852294921875,-0.011532776057720184
279,0.8515965733486193,-1.4043630011296748,0.34212540375576783,0.12463612854480743,0.986181914806366,-0.10913800448179245,-0.00796983391046524,0.028428003191947937,-0.016038905829191208,-0.026155903935432434,-0.016775786876678467,0.004462718963623047
280,0.8607154443412766,-1.4072026423831685,0.3379639980806535,0.12350180745124817,0.9866483807563782,-0.10617071390151978,-0.02902345359325409,0.2216659039258957,0.0009531283285468817,-0.026532210409641266,-0.01487720012664795,0.010070867836475372
281,0.8898078615526227,-1.4111594108247423,0.3386149228528815,0.12350441515445709,0.9872850775718689,-0.10007531940937042,-0.024565519765019417,0.3395143747329712,-0.01206967979669571,-0.017013296484947205,-0.011851608753204346,-0.012183621525764465
282,0.9301855779081442,-1.4124992393630547,0.3453028538270397,0.1263827681541443,0.9874971508979797,-0.09421754628419876,-0.003368721343576908,0.317429780960083,0.009624852798879147,0.017614439129829407,-0.016198813915252686,0.0010320991277694702
283,0.9618804499943959,-1.4116407624887397,0.34873065111348917,0.12999987602233887,0.987361490726471,-0.09064973890781403,0.0028663049452006817,0.22950322926044464,0.0004211821360513568,0.014897584915161133,-0.007808268070220947,-0.002673029899597168
284,0.9733739280491663,-1.409847588783098,0.3428690013087009,0.13249635696411133,0.987075686454773,-0.09014514833688736,0.025610782206058502,0.12374214828014374,0.006354869809001684,0.031108364462852478,-0.0145416259765625,0.0025902464985847473
285,0.9814009530310129,-1.406773818345773,0.34412625936017993,0.13573817908763885,0.9865784645080566,-0.09076544642448425,0.006376768462359905,0.022366147488355637,-0.004100306425243616,0.004780009388923645,-0.00998532772064209,0.026098720729351044
286,0.9863295569203929,-1.4054273188894804,0.3460758364982935,0.13729146122932434,0.9863576889038086,-0.09082809835672379,0.025541208684444427,0.020823270082473755,0.035347744822502136,0.01637980341911316,-0.015791893005371094,0.005897641181945801
287,1.006042198738405,-1.4018405545933164,0.3666128679125316,0.14204245805740356,0.9857608675956726,-0.08999699354171753,-0.005608090199530125,0.019137553870677948,0.05560065805912018,-0.0041182637214660645,-0.002774477005004883,0.02087467908859253
288,1.039448602595386,-1.3984894420989522,0.3976760865366642,0.14781644940376282,0.9851918816566467,-0.08687599003314972,-0.019966598600149155,0.011440889909863472,0.05908828228712082,0.0024215877056121826,-0.009880542755126953,0.0035324692726135254
289,1.0700683157969533,-1.3936711849193029,0.426906107765195,0.1545690894126892,0.9843543171882629,-0.08458764851093292,-0.008550786413252354,0.04839617386460304,0.07752204686403275,0.007875964045524597,-0.014490365982055664,0.01580101251602173
290,1.1006824059051665,-1.3841775041841624,0.45433446278472295,0.16540968418121338,0.9826371669769287,-0.08404619246721268,0.023770920932292938,0.005640754010528326,0.17378103733062744,0.06695114076137543,-0.005998432636260986,0.03926164656877518
291,1.1732303360807481,-1.3542952786255906,0.5335831087804678,0.19805969297885895,0.9766550660133362,-0.08317062258720398,0.06280220299959183,-0.004774243570864201,0.541391909122467,0.14964234828948975,-0.035202980041503906,0.05257672071456909
292,1.1396458812695591,-1.2695836802078397,0.485889606926875,0.2695281505584717,0.9549774527549744,-0.12398678064346313,0.7275756001472473,0.027317045256495476,0.8372551202774048,-0.03231501579284668,0.07499080896377563,-0.07182919979095459
293,1.0913412528685276,-1.1857764928700543,0.4385093723982121,0.3332299590110779,0.9267910122871399,-0.1732523888349533,0.25830915570259094,-0.003206889145076275,0.5117425322532654,-0.12743467092514038,-0.04463458061218262,-0.012264013290405273
294,1.1008752703384912,-1.165839462746323,0.44894228298308597,0.3512735068798065,0.9191194176673889,-0.17840008437633514,-0.10371927917003632,-0.040661994367837906,-0.13778404891490936,-0.04737946391105652,-0.06532901525497437,-0.07542993128299713
295,1.1032934827549985,-1.2004534859990157,0.4618785975661297,0.32309815287590027,0.9322032928466797,-0.16310910880565643,-0.26334214210510254,-0.10064136981964111,-0.39698994159698486,-0.01198667287826538,-0.014494001865386963,-0.015113532543182373
296,1.1147757977021793,-1.2581052315691448,0.48783339107235724,0.27618536353111267,0.9515091776847839,-0.13546952605247498,-0.4130861759185791,-0.20847715437412262,-0.5692744255065918,0.02868524193763733,-0.011460959911346436,-0.006483018398284912
297,1.1223843925028516,-1.3246771349700799,0.513122177097016,0.21955466270446777,0.9698652625083923,-0.10562729835510254,-0.3375532925128937,-0.13759924471378326,-0.5711507797241211,0.030613183975219727,-0.08798354864120483,0.003668069839477539
298,1.1274261687172071,-1.3759350194883344,0.5225980350948076,0.17490839958190918,0.9810745120048523,-0.0830647274851799,-0.030988702550530434,0.21404284238815308,-0.29251253604888916,0.050463899970054626,-0.0006363391876220703,0.0007892921566963196
299,1.1467523604483878,-1.4171091516220613,0.516469952485057,0.13952510058879852,0.9882133603096008,-0.06298606097698212,-0.20961837470531464,0.3019447922706604,-0.3370209038257599,-0.006453186273574829,0.022986650466918945,-0.02638465166091919
300,1.1191290469240653,-1.4518139657593871,0.4798012492422976,0.10679861903190613,0.9929299354553223,-0.0518094040453434,-0.04208778217434883,0.06526075303554535,-0.29552599787712097,0.04726937413215637,-0.043146610260009766,0.0031949281692504883
301,1.05330923959327,-1.4757521406450564,0.40239022007768926,0.08247633278369904,0.9954866766929626,-0.04694799706339836,-0.03418538346886635,-0.06749971956014633,-0.19643734395503998,-0.01347610354423523,0.06690651178359985,0.044430315494537354
302,0.8941109936577527,-1.488363851479118,0.2705257978494277,0.06419597566127777,0.9966043829917908,-0.051561810076236725,0.04800775274634361,-0.5410531759262085,-0.16619594395160675,0.008466392755508423,-0.03957313299179077,0.029406070709228516
303,0.6982279881611417,-1.4946653917297326,0.12090114753713985,0.04889563471078873,0.9971034526824951,-0.058260153979063034,-0.01512073539197445,-0.4058569669723511,-0.07868277281522751,-0.028570927679538727,0.009213805198669434,0.021257571876049042
304,0.607476889885913,-1.499207256979245,0.07497063007842879,0.04082702100276947,0.9974386096000671,-0.058729562908411026,-0.02312064915895462,-0.49074989557266235,0.006967759225517511,-0.03598998859524727,-0.02026587724685669,0.011717267334461212
305,0.6688248812000992,-1.4934503946236257,0.18024674272777225,0.04791080579161644,0.9970102906227112,-0.060620252043008804,0.03417174518108368,-0.4153405725955963,0.19002875685691833,-0.009504429996013641,-0.04827994108200073,-0.005374006927013397
306,0.8337565013553833,-1.4753911307571694,0.37667559439911513,0.07053665071725845,0.9954524040222168,-0.064024418592453,-0.03192432224750519,-0.16534826159477234,0.2852761447429657,-0.10665419697761536,0.019791126251220703,0.049879491329193115
307,0.9445914659991672,-1.4480051571990555,0.5088586676500774,0.09924239665269852,0.9924706220626831,-0.07178381830453873,0.03916648030281067,-0.1899656057357788,0.29223722219467163,-0.04402085393667221,0.006705343723297119,0.04468417912721634
308,1.022879976594949,-1.420072219660478,0.606235919680789,0.12817367911338806,0.988662600517273,-0.07821695506572723,0.016551144421100616,-0.13169941306114197,0.28107109665870667,-0.04011520743370056,-0.02928149700164795,0.03907817602157593
309,1.0674443050330995,-1.395306322587532,0.672119134184123,0.15293650329113007,0.9846411347389221,-0.08421646058559418,0.02989938110113144,-0.23391491174697876,0.26732176542282104,0.04591605067253113,-0.026358604431152344,0.01636064052581787
310,1.0690699550657738,-1.3699478354732346,0.7044307923590025,0.17491348087787628,0.979897677898407,-0.09594812244176865,0.11997942626476288,-0.37937378883361816,0.22318774461746216,0.05764573812484741,-0.03077036142349243,-0.02297891676425934
311,1.0319368766094728,-1.3427356943841238,0.694039458451969,0.19405066967010498,0.9741066694259644,-0.11601907014846802,0.05479128286242485,-0.20437245070934296,0.1671038717031479,0.027308568358421326,-0.00793546438217163,-0.03455459326505661
312,1.0077528634042976,-1.3339005942910662,0.6914883480209473,0.19845828413963318,0.9720711708068848,-0.12526634335517883,-0.0013774505350738764,-0.28719374537467957,-0.020205767825245857,0.051358580589294434,-0.06418865919113159,-0.008660048246383667
313,0.9847227965135016,-1.335969481757116,0.6937995454641726,0.19384543597698212,0.972554624080658,-0.12869083881378174,-0.06366503983736038,-0.270203173160553,-0.09722258150577545,0.0034354329109191895,-0.059895992279052734,-0.007371768355369568
314,0.9683728210997283,-1.3565153521411353,0.7026491207983435,0.17521238327026367,0.9771295189857483,-0.12049365043640137,-0.12490561604499817,-0.1613955795764923,-0.15261617302894592,0.030354022979736328,0.05245727300643921,-0.06581616401672363
315,0.9481369371128685,-1.3697855158080428,0.6881830213480206,0.16218940913677216,0.9798652529716492,-0.11644087731838226,-0.0854075700044632,-0.03762749955058098,-0.10393280535936356,0.04209524393081665,-0.05860072374343872,-0.04363904893398285
316,0.927076734213875,-1.375491217295183,0.683292539668492,0.155227392911911,0.9809885025024414,-0.11647354811429977,-0.01604108139872551,-0.21989433467388153,-0.09799057990312576,-0.0007626712322235107,-0.013474464416503906,0.03439652919769287
317,0.8987151484600988,-1.3845928123967388,0.6676900463028645,0.14486852288246155,0.9827141761779785,-0.11526423692703247,0.004423885606229305,-0.20962803065776825,-0.0999288484454155,0.002607673406600952,-0.030306458473205566,-0.036133453249931335
318,0.9067824481817771,-1.3880055464850223,0.6911128614280208,0.14315228164196014,0.9833402037620544,-0.11202476918697357,-0.1365838646888733,-0.06299226731061935,0.06919904798269272,-0.016275450587272644,-0.011614799499511719,0.007624149322509766
319,0.9535451158257643,-1.393419509497172,0.7559609642126611,0.14388863742351532,0.9843099117279053,-0.10212745517492294,-0.11015443503856659,-0.2245105504989624,0.022654306143522263,0.005754292011260986,-0.009578526020050049,-0.02233850210905075
320,0.9671049935770079,-1.395884415549196,0.7891736021626498,0.1432628333568573,0.9847418665885925,-0.09878969192504883,-0.06527476757764816,-0.17615538835525513,0.016287701204419136,-0.013380005955696106,-0.0071569085121154785,-0.020427241921424866
321,0.9794567279109424,-1.3965080642958294,0.8126851649548636,0.14396212995052338,0.9848502278327942,-0.09667021781206131,-0.05249541997909546,-0.03524896875023842,0.06488297879695892,-0.029628008604049683,-0.01820582151412964,0.002355620265007019
322,1.0193591384337028,-1.3974227345764203,0.8510450878935872,0.1469363570213318,0.9850084185600281,-0.09037826210260391,-0.06297005712985992,0.06466592103242874,0.04586482420563698,-0.03084750473499298,-0.010765254497528076,0.014053761959075928
323,1.081855812418194,-1.4026148441830253,0.89993517838853,0.14777640998363495,0.985890805721283,-0.07862119376659393,-0.11340498924255371,0.19789005815982819,0.0234399251639843,-0.016947582364082336,-0.0012869834899902344,-0.0009991452097892761
324,1.1747142131420163,-1.4063923834068037,0.9744292175213207,0.1509941816329956,0.9865160584449768,-0.06314314156770706,-0.1523742973804474,0.1367337554693222,0.06969304382801056,0.04746164381504059,-0.009266793727874756,0.028200559318065643
325,1.2788981785897615,-1.4042427085747153,1.0793314624537738,0.15877239406108856,0.986162006855011,-0.04770811274647713,-0.14902374148368835,-0.11734282970428467,0.027786526829004288,0.031886160373687744,-0.03360152244567871,0.05478823184967041
326,1.4120919022540088,-1.405625583410241,1.227629192766356,0.1623549610376358,0.9863902926445007,-0.025984980165958405,-0.27517008781433105,-0.16957703232765198,0.006282845977693796,0.02129983901977539,-0.02601724863052368,0.0576469860970974
327,1.576282497007895,-1.401550241875637,1.4117592550252633,0.1684364676475525,0.9857120513916016,0.0009240804356522858,-0.3554605543613434,-0.150484099984169,0.10626872628927231,0.017400309443473816,-0.04780012369155884,0.06352901458740234
328,1.7674200511314178,-1.3729451124185958,1.6129561354702167,0.1927756369113922,0.9804912209510803,0.03840041160583496,-0.40794023871421814,-0.013701342046260834,0.40346530079841614,-0.003734499216079712,-0.04425770044326782,0.04121994972229004
329,1.899588568173266,-1.3237144297987256,1.7507819122879213,0.231474369764328,0.969630241394043,0.07897349447011948,-0.38873323798179626,0.09439700841903687,0.3725225031375885,-0.042204350233078,0.010258674621582031,-0.07393801212310791
330,2.013206250507022,-1.2710272174379722,1.8641486102281746,0.2668691575527191,0.9554046988487244,0.12642337381839752,-0.4728819727897644,0.085724376142025,0.2671809196472168,-0.0030141472816467285,0.0058228373527526855,-0.045048221945762634
331,2.105517618365526,-1.2291578673337848,1.9467242581987039,0.28826501965522766,0.9422069787979126,0.17073266208171844,-0.3219745457172394,0.10751603543758392,0.17916420102119446,-0.009761542081832886,0.019630908966064453,-0.10484515130519867
332,2.1487391097748842,-1.2010039357956666,1.9852706200473758,0.3027228116989136,0.9324023723602295,0.19744554162025452,-0.19147217273712158,0.11624284833669662,0.08975695073604584,0.0017815828323364258,-0.009306728839874268,-0.010769486427307129
333,2.1802160009196005,-1.1868301056031239,2.0137396806016534,0.30716556310653687,0.9271861910820007,0.21441857516765594,-0.12439511716365814,0.04244990274310112,-0.005464878864586353,0.03928527235984802,0.008131921291351318,-0.049837201833724976
334,2.1734010734990648,-1.1914553252301499,2.003466544683781,0.30508294701576233,0.9289088845252991,0.20988714694976807,0.17565464973449707,0.08219395577907562,-0.07288836687803268,-0.014906585216522217,0.03625524044036865,-0.0819423496723175
335,2.1251001739709072,-1.2203015011854763,1.9392766707614517,0.2919498682022095,0.9392029047012329,0.18072940409183502,0.46360042691230774,0.1752280294895172,-0.1161053478717804,-0.030261635780334473,0.032110512256622314,-0.030827045440673828
336,2.0447904533583783,-1.256952923428294,1.8415032677238294,0.27468159794807434,0.9511540532112122,0.14091189205646515,0.3957488238811493,0.1138039082288742,-0.20406962931156158,-0.011925220489501953,-0.03262066841125488,0.04193414747714996
337,1.9548384226447006,-1.2937562449331044,1.736868351616644,0.2535862922668457,0.9618692398071289,0.10247606784105301,0.5087450742721558,0.03822489455342293,-0.1935490071773529,0.01121470332145691,-0.019059300422668457,-0.014966979622840881
338,1.8588502434367358,-1.3279561395637163,1.638473206884585,0.23055341839790344,0.9706589579582214,0.06831174343824387,0.2744883596897125,-0.004132266156375408,-0.2095061093568802,0.009223192930221558,-0.031083762645721436,0.05552852153778076
339,1.7880280575200076,-1.3492477440746402,1.5690240330906449,0.21457651257514954,0.975558340549469,0.04736015200614929,0.10702824592590332,-0.08110659569501877,-0.14199936389923096,0.03276848793029785,-0.04663366079330444,0.07825017720460892
340,1.7749855991485228,-1.3543849845963674,1.5620372100850333,0.2102646827697754,0.9766743183135986,0.0435405969619751,0.1352262943983078,-0.07448574900627136,-0.024817125871777534,0.04016253352165222,-0.038945555686950684,0.050209399312734604
341,1.7775125768093176,-1.3533191404968103,1.5696698429414235,0.2111731916666031,0.9764449000358582,0.04428553208708763,0.0024142623879015446,0.005479874555021524,-0.015099882148206234,-0.004309788346290588,-0.006092727184295654,0.05521702766418457
342,1.8480684198464332,-1.3507422071848123,1.6345964100667865,0.2099458873271942,0.9758856296539307,0.05975126475095749,-0.16002503037452698,0.1071576327085495,0.005731835030019283,-0.023544490337371826,-0.028848767280578613,0.02252412587404251
343,1.954577723300368,-1.3442509880576394,1.7283496423167959,0.20827379822731018,0.9744481444358826,0.08410179615020752,-0.20327557623386383,0.1477411687374115,0.03211206942796707,0.0251094251871109,-0.04453164339065552,-0.005229108035564423
344,1.9765568578603374,-1.3332701218027765,1.7256511353800121,0.21619321405887604,0.9719230532646179,0.09287663549184799,-0.0014544938458129764,0.2091834396123886,0.10913379490375519,-0.06578733026981354,-0.00543135404586792,-0.05393624305725098
345,1.9726788905541601,-1.32621729905453,1.6976594035253263,0.22285574674606323,0.9702393412590027,0.09471682459115982,0.07945273071527481,0.15465083718299866,0.06071602925658226,0.009993404150009155,0.015783727169036865,-0.04292844235897064
346,1.9235930269835633,-1.3311882780313797,1.646554775965869,0.22270475327968597,0.9714310765266418,0.08200013637542725,0.09363830089569092,-0.1074649766087532,-0.026755953207612038,0.003079518675804138,-0.022426128387451172,-0.03263796865940094
347,1.8525124522690823,-1.3343375629490224,1.58970660903323,0.22502699494361877,0.9721736311912537,0.06512580066919327,0.07503281533718109,-0.17878997325897217,-0.029531920328736305,-0.005041033029556274,-0.017644822597503662,-0.004014372825622559
348,1.813699869397022,-1.3393263015081083,1.5703564577491418,0.2226741909980774,0.9733301997184753,0.055177848786115646,0.05675533413887024,-0.2028498649597168,-0.05261944979429245,0.0018283575773239136,-0.015368163585662842,-0.004793286323547363
349,1.7757482834420697,-1.3437119610930979,1.5522399651698002,0.2204257845878601,0.9743269681930542,0.04582006484270096,0.04571803659200668,-0.1730227917432785,-0.038889188319444656,-0.0004550814628601074,-0.0174483060836792,0.0021077394485473633
350,1.738238569414416,-1.3459948825914496,1.5281861509320018,0.21979475021362305,0.974838376045227,0.03715077415108681,0.06570588052272797,-0.12496157735586166,0.0005327868275344372,-0.01743273437023163,-0.009994745254516602,-0.01304185763001442
351,1.6945763028629581,-1.3498911801105453,1.493008893213116,0.217436283826828,0.9756995439529419,0.027052560821175575,0.10966603457927704,-0.05166466906666756,0.0016793893883004785,0.0033736079931259155,-0.01692885160446167,-0.0031726397573947906
352,1.6563255621853856,-1.3511688135199476,1.4577857165917827,0.21706993877887726,0.975978672504425,0.018611229956150055,0.05331745743751526,-0.03086569532752037,-0.010044572874903679,-0.006437614560127258,-0.02000027894973755,-0.0003464221954345703
353,1.6392491541962995,-1.3525697819490259,1.4427276259846575,0.21599124372005463,0.9762829542160034,0.014808348380029202,0.028179733082652092,-0.007574897725135088,-0.006263848394155502,-0.0017883777618408203,-0.014643609523773193,0.006691335700452328
354,1.631550914109556,-1.353365995901346,1.4357238519578261,0.21532301604747772,0.97645503282547,0.013097980059683323,0.016101138666272163,-0.012770134955644608,-0.01158662885427475,-0.006262347102165222,-0.01853877305984497,0.005929707549512386
355,1.6327559212298566,-1.354207331220078,1.4395968338034544,0.214487224817276,0.9766361713409424,0.013306573033332825,-0.025685284286737442,-0.019423186779022217,-0.03637072443962097,0.007818087935447693,-0.019788026809692383,0.015608787536621094
356,1.6331817310003818,-1.355821630776829,1.4409507576144196,0.21290799975395203,0.9769818186759949,0.013299609534442425,0.010561998002231121,-0.012760291807353497,-0.025494921952486038,-0.0021078288555145264,-0.019355416297912598,-0.00391542911529541
357,1.6262110101549367,-1.3583235611629223,1.4343582612612147,0.21055437624454498,0.9775124788284302,0.011679762043058872,0.01542829442769289,-0.010011671110987663,-0.025082647800445557,-0.015241831541061401,-0.008441925048828125,-0.01515877153724432
358,1.6181007217285224,-1.3620418867339255,1.425466117462602,0.20700927078723907,0.978289783000946,0.009799758903682232,0.02469847910106182,0.018739541992545128,-0.03564683720469475,-0.012948036193847656,-0.009555160999298096,0.000820397399365902
359,1.6163680901133142,-1.3663416986097976,1.4246007857488239,0.20282210409641266,0.979171872138977,0.009249364957213402,-0.007117613218724728,-0.054482217878103256,-0.052580855786800385,0.014066293835639954,-0.011871516704559326,0.000424741767346859
360,1.6133393937355953,-1.3723100504549424,1.432461922891324,0.1970072090625763,0.9803661704063416,0.00838635116815567,-0.0012070515658706427,-0.1169787272810936,-0.10745707899332047,0.019576042890548706,-0.016361653804779053,0.001959085464477539
361,1.5909488107710306,-1.3796703701269035,1.425965759289563,0.1899259090423584,0.9817909598350525,0.00382799725048244,0.03870857134461403,-0.19090455770492554,-0.09007029235363007,-0.025924459099769592,-0.014338016510009766,-0.02137577533721924
362,1.5368241110476732,-1.3857143348508059,1.385977235477945,0.183921217918396,0.9829211831092834,-0.006250616163015366,0.07593420147895813,-0.13658304512500763,-0.03348922356963158,-0.019278883934020996,-0.007991373538970947,-0.009618520736694336
363,1.4703264351537821,-1.39063371060484,1.3303410343627935,0.1782863885164261,0.983814537525177,-0.017972929403185844,0.13359974324703217,-0.15297111868858337,-0.035694703459739685,0.009885013103485107,-0.029041588306427002,0.020902633666992188
364,1.4067295038891845,-1.3868570281398054,1.2829911944259607,0.18044792115688324,0.9831308126449585,-0.029874049127101898,0.061245378106832504,-0.10344061255455017,0.07509448379278183,0.005983948707580566,-0.044776320457458496,0.012585818767547607
365,1.4327486381699475,-1.3787381840003687,1.3120073963160443,0.189064159989357,0.9816134572029114,-0.02626694180071354,-0.00612700916826725,-0.02223658189177513,0.09736228734254837,-0.0248948335647583,0.003921329975128174,-0.031319741159677505
366,1.4190198629900206,-1.3729340514419652,1.2981406555432282,0.194314107298851,0.9804890155792236,-0.02972087636590004,-0.013152431696653366,0.06520403921604156,0.06247758865356445,-0.01552686095237732,-0.023122072219848633,0.0065732598304748535
367,1.4375851273503693,-1.373365025957043,1.311320071298219,0.19441312551498413,0.9805736541748047,-0.026052288711071014,-0.06013175845146179,0.0445108562707901,-0.0469808429479599,-0.02806183695793152,-0.03721439838409424,-9.71183180809021e-06
368,1.4380937774705056,-1.377544738744409,1.310103668797305,0.1903623342514038,0.9813849329948425,-0.025410903617739677,0.011075951159000397,-0.0056783403269946575,-0.011243955232203007,0.009878739714622498,0.0005486011505126953,-0.030558345839381218
369,1.4126800029447106,-1.3776126764373975,1.2855391583863116,0.1895895004272461,0.9813979864120483,-0.030229534953832626,0.025045234709978104,1.4906749129295349e-05,-0.034610114991664886,0.0019998550415039062,-0.02404630184173584,-5.918741226196289e-05
370,1.399721490674962,-1.378903684072371,1.2719328356302,0.18793241679668427,0.9816450476646423,-0.03246786817908287,0.021787861362099648,-0.009781083092093468,-0.015039895661175251,0.004099413752555847,-0.014161646366119385,0.0022401846945285797
371,1.3849733099116723,-1.37897150047329,1.255121399603683,0.1873680055141449,0.9816579818725586,-0.03522365167737007,0.03706120699644089,0.05068855732679367,-0.006123327184468508,-0.0013481229543685913,-0.01345735788345337,0.00820029154419899
372,1.3768099951227541,-1.3788798718460513,1.2431632280378602,0.18716229498386383,0.9816405177116394,-0.036769308149814606,0.007664319593459368,-0.023957623168826103,-0.0008063646964728832,0.008226469159126282,-0.015682995319366455,0.0036577656865119934
373,1.3764120133641378,-1.3793063808746753,1.2476740926633152,0.18673770129680634,0.9817217588424683,-0.036763083189725876,-0.0015929799992591143,-0.07701937109231949,-0.013376114889979362,0.009932830929756165,-0.011384844779968262,-0.0016127824783325195
374,1.3755994263977447,-1.37954392363576,1.2633788118871183,0.18647855520248413,0.981766939163208,-0.03686949238181114,-0.0646558478474617,-0.2765321135520935,0.006981345824897289,0.03274446725845337,-0.03576785326004028,0.01755184307694435
375,1.3895327720629957,-1.3777574370072863,1.315783640710651,0.1886993795633316,0.9814257621765137,-0.0345839224755764,-0.11843784898519516,-0.4870705306529999,0.018107447773218155,0.014608711004257202,-0.020930826663970947,0.0134505033493042
376,1.3910565183605215,-1.3765404619064063,1.3787017407677007,0.18992623686790466,0.9811915755271912,-0.03450973704457283,-0.1230962872505188,-0.7085777521133423,0.039844583719968796,0.03219594061374664,-0.023733198642730713,0.009943071752786636
377,1.3783836786620132,-1.375259022497508,1.4420303785489013,0.1907079517841339,0.9809434413909912,-0.03715427219867706,-0.12260960042476654,-0.8699581027030945,0.04327046498656273,0.028270915150642395,-0.02108931541442871,0.006545130163431168
378,1.3567001919437343,-1.3731130070322897,1.509295928637186,0.19191411137580872,0.9805241823196411,-0.04172758385539055,-0.1245378777384758,-0.9904384016990662,0.047610245645046234,0.01128716766834259,-0.011362254619598389,0.011209968477487564
379,1.3278526837384084,-1.371648716382804,1.584454001605335,0.192024827003479,0.9802355766296387,-0.04759121686220169,-0.15983857214450836,-1.0212194919586182,0.04189559072256088,0.007850080728530884,-0.03071153163909912,0.026198379695415497
380,1.3033143664852416,-1.3695505197510662,1.6595389050698197,0.192782461643219,0.9798182845115662,-0.05283186212182045,-0.14655718207359314,-0.9291452169418335,0.0693516954779625,-0.013430625200271606,-0.005117297172546387,-0.003534086048603058
381,1.2856939528558962,-1.364976197520914,1.7320148718926291,0.19612067937850952,0.9788936972618103,-0.057480376213788986,-0.14958859980106354,-0.7645567655563354,0.014574958011507988,-0.059707075357437134,-0.03414571285247803,0.008560709655284882
382,1.274829264900182,-1.3716762583321624,1.7787692229845642,0.1892067790031433,0.9802410006523132,-0.0576934739947319,-0.12163170427083969,-0.3431296944618225,-0.09022561460733414,-0.07163780927658081,-0.0004588961601257324,-0.026397705078125
383,1.292825072152858,-1.3812148401168,1.801042062621827,0.18121403455734253,0.9820832014083862,-0.0517110750079155,-0.03304826840758324,0.15870662033557892,0.011446328833699226,-0.06665106117725372,0.03140556812286377,-0.04824924096465111
384,1.3142362729458994,-1.381957348654075,1.7906764471101333,0.1815740466117859,0.982222855091095,-0.04763440787792206,-0.007705737836658955,0.40623757243156433,0.09538412094116211,-0.010294139385223389,-0.004592299461364746,0.007625821977853775
385,1.3138311916752374,-1.3737530668932496,1.7599452002195803,0.1893424540758133,0.9806497097015381,-0.04975437372922897,0.09533395618200302,0.2003524899482727,0.005787483882158995,0.05057145655155182,-0.02081090211868286,0.013194326311349869
386,1.3172986544395366,-1.3711900858557544,1.74682907523443,0.19194689393043518,0.980144739151001,-0.04972786828875542,0.005913381930440664,0.16680048406124115,-0.026631195098161697,0.002312779426574707,-0.0171777606010437,0.0073999762535095215
387,1.327727384992702,-1.3752450081268457,1.736057902751805,0.18859535455703735,0.9809406995773315,-0.04676634445786476,-0.031084341928362846,0.2468647062778473,-0.08995483815670013,-0.019726350903511047,-0.0033101439476013184,0.007383409887552261
388,1.3217084113968203,-1.373614301539433,1.7031864765232592,0.18986032903194427,0.9806225299835205,-0.04829488322138786,0.145601287484169,0.3241836130619049,0.03564692661166191,0.001469627022743225,-0.06698733568191528,0.014267746359109879
389,1.3028628624929943,-1.3729865865892705,1.663833649600384,0.18951073288917542,0.9804993867874146,-0.052027251571416855,0.08584927767515182,0.04861418530344963,-0.0405544638633728,0.06900370121002197,-0.0280609130859375,0.05059289187192917
390,1.3070575605623507,-1.3725090425125561,1.6675567706353995,0.19017881155014038,0.9804053902626038,-0.05135377496480942,-0.000757477362640202,-0.05597662925720215,-0.04563453048467636,0.01502138376235962,-0.018949151039123535,0.010155081748962402
391,1.2905526357174089,-1.3739202801143964,1.6589035329722095,0.1879759430885315,0.9806824326515198,-0.05410289764404297,0.07609651237726212,-0.10980288684368134,-0.03988761082291603,-0.011996328830718994,0.0033873915672302246,-0.01883411407470703
392,1.2521604399863782,-1.3762066462593732,1.6243469441198546,0.1836303025484085,0.9811270833015442,-0.06057525798678398,0.03274991363286972,0.03620942682027817,-0.0194749403744936,-0.025366157293319702,-0.02586597204208374,-0.013765506446361542
393,1.2397859247813352,-1.3769711913080886,1.6075254361385771,0.1821579784154892,0.9812746644020081,-0.06259935349225998,0.03338807821273804,0.019379328936338425,-0.004357523284852505,-0.010496586561203003,-0.02013874053955078,0.002098262310028076
394,1.2389667599903456,-1.3790843153119736,1.5987769740492401,0.18014493584632874,0.9816794395446777,-0.06207260489463806,0.012026725336909294,0.13344766199588776,-0.004270927514880896,-0.03994719684123993,-0.011464715003967285,-0.01049821823835373
395,1.2384366198293413,-1.3782819609982293,1.571576919521422,0.18085768818855286,0.981526255607605,-0.062425483018159866,0.059905119240283966,0.3017929792404175,0.029571764171123505,-0.0010176002979278564,-0.01460719108581543,-0.013975270092487335
396,1.2278202912599645,-1.3745922023317576,1.5350585918989876,0.18359331786632538,0.9808136224746704,-0.06555912643671036,0.06910090148448944,0.2271420657634735,-0.015994593501091003,-0.008285105228424072,-0.008706748485565186,-0.0050127506256103516
397,1.2125203244453782,-1.373331342984921,1.4952787187978733,0.1837269365787506,0.9805670380592346,-0.06879395246505737,0.0835927426815033,0.23480162024497986,-0.014416239224374294,0.00655016303062439,-0.0066596269607543945,-0.002388298511505127
398,1.1962653398903427,-1.371587695153634,1.4553738114326564,0.1841750144958496,0.9802234768867493,-0.07239643484354019,0.07955394685268402,0.2735511064529419,-0.00811526458710432,0.0006089061498641968,-0.014601647853851318,0.01125449687242508
399,1.191109044573675,-1.369723887013269,1.4213268464082836,0.18549631536006927,0.9798529744148254,-0.0740223377943039,0.07305485755205154,0.3190839886665344,-0.011682750657200813,0.001500144600868225,-0.01598578691482544,0.0063800811767578125
400,1.1885023521003313,-1.369773333880888,1.3880136748968548,0.1852577030658722,0.9798628091812134,-0.07448750734329224,0.05379980802536011,0.2759825885295868,-0.02597637288272381,0.005751803517341614,-0.015507400035858154,0.007532007992267609
401,1.1960120765456326,-1.3694416904597093,1.3648771175826513,0.1861141473054886,0.9797965288162231,-0.07321310043334961,0.033371876925230026,0.30007413029670715,-0.02034132182598114,0.0026218146085739136,-0.01222151517868042,-0.005506984889507294
402,1.2018744360223543,-1.37049355921923,1.3454214953152823,0.18557903170585632,0.9800063967704773,-0.07174918800592422,0.02749609388411045,0.22893279790878296,-0.022607719525694847,0.010298043489456177,-0.017787158489227295,0.008120059967041016
403,1.209798507317629,-1.3707543695302316,1.3304402246874163,0.18590278923511505,0.9800582528114319,-0.07018619775772095,0.025404972955584526,0.19162508845329285,-0.0366864837706089,-0.00018806755542755127,-0.008561670780181885,0.009349405765533447
404,1.2145426576017218,-1.3719197509829881,1.315499093285405,0.18516311049461365,0.9802891612052917,-0.0689050704240799,0.018088137730956078,0.19224421679973602,-0.02798306941986084,0.0036491453647613525,-0.018527686595916748,0.007579982280731201
405,1.2180384332166434,-1.3729913225400463,1.300337342082751,0.1844167411327362,0.9805002808570862,-0.06789432466030121,0.02159186638891697,0.16906306147575378,-0.03146432712674141,-0.011458396911621094,-0.019730687141418457,0.005699522793292999
406,1.21645047522339,-1.3743070281680438,1.2784621994217418,0.1830986887216568,0.980758011341095,-0.06773942708969116,0.04675740748643875,0.21203985810279846,-0.018071863800287247,0.002066701650619507,-0.01391535997390747,0.003271043300628662
407,1.2145318580773155,-1.3750802681549879,1.2551370330892804,0.18225790560245514,0.9809086918830872,-0.06782618910074234,0.038528747856616974,0.19534224271774292,-0.025622615590691566,0.005745649337768555,-0.011441469192504883,0.012787699699401855
408,1.2189357036036739,-1.3753587468745325,1.2403596464221651,0.18229824304580688,0.9809628129005432,-0.06692869961261749,0.01547966804355383,0.16185298562049866,-0.007064595352858305,0.0038437247276306152,-0.019308149814605713,0.009052157402038574
409,1.2266279978303645,-1.3753635168674896,1.2376679991673798,0.18280363082885742,0.9809637069702148,-0.06552299112081528,0.020006971433758736,0.04007822647690773,-0.009998541325330734,0.004192844033241272,-0.013815760612487793,-0.006803698837757111
410,1.2212834129993115,-1.3753311504443566,1.2306246012499726,0.1824800968170166,0.9809574484825134,-0.06650972366333008,0.007293954491615295,0.0036689266562461853,-0.021757476031780243,-0.007095590233802795,-0.011322438716888428,-0.002597324550151825
411,1.2112344742009706,-1.376430294606521,1.2183148999834559,0.1807936578989029,0.9811702966690063,-0.06796082854270935,0.022165341302752495,0.027788454666733742,-0.01228276826441288,-0.006706118583679199,-0.0038295984268188477,-0.005235552787780762
412,1.197298058437689,-1.3780013895789576,1.2019236852804684,0.17839278280735016,0.9814725518226624,-0.0699109137058258,0.022458408027887344,0.015810195356607437,-0.014505984261631966,-0.0071739256381988525,-0.01829206943511963,-0.0002185031771659851
413,1.1806599342313215,-1.378924914487162,1.1833920609222348,0.17636725306510925,0.9816491007804871,-0.07252474874258041,0.022725766524672508,0.01917656883597374,-0.0240679532289505,-0.004950001835823059,-0.00839763879776001,-0.009155578911304474
414,1.1697846336261433,-1.3791557812684438,1.1702414462137192,0.17535899579524994,0.9816930890083313,-0.07434980571269989,0.024303553625941277,0.028828104957938194,-0.008085389621555805,-0.006932467222213745,-0.012347996234893799,-0.012198090553283691
415,1.1587497668269036,-1.379232488764741,1.153711223252911,0.17445909976959229,0.9817076921463013,-0.07625023275613785,0.01648719608783722,0.08860847353935242,0.0037935287691652775,-0.009481072425842285,-0.01323235034942627,0.0029164552688598633
416,1.1498012453915436,-1.3787899357340019,1.13478856094328,0.17416636645793915,0.9816233515739441,-0.07798588275909424,0.03209929168224335,0.08494432270526886,-0.012661051005125046,-0.006869003176689148,-0.009348571300506592,-0.006791949272155762
417,1.1380199451250506,-1.3788687813686502,1.1157455898487612,0.17316503822803497,0.9816383719444275,-0.07999976724386215,0.01503769401460886,0.05011553689837456,-0.0030351539608091116,0.003806382417678833,-0.02446979284286499,0.013822376728057861
418,1.1421701838297953,-1.379756757567312,1.1163522722352763,0.17270278930664062,0.9818073511123657,-0.07891813665628433,0.00278886454179883,0.03725771978497505,-0.028709162026643753,-0.010120391845703125,-0.007747292518615723,-0.005905508995056152
419,1.1352052760472728,-1.3817153707030567,1.1072269377307904,0.17040488123893738,0.9821773767471313,-0.07930737733840942,0.008576841093599796,0.012738639488816261,-0.021491989493370056,-0.0036568492650985718,-0.016936957836151123,0.0028608515858650208
420,1.128091268572605,-1.3815746121495278,1.0963706777004592,0.16996151208877563,0.9821509122848511,-0.08057694137096405,0.017900725826621056,0.042235828936100006,-0.010483130812644958,-0.011407449841499329,-0.01102060079574585,0.0003461912274360657
421,1.1210365884378348,-1.3815131611504397,1.0842816930901784,0.16944366693496704,0.9821393489837646,-0.0818004161119461,0.022889278829097748,0.0516459159553051,0.003481525694951415,-0.009470507502555847,-0.007774055004119873,-0.0013599470257759094
422,1.108748724327804,-1.3808074643490142,1.0666429539496487,0.1690455824136734,0.982006311416626,-0.08418496698141098,0.024010440334677696,0.06209646537899971,-0.00710300961509347,-0.011086612939834595,-0.018398582935333252,0.0007498934864997864
423,1.0997672305189492,-1.3820011990472691,1.0495955507882646,0.16723772883415222,0.982231080532074,-0.08516768366098404,0.0194686371833086,0.10127170383930206,-0.01981952413916588,-0.015519604086875916,-0.00711822509765625,0.0013206079602241516
424,1.091357816792937,-1.38319718480128,1.027496807026909,0.16547322273254395,0.9824548363685608,-0.08602909743785858,0.021468618884682655,0.16273759305477142,0.001401419285684824,-0.01792074739933014,-0.005190491676330566,-0.009826593101024628
425,1.0956901289541463,-1.3806087875474806,1.0120987407906572,0.16810576617717743,0.9819688200950623,-0.08647467941045761,0.0705183669924736,0.18669041991233826,-0.0005385950789786875,3.084540367126465e-05,-0.010319530963897705,-0.0003936365246772766
426,1.0866809731220888,-1.379988132302681,0.9876088561784306,0.16785874962806702,0.9818512797355652,-0.08826900273561478,0.03275572881102562,0.09751304239034653,-0.024274539202451706,0.01361401379108429,-0.001992940902709961,0.013195760548114777
427,1.073652147768885,-1.379938569910179,0.9685346615937565,0.16673776507377625,0.9818418622016907,-0.09047193080186844,0.02149154245853424,0.0043883370235562325,-0.04395555332303047,0.01949577033519745,-0.012679874897003174,0.007372558116912842
428,1.0527627718492365,-1.3812198379498126,0.9492093758348836,0.16371874511241913,0.9820841550827026,-0.0933120995759964,0.04290949925780296,0.013785166665911674,-0.08853938430547714,-0.032660990953445435,0.018099069595336914,0.029820315539836884
429,1.034207776445278,-1.3884537566150226,0.9274278413944118,0.15584874153137207,0.9834216237068176,-0.09269911795854568,-0.00735921086743474,0.09131297469139099,-0.06734108924865723,-0.02015233039855957,-0.030983269214630127,-0.004621446132659912
430,1.0184752552530525,-1.3948379601286456,0.9044127957911443,0.14902357757091522,0.9845592379570007,-0.09184373170137405,-0.01454988308250904,0.06981176882982254,-0.061112180352211,-0.014593645930290222,-0.01750284433364868,0.00389205664396286
431,1.01538637356393,-1.4001440465669774,0.8878971379031929,0.14429837465286255,0.9854742288589478,-0.08954776078462601,0.0010627316078171134,0.17726686596870422,-0.05094015598297119,-0.016353413462638855,-0.010406911373138428,-0.005926497280597687
432,1.010172205528125,-1.4052042567270513,0.8622845613712345,0.13960391283035278,0.9863209128379822,-0.08764602988958359,0.01598014496266842,0.20464646816253662,-0.04858158156275749,-0.008820831775665283,-0.010551929473876953,-0.004852712154388428
433,1.005808892424904,-1.4090183717727105,0.8344547870448812,0.13604119420051575,0.9869424700737,-0.08623912930488586,0.01561419852077961,0.2685742974281311,-0.0487147755920887,-0.034829676151275635,-0.001682579517364502,0.004192657768726349
434,0.981264279854994,-1.4150661826229287,0.7849498339228264,0.12892121076583862,0.9878985285758972,-0.08623257279396057,0.054700348526239395,0.2313840687274933,-0.07930491119623184,-0.02095000445842743,0.0002607107162475586,0.012059621512889862
435,0.9411883415991217,-1.4199475420215413,0.7223160415322528,0.12146327644586563,0.9886438846588135,-0.08848775923252106,0.07165776938199997,0.20185025036334991,-0.07534459978342056,-0.015017949044704437,0.0011023283004760742,0.007677249610424042
436,0.8800858571167988,-1.4237144077278905,0.6420585579263949,0.11296158283948898,0.9892029166221619,-0.09336627274751663,0.08981405943632126,0.21525847911834717,-0.07994583249092102,-0.03209000080823898,-0.015509068965911865,-0.013277411460876465
437,0.8571389014757689,-1.424732088744118,0.5978352726070183,0.11002866923809052,0.9893515706062317,-0.09527473151683807,0.05294560268521309,0.1864744871854782,-0.017547884956002235,-0.002026952803134918,-0.0059531331062316895,0.002135038375854492
438,0.8485787876517584,-1.420987377161146,0.5699281689753504,0.11198748648166656,0.9887996315956116,-0.09866085648536682,0.05752168223261833,0.21340711414813995,0.040191490203142166,-0.011493116617202759,-0.022216439247131348,0.0014928653836250305
439,0.86436162710268,-1.4137347015555244,0.5623430340386493,0.11898375302553177,0.9876911640167236,-0.10153458267450333,0.06681904196739197,0.2773458957672119,0.07313452661037445,-0.010951519012451172,-0.016911625862121582,0.010637983679771423
440,0.8914892009689612,-1.4049470284017003,0.5604150261327399,0.12844112515449524,0.9862784743309021,-0.10371827334165573,0.05896944925189018,0.2712324261665344,0.08802983909845352,0.013358786702156067,-0.015209197998046875,0.018604762852191925
441,0.9108819312780304,-1.3924670016296166,0.5555854966945772,0.14014272391796112,0.9841414093971252,-0.1087462306022644,0.09959858655929565,0.17054255306720734,0.10272727906703949,0.027826040983200073,-0.018366873264312744,0.0021483302116394043
442,0.9298603004826077,-1.375443880256099,0.558448940546057,0.15558822453022003,0.980979323387146,-0.1160687729716301,0.07728233188390732,0.16544564068317413,0.1349061280488968,0.019033342599868774,-0.016883254051208496,0.026453912258148193
443,0.9566981054331378,-1.3558693721415764,0.5725482645109398,0.17430920898914337,0.9769919514656067,-0.12289436906576157,0.16205810010433197,0.08415669202804565,0.17484834790229797,0.05039173364639282,-0.02353125810623169,0.007385373115539551
444,0.9661248783660287,-1.3321851362782684,0.5798458923710222,0.19444525241851807,0.9716671705245972,-0.13436491787433624,0.02982865273952484,-0.06426443159580231,0.13870729506015778,0.033124327659606934,-0.014849543571472168,-0.010181605815887451
445,0.9946749443412389,-1.3204384847546047,0.6220477600961704,0.2077593058347702,0.9688238501548767,-0.13496854901313782,-0.11643075197935104,-0.20230643451213837,0.09890860319137573,0.021351411938667297,-0.032681822776794434,0.02382349967956543
446,1.0385175935993,-1.3191118641864288,0.6886082901209866,0.21458202600479126,0.9684942960739136,-0.12638497352600098,-0.1797531694173813,-0.22476071119308472,0.07544194161891937,0.0054802000522613525,-0.042545318603515625,0.00790049135684967
447,1.1010677213810083,-1.3201724357575326,0.767908364025957,0.2211473286151886,0.9687578678131104,-0.11225980520248413,-0.16003432869911194,-0.14941856265068054,0.07983535528182983,-0.02192854881286621,-0.0026475191116333008,-0.03942783176898956
448,1.1319910925067331,-1.3209597616589064,0.8134381756253146,0.22382114827632904,0.9689528346061707,-0.10504414141178131,-0.11078503727912903,-0.059853192418813705,0.010057104751467705,-0.04251624643802643,-0.035008251667022705,-0.07088963687419891
449,1.1345397430964708,-1.332191910597756,0.8236529999933764,0.21421045064926147,0.9716687798500061,-0.09986822307109833,-0.18040423095226288,-0.04808473214507103,-0.1576041877269745,-0.01685328781604767,-0.02232801914215088,-0.06358390301465988
450,1.1318915994087553,-1.3500367284870327,0.8302686630433092,0.19821645319461823,0.975731372833252,-0.09305136650800705,-0.0324552021920681,-0.050690945237874985,-0.11384831368923187,0.05237862467765808,0.030707836151123047,-0.09025245904922485
451,1.0918035608585308,-1.3528557971555082,0.797400357680647,0.19188569486141205,0.9763448238372803,-0.0996522456407547,0.04237072169780731,-0.07387680560350418,-0.06406338512897491,0.03473782539367676,-0.008601963520050049,-0.0772886797785759
452,0.9994012431706747,-1.3498983387973398,0.7150187697307097,0.18430012464523315,0.975701093673706,-0.11849365383386612,0.06486412137746811,-0.21129167079925537,-0.15793126821517944,-0.016712859272956848,0.02156752347946167,0.004953034222126007
453,0.8753634746857112,-1.348318371951519,0.5979793447817429,0.1694081872701645,0.9753537178039551,-0.14137299358844757,0.18916213512420654,-0.017170872539281845,-0.11511816084384918,-0.039296478033065796,-0.013210654258728027,0.07588230073451996
454,0.7927761017984573,-1.352999590497553,0.5079383301124829,0.15391391515731812,0.9763758778572083,-0.15165938436985016,0.1459137350320816,0.12498995661735535,-0.15256795287132263,-0.013624623417854309,-0.0021327733993530273,0.10876692831516266
455,0.7287750348568698,-1.3696220810825204,0.43129582321581217,0.13307130336761475,0.9798325896263123,-0.14906376600265503,0.055807389318943024,0.06848322600126266,-0.28822576999664307,-0.024474501609802246,0.012812614440917969,0.10923832654953003
456,0.6244524613306985,-1.3939630932314562,0.3205415424775068,0.10284794121980667,0.9844056963920593,-0.14271508157253265,-0.10958606004714966,0.14980964362621307,-0.2753426134586334,0.003948323428630829,-0.0496370792388916,0.11448635160923004
457,0.6007965773501804,-1.420692389586659,0.2714710031131384,0.08453516662120819,0.9887555241584778,-0.1233537420630455,-0.15326306223869324,0.19778627157211304,-0.17156097292900085,-0.016038477420806885,0.044951021671295166,-0.003187403082847595
458,0.5605500621300471,-1.437822437480131,0.2302505504412612,0.0704878643155098,0.9911720156669617,-0.11229259520769119,-0.04562478885054588,-0.16519926488399506,-0.1111040785908699,0.0143967866897583,-0.008261799812316895,0.01655900478363037
459,0.522955204483869,-1.445787940516053,0.20910037976909593,0.062271684408187866,0.9921966195106506,-0.10801820456981659,-0.032588399946689606,-0.2114494889974594,-0.06739257276058197,-0.021393388509750366,-0.0072113871574401855,0.04879887402057648
460,0.49274028853682456,-1.4526485113951355,0.20394174333729825,0.055758945643901825,0.9930286407470703,-0.10385094583034515,-0.009000321850180626,-0.3525126278400421,0.023048939183354378,0.01746797189116478,-0.007005751132965088,0.046432144939899445
461,0.49038138033828543,-1.4513141084363115,0.24775962667765636,0.056137822568416595,0.9928705096244812,-0.10515100508928299,0.008583417162299156,-0.5875681638717651,0.07712557911872864,-0.01030043140053749,0.011844456195831299,0.047869570553302765
462,0.4782673733524034,-1.4453935648773566,0.30589197929968265,0.05756443366408348,0.9921473860740662,-0.11104023456573486,-0.005631768610328436,-0.78001868724823,0.09675704687833786,-0.04654758796095848,0.004877150058746338,0.05801594257354736
463,0.5025324290655148,-1.4366271939621473,0.41144830248730585,0.06442846357822418,0.9910128116607666,-0.1172289252281189,0.041568510234355927,-0.7759720683097839,0.21986450254917145,-0.05019201338291168,-0.010513544082641602,0.021174848079681396
464,0.5631147018401297,-1.4205891529612331,0.5434980915239496,0.07988312840461731,0.988740086555481,-0.12653809785842896,0.036048419773578644,-0.596030056476593,0.23939095437526703,-0.09823944419622421,-0.015564978122711182,0.04742126166820526
465,0.6199637335224776,-1.4064903623709128,0.6569649723640786,0.0950336828827858,0.9865320920944214,-0.13312757015228271,-0.02165464498102665,-0.4942667484283447,0.2312871217727661,-0.019487418234348297,-0.025442063808441162,0.08712233603000641
466,0.7042833196163144,-1.3919948329499903,0.7938339960349616,0.11515570431947708,0.9840575456619263,-0.13553518056869507,-0.08631017804145813,-0.567754328250885,0.281733900308609,0.031862713396549225,-0.006060779094696045,0.04723258316516876
467,0.7826057976285005,-1.3759234281483341,0.9479372791579233,0.136542409658432,0.9810723066329956,-0.1373070925474167,-0.1322525292634964,-0.857823371887207,0.3755015730857849,0.1449364572763443,-0.025444865226745605,0.036370232701301575
468,0.8781047622026602,-1.3566526972009383,1.131228858838861,0.16353335976600647,0.9771587252616882,-0.13571162521839142,-0.13622988760471344,-0.8728954195976257,0.35576120018959045,-0.01517215371131897,-0.0024120211601257324,-0.053009092807769775
469,0.905112298409712,-1.3450999644813053,1.252801740778702,0.1760057806968689,0.9746385216712952,-0.13820908963680267,-0.10353461652994156,-0.9325082302093506,0.14952749013900757,0.0012097954750061035,-0.021177828311920166,-0.06862378120422363
470,0.857481991119266,-1.3425838008901725,1.3004776638888615,0.17107950150966644,0.9740723371505737,-0.14803647994995117,-0.010650286450982094,-0.7977757453918457,0.039869941771030426,0.01367388665676117,-0.060177743434906006,-0.024525150656700134
471,0.8314319655854239,-1.3510458474755396,1.3486540761563102,0.16106943786144257,0.9759518504142761,-0.14688318967819214,-0.18449418246746063,-0.7227760553359985,-0.005986529402434826,0.041948750615119934,-0.0229489803314209,0.00045984983444213867
472,0.8224391165576513,-1.3643151405773761,1.4089881323421054,0.15023784339427948,0.9787583947181702,-0.13950073719024658,-0.21141187846660614,-0.6186745166778564,-0.019856244325637817,0.06088276207447052,-0.04104489088058472,-0.009882792830467224
473,0.8077434416528859,-1.3819959443003824,1.459515368590887,0.13564236462116241,0.9822300672531128,-0.12971195578575134,-0.19587822258472443,-0.6086748838424683,-0.08356897532939911,0.09572665393352509,-0.02493947744369507,-0.03058163821697235
474,0.772468570868938,-1.393731370244319,1.4741337145107063,0.12293007224798203,0.984364926815033,-0.12615075707435608,0.00032236555125564337,-0.2904089689254761,-0.058659713715314865,0.027780979871749878,-0.043156981468200684,-0.08156710863113403
475,0.7479568123864742,-1.4030881729481497,1.4674354080841792,0.11353173106908798,0.9859699010848999,-0.12236827611923218,-0.048762787133455276,0.006892433390021324,-0.04004780203104019,0.05445227026939392,0.0352092981338501,-0.04315906763076782
476,0.7401396971865956,-1.4117593871805398,1.4623714568618222,0.10680104047060013,0.9873802661895752,-0.11693385988473892,-0.09165912866592407,-0.009965801611542702,-0.08660310506820679,0.012248024344444275,-0.032744765281677246,-0.04897497594356537
477,0.6955536865777769,-1.4170490035057695,1.4193132467211202,0.09813514351844788,0.9882041215896606,-0.11756710708141327,-0.0007951839361339808,0.009718124754726887,-0.12476637959480286,-0.04829994589090347,-0.00802534818649292,0.02508360892534256
478,0.6158126528594364,-1.4324548269606243,1.3319454367125307,0.07965479791164398,0.9904460906982422,-0.11256936937570572,-0.06366989761590958,0.1369263380765915,-0.2109103798866272,-0.08183678984642029,0.0058765411376953125,0.042012691497802734
479,0.47617738313601005,-1.456448034853784,1.1795926538788055,0.05230129510164261,0.9934693574905396,-0.10140591114759445,-0.11269059032201767,0.12126626819372177,-0.22627714276313782,-0.013086199760437012,3.039836883544922e-05,0.06101590394973755
480,0.36420789377275775,-1.4736446969191461,1.0584796880962841,0.034551460295915604,0.9952844977378845,-0.09063520282506943,-0.054046690464019775,0.04266941547393799,-0.14776277542114258,-0.007436580955982208,-0.023345530033111572,-0.029176756739616394
481,0.27585462436735925,-1.476807382146377,0.9638712117461666,0.025562245398759842,0.9955862760543823,-0.09030313789844513,0.019621888175606728,0.055558644235134125,-0.061031267046928406,0.02779775857925415,-0.0019186735153198242,-0.008375406265258789
482,0.24557959024433376,-1.4756747534477754,0.9344944697563339,0.02309083752334118,0.9954793453216553,-0.09212802350521088,0.007127237971872091,-0.04844796285033226,-0.003423750400543213,0.03225278854370117,0.007694423198699951,0.005137689411640167
483,0.3090704893424225,-1.4728565811113046,1.0011382216993556,0.029742827638983727,0.9952077269554138,-0.09314925223588943,0.004759810399264097,0.006259852088987827,0.08070230484008789,-0.007434461265802383,-0.02177339792251587,0.030008383095264435
484,0.3846234488023633,-1.4683925743339896,1.0779009260198467,0.038356103003025055,0.9947612881660461,-0.09475702792406082,0.05893845483660698,-0.036092545837163925,0.11625807732343674,0.018101423978805542,0.000645756721496582,-0.008041441440582275
485,0.4829359520763314,-1.4588540394025704,1.1829659220872366,0.051875121891498566,0.993740975856781,-0.09893257170915604,0.045775026082992554,-0.07875557988882065,0.1357761174440384,-0.017176631838083267,-0.0033541321754455566,0.026102371513843536
