,attitude.roll,attitude.pitch,attitude.yaw,gravity.x,gravity.y,gravity.z,rotationRate.x,rotationRate.y,rotationRate.z,userAcceleration.x,userAcceleration.y,userAcceleration.z
0,0.6837496750428207,-1.3914481933451635,1.3913128595341668,0.11268865317106247,0.9839602112770081,-0.13828831911087036,0.015671202912926674,0.048721782863140106,-0.020480651408433914,-0.02331790328025818,0.0007047057151794434,-0.006853342056274414
1,-0.04999891533161366,0.3635266367940599,1.3867541475030278,-0.04671195149421692,-0.3555726110935211,-0.9334806203842163,-0.36828216910362244,-0.07410848885774612,0.1706913560628891,-0.04239937290549278,-0.005465567111968994,0.023629605770111084
2,-0.04241159894301624,0.3498416452725026,1.413195965813989,-0.039830658584833145,-0.34274905920028687,-0.9385822415351868,0.19015845656394958,-0.21755695343017578,0.021906783804297447,0.004186123609542847,-0.025384485721588135,-0.04441946744918823
3,-0.04245185091424901,0.35401844959558026,1.4219139143419326,-0.039807334542274475,-0.34666985273361206,-0.9371421337127686,0.26362645626068115,-0.02505127526819706,0.0797627717256546,-0.002352699637413025,0.0008904337882995605,-0.046180009841918945
4,-0.04861068524275208,0.349411041686799,1.4257102764026315,-0.045655373483896255,-0.3423444926738739,-0.9384646415710449,-0.1909875124692917,-0.033628322184085846,0.14576247334480286,0.02304185926914215,-0.0020463764667510986,-0.0014462471008300781
5,-0.07282412709299875,0.34868232917492353,1.4363533472918129,-0.06838136166334152,-0.3416597247123718,-0.9373326897621155,-0.07691953331232071,-0.0985569953918457,0.24554552137851715,0.01851564645767212,-0.015792667865753174,-0.011824965476989746
6,-0.1762744415881049,0.3471563244843308,1.4918343138894148,-0.1649015247821808,-0.3402251601219177,-0.9257723093032837,0.3266255557537079,-1.0814498662948608,0.7137396335601807,-0.07243368029594421,0.12712091207504272,0.04749166965484619
7,-0.27075185164546106,0.3403756089021463,1.5166487382237523,-0.25211185216903687,-0.3338411748409271,-0.9082894325256348,-0.15600237250328064,-1.431556224822998,0.6746842265129089,0.22757571935653687,-0.10100379586219788,0.036676883697509766
8,-0.3432151333408487,0.3206052659584431,1.6112557895214532,-0.31936919689178467,-0.31514105200767517,-0.893694281578064,-0.5686295628547668,0.395704060792923,0.0664164200425148,-0.11192047595977783,-0.14567440748214722,0.06823956966400146
9,-0.2592021363947601,0.28181052444230664,1.587050908043297,-0.24619892239570618,-0.27809521555900574,-0.9284660220146179,-0.42929792404174805,0.24098634719848633,-0.42287981510162354,-0.023469656705856323,-0.08730700612068176,0.01312178373336792
10,-0.2231813618337887,0.2606607873997033,1.5348752232349332,-0.2138565331697464,-0.2577190697193146,-0.9422559142112732,0.25149184465408325,-0.09567171335220337,0.5326998829841614,0.08118137717247009,0.040815383195877075,-0.1362505555152893
11,-0.24959652492937418,0.25511399546248575,1.5908962809221174,-0.23901832103729248,-0.2523557245731354,-0.937649667263031,0.05055589973926544,-0.46523141860961914,0.44425004720687866,-0.021586552262306213,-0.050088733434677124,-0.0048705339431762695
12,-0.31703093403785515,0.22988386069284727,1.5823215327382532,-0.30354568362236023,-0.22786444425582886,-0.9251691102981567,-0.25237196683883667,-0.3728089928627014,0.7255483865737915,0.10449478030204773,0.08774296939373016,-0.18792903423309326
13,-0.3751126828460589,0.23556263829327564,1.6146115355145365,-0.35625919699668884,-0.23339012265205383,-0.9047698378562927,0.1319226324558258,-0.7614151239395142,0.06662144511938095,-0.023471027612686157,0.15358665585517883,-0.06401067972183228
14,-0.43573181515033027,0.23012948878616618,1.6884828021025122,-0.4109467566013336,-0.2281036078929901,-0.8826616406440735,-0.40597987174987793,-0.14120905101299286,0.2790820598602295,-0.070101797580719,-0.010955870151519775,0.09123402833938599
15,-0.5564802669914419,0.19079379175653144,1.703280418914579,-0.5186160802841187,-0.18963834643363953,-0.8337113857269287,0.024566348642110825,-2.5975797176361084,1.3549854755401611,0.18286168575286865,0.38188380002975464,0.1332414150238037
16,-0.7682034173387204,0.002072663433544388,1.977091694412893,-0.6948428750038147,-0.0020726618822664022,-0.7191586494445801,-0.0650334432721138,-1.3643101453781128,4.319338798522949,0.03404569625854492,0.26933035254478455,0.13547945022583008
17,-0.8739277846216348,-0.4149836102168798,2.2655013880526806,-0.7017673254013062,0.4031749367713928,-0.587343692779541,-0.37799543142318726,-2.083423614501953,4.628260612487793,-0.45498621463775635,-0.05078846216201782,-0.647580623626709
18,-0.7759418367492611,-0.5774576519466992,2.6168102825649666,-0.5868228673934937,0.5458955764770508,-0.5980275869369507,1.4224745035171509,0.9421399831771851,1.9295756816864014,-0.12544214725494385,-0.3476686477661133,0.011403441429138184
19,-0.6603025905927012,-0.5855727415828493,2.88582153070605,-0.5111681222915649,0.552676796913147,-0.658221423625946,0.6535277366638184,-2.1425766944885254,0.676184892654419,-0.46998727321624756,-0.09175455570220947,0.3815491199493408
20,-0.8926854008088861,-0.5702752469724189,2.847295414302036,-0.655522346496582,0.5398637652397156,-0.5280506014823914,-0.5240631103515625,-0.9511969685554504,-1.368175745010376,-0.17338073253631592,-0.22660088539123535,0.30151867866516113
21,-1.2342037622670312,-0.393534494827126,2.626192054682176,-0.8717344403266907,0.3834551274776459,-0.3050265610218048,-0.6899405717849731,-1.8458260297775269,-2.576122283935547,0.01495349407196045,0.004667431116104126,-0.1806911826133728
22,-1.382372604888982,-0.38981499934532,2.584588682884507,-0.9086077809333801,0.38001731038093567,-0.17325855791568756,-0.7576838731765747,0.34389597177505493,1.3441983461380005,0.14847612380981445,-0.21157556772232056,0.06484487652778625
23,-1.4299813486812172,-0.39924908139735843,2.5732244204183496,-0.9122335910797119,0.3887265920639038,-0.12931197881698608,1.0593652725219727,-1.175980806350708,0.18760104477405548,-0.10239964723587036,-0.09752786159515381,-0.09892898797988892
24,-1.4142562547830275,-0.38028703258340824,2.6037547320386896,-0.9172041416168213,0.3711870014667511,-0.14476360380649567,-0.32779189944267273,0.6798517107963562,-0.4947354793548584,-0.23982393741607666,-0.047014087438583374,-0.0068477243185043335
25,-1.384906287934087,-0.35375791445687876,2.5791753718192307,-0.9219163656234741,0.34642547369003296,-0.17337669432163239,-0.6453658938407898,0.6637660264968872,0.8680813908576965,0.0750383734703064,-0.06233736872673035,0.04263944923877716
26,-1.387979709121247,-0.4581475675984274,2.4414191829601832,-0.8819275498390198,0.44228747487068176,-0.1630515605211258,-0.8874958753585815,0.2826882600784302,1.449295163154602,0.006988525390625,-0.051967620849609375,-0.048572540283203125
27,-1.3847374736448486,-0.554665897234638,2.3939054891471327,-0.8354048132896423,0.5266593098640442,-0.15725325047969818,0.8745610117912292,-0.4520050585269928,-0.4538727402687073,0.049058496952056885,0.47771990299224854,-0.21380995213985443
28,-1.3993285298639486,-0.5222038337359994,2.476117804890279,-0.8540117740631104,0.4987914562225342,-0.14788773655891418,0.7836858034133911,-0.5216671824455261,0.20829252898693085,0.026726126670837402,0.10779112577438354,-0.1516575664281845
29,-1.4181481036812067,-0.5480215795387475,2.5902355931000516,-0.8436316251754761,0.520999550819397,-0.12978853285312653,1.3789219856262207,-1.3561574220657349,0.3236601948738098,-0.21084219217300415,-0.05365341901779175,0.031079426407814026
30,-1.483690197435193,-0.56421936159702,2.6544447349002747,-0.841802716255188,0.5347563624382019,-0.07351219654083252,0.4572226405143738,-0.8689614534378052,0.37326157093048096,-0.15772438049316406,-0.10191023349761963,0.05784141272306442
31,-1.5416904927551935,-0.5853734599899163,2.6406834613213945,-0.8331527709960938,0.552510678768158,-0.024256456643342972,0.20168310403823853,0.057696230709552765,-0.02042734995484352,0.12648779153823853,-0.044026851654052734,0.06293749809265137
32,-1.5215828580232724,-0.6590864352225535,2.6779527272018377,-0.789594829082489,0.6123948693275452,-0.03889010474085808,2.1270556449890137,-0.5171380639076233,1.4595885276794434,0.03053116798400879,0.31204360723495483,-0.41072535514831543
33,-1.4032251469626884,-0.7101284683859347,2.8204413691559536,-0.7476569414138794,0.6519311666488647,-0.12647175788879395,0.9031741619110107,0.2398196905851364,0.20547670125961304,-0.03330320119857788,-0.06263673305511475,0.013465151190757751
34,-1.338724043686153,-0.6912705232656917,2.859668377062109,-0.7497827410697937,0.6375165581703186,-0.17719639837741852,0.4556849002838135,0.18910513818264008,-0.8786646127700806,-0.1945379376411438,-0.010029375553131104,-0.2954293489456177
35,-1.3373723984437733,-0.5658936782157431,2.841758918801731,-0.8212175965309143,0.5361703634262085,-0.1952509731054306,-0.338269978761673,0.1306152194738388,-0.9555245637893677,0.2608080506324768,0.0012288689613342285,0.012221813201904297
36,-1.3852425124429102,-0.5004422368152905,2.7960640212599586,-0.8623096346855164,0.4798136055469513,-0.16186682879924774,-0.07387343794107437,-0.10571904480457306,-0.09279467165470123,0.14171338081359863,-0.1132364571094513,0.06692667305469513
37,-1.4255882393508352,-0.6044194715304372,2.7281655199068893,-0.8141724467277527,0.5682845115661621,-0.11906242370605469,-0.41212451457977295,-0.1386050432920456,0.9735793471336365,-0.23773789405822754,0.20089572668075562,-0.11735724657773972
38,-1.4451153353903905,-0.7206788234185849,2.7195804218157495,-0.7454318404197693,0.6598948836326599,-0.09418303519487381,0.1838923990726471,-0.2905712425708771,0.9813225269317627,-0.09378641843795776,-0.07505583763122559,0.011266805231571198
39,-1.4491561246400957,-0.8855365471107337,2.725379748732428,-0.6281977295875549,0.7742546796798706,-0.07679322361946106,-0.07900092750787735,0.30062493681907654,1.9000953435897827,0.05852615833282471,-0.0799340009689331,0.08518552780151367
40,-1.394774152590515,-1.0043131025290126,2.748943355466888,-0.5283756852149963,0.843793511390686,-0.09397844970226288,-0.1882496327161789,0.5159410834312439,1.1150548458099365,-0.09430509805679321,0.11249017715454102,-0.07624860852956772
41,-1.2942697283430875,-1.1474013320724405,2.7852071003504046,-0.39524948596954346,0.9116993546485901,-0.11217080056667328,0.09255510568618774,0.12602874636650085,0.6294271945953369,-0.008925318717956543,0.04211229085922241,-0.13677632808685303
42,-1.26822134253758,-1.1726291243049574,2.8280896896804295,-0.37011587619781494,0.9217731952667236,-0.11553533375263214,0.1389465034008026,-0.5297163128852844,0.42438846826553345,-0.20636117458343506,-0.06313061714172363,-0.22423207759857178
43,-1.2744128067348686,-1.2021629234186686,2.8124717586535133,-0.3446297347545624,0.9328206777572632,-0.10524238646030426,-0.15489089488983154,0.5612258315086365,0.46721044182777405,0.10599753260612488,-0.12094628810882568,0.11949408054351807
44,-1.286002462615331,-1.2381230762068824,2.7738481217435647,-0.3134162724018097,0.9451727271080017,-0.09175316989421844,0.074210986495018,-0.18201802670955658,0.23897558450698853,0.021652966737747192,0.062120914459228516,0.014192827045917511
45,-1.2110649456641203,-1.2982528024340483,2.8826477968392243,-0.25195232033729553,0.9630893468856812,-0.09475830942392349,0.2905528247356415,-0.5846871733665466,1.0635600090026855,-0.12063679099082947,-0.06436192989349365,-0.09739565849304199
46,-1.088210181399265,-1.3004289777956812,3.0952734228473044,-0.2365836650133133,0.9636728763580322,-0.12394674122333527,-0.015143128111958504,-0.26486045122146606,0.13854911923408508,-0.09360125660896301,-0.04469704627990723,0.017409920692443848
47,-1.1083051265591979,-1.3058846523348868,3.095433504106131,-0.23431749641895294,0.9651156067848206,-0.11682023108005524,-0.05683541297912598,-0.1689983755350113,0.03973395377397537,-0.0041162967681884766,-0.008160769939422607,-0.09318648278713226
48,-1.088131161588454,-1.3045259415902648,3.135106514054822,-0.2330746203660965,0.9647589921951294,-0.1221318170428276,-0.006028630770742893,-0.13229283690452576,-0.09833772480487823,-0.036258265376091,-0.04216688871383667,-0.0114588662981987
49,-1.1233674002253193,-1.286269156796319,3.1143327719333875,-0.25307220220565796,0.9597944617271423,-0.12144631147384644,-0.04845883324742317,-0.12255624681711197,0.07601376622915268,-0.05137112736701965,-0.033296048641204834,-1.3709068298339844e-05
50,-1.1094131634090796,-1.2858908679881158,3.1413384030248426,-0.25167763233184814,0.9596882462501526,-0.12512722611427307,-0.08052822202444077,-0.10386157780885696,-0.03239383175969124,-0.03262409567832947,-0.019319593906402588,0.016515135765075684
51,-1.1582561849598274,-1.2830539063375324,3.0970175572443446,-0.25998005270957947,0.958886981010437,-0.11378145217895508,-0.13782678544521332,-0.03439866006374359,-0.1247442364692688,0.006958812475204468,-0.02863490581512451,-0.05432462692260742
52,-1.190615199638434,-1.2798209379244356,3.0689643811700598,-0.2664025127887726,0.9579644799232483,-0.10646050423383713,-0.09180908650159836,-0.018411152064800262,-0.13589389622211456,-0.024994641542434692,-0.046144962310791016,0.0031279176473617554
53,-1.2394217905687728,-1.263389677698504,3.016098949633229,-0.286126047372818,0.9531214833259583,-0.09844492375850677,-0.21994276344776154,0.053215764462947845,-0.4140090346336365,-0.015769094228744507,0.0018955469131469727,-0.03278064727783203
54,-1.298510333432383,-1.2275476672317787,2.9553990365954306,-0.32414892315864563,0.941666305065155,-0.09050911664962769,-0.010749991983175278,0.060362670570611954,-0.3988106846809387,0.061301082372665405,-0.00354081392288208,-0.01691274344921112
55,-1.3176938060309005,-1.2128195300343385,2.9208515612598243,-0.33921706676483154,0.9366076588630676,-0.0877382755279541,-0.08318522572517395,0.13749058544635773,-0.03244274482131004,0.059721797704696655,-0.03257012367248535,-0.0363156795501709
56,-1.3448534117496924,-1.222987775588645,2.88199042884749,-0.33217567205429077,0.9401218891143799,-0.07635652273893356,0.01949656940996647,0.08857809007167816,0.03982611000537872,0.09036961197853088,0.008074522018432617,-0.02177274227142334
57,-1.3371560346675158,-1.2265192966523248,2.8781730373420666,-0.3283461928367615,0.9413197040557861,-0.07814197242259979,-0.0771690160036087,0.1798061579465866,-0.11954532563686371,0.040656983852386475,-0.03523755073547363,-0.004041910171508789
58,-1.336445078820233,-1.2269438041879348,2.851577736514556,-0.32790204882621765,0.9414629340171814,-0.07828263938426971,-0.11143752932548523,0.3373909890651703,-0.02222125604748726,0.037344157695770264,0.02812647819519043,0.01949053257703781
59,-1.332418459234665,-1.227516611522654,2.821966505004836,-0.3270595073699951,0.9416558742523193,-0.07947484403848648,-0.08766501396894455,0.3610176146030426,-0.04573584720492363,0.008135616779327393,-0.006841480731964111,-0.008965067565441132
60,-1.3234557535344131,-1.228089752462039,2.7937324462247317,-0.3258111774921417,0.941848635673523,-0.08227091282606125,-0.09532876312732697,0.35121461749076843,-0.029650863260030746,0.005071431398391724,0.015457391738891602,0.007243506610393524
61,-1.3086188469062927,-1.2244413804613332,2.7749638684605222,-0.3278712034225464,0.9406163692474365,-0.08798570930957794,-0.012921424582600594,0.2820301651954651,-0.07745807617902756,-0.0023137032985687256,-0.027301490306854248,-0.010219812393188477
62,-1.2780640148500646,-1.2148300361074913,2.778112901318956,-0.33367088437080383,0.9373101592063904,-0.1005653515458107,0.10167687386274338,0.24479542672634125,-0.1344543993473053,-0.026924848556518555,-0.04613584280014038,-0.05190044641494751
63,-1.210675571621052,-1.1965006290255489,2.8244804827096734,-0.34216421842575073,0.9307653307914734,-0.12883876264095306,0.3600604236125946,0.17484129965305328,-0.17332129180431366,-0.00218084454536438,-0.10054993629455566,-0.08730195462703705
64,-1.1287073982177338,-1.1638277780249142,2.902432666228939,-0.3577723503112793,0.9183249473571777,-0.1693461537361145,0.2250024527311325,0.023330749943852425,-0.09773039817810059,-0.1083378791809082,0.02948993444442749,-0.021816015243530273
65,-1.1036371560911173,-1.1468385320402361,2.925824855444628,-0.36729303002357483,0.911467969417572,-0.1852615624666214,0.015515276230871677,0.11209680885076523,-0.16397511959075928,-0.08850225806236267,-0.0009151101112365723,0.0505569726228714
66,-1.1259042502992171,-1.1320801603313502,2.8915560462167735,-0.38342857360839844,0.9052977561950684,-0.18280750513076782,-0.07993508130311966,0.053411684930324554,-0.08330325782299042,-0.053140610456466675,-0.03621816635131836,-0.026741385459899902
67,-1.1390867893325765,-1.126247082024217,2.874530575115745,-0.3905947506427765,0.9028046131134033,-0.17994378507137299,-0.05181404575705528,-0.02397935278713703,0.0239021684974432,-0.0454862117767334,-0.04303276538848877,-0.050814881920814514
68,-1.1411946555880401,-1.1297085956348623,2.883720369061403,-0.38812926411628723,0.9042878150939941,-0.17781715095043182,-0.026314619928598404,-0.16561192274093628,0.14999978244304657,-0.05762571096420288,-0.019720733165740967,-0.045220524072647095
69,-1.1442159215969596,-1.1372533009841137,2.9018457774025777,-0.3824427127838135,0.9074830412864685,-0.17381587624549866,-0.04544956982135773,-0.19134464859962463,0.19590504467487335,-0.019351691007614136,-0.0038271546363830566,-0.029568538069725037
70,-1.1607451911154107,-1.15952429317052,2.921229622471506,-0.3666343092918396,0.9166130423545837,-0.15937300026416779,0.0212068073451519,-0.41980302333831787,0.2115056812763214,-0.05208209156990051,-0.030153751373291016,-0.0011647194623947144
71,-1.1944440626442498,-1.1818493437583217,2.928722895850919,-0.3526739180088043,0.925308883190155,-0.13937291502952576,-0.04778074100613594,-0.38518640398979187,0.20025113224983215,0.01989498734474182,-0.018433213233947754,0.01911841332912445
72,-1.2310871075555507,-1.1944209671071637,2.9349813748346514,-0.34654688835144043,0.9300029873847961,-0.12247304618358612,0.003271605586633086,-0.42703691124916077,0.08211954683065414,-0.018077075481414795,-0.014735102653503418,-0.012933425605297089
73,-1.2558171924695982,-1.1989094633124417,2.9497318271174793,-0.3454972803592682,0.9316433668136597,-0.11257211863994598,0.03578551486134529,-0.33334794640541077,0.03237070143222809,0.04761514067649841,0.010098695755004883,0.025291845202445984
74,-1.2769707953294662,-1.2006682737750116,2.954107345767607,-0.3462321162223816,0.9322810173034668,-0.10476421564817429,0.018034983426332474,-0.18720388412475586,0.03214949741959572,0.08140057325363159,0.018616199493408203,0.008069276809692383
75,-1.2803766538378405,-1.2103936932712451,2.964551378202806,-0.337883323431015,0.9357548952102661,-0.1009831503033638,-0.0007864418439567089,-0.09551334381103516,0.052511706948280334,0.0482257604598999,-0.0009252429008483887,0.0387578085064888
76,-1.2874787754974204,-1.2172884529835342,2.9605903030788205,-0.3323894143104553,0.9381641149520874,-0.09677506238222122,0.009763481095433235,-0.04425951465964317,0.004170132335275412,0.02349051833152771,0.012961983680725098,0.018421173095703125
77,-1.2896803576975138,-1.2211386444677281,2.961408377876011,-0.3291287124156952,0.939490020275116,-0.09504018723964691,0.014126450754702091,0.038863904774188995,0.0365329384803772,0.06159636378288269,0.0018093585968017578,0.027397990226745605
78,-1.2672225781543403,-1.2254639828967364,2.9732652448865116,-0.32303082942962646,0.9409630298614502,-0.1011914536356926,0.07344023883342743,0.15828970074653625,-0.061117563396692276,0.036089301109313965,-0.015715837478637695,0.018412530422210693
79,-1.2306392297411555,-1.2244767952202156,2.9913137908607514,-0.31998947262763977,0.9406283497810364,-0.11324863880872726,0.026531938463449478,0.19204232096672058,-0.04215480387210846,0.040906161069869995,0.0289456844329834,0.04975681006908417
80,-1.223842781354049,-1.2235177636243744,2.990623452553922,-0.3200603425502777,0.9403024315834045,-0.11572740226984024,0.08995401114225388,0.1110067367553711,-0.1255064457654953,0.005057930946350098,-0.05762726068496704,0.05048084259033203
81,-1.2010165925934049,-1.2099651554100543,3.0014772455478593,-0.3291880190372467,0.935603678226471,-0.12759649753570557,0.15693868696689606,0.20544931292533875,-0.11338135600090027,0.04307049512863159,-0.009532570838928223,-0.00890861451625824
82,-1.1622268585066464,-1.1942096064765992,3.0369407055439983,-0.3374793231487274,0.929925262928009,-0.14610543847084045,0.10514489561319351,0.05626001954078674,-0.05362908914685249,-0.02000361680984497,-0.07863736152648926,-0.019818678498268127
83,-1.1382353438672472,-1.179776483632904,3.0596221164798316,-0.34602752327919006,0.9245208501815796,-0.15976932644844055,0.07551742345094681,0.09932656586170197,-0.13231757283210754,-0.04844266176223755,-0.02528989315032959,-0.06589293479919434
84,-1.1254819181480118,-1.160341316171869,3.056711957458676,-0.36011186242103577,0.916939377784729,-0.17187747359275818,-0.02917890064418316,0.14498353004455566,-0.15093925595283508,-0.05692613124847412,-0.011070728302001953,-0.07017268240451813
85,-1.1213612049414887,-1.143268352992118,3.037356702202403,-0.3734475374221802,0.9099934697151184,-0.18013562262058258,-0.06680383533239365,0.28528180718421936,-0.1379946768283844,-0.028209567070007324,-0.05246478319168091,-0.03367054462432861
86,-1.1123200860148295,-1.1338547776557193,3.003326460332678,-0.379468709230423,0.9060501456260681,-0.18728770315647125,-0.16205862164497375,0.48964011669158936,-0.11932064592838287,-0.0036489665508270264,-0.004652440547943115,-0.0031267404556274414
87,-1.106469419884655,-1.136511476888557,2.937945571603419,-0.3762129247188568,0.9071711897850037,-0.18842601776123047,-0.2964843213558197,0.7942790985107422,-0.07121603935956955,0.0310286283493042,-0.03166764974594116,-0.05440235137939453
88,-1.1042244000420514,-1.1462542954559731,2.842014391276948,-0.3678775429725647,0.9112274646759033,-0.18528547883033752,-0.47481927275657654,0.9418342113494873,-0.12795792520046234,-0.0394863486289978,-0.01776432991027832,-0.04339796304702759
89,-1.116101524495273,-1.154933214006443,2.7289208424257088,-0.3629331588745117,0.9147679805755615,-0.17742298543453217,-0.45410165190696716,0.9055049419403076,-0.12550610303878784,-0.032208412885665894,-0.0491064190864563,-0.08966682851314545
90,-1.1299066407109626,-1.1683725506901086,2.6151055062517496,-0.3541972041130066,0.9201143980026245,-0.16713427007198334,-0.4508799910545349,0.8675888180732727,-0.005341317970305681,-0.002156555652618408,-0.05240815877914429,-0.08224010467529297
91,-1.1486882996606855,-1.1915288037368181,2.499390884914239,-0.33774319291114807,0.9289360642433167,-0.15168160200119019,-0.48873454332351685,0.9292193651199341,0.08138064295053482,0.012441068887710571,-0.023647427558898926,-0.10007321834564209
92,-1.1589822159125807,-1.221795708292798,2.392614340809367,-0.31337010860443115,0.9397149085998535,-0.13687683641910553,-0.5377035737037659,0.7832023501396179,0.18050484359264374,0.029877066612243652,-0.019441962242126465,-0.04641176760196686
93,-1.1882782912480843,-1.2529463116647674,2.2764499581275532,-0.2899382710456848,0.949909508228302,-0.11665242910385132,-0.501239001750946,0.8436061143875122,0.09171874821186066,-0.055230796337127686,0.03603708744049072,0.02258199453353882
94,-1.2307856375919803,-1.272989071677306,2.14539703442322,-0.2766261398792267,0.9559822082519531,-0.09785619378089905,-0.35826629400253296,0.7434961199760437,0.0408174991607666,-0.07870525121688843,-0.0600624680519104,-0.004225119948387146
95,-1.2704636385500243,-1.2832128027684144,2.0393797260943516,-0.27093979716300964,0.958932101726532,-0.08391027897596359,-0.3244812786579132,0.5058488249778748,-0.01832806132733822,-0.018107444047927856,-0.028802096843719482,0.04919654130935669
96,-1.3335103963972812,-1.286366152933534,1.922577400028719,-0.27274781465530396,0.9598217010498047,-0.06596187502145767,-0.30393916368484497,0.4524630010128021,-0.08802103251218796,-0.031619250774383545,-0.03864860534667969,0.0047130584716796875
97,-1.3820557482814326,-1.283903883069934,1.834586301019027,-0.2779482305049896,0.9591278433799744,-0.053092047572135925,-0.2590172588825226,0.3569127321243286,-0.07472939044237137,0.015741169452667236,-0.011617958545684814,0.019949965178966522
98,-1.4150076918464445,-1.279114633026816,1.7700856156110212,-0.2840811014175415,0.9577616453170776,-0.0446181558072567,-0.13160455226898193,0.2476290613412857,-0.10055375099182129,-0.007544904947280884,-0.025892019271850586,-0.005156043916940689
99,-1.4252968611544807,-1.2691306457473501,1.7313072263973994,-0.2939717769622803,0.9548429250717163,-0.043077148497104645,-0.022573476657271385,0.28432801365852356,-0.11587944626808167,0.026836156845092773,-0.006860136985778809,-0.02104032039642334
100,-1.4108076749970704,-1.259422827561801,1.719965661826801,-0.3024536967277527,0.9519136548042297,-0.048806291073560715,0.009205142967402935,0.2741262912750244,-0.09163030236959457,0.05857250094413757,-0.009118914604187012,-0.0007237158715724945
101,-1.3841903517736949,-1.245472509167745,1.718182138621266,-0.3140670955181122,0.9475472569465637,-0.05929667502641678,-0.019690953195095062,0.3507464826107025,-0.28220900893211365,0.03882908821105957,0.02648228406906128,-0.010435998439788818
102,-1.4351302371740176,-1.198538036516719,1.6252879506753117,-0.36037805676460266,0.9315083622932434,-0.049193259328603745,-0.6060354113578796,0.5369296073913574,-0.8326694369316101,-0.08769628405570984,0.05053204298019409,0.018370509147644043
103,-1.3873799625185792,-1.1950955926533047,1.636485812339237,-0.3607698678970337,0.9302507042884827,-0.06692325323820114,0.19786636531352997,-0.18594184517860413,1.0945501327514648,-0.011849761009216309,-0.07202011346817017,0.03918278217315674
104,-1.301081021827901,-1.216362416719664,1.7090147875984458,-0.33451202511787415,0.9378430843353271,-0.09247640520334244,0.5828903913497925,-0.10227177292108536,-0.14396384358406067,-0.06835049390792847,-0.1362684965133667,-0.00945233553647995
105,-1.263951920763997,-1.215192931941599,1.7335794485616562,-0.33189404010772705,0.937436580657959,-0.1051611602306366,0.008142998442053795,0.10045626759529114,0.1892949789762497,-0.13600143790245056,-0.09823375940322876,-0.0718102976679802
106,-1.2426575754177958,-1.2709127056587053,1.7351846140480307,-0.27964699268341064,0.9553709030151367,-0.09520485997200012,-0.21263103187084198,0.1851535141468048,0.692061185836792,-0.27813801169395447,0.063137948513031,-0.06034319847822189
107,-1.109393922363884,-1.2981531276360831,1.8695988090984856,-0.24111953377723694,0.9630625247955322,-0.11988382041454315,0.5847136378288269,-0.49399298429489136,0.4394632875919342,-0.15290817618370056,-0.18887734413146973,-0.06918781995773315
108,-1.0036209118117536,-1.3392957392982106,2.016681374706354,-0.193513423204422,0.9733232259750366,-0.12326624989509583,-0.2815156579017639,-0.6145966053009033,0.46575024724006653,-0.156065434217453,0.03081190586090088,-0.13619422912597656
109,-1.081199645682543,-1.350744899058052,2.0107669237007513,-0.19263702630996704,0.9758862257003784,-0.10265052318572998,0.390746533870697,-0.4012281000614166,0.10571853816509247,-0.07829803228378296,0.09886658191680908,0.02113807201385498
110,-1.1701619107247268,-1.327227722014348,1.9524882711698033,-0.2220708429813385,0.9704835414886475,-0.0940561592578888,0.1811216175556183,-1.1981244087219238,-0.3706998825073242,-0.3044489622116089,0.10201108455657959,-0.2891835570335388
111,-1.273035625798001,-1.3398837264713142,1.9046575586796366,-0.2187943309545517,0.973457932472229,-0.06714456528425217,-0.2844063341617584,-0.6787512898445129,-0.017658518627285957,0.05248884856700897,0.01012343168258667,-0.3241366147994995
112,-1.3646397314784402,-1.354006308894545,1.855189759788509,-0.21054142713546753,0.9765929579734802,-0.044030044227838516,-0.30990803241729736,0.03901587054133415,-0.04284132272005081,-0.07209712266921997,-0.04406726360321045,0.20067673921585083
113,-1.7210673802848846,-1.3580994901306198,1.5113966167232031,-0.20871812105178833,0.9774651527404785,0.03160252794623375,-0.44113463163375854,-0.8096643686294556,0.2596766948699951,0.14006882905960083,-0.3405327796936035,-0.1693742275238037
114,-1.9743272083012384,-1.3512032586623342,1.45056524246122,-0.20033681392669678,0.9759861826896667,0.08553610742092133,0.00418041180819273,-0.06980954855680466,0.2937313914299011,0.06287036836147308,1.6202054023742676,0.16121375560760498
115,-1.8947575898729807,-1.3683947570857338,1.5110325888916705,-0.1905653327703476,0.979586660861969,0.06399022042751312,0.6174381375312805,0.261606365442276,0.21745619177818298,0.06847977638244629,-0.04303276538848877,0.024007193744182587
116,-1.7645897929844279,-1.41387135083405,1.624621043628187,-0.1533571481704712,0.9877125024795532,0.030097339302301407,0.14150527119636536,-0.17506621778011322,0.1807599812746048,0.0065065473318099976,0.06850093603134155,0.1599050760269165
117,-1.711038347298441,-1.4306529770376646,1.6475436606952791,-0.1383141130208969,0.9901959896087646,0.019525626674294472,0.08882082253694534,0.38484662771224976,0.2890986502170563,0.07004629075527191,-0.07218146324157715,0.0018519163131713867
118,-1.6407957349085143,-1.455324192738103,1.6895953524475908,-0.11493389308452606,0.9933404922485352,0.00805847067385912,0.08950162678956985,0.29535141587257385,0.14909416437149048,0.07318584620952606,-0.009774208068847656,-0.05972468852996826
119,-1.5540753663173001,-1.4457071083497381,1.740789230412181,-0.12474630773067474,0.9921865463256836,-0.002086072461679578,0.19823351502418518,0.3677273094654083,-0.057890310883522034,0.005758270621299744,0.005768775939941406,-0.022175371646881104
120,-1.4111907120739384,-1.4387501159814517,1.850422252902496,-0.12999022006988525,0.9912945628166199,-0.02092515304684639,0.3586287498474121,0.22521518170833588,-0.12162398546934128,0.02339230477809906,-0.014960825443267822,-0.07425916194915771
121,-1.2192784674780275,-1.423809000552951,2.0435061241353814,-0.13750353455543518,0.9892168045043945,-0.05042935907840729,0.2173728048801422,-0.03910993039608002,-0.12901338934898376,-0.04351149499416351,0.02076256275177002,-0.025498397648334503
122,-1.212068509422421,-1.4052881083897992,2.047217081936509,-0.15426647663116455,0.9863347411155701,-0.05784238502383232,-0.08256906270980835,0.2193126529455185,-0.15398313105106354,0.07403574883937836,-0.02168935537338257,0.050426602363586426
123,-1.3137503281637724,-1.3887168265229193,1.9052163943252018,-0.17512555420398712,0.9834692478179932,-0.046033672988414764,-0.1339133083820343,0.24004819989204407,-0.32332590222358704,-0.06399492919445038,0.03265923261642456,-0.08366602659225464
124,-1.3376693026655315,-1.3605185565202873,1.881467270068914,-0.20308542251586914,0.9779729843139648,-0.048221465200185776,0.07598044723272324,-0.2710677683353424,-0.14843271672725677,-0.10585927963256836,-0.030081748962402344,-0.07511532306671143
125,-1.3201419034142157,-1.353784025930627,1.928264082561796,-0.20858535170555115,0.9765450954437256,-0.0534060113132,0.15351738035678864,-0.19181384146213531,0.0189628005027771,-0.0007500201463699341,-0.005750179290771484,-0.006225299090147018
126,-1.3149313833698846,-1.3553903723486442,1.926774754709485,-0.20678554475307465,0.9768897294998169,-0.0540948286652565,-0.1499723494052887,0.34556928277015686,-0.14988794922828674,-0.031175285577774048,0.0066307783126831055,0.0009942054748535156
127,-1.318787780997951,-1.354772864450152,1.9101606184030482,-0.20757685601711273,0.9767575263977051,-0.0534474141895771,-0.03119843080639839,-0.036417052149772644,-0.010117010213434696,-0.05470646917819977,-0.004375934600830078,-0.027271568775177002
128,-1.2979899056604405,-1.3489301835883283,1.9349561167058198,-0.2119125872850418,0.9754884839057922,-0.059289298951625824,0.03212001919746399,-0.02506980486214161,0.010270406492054462,-0.05575709044933319,-0.040704548358917236,8.52346420288086e-05
129,-1.2901099323647978,-1.3436818886159896,1.9464369754671504,-0.21635548770427704,0.9743201732635498,-0.062374770641326904,0.011587120592594147,0.04950399696826935,0.00703025795519352,-0.0021046102046966553,-0.016510725021362305,-0.012728989124298096
130,-1.271323369513908,-1.3441209712959452,1.9606934046457398,-0.2147364765405655,0.9744189381599426,-0.06630179286003113,0.022928748279809952,0.10939007997512817,0.043400757014751434,-0.017654865980148315,-0.014824271202087402,0.005129285156726837
131,-1.2639129353924408,-1.341579348547122,1.9620341941059365,-0.2166002094745636,0.973844587802887,-0.06863941997289658,-0.044497113674879074,0.09671234339475632,-0.020508555695414543,-0.02546525001525879,-0.020048081874847412,0.037664107978343964
132,-1.2643019650770508,-1.3399961504229898,1.9519533838175727,-0.2180958390235901,0.973483681678772,-0.06902001798152924,-0.04187474772334099,-0.011323952116072178,0.01751694828271866,-0.018430650234222412,-0.009143471717834473,0.0027816295623779297
133,-1.265532468399919,-1.334955372976986,1.9547345484626002,-0.22285841405391693,0.972318172454834,-0.07022564113140106,0.001876462367363274,-0.09361696243286133,0.007914390414953232,-0.012493148446083069,-0.016705989837646484,-0.026347219944000244
134,-1.2511487939417658,-1.3326086722047978,1.9738669191713705,-0.22399085760116577,0.9717671871185303,-0.07414058595895767,0.02477559819817543,-0.05340905487537384,0.010557383298873901,-0.013649553060531616,-0.013179421424865723,-0.027147240936756134
135,-1.2507556283979073,-1.3299822993037833,1.977119803620058,-0.22638334333896637,0.9711441397666931,-0.07503126561641693,0.059175506234169006,-0.0005441689863801003,-0.06881090998649597,-0.014629259705543518,-0.03100430965423584,-0.012340553104877472
136,-1.2408479067479132,-1.3296721351498975,1.9915515510736213,-0.22591377794742584,0.9710701107978821,-0.07736806571483612,-0.0033989555668085814,-0.06095556542277336,-0.0005282294005155563,0.0031812191009521484,-0.022843241691589355,-0.0054108500480651855
137,-1.2446006420375066,-1.329363856215654,1.9925094348050956,-0.22648605704307556,0.9709964990615845,-0.07661563903093338,-0.013670270331203938,0.008168943226337433,-0.002921940293163061,-0.0030366629362106323,-0.011355996131896973,-0.015257537364959717
138,-1.2432113501766657,-1.3294695119765325,1.9968815936038595,-0.22628208994865417,0.9710217118263245,-0.07689715176820755,0.015625692903995514,-0.032150186598300934,-0.008291549980640411,-0.008916884660720825,-0.009977459907531738,0.017311573028564453
139,-1.2393108948248406,-1.3276163987861864,2.0068235833281025,-0.22768144309520721,0.9705771803855896,-0.07836463302373886,0.057909056544303894,-0.0989760011434555,0.0012849705526605248,-0.03458660840988159,-0.039272308349609375,0.0003007128834724426
140,-1.2219321176365674,-1.3260090116332277,2.027196331389451,-0.22775156795978546,0.9701889157295227,-0.08284278959035873,-0.009363865479826927,0.05381814390420914,-0.018306013196706772,0.041502758860588074,0.007304489612579346,0.0045956894755363464
141,-1.222713310278513,-1.3270112788206132,2.006494780000163,-0.22690169513225555,0.9704313278198242,-0.08233300596475601,-0.00180235190782696,0.17828284204006195,-0.07191064953804016,-0.02369341254234314,-0.02394390106201172,-0.028308451175689697
142,-1.2209432836386216,-1.3202057672920458,2.0070247949387294,-0.2329544574022293,0.9687661528587341,-0.08499622344970703,0.048535797744989395,-0.14094476401805878,0.033481791615486145,-0.025834590196609497,-0.02458280324935913,0.010014533996582031
143,-1.2255344282966982,-1.3134413131964473,2.0111661151531752,-0.23950310051441193,0.9670665860176086,-0.0861416682600975,0.02451825514435768,-0.03726319223642349,-0.021196162328124046,-0.00633123517036438,-0.011927485466003418,-0.01133149117231369
144,-1.2221401792520812,-1.3113126761433995,2.022609114878084,-0.24114388227462769,0.9665225744247437,-0.08765732496976852,0.09533734619617462,-0.13703680038452148,0.003417292144149542,-0.013723671436309814,-0.021194815635681152,-0.02882826328277588
145,-1.2086941037630792,-1.3073205394043677,2.0497122762864515,-0.2435501515865326,0.9654905796051025,-0.09225796908140182,0.03549615666270256,-0.07911387085914612,-0.010353404097259045,0.014500439167022705,-0.005407452583312988,0.022677890956401825
146,-1.2132733884027236,-1.3068332685636224,2.057124072229251,-0.24441024661064148,0.9653635621070862,-0.0913061574101448,0.02530427649617195,-0.1309206336736679,-0.003069950733333826,-0.0013172924518585205,0.011839807033538818,-0.007311344146728516
147,-1.218870259815805,-1.3040177706372555,2.06493541744309,-0.24746790528297424,0.9646251797676086,-0.0908733680844307,0.06610177457332611,-0.15748220682144165,0.001380457659251988,0.0017251074314117432,-0.03277093172073364,-0.028282523155212402
148,-1.223675074845751,-1.3018051711829184,2.0755418208267167,-0.2499082386493683,0.9640395045280457,-0.09040920436382294,0.009362121112644672,-0.12168560922145844,-0.03199532628059387,0.016570836305618286,0.02239549160003662,0.006073892116546631
149,-1.2345491954073058,-1.3003756598306357,2.064735687899942,-0.25217747688293457,0.9636586308479309,-0.088141068816185,-0.016436276957392693,0.04371991753578186,-0.013928135856986046,0.018962115049362183,-0.030156314373016357,-0.008096106350421906
150,-1.2320282541886893,-1.300078415404048,2.0634891013976597,-0.2522239685058594,0.9635791778564453,-0.08887147158384323,0.048646099865436554,0.057760462164878845,0.014631753787398338,0.029216796159744263,-0.028245985507965088,-0.002620212733745575
151,-1.227650237737851,-1.30105583546976,2.0575072020384124,-0.2509452998638153,0.9638400673866272,-0.08965788036584854,-0.07206699252128601,0.12875448167324066,0.01105010136961937,0.04394456744194031,0.005962669849395752,-0.014895312488079071
152,-1.231568481915582,-1.3044625041460465,2.0319568188429717,-0.2481972873210907,0.9647423028945923,-0.08758096396923065,-0.05034089460968971,0.24709190428256989,-0.01622220128774643,-0.014894753694534302,-0.051061272621154785,-0.032581984996795654
153,-1.2287637578087847,-1.3067714533712238,2.008757170709385,-0.24585172533988953,0.965347409248352,-0.08752946555614471,-0.01910657063126564,0.26890307664871216,0.04413481801748276,-0.0022256672382354736,0.02874743938446045,-0.024012327194213867
154,-1.1966705017066077,-1.321406443935438,2.012479021330045,-0.22973981499671936,0.9690631628036499,-0.09019982814788818,-0.07216187566518784,0.3402043282985687,0.2922036945819855,0.024615943431854248,0.07047224044799805,0.0021566227078437805
155,-1.1054055422725193,-1.3384826235570728,2.0707406599911775,-0.20574349164962769,0.973136305809021,-0.10332044959068298,0.10791068524122238,0.4283970296382904,0.060537975281476974,-0.05228260159492493,-0.04585981369018555,-0.01182238757610321
156,-1.0487273574155636,-1.3416629049309974,2.1013491649274365,-0.19687721133232117,0.9738636016845703,-0.11326588690280914,0.0024275819305330515,0.1435268670320511,0.11155105382204056,0.011208266019821167,-0.0041522979736328125,0.01344287395477295
157,-1.0280337656800587,-1.3449800266943057,2.110071354958238,-0.19172391295433044,0.9746116399765015,-0.11564615368843079,-0.00316697359085083,0.062402207404375076,0.012455113232135773,-0.018969431519508362,0.00582653284072876,0.022796399891376495
158,-1.0316781563873783,-1.3434002192952281,2.1072470808294512,-0.19346579909324646,0.974256694316864,-0.11573734879493713,-0.01716354489326477,-0.04890124499797821,0.07341042160987854,0.018371164798736572,0.007188737392425537,0.022139951586723328
159,-1.0266310536183356,-1.3455909542904478,2.1127248030650847,-0.19105230271816254,0.9747482538223267,-0.11560685187578201,0.02340884692966938,-0.02096305601298809,0.060410354286432266,-0.0068236589431762695,-0.02417147159576416,-0.018395841121673584
160,-1.0245963454254916,-1.3479198781188098,2.118489603893425,-0.18887652456760406,0.9752656817436218,-0.11481594294309616,-0.02584877423942089,-0.05747296288609505,-0.0016659866087138653,-0.027310028672218323,-0.0010986924171447754,-0.001562848687171936
161,-1.0442436343901131,-1.3491351097506188,2.1098100393914585,-0.19007053971290588,0.9755336046218872,-0.11048716306686401,0.05385550484061241,-0.0834973007440567,0.06366192549467087,-0.0011831223964691162,-0.017892003059387207,-0.04094111919403076
162,-0.9761865298500587,-1.3509674792390465,2.1929745613145433,-0.18063554167747498,0.9759348034858704,-0.12215528637170792,0.14950236678123474,-0.18526452779769897,0.09393345564603806,0.0009175539016723633,-0.06416124105453491,0.015694700181484222
163,-0.907690982406075,-1.350277978065577,2.2801198806460783,-0.17238205671310425,0.975784182548523,-0.13464637100696564,0.22560076415538788,-0.15259946882724762,0.14470627903938293,0.012561500072479248,-0.06164538860321045,0.03653240203857422
164,-0.8203918611429766,-1.3479617977195575,2.3759168944328044,-0.16163840889930725,0.9752749800682068,-0.15070393681526184,0.0677887350320816,-0.038110971450805664,0.041797343641519547,-0.019071415066719055,0.0020503997802734375,0.029610171914100647
165,-0.8025397761403665,-1.3487403659363275,2.3989428757845603,-0.15837658941745758,0.9754467010498047,-0.1530379056930542,-0.014054570347070694,-0.07359540462493896,0.015396920964121819,-0.020959973335266113,-0.007001936435699463,0.0218123197555542
166,-0.8204346586394076,-1.348471742842064,2.3838696082694195,-0.1612815409898758,0.9753875136375427,-0.15035830438137054,-0.005544563289731741,-0.055275723338127136,-0.041260603815317154,0.0069846659898757935,-0.07800287008285522,-0.008851945400238037
167,-0.844780768558066,-1.3422267494466236,2.3701225930466547,-0.16944585740566254,0.9739915132522583,-0.15042851865291595,0.027521856129169464,-0.16892310976982117,-0.06927609443664551,-0.007861271500587463,-0.0573960542678833,0.012962102890014648
168,-0.7843475306537163,-1.3372026856176555,2.4300154552774282,-0.16350537538528442,0.9728408455848694,-0.16384930908679962,0.19194373488426208,0.2290433645248413,0.19497443735599518,-0.07103745639324188,0.09760892391204834,-0.02941851317882538
169,-0.7747027392304202,-1.3426766480361876,2.440151300895537,-0.15819033980369568,0.9740933179855347,-0.16161087155342102,-0.17621083557605743,0.00023466814309358597,-0.007682960480451584,-0.0008062422275543213,0.013028264045715332,-0.05425524711608887
170,-0.8467119565517066,-1.3655775106586305,2.3728435036493876,-0.1526544839143753,0.9790164232254028,-0.1349954456090927,-0.11456338316202164,0.02013430744409561,0.0827537253499031,0.06874638795852661,-0.00018024444580078125,-0.013899818062782288
171,-0.8747128658872741,-1.3750452358436913,2.3468517772614716,-0.1492537260055542,0.980901837348938,-0.12471868842840195,-0.1822424829006195,-0.22318996489048004,-0.019718239083886147,0.0108107328414917,0.024179279804229736,-0.08486074209213257
172,-0.9385064323583656,-1.3920366469311702,2.2887599216019696,-0.1434345245361328,0.9840649962425232,-0.105084128677845,-0.27721449732780457,-0.05065856873989105,0.09199512749910355,0.033571258187294006,-0.006403863430023193,0.0667387843132019
173,-0.9084079111983933,-1.396731421369393,2.3089314111249886,-0.1365622580051422,0.9848889112472534,-0.10651024430990219,0.273664653301239,-0.05428833141922951,-0.06300994008779526,-0.056720808148384094,-0.0627850890159607,-0.0369376465678215
174,-0.7631855062171613,-1.3949898124700462,2.4355851355285307,-0.12089719623327255,0.9845858216285706,-0.12639103829860687,0.16220064461231232,0.560042142868042,0.1067231297492981,-0.14938172698020935,0.05145543813705444,0.1265588402748108
175,-0.5887613445844894,-1.3533925068528028,2.5635521480970755,-0.11978211253881454,0.9764606952667236,-0.17937813699245453,1.015408992767334,0.8039871454238892,-0.6457046866416931,0.06478945910930634,0.008036196231842041,-0.08052483201026917
176,-0.2909008030537315,-1.2826738170265088,2.9785432308811632,-0.08149923384189606,0.9587790369987488,-0.2722139358520508,-0.7345791459083557,0.8109760880470276,0.15529397130012512,-0.019391871988773346,0.02095717191696167,0.24897482991218567
177,0.10859639481179478,-1.415585069834353,-2.9565451226887154,0.016754837706685066,0.9879788756370544,-0.15367841720581055,-0.9140146970748901,0.17375563085079193,0.23751550912857056,-0.017365191131830215,-0.03277868032455444,0.27014875411987305
178,0.1161368507100916,-1.4080409083892054,-2.913333051594566,0.018776362761855125,0.9867845773696899,-0.16094693541526794,-0.12748883664608002,-0.42643874883651733,0.04119296371936798,-0.025169799104332924,-0.04754495620727539,-0.09520240128040314
179,0.18368314604746522,-1.449090710056182,-2.8310610740202153,0.02217487059533596,0.9926030039787292,-0.11936270445585251,-0.34812748432159424,-0.05848350003361702,0.2861320674419403,0.02981182001531124,-0.023868322372436523,-0.1523352861404419
180,0.1562786545728964,-1.4520832304073754,-2.8386357672242086,0.01843365840613842,0.9929618835449219,-0.11699195206165314,0.12553003430366516,-0.6039738059043884,-0.41291648149490356,0.01341143436729908,-0.013851046562194824,0.10986612737178802
181,-0.32363648670319356,-1.461761206884092,2.9995946728911207,-0.03460627421736717,0.9940615296363831,-0.10316984355449677,-0.06679358333349228,-0.364941269159317,-0.442510724067688,0.09336787462234497,0.03178679943084717,-0.12140899151563644
182,-0.8740524064438302,-1.4213201210889796,2.481444081892861,-0.11421260237693787,0.9888492226600647,-0.09556595981121063,0.3522230088710785,-0.32967257499694824,-0.3366626501083374,0.07515010237693787,0.1161770224571228,-0.06582623720169067
183,-0.9553160335989614,-1.4039512510254546,2.4022799693461447,-0.1355970948934555,0.9861136078834534,-0.09588174521923065,-0.14981310069561005,0.23344211280345917,-0.16064591705799103,0.0267409086227417,-0.030516743659973145,0.04174358397722244
184,-1.0004828829459638,-1.40952384310732,2.3435502012418956,-0.1351606547832489,0.9870237708091736,-0.08669351786375046,0.011350331827998161,0.15060751140117645,0.008022450841963291,-0.0509202778339386,0.019552767276763916,-0.19011616706848145
185,-0.9904630922049384,-1.3979106492629052,2.354312207877496,-0.1438615769147873,0.9850924611091614,-0.0943221002817154,-0.037351224571466446,0.14934998750686646,-0.13085566461086273,0.02131827175617218,0.021743416786193848,0.020820505917072296
186,-1.1015636512125868,-1.3964083833262062,2.2264785592844634,-0.15475203096866608,0.9848329424858093,-0.07845943421125412,-0.12569822371006012,-0.05896308273077011,-0.0007120211375877261,0.10519151389598846,0.0177304744720459,-0.17392098903656006
187,-1.2338420204864524,-1.3746996893173922,2.15397641810287,-0.1838855892419815,0.9808346033096313,-0.06441765278577805,-0.04367919638752937,-0.5450552701950073,0.06489240378141403,-0.0500316321849823,-0.015563607215881348,0.016672857105731964
188,-1.2145196170514996,-1.3630705606914322,2.3200782602513765,-0.1932843178510666,0.9785024523735046,-0.07193230092525482,-0.018871868029236794,-0.4226546287536621,-0.08490876853466034,-0.09121584892272949,-0.05636799335479736,0.260591983795166
189,-1.2381219327161899,-1.3500703043417932,2.3654858839152,-0.20693440735340118,0.9757387638092041,-0.07149910181760788,-0.14405398070812225,-0.45309552550315857,-0.1429971158504486,0.01549762487411499,-0.0767519474029541,0.04511666297912598
190,-1.0941770094502312,-1.3256989746284988,2.5413883520161797,-0.2156076282262802,0.9701136946678162,-0.11132283508777618,0.08974073082208633,0.577116847038269,0.2395423799753189,-0.09220792353153229,-0.38109391927719116,0.23214191198349
191,-0.9774335666572228,-1.3704567330282578,2.5968680574933476,-0.16498558223247528,0.9799990653991699,-0.11127237230539322,-0.017560046166181564,1.1541751623153687,0.43399402499198914,-0.12682349979877472,-0.05227994918823242,0.0005545616149902344
192,-0.7178068609662276,-1.3921994417014347,2.7404284102684513,-0.11684597283601761,0.9840939044952393,-0.13381427526474,-0.005147458054125309,0.546099841594696,0.709984540939331,-0.02860080450773239,0.11817049980163574,-0.04250103235244751
193,-0.3843313357092708,-1.4201136602102895,2.985046935319585,-0.05628342181444168,0.9886688590049744,-0.13916254043579102,0.16964522004127502,2.823112726211548,0.4327535331249237,0.05254501849412918,-0.05063474178314209,0.17991876602172852
194,-0.0003496869540306026,-1.4155056052897386,-2.985682225129246,-5.4085245210444555e-05,0.9879665970802307,-0.15466760098934174,-0.12219242751598358,0.7184252142906189,0.3081861436367035,-0.00203637033700943,-0.006887495517730713,0.00888514518737793
195,0.2758037097268034,-1.4337355054002028,-2.7463561732253408,0.03720763325691223,0.9906218647956848,-0.1314680576324463,-0.583095133304596,0.8734244704246521,0.24070534110069275,-0.07001402974128723,0.07853096723556519,0.03330826759338379
196,0.6014884098430152,-1.471903726200221,-2.4511296638923903,0.05586980655789375,0.9951140880584717,-0.08140441030263901,-0.16674362123012543,-0.5435224175453186,0.19633090496063232,-0.051856741309165955,-0.04194319248199463,0.034498922526836395
197,0.8399550231403905,-1.4912674424652226,-2.2034103040017383,0.059155602008104324,0.9968392252922058,-0.053029078990221024,-0.020200558006763458,-0.19321465492248535,-0.041339535266160965,0.0018337704241275787,-0.040784597396850586,0.05431080237030983
198,1.8037740219872407,-1.49353535797384,-1.3134076679152464,0.07509952038526535,0.9970168471336365,0.017820101231336594,-0.4860771894454956,0.9720584154129028,0.5921037793159485,-0.10081057995557785,-0.3720778822898865,0.001985788345336914
199,1.6372929301236996,-1.3718884377924634,-1.520440209809703,0.19716179370880127,0.9802829623222351,0.013129947707057,0.20683197677135468,-0.16382156312465668,0.9094800353050232,0.07801517844200134,-0.07935839891433716,0.019417045637965202
200,1.6533420295446126,-1.360322851538883,-1.5190803340984653,0.20821082592010498,0.9779320955276489,0.017226051539182663,-0.1937844157218933,0.17722924053668976,-0.011375272646546364,0.013148397207260132,-0.06364089250564575,-0.06678664684295654
201,1.5737711908864704,-1.365251372436438,-1.5596519876298525,0.2041001170873642,0.9789499044418335,0.0006071719108149409,0.31433069705963135,-0.7582702040672302,-0.23505808413028717,0.05383443832397461,0.033882737159729004,-0.006786942481994629
202,1.5792050891776854,-1.3795839272514008,-1.5391452363315963,0.19004346430301666,0.9817745685577393,0.0015980679308995605,0.14611175656318665,-0.10286466777324677,-0.17668776214122772,-0.041270241141319275,-0.01741892099380493,0.06532704830169678
203,1.545809038027381,-1.3928731328888089,-1.547322342098226,0.17693071067333221,0.9842133522033691,-0.004421939142048359,0.13646440207958221,-0.4086969792842865,-0.17597520351409912,-0.024724289774894714,-0.039740145206451416,-0.009066879749298096
204,1.5060988355948808,-1.4246850152222188,-1.5436555033718735,0.14528849720954895,0.9893447160720825,-0.009412937797605991,-0.20751966536045074,-0.3585122525691986,-0.0687553882598877,-0.09621621668338776,-0.03278636932373047,0.054731547832489014
205,1.3059356734079883,-1.4543061189006705,-1.671984400016035,0.11217409372329712,0.993222713470459,-0.030425310134887695,0.21023300290107727,-1.2642210721969604,-0.41111692786216736,0.028756089508533478,-0.057202816009521484,-0.041901350021362305
206,0.7329402068796977,-1.5033405499743235,-2.105757748784772,0.04509885981678963,0.9977257251739502,-0.05009724199771881,0.24024170637130737,-0.9056350588798523,-0.659320592880249,0.005178842693567276,0.0012062788009643555,-0.03326154500246048
207,0.24153031793644772,-1.4621697887798328,-2.5652431803358535,0.02593143656849861,0.9941059350967407,-0.10526715964078903,0.5763722658157349,-0.011619661003351212,0.050778117030858994,-0.037528108805418015,-0.018153667449951172,0.040096864104270935
208,0.153986370716918,-1.4107892483925024,-2.6314280993071573,0.024437133222818375,0.987226128578186,-0.1574404239654541,0.18291033804416656,-0.4740510582923889,-0.18477638065814972,0.03372936323285103,0.03145068883895874,0.04138205945491791
209,0.03776196806013665,-1.4059366764031245,-2.7293579744900165,0.006195812486112118,0.9864413738250732,-0.16399747133255005,-0.012001095339655876,-0.3426293730735779,-0.05466870591044426,-0.00041273143142461777,-0.015753448009490967,-0.013157084584236145
210,0.016283923548992624,-1.3997191594724354,-2.7303307788572986,0.002772119827568531,0.9854019284248352,-0.17022155225276947,0.31118857860565186,-0.38273027539253235,0.07547426968812943,0.010045260190963745,-0.017704784870147705,-0.016744375228881836
211,-0.04381238341638482,-1.3935994422662998,-2.758926565189464,-0.007720378693193197,0.9843416810035706,-0.17610177397727966,0.07879897952079773,-0.42453455924987793,-0.09856518357992172,-0.042084306478500366,-0.06174957752227783,-0.017059192061424255
212,-0.03729997396760015,-1.4007752678043568,-2.7100274544089995,-0.006309796124696732,0.9855812191963196,-0.1690850853919983,-0.39317578077316284,0.018870718777179718,0.03578612953424454,0.00768308388069272,0.027892231941223145,0.07177980244159698
213,-0.008964716020929818,-1.4095045218124418,-2.7025830995356688,-0.0014396586921066046,0.9870206713676453,-0.1605873703956604,0.1638721227645874,0.26367536187171936,0.05786143243312836,0.014775842428207397,-0.008123576641082764,-0.0444907546043396
214,0.048683404879719304,-1.4001643100718917,-2.65895815277696,0.0082634212449193,0.9854776263237,-0.1696038395166397,0.04747919365763664,0.1598203331232071,0.04657335951924324,-0.041985347867012024,0.07232260704040527,0.0021080970764160156
215,0.06848372583042009,-1.3939659428614946,-2.6487133259969498,0.012037563137710094,0.9844062328338623,-0.17549772560596466,-0.20373551547527313,0.268368661403656,-0.011056754738092422,0.12848062813282013,-0.058319807052612305,0.04227322340011597
216,0.028872468849444395,-1.3987855863449168,-2.7081752091647044,0.00494123250246048,0.9852426052093506,-0.17109237611293793,-0.2826257348060608,0.1369420289993286,-0.17328186333179474,-0.04742169380187988,-0.018323659896850586,-0.04118788242340088
217,-0.06756445734913716,-1.4348042401637804,-2.7851385667079005,-0.009152990765869617,0.9907673001289368,-0.1352643072605133,-0.4709160029888153,-0.18537700176239014,-0.04515113681554794,-0.06236495077610016,-0.04077029228210449,0.061304911971092224
218,-0.12371222872902675,-1.4532727827420746,-2.821930807913013,-0.014468584209680557,0.9931020736694336,-0.11635629087686539,-0.1132466048002243,-0.12994369864463806,-0.049592524766922,0.03860798478126526,-0.014113545417785645,-0.03421740233898163
219,-0.14991458018655462,-1.466404587920763,-2.8437028628605283,-0.015562987886369228,0.9945561289787292,-0.10303349792957306,-0.10413029044866562,-0.017642227932810783,0.025328055024147034,0.040099114179611206,0.017589867115020752,0.019140660762786865
220,-0.125262038642299,-1.475930906951813,-2.8242201244976095,-0.011834202334284782,0.9955036640167236,-0.09398092329502106,-0.10276932269334793,0.03350626677274704,-0.03681126981973648,-0.0034856200218200684,-0.017064332962036133,0.015215039253234863
221,-0.14062639276904504,-1.480386805523337,-2.841450393158113,-0.012654801830649376,0.9959158301353455,-0.08939482271671295,-0.007459858898073435,-0.0023430786095559597,0.01187919545918703,0.025395885109901428,0.026422977447509766,-0.01201503723859787
222,-0.13258150976171243,-1.4888767133504874,-2.8328435683765685,-0.010817402973771095,0.9966464638710022,-0.08111196011304855,-0.060360465198755264,-0.06915628165006638,0.040130745619535446,0.03608594834804535,0.037670671939849854,0.0032616183161735535
223,-0.03470998316857133,-1.4995925148374858,-2.7278178732335623,-0.002468860475346446,0.9974660873413086,-0.07109968364238739,-0.04248274862766266,-0.09906885027885437,0.04736746847629547,-0.012850970029830933,-0.09646522998809814,0.017495520412921906
224,-0.10072372254945668,-1.5033522425246126,-2.798109623210768,-0.006776790134608746,0.9977265000343323,-0.06705329567193985,-0.0076034036464989185,0.12203159928321838,-0.12308208644390106,0.01501652505248785,0.0015564560890197754,0.02152102440595627
225,-0.2867648654678134,-1.4997618678291535,-2.9984619760277065,-0.0200754776597023,0.9974781274795532,-0.06807716935873032,0.02045399136841297,0.14566506445407867,-0.1662348210811615,-0.01778157241642475,0.014378070831298828,-0.004585154354572296
226,-0.5809849350441444,-1.501487877744158,2.975703306225066,-0.0380089096724987,0.9975991249084473,-0.057889487594366074,-0.04823368415236473,0.3166154623031616,-0.09741130471229553,0.011397585272789001,-0.08017975091934204,0.037549495697021484
227,-0.7992052455600338,-1.488622714973896,2.7264132740528306,-0.058836471289396286,0.9966256618499756,-0.057233776897192,-0.060405779629945755,0.5473580956459045,-0.28181585669517517,0.04498147964477539,-0.3756081461906433,0.09972947835922241
228,-0.5498537928709355,-1.4751251448494709,2.9873713742374317,-0.049917884171009064,0.9954270124435425,-0.08144485950469971,-0.005721534602344036,-0.1603667140007019,0.080067940056324,-0.10602694749832153,-0.0057266950607299805,-0.026007533073425293
229,-0.5018583304060606,-1.48033457004774,3.0271741203353217,-0.04345744475722313,0.9959111213684082,-0.07919815927743912,0.0666993111371994,0.07482346892356873,0.050398655235767365,-0.004302557557821274,0.010573804378509521,0.019337959587574005
230,-0.5302446563578546,-1.4844978733112593,2.9930658252613425,-0.04359150677919388,0.9962785840034485,-0.0743570625782013,-0.058027178049087524,0.0362774059176445,0.005451956298202276,-0.015276912599802017,-0.03009200096130371,0.02159213274717331
231,-0.5453894384865556,-1.484922540119013,2.9768512030329366,-0.04449191316962242,0.9963151216506958,-0.07332469522953033,-0.03559783473610878,0.018025053665041924,0.012233195826411247,-0.002535667270421982,0.005454838275909424,0.0037293508648872375
232,-0.5815189548719915,-1.485804779311997,2.9304410630939106,-0.04662942513823509,0.9963904023170471,-0.07093637436628342,0.0127488374710083,0.05768090486526489,-0.030968692153692245,0.03930521011352539,-0.02062135934829712,-0.011262714862823486
233,-0.5728031296107893,-1.4829440012721233,2.9343426437185784,-0.04755450785160065,0.9961434602737427,-0.07373587042093277,0.01745399832725525,0.06045890972018242,-0.016604876145720482,0.00359392911195755,-0.010791778564453125,0.006215684115886688
234,-0.5499713122252247,-1.4815193506442372,2.959272180272029,-0.04660004749894142,0.9960174560546875,-0.07601150125265121,0.060304783284664154,0.061646007001399994,0.033905040472745895,-0.006149590015411377,-0.0294189453125,-0.010658442974090576
235,-0.5077645381914959,-1.4810656422629733,3.0009451222438313,-0.04357178509235382,0.9959769248962402,-0.07830630987882614,0.0407843291759491,-0.04984016343951225,0.036396969109773636,0.016380611807107925,-0.015355348587036133,-0.0029772743582725525
236,-0.48496479155448957,-1.480855843187915,3.0228991295787395,-0.041872333735227585,0.9959580898284912,-0.07946354150772095,-0.029622087255120277,-0.09911830723285675,0.012818467803299427,0.008058857172727585,-0.02234041690826416,0.02531009167432785
237,-0.523797310658353,-1.4789515637517916,2.9823246812656135,-0.04587319865822792,0.9957852363586426,-0.07941829413175583,0.030012501403689384,0.10510048270225525,-0.06385566294193268,0.011571455746889114,-0.008144974708557129,-0.016528956592082977
238,-0.567161579403393,-1.4775711752594023,2.938044370350578,-0.05001223087310791,0.9956576824188232,-0.0785156786441803,-0.002195322420448065,0.03292752057313919,-0.037577420473098755,-0.03690183162689209,-0.024222135543823242,0.0070435404777526855
239,-0.6066417443055702,-1.4780459897458453,2.891072797501414,-0.05280238017439842,0.995701789855957,-0.07609159499406815,-0.03344365581870079,0.03657517209649086,-0.02115006186068058,0.037848759442567825,0.0026655197143554688,0.016643352806568146
240,-0.5844185866199163,-1.4756296401084374,2.9114988413784024,-0.05242561176419258,0.9954750537872314,-0.07925237715244293,0.0012080230517312884,0.005643364042043686,-0.014380439184606075,-0.031223073601722717,-0.033149003982543945,-0.013521075248718262
241,-0.6192713369281474,-1.4733134570322304,2.884396145355351,-0.05649411305785179,0.9952523112297058,-0.07925555109977722,-0.03542717918753624,-0.0696529969573021,-0.03289806470274925,-0.01780092716217041,-0.016584038734436035,0.006272733211517334
242,-0.6814386312413392,-1.470727134876289,2.826348946614871,-0.06292892247438431,0.9949972629547119,-0.07759007066488266,-0.004270014353096485,-0.09649914503097534,-0.050371743738651276,0.020707868039608,-0.01446753740310669,-0.0026863738894462585
243,-0.7053526882792658,-1.4703070638802558,2.802773348413611,-0.06503813713788986,0.9949551820755005,-0.07638245075941086,-0.013027893379330635,-0.0087360180914402,-0.021408533677458763,0.014104291796684265,-0.010152935981750488,-0.016635119915008545
244,-0.6980069004617516,-1.4714392476162814,2.8113946049076537,-0.06375158578157425,0.9950681328773499,-0.07599543780088425,0.010013640858232975,0.050126250833272934,0.023218486458063126,0.0013431310653686523,-0.0039945244789123535,-0.004616737365722656
245,-0.680367021355422,-1.4762115872275565,2.8273751253126207,-0.05941302329301834,0.9955301880836487,-0.07341570407152176,-0.04130151867866516,0.003576982766389847,0.04540839046239853,-0.021641656756401062,-0.013016760349273682,0.012426376342773438
246,-0.6714032891409664,-1.4794532023703304,2.834073394026612,-0.056745000183582306,0.9958311319351196,-0.07141861319541931,-0.014413769356906414,-0.02218490093946457,0.039778247475624084,0.002835683524608612,-0.010006368160247803,0.003104977309703827
247,-0.6507640863993828,-1.4790388208856755,2.8524097907493875,-0.05550896003842354,0.9957932233810425,-0.07290277630090714,0.04388841241598129,0.009936118498444557,-0.009693948552012444,0.005643226206302643,-0.02064967155456543,-0.022525735199451447
248,-0.6386900233626415,-1.4756374437764992,2.8642026074370848,-0.05664360523223877,0.9954758286476135,-0.0762866958975792,0.03624671325087547,-0.009341619908809662,0.008595438674092293,0.0037566348910331726,-0.0033034682273864746,0.0008624717593193054
249,-0.6301315954549978,-1.475507416861768,2.8716205280333478,-0.056064195930957794,0.9954634308815002,-0.07687226682901382,0.008120214566588402,-0.005542722065001726,0.00485765328630805,-0.0036892257630825043,-0.01090538501739502,-0.0010390803217887878
250,-0.6254731253737951,-1.4742508339128315,2.877454280948588,-0.05643745884299278,0.9953430891036987,-0.07814612984657288,0.0006777288508601487,0.004947015084326267,-0.015352671965956688,-0.0072832368314266205,-0.016842782497406006,0.017171986401081085
251,-0.6502031387257943,-1.4690223307453008,2.860628443195073,-0.06150192767381668,0.9948254823684692,-0.08086773008108139,0.031241489574313164,-0.1195245012640953,-0.05919867381453514,-0.033010996878147125,0.013063192367553711,-0.009082846343517303
252,-0.6725973972473223,-1.4526604677023751,2.8530382097283984,-0.07343067973852158,0.9930300712585449,-0.09219276905059814,0.14381158351898193,-0.1539364606142044,-0.10800496488809586,0.028340943157672882,-0.02023637294769287,-0.005188830196857452
253,-0.7037316237857809,-1.4367818795535074,2.827372275192645,-0.08645756542682648,0.9910334944725037,-0.10187207907438278,0.16003087162971497,-0.08158835768699646,-0.12751565873622894,0.01829654723405838,-0.006093800067901611,0.005421265959739685
254,-0.7462561767671392,-1.428730737906162,2.7885791611992654,-0.0961238443851471,0.9899256229400635,-0.10395950824022293,0.027132565155625343,0.003993931692093611,-0.15898871421813965,0.011361256241798401,-0.009731471538543701,0.01117078959941864
255,-0.7801642580574409,-1.422191883137692,2.7531063560755817,-0.10414391756057739,0.9889786839485168,-0.10523982346057892,0.03497584909200668,0.03762532025575638,-0.05809926241636276,0.0376460999250412,-0.009776294231414795,-0.027908340096473694
256,-0.7742111734448014,-1.4209312788039654,2.7541262243237172,-0.1043873131275177,0.9887912273406982,-0.10674939304590225,0.006034491118043661,0.08419538289308548,-0.03657001256942749,0.00029183924198150635,-0.01587545871734619,0.010573253035545349
257,-0.7729436567053901,-1.4172850729146016,2.751993865384741,-0.1067676842212677,0.9882402420043945,-0.10946083813905716,0.054181329905986786,-0.0622427761554718,0.00261378800496459,-0.011594735085964203,-0.03645813465118408,-0.01396750658750534
258,-0.7921537623773357,-1.4141317894957297,2.7323373631215992,-0.11106925457715988,0.9877532124519348,-0.10957862436771393,-0.006438437383621931,0.05485384166240692,-0.04502740129828453,0.008392855525016785,0.009485065937042236,-0.022547200322151184
259,-0.8123983932804018,-1.4117288736601408,2.706225039721838,-0.11498701572418213,0.9873754382133484,-0.10893948376178741,0.07316426187753677,-0.05257665738463402,-0.03176475316286087,-0.001590132713317871,-0.06348627805709839,0.004126846790313721
260,-0.8627076844605892,-1.4090918299445119,2.6598007096475373,-0.12229696661233902,0.9869542717933655,-0.10471197217702866,-0.04984642192721367,0.0027488931082189083,-0.029937386512756348,0.01302877813577652,-0.004791915416717529,0.016836591064929962
261,-0.9418325146071234,-1.411222598684877,2.578422934687175,-0.12848974764347076,0.9872950911521912,-0.09347999840974808,-0.08384942263364792,-0.06768150627613068,0.0029934574849903584,-0.026035994291305542,-0.007055401802062988,-0.037364110350608826
262,-0.954514416514388,-1.4105539973009396,2.5697218295103945,-0.13020382821559906,0.9871886372566223,-0.09222477674484253,0.04394422844052315,-0.06279274821281433,0.012596550397574902,0.0014044195413589478,-0.01807248592376709,-0.002959601581096649
263,-0.9553330819312309,-1.4128518880795518,2.563217541603313,-0.12842711806297302,0.9875527024269104,-0.09080851823091507,-0.05682841315865517,0.10565518587827682,0.05405258759856224,0.012918099761009216,-0.0378609299659729,-0.02900349348783493
264,-0.874665327360892,-1.4134080576113692,2.6399190193834605,-0.12027055025100708,0.9876400232315063,-0.10050961375236511,0.14228735864162445,-0.09486769884824753,0.08981867134571075,0.019059009850025177,-0.013274788856506348,-0.025634765625
265,-0.8376852908936204,-1.4188039011713829,2.677107361841112,-0.11251050233840942,0.9884713888168335,-0.10131973773241043,0.0004948361311107874,0.011860569007694721,0.11917085200548172,-0.0038377493619918823,-0.038932204246520996,0.001374661922454834
266,-0.7735338317096513,-1.4276874269602404,2.7435911692098256,-0.09964468330144882,0.9897773861885071,-0.10203761607408524,0.09433867037296295,-0.04067561775445938,0.19319003820419312,0.025486961007118225,0.00862044095993042,-0.03268224000930786
267,-0.6346411196138461,-1.4275963121445023,2.895297395748029,-0.08461222797632217,0.989764392375946,-0.11492364853620529,0.08821500837802887,-0.15106408298015594,0.10906486958265305,0.02376016229391098,0.016522347927093506,0.019189998507499695
268,-0.6046386935528878,-1.4296320813645793,2.92216666881428,-0.07998055219650269,0.9900528788566589,-0.11575140058994293,-0.002372913993895054,0.1367194801568985,-0.016136353835463524,-0.024648956954479218,0.0052474141120910645,0.006361134350299835
269,-0.6543370308797757,-1.427847562971808,2.8536713932801074,-0.08670731633901596,0.989800214767456,-0.11303695291280746,-0.06029805541038513,0.23886071145534515,-0.1078854501247406,0.04231950640678406,-0.012764692306518555,0.02737414836883545
270,-0.6515307465548325,-1.427122418852651,2.8398568392201207,-0.08682446926832199,0.9896966218948364,-0.11384984850883484,0.10526542365550995,0.040538862347602844,0.03794295713305473,-0.004636690020561218,0.004947364330291748,-0.018276013433933258
271,-0.5185701955551277,-1.4194602840228567,2.9776319487097886,-0.07472193986177444,0.988570511341095,-0.13093839585781097,0.28954842686653137,-0.13260705769062042,0.2693100571632385,0.018584847450256348,-0.039229750633239746,-0.014355778694152832
272,-0.3455573858902677,-1.4114658901506363,-3.1157501752269825,-0.05374046415090561,0.9873337149620056,-0.14927822351455688,0.06983840465545654,-0.04501771554350853,0.15896302461624146,-0.02388099953532219,0.004777431488037109,0.013307169079780579
273,-0.27822522940625094,-1.4066531178554138,-3.0386452937011996,-0.04487980902194977,0.986558735370636,-0.1571235954761505,0.09942974150180817,-0.10285714268684387,0.04179029166698456,-0.023677930235862732,0.011762797832489014,0.039432525634765625
274,-0.2815079873322481,-1.3992369861585792,-3.0340610306942444,-0.04742676019668579,0.9853197336196899,-0.16399991512298584,0.08262000977993011,-0.036915939301252365,0.005784146022051573,0.010012201964855194,-0.01768350601196289,-0.004426613450050354
275,-0.2494818532497336,-1.3922292099896862,-2.995477041965397,-0.04385457560420036,0.9840992093086243,-0.17212043702602386,0.05005206912755966,-0.07620023190975189,0.01476267073303461,0.00193868950009346,0.000580906867980957,0.003800705075263977
276,-0.25993871551740516,-1.3958868990805726,-2.9959624391700572,-0.044726595282554626,0.984742283821106,-0.16817297041416168,0.018102597445249557,-0.044041361659765244,-0.02651429921388626,0.016665682196617126,-0.009034276008605957,0.03305637836456299
277,-0.3044348810933335,-1.398925261058755,-3.040034709271845,-0.051265887916088104,0.9852665066719055,-0.16316209733486176,-0.017451519146561623,0.02355426736176014,-0.06794708967208862,0.007991954684257507,-0.006674587726593018,0.007415652275085449
278,-0.3309412160123934,-1.3982039670759514,-3.069542230422876,-0.055803049355745316,0.9851428866386414,-0.1624179631471634,0.02065863087773323,0.015929531306028366,-0.04657324403524399,-0.004957437515258789,-0.012608706951141357,-0.007732808589935303
279,-0.34838967835318696,-1.399669228774394,-3.0886903822104106,-0.0581354945898056,0.9853934645652771,-0.16006262600421906,-0.11574088037014008,-0.028402870520949364,-0.021090295165777206,-0.027344241738319397,-0.0218314528465271,-0.01597803831100464
280,-0.3579265897334864,-1.4031535170305922,-3.1038330855452387,-0.05845629423856735,0.9859808087348938,-0.15628457069396973,-0.04861166328191757,0.06313148885965347,-0.032740745693445206,-0.0006257295608520508,-0.0185888409614563,0.009571313858032227
281,-0.37332651244700393,-1.407541513605454,-3.126942061346371,-0.05927712842822075,0.9867035150527954,-0.15133489668369293,-0.0015102463075891137,0.009197106584906578,0.028359968215227127,-0.005664262920618057,-0.07644057273864746,-0.015809863805770874
282,-0.3551818748535197,-1.4076452610713204,-3.1139234704653447,-0.05648614466190338,0.9867203831672668,-0.15228988230228424,-0.02702249027788639,0.08399932086467743,0.0020008105784654617,-0.011018745601177216,-0.013240158557891846,-0.007683470845222473
283,-0.3463892689725801,-1.4094194611130657,-3.1103620480530445,-0.05455086752772331,0.9870069622993469,-0.15113471448421478,0.027544233947992325,-0.02273610606789589,0.03188800811767578,-0.028624795377254486,-0.008414924144744873,-0.006549611687660217
284,-0.3431230363707027,-1.4097162421825546,-3.1084266304994306,-0.0539582185447216,0.9870546460151672,-0.15103575587272644,-0.00032201444264501333,0.05336816981434822,0.006066266912966967,0.015231408178806305,-0.032983481884002686,-0.005214229226112366
285,-0.3395857805381697,-1.4130457342655733,-3.1059561278278127,-0.052328504621982574,0.9875831604003906,-0.14812570810317993,-0.03203141689300537,-0.11198674142360687,0.0012200422352179885,-0.024865716695785522,-0.018344879150390625,0.013619482517242432
286,-0.373285614157947,-1.410143590033095,-3.1249764322902585,-0.05833464860916138,0.9871230721473694,-0.14894665777683258,-0.02316337265074253,-0.16334934532642365,-0.0021684784442186356,0.011413857340812683,0.00350797176361084,-0.013910353183746338
287,-0.3937930303250637,-1.4158972772337055,-3.1321466706228014,-0.05919632315635681,0.9880270957946777,-0.1424715369939804,-0.05618628114461899,-0.14999234676361084,0.07872086763381958,0.01906570792198181,0.00895160436630249,0.016220271587371826
288,-0.3939058402556581,-1.4225457582144378,-3.1114015318920347,-0.056690361350774765,0.9890310168266296,-0.1363968551158905,-0.06253012269735336,-0.282936692237854,-0.0009860933059826493,0.016880184412002563,-0.04889118671417236,-0.014237940311431885
289,-0.45326349007089073,-1.4228321394205157,3.1248740390254013,-0.06455803662538528,0.9890732765197754,-0.13253918290138245,-0.06722027063369751,0.017641808837652206,-0.07808001339435577,0.036558158695697784,-0.02297818660736084,-0.034880295395851135
290,-0.5186833279160815,-1.4214047090814965,3.041941482184589,-0.07378379255533218,0.9888617992401123,-0.12926046550273895,-0.06580917537212372,0.19031085073947906,-0.14243115484714508,0.023826532065868378,-0.00810319185256958,0.01312585175037384
291,-0.5869766318323129,-1.42146388958716,2.9565101841879438,-0.08240003883838654,0.9888706207275391,-0.12387523800134659,-0.06438545882701874,0.153537780046463,-0.09557357430458069,0.014361105859279633,0.0008906722068786621,0.0168653205037117
292,-0.6180588535314925,-1.4207580011004863,2.9133840160172033,-0.08661508560180664,0.9887653589248657,-0.1218244805932045,-0.053114935755729675,0.08699050545692444,-0.06111864000558853,-0.038445957005023956,0.010212421417236328,-0.005708470940589905
293,-0.6384410056348429,-1.4205215911672737,2.8776326795865748,-0.0892188549041748,0.9887300133705139,-0.12022104859352112,-0.06459640711545944,0.18227507174015045,-0.015952249988913536,0.019837141036987305,-0.042669832706451416,0.03063666820526123
294,-0.6331246873726282,-1.4241850142328505,2.877130760260894,-0.08643476665019989,0.9892718195915222,-0.11777274310588837,0.04655405506491661,0.07284802943468094,0.020632997155189514,0.00373212993144989,-0.0038133859634399414,-0.033991217613220215
295,-0.6073701487278503,-1.4233887583366658,2.8937784164253224,-0.08382295072078705,0.9891551733016968,-0.12060655653476715,-0.04356742277741432,0.18112103641033173,-0.04245767369866371,-0.011651299893856049,-0.016163110733032227,0.03314314782619476
296,-0.6248500439629682,-1.4204515020756205,2.8617977446959846,-0.08761750161647797,0.9887194633483887,-0.12147898972034454,-0.004933876916766167,0.15532690286636353,-0.0679609477519989,-0.015165701508522034,0.023762226104736328,-0.01798635721206665
297,-0.6283821906435789,-1.4196188789256476,2.845325439340932,-0.08852916955947876,0.9885944128036499,-0.12183363735675812,0.007528066635131836,0.09451338648796082,-0.019504930824041367,-0.03241198509931564,-0.029030323028564453,-0.004356548190116882
298,-0.6284176423725101,-1.4192942589309805,2.842718121115679,-0.08872285485267639,0.9885454773902893,-0.12209108471870422,-0.045153990387916565,-0.022897779941558838,0.0006299811648204923,-0.03342375159263611,0.005335748195648193,0.03345280885696411
299,-0.6669769955732392,-1.4214120870831832,2.8077241745646067,-0.09206858277320862,0.988862931728363,-0.11693543195724487,-0.05501284822821617,-0.012817115522921085,-0.04294344410300255,0.02003183215856552,-0.01799178123474121,0.0012890547513961792
300,-0.6977446399607238,-1.4199970195175793,2.7680963183740954,-0.0965205505490303,0.9886513352394104,-0.11511918157339096,0.011284603737294674,0.14874333143234253,-0.029642842710018158,0.042733319103717804,-0.048221588134765625,0.0017616748809814453
301,-0.6693378292110211,-1.4154569492641103,2.784845397397455,-0.09599583595991135,0.987959086894989,-0.12133295834064484,0.07397744804620743,0.0068269153125584126,0.0029555640649050474,-0.08797937631607056,-0.023786723613739014,-0.01434820145368576
302,-0.624835686809756,-1.4037865501677442,2.836659431836051,-0.09724158048629761,0.9860862493515015,-0.13482655584812164,-0.01950758695602417,-0.14408326148986816,0.001416561659425497,-0.09685023874044418,0.056272268295288086,0.009078845381736755
303,-0.6393903546104373,-1.4061566485463863,2.8251583003214513,-0.09779800474643707,0.9864774942398071,-0.13152022659778595,0.053773947060108185,-0.1129310131072998,0.04915367066860199,0.03456559777259827,-0.025005996227264404,-0.00577835738658905
304,-0.6225378824925722,-1.4090802415726924,2.8470323555192296,-0.09388630837202072,0.9869524240493774,-0.13080690801143646,0.015751376748085022,-0.05330286920070648,0.03357936069369316,1.424551010131836e-05,-0.04780447483062744,0.004693031311035156
305,-0.5841274859739328,-1.408654848713628,2.889554135097372,-0.08902500569820404,0.986883819103241,-0.13466526567935944,0.07016739249229431,-0.0803954228758812,0.044998038560152054,-0.010355480015277863,-0.016592741012573242,-0.0026637762784957886
306,-0.5361949892026842,-1.4063970243360358,2.938191020201917,-0.08360850811004639,0.9865168333053589,-0.14069131016731262,0.03431348502635956,0.08341377973556519,0.07547280192375183,0.06082712858915329,0.014444410800933838,-0.0017952919006347656
307,-0.47995379226070184,-1.406940659383768,2.9894735157272123,-0.07532047480344772,0.9866056442260742,-0.14469343423843384,0.0009225305984728038,0.01751544140279293,0.0013800290180370212,-0.005779989063739777,0.016766488552093506,-0.003240525722503662
308,-0.5215616697332067,-1.4140868642194155,2.928220858145359,-0.07775884866714478,0.9877461791038513,-0.13531813025474548,-0.300505131483078,0.41222450137138367,-0.03529609739780426,0.023422308266162872,-0.0725240707397461,0.07295550405979156
309,-0.4794241690310079,-1.4367965697114384,2.9441511292552844,-0.06162526085972786,0.9910354614257812,-0.11853766441345215,-0.0951562151312828,0.2623386085033417,0.08062127977609634,-0.12799571454524994,-0.00875091552734375,0.15364813804626465
310,-0.3626614432874605,-1.4391402213172462,3.102731395667005,-0.04657181352376938,0.9913458228111267,-0.1227368488907814,0.05471426993608475,-0.663140594959259,0.5310215353965759,0.03833206370472908,-0.020917415618896484,-0.04570489376783371
311,-0.09226672830057547,-1.450891428061525,-2.8521646233246853,-0.011021146550774574,0.9928200244903564,-0.119109608232975,-0.14584200084209442,-0.4730343222618103,0.4921867549419403,-0.09960508346557617,-0.011084675788879395,0.0646662563085556
312,0.3246881604314901,-1.4552823996844548,-2.3809264239478485,0.036768313497304916,0.9933356642723083,-0.1092342659831047,0.12742573022842407,-0.3944457471370697,0.13464054465293884,0.07372057437896729,-0.0896950364112854,0.02877463400363922
313,0.36321115469143245,-1.4272996923690882,-2.3202005613264505,0.05080616846680641,0.9897220134735107,-0.13367462158203125,0.023461638018488884,-0.39751502871513367,0.27369001507759094,0.015249110758304596,0.1586390733718872,0.08823396265506744
314,0.724347530682736,-1.3941241908906257,-1.980401863499301,0.116462841629982,0.9844340085983276,-0.13162776827812195,-0.06405863165855408,0.20361901819705963,0.9835992455482483,0.1283644139766693,0.10118293762207031,-0.15204839408397675
315,0.8878910189012319,-1.380482018528848,-1.800222412500576,0.14674554765224457,0.9819447994232178,-0.11937426030635834,-0.008059827610850334,-0.30143648386001587,0.14077816903591156,0.02245914936065674,-0.03414517641067505,-0.16387468576431274
316,0.982725301955456,-1.373749469989,-1.6666911553174166,0.16288678348064423,0.9806489944458008,-0.10860728472471237,-0.037421055138111115,-0.1411101073026657,0.24828435480594635,0.03846821188926697,-0.010769844055175781,0.04064464569091797
317,0.9012905317012672,-1.3491611139459507,-1.7324621768658655,0.17237114906311035,0.9755392670631409,-0.13642317056655884,0.4289742410182953,-0.10493198782205582,0.030985722318291664,0.11350224912166595,0.07330405712127686,0.11432844400405884
318,0.6859664588966764,-1.348620439036266,-1.9527966895239621,0.1395760327577591,0.9754202961921692,-0.17051047086715698,0.3022445738315582,0.002247776370495558,-0.5306470394134521,-0.0960884839296341,-0.1260703206062317,-0.08594399690628052
319,0.847898955823658,-1.3144772300514143,-1.8521408099066228,0.1901140958070755,0.967329740524292,-0.1677200198173523,-0.3227139711380005,2.045485258102417,1.828843116760254,-0.1568041741847992,-0.028761565685272217,0.07845604419708252
320,1.202366842257585,-1.2600917625833428,-1.5912124868226996,0.2852134704589844,0.9521183967590332,-0.11010878533124924,-0.027710085734725,0.7401948571205139,-0.045675527304410934,0.016483306884765625,-0.0458378791809082,-0.043318331241607666
321,1.311174844708066,-1.2743143556546155,-1.5589427355854628,0.28236648440361023,0.9563702344894409,-0.07500112801790237,-0.1436418890953064,0.6450031995773315,-0.29707983136177063,0.09946945309638977,-0.07848632335662842,-0.004695534706115723
322,1.3720455663456954,-1.3234412771866746,-1.5257764836724448,0.24002018570899963,0.9695634245872498,-0.04834241420030594,-0.27740463614463806,0.09639999270439148,-0.3581794202327728,-0.05400030314922333,-0.0012559890747070312,0.01101941242814064
323,1.543568613874503,-1.3422077141940387,-1.3850219419919123,0.22651907801628113,0.9739871621131897,-0.0061691212467849255,-0.4425588846206665,0.287661612033844,-0.14376884698867798,0.0025763660669326782,0.007351279258728027,-0.04818272590637207
324,1.7654729572805299,-1.3649004112306855,-1.1743836338407636,0.200582817196846,0.9788782000541687,0.03954968601465225,-0.46861031651496887,0.28820115327835083,-0.3780427873134613,-0.06976918876171112,0.06326669454574585,0.037095192819833755
325,1.9887285278604738,-1.3806691086348137,-0.961656108674625,0.17271734774112701,0.9819802045822144,0.07670284807682037,-0.17689061164855957,-0.004940700717270374,-0.16669175028800964,0.0668913871049881,-0.029053688049316406,0.030795320868492126
326,2.108274326018815,-1.3883838268549615,-0.8413888765149666,0.15582528710365295,0.9834089279174805,0.09287290275096893,0.0019041572231799364,-0.04900907725095749,-0.11358761787414551,0.010205596685409546,-0.05857372283935547,-0.020637869834899902
327,2.150430571037634,-1.3980388411987077,-0.7956396456329164,0.14382225275039673,0.9851145148277283,0.09415262937545776,-0.009590646252036095,-0.06394430249929428,-0.15857401490211487,0.0028910040855407715,-0.03598731756210327,-0.02080357074737549
328,2.0720388619475996,-1.4155543135869817,-0.8566114780135416,0.1355987787246704,0.9879741668701172,0.07429686933755875,0.25833356380462646,-0.26582929491996765,-0.2136848270893097,0.011862143874168396,0.013505935668945312,0.02273380011320114
329,2.0786298571011548,-1.42610077373662,-0.8519718138204264,0.12599515914916992,0.9895498752593994,0.07011855393648148,-0.10438677668571472,0.4372996985912323,-0.03940665349364281,0.047741442918777466,-0.12066853046417236,0.13097703456878662
330,2.0477818915281754,-1.4340508822178415,-0.8796709420046468,0.12110497802495956,0.9906648993492126,0.06258527934551239,-0.2698715329170227,-0.009060969576239586,-0.17163801193237305,-0.2860982418060303,-0.023577988147735596,0.1355043649673462
331,2.2903053098403428,-1.4381241016564361,-0.6203227954430118,0.0994943231344223,0.9912119507789612,0.08717688173055649,-0.09756732732057571,-0.41132643818855286,-0.1293916553258896,0.0480276420712471,-0.015320837497711182,-0.16865873336791992
332,2.3914839556837277,-1.4377351659495732,-0.4871691249296737,0.09044253826141357,0.9911603927612305,0.09706223011016846,-0.165653795003891,-0.06577423214912415,-0.20536530017852783,0.04653560370206833,0.00810706615447998,0.08946119248867035
333,2.5044850206093887,-1.4328741172628399,-0.3782221207634826,0.08178646862506866,0.9905037879943848,0.11051363497972488,-0.07656189054250717,0.1700514405965805,0.0772862508893013,0.03773561865091324,-0.058741092681884766,-0.013574600219726562
334,2.434686807419339,-1.425408595385154,-0.4807207811505094,0.09409493952989578,0.9894497990608215,0.11016042530536652,0.024493582546710968,0.37936490774154663,0.022515682503581047,-0.09948128461837769,-0.012215912342071533,-0.013740062713623047
335,2.4239734627733536,-1.4261008286975203,-0.5105301492527063,0.09481898695230484,0.9895498752593994,0.10862968116998672,0.10655263811349869,0.04274464026093483,0.09213761985301971,0.003752782940864563,-0.028047800064086914,-0.017351508140563965
336,2.3509992305233114,-1.4273223210619783,-0.5838879816049204,0.10162779688835144,0.9897252321243286,0.10057727247476578,0.05406157299876213,-0.07209519296884537,0.0748850554227829,-0.03125426173210144,-0.023264050483703613,0.005791783332824707
337,2.362329264217305,-1.4261635225959828,-0.574848364590107,0.10128827393054962,0.9895588755607605,0.10253871977329254,-0.0632995143532753,0.06530055403709412,0.04450192302465439,-0.01078837364912033,0.022739768028259277,0.06782568991184235
338,2.314928609336052,-1.42345753448898,-0.6271982968855555,0.10800188779830933,0.9891652464866638,0.09943687915802002,0.09330858290195465,0.12832099199295044,0.11199913918972015,0.030700504779815674,-0.04225057363510132,0.03326880931854248
339,2.2322357966017825,-1.420585669015773,-0.7343238494680869,0.11808837205171585,0.988739550113678,0.09192164242267609,0.14720597863197327,0.33282992243766785,0.0559036061167717,-0.011368364095687866,-0.008346915245056152,-0.010164953768253326
340,2.164782456870852,-1.421035889592979,-0.8062127135270069,0.12364522367715836,0.9888068437576294,0.08350308984518051,0.16923512518405914,0.013885965570807457,-0.05582624673843384,-0.03805869072675705,0.02054673433303833,-0.004081137478351593
341,1.9884313082867275,-1.4447027095440308,-0.9830393827754537,0.11495039612054825,0.9920607209205627,0.0510079562664032,0.5230553150177002,-0.20414124429225922,-0.06246025860309601,-0.02683088928461075,-0.01169884204864502,-0.041593197733163834
342,1.7019342695835298,-1.4629262381932004,-1.248525264483868,0.1067369356751442,0.9941876530647278,0.014078055508434772,0.00041887443512678146,-0.13388758897781372,-0.08107542991638184,-0.0184343159198761,-0.018388092517852783,0.11224949359893799
343,1.8985741403408556,-1.468165737896522,-1.053540656383353,0.09699561446905136,0.9947381019592285,0.03298276290297508,-0.2524699568748474,-0.03891447186470032,-0.11518684774637222,0.032963477075099945,-0.015520632266998291,-0.023034099489450455
344,2.103865875086685,-1.4625461658637862,-0.8109637279403298,0.09304898977279663,0.9941466450691223,0.05490334704518318,0.08559221029281616,-0.47969377040863037,-0.09939063340425491,0.005110807716846466,0.00815737247467041,-0.13974213600158691
345,2.169255198287435,-1.46564695592527,-0.7214911333606931,0.08671645075082779,0.9944769144058228,0.05912993475794792,-0.10311716794967651,-0.13226574659347534,-0.0454091802239418,-0.0323188453912735,-0.06784093379974365,0.00443817675113678
346,2.211794350510702,-1.470791121087113,-0.6582094006312043,0.0800219476222992,0.9950036406517029,0.05970407649874687,0.07496565580368042,-0.1534825563430786,-0.10067156702280045,-0.027470678091049194,-0.01247483491897583,0.00984550267457962
347,2.1708170153202495,-1.4817539417146757,-0.6973149156832061,0.07339268922805786,0.9960383176803589,0.05021287128329277,0.36256954073905945,0.11675667762756348,-0.024958999827504158,-0.004880726337432861,-0.0035608410835266113,-0.09608077257871628
348,1.8443446726828687,-1.4891323629540347,-1.0194173493794534,0.07854067534208298,0.9966673254966736,0.02203710377216339,0.20051132142543793,0.2839890718460083,0.41697797179222107,0.019725918769836426,-0.006570279598236084,0.05572164058685303
349,1.7328003500990752,-1.4756121657134802,-1.133326701370112,0.09379671514034271,0.9954733848571777,0.01532979216426611,0.1443008929491043,-0.014887727797031403,-0.07826033979654312,0.01649380475282669,0.034327030181884766,0.007863521575927734
350,1.7474675627078586,-1.4832179406167953,-1.1314727917407765,0.08610466122627258,0.9961674809455872,0.01537248957902193,0.049572572112083435,0.04557610675692558,-0.05314166098833084,-0.00811699777841568,-0.008771240711212158,0.021218061447143555
351,1.707246253900932,-1.4845476717154624,-1.1809231260903994,0.08534201979637146,0.9962828755378723,0.011717724613845348,0.06557876616716385,0.15039373934268951,-0.018806446343660355,-0.011153779923915863,0.010034322738647461,0.021759986877441406
352,1.5754858246020846,-1.4820421473445797,-1.3150013201639503,0.08863679319620132,0.9960639476776123,0.0004156650975346565,0.08053302764892578,-0.041975148022174835,-0.02145606093108654,-0.06765596568584442,-0.019776105880737305,0.048275113105773926
353,1.4321111050159196,-1.4809178578514675,-1.4439095443935872,0.0888969674706459,0.9959636330604553,-0.01240834966301918,-0.007311568595468998,-0.02495906502008438,-0.02404499612748623,-0.03173753619194031,-0.08657020330429077,0.046313345432281494
354,1.4023080029703687,-1.4789598636476078,-1.4684280905565064,0.09040852636098862,0.9957860112190247,-0.01537858135998249,0.02493661269545555,-0.0788341760635376,0.020307235419750214,-0.07106037437915802,-0.06924182176589966,-0.0006431341171264648
355,1.3647297543941606,-1.4793317941027855,-1.500430213068691,0.08940332382917404,0.9958200454711914,-0.01868831180036068,0.004827882628887892,-0.17964041233062744,0.04389192536473274,-0.02195948362350464,-0.03176987171173096,-0.016681550070643425
356,1.312960734475823,-1.4760878688834462,-1.5278653532880484,0.09144081175327301,0.9955185055732727,-0.024113425984978676,-0.058272093534469604,-0.2955833673477173,0.06939215958118439,-0.025477074086666107,0.0062209367752075195,-0.002116439864039421
357,1.3605386400761708,-1.464546024569283,-1.442737667486186,0.10371683537960052,0.9943607449531555,-0.02213440090417862,-0.10480944067239761,-0.34451839327812195,0.269010066986084,-0.06389137357473373,0.018136441707611084,0.028771990910172462
358,1.5145739180103355,-1.4418363718096956,-1.2624943975408496,0.1283993273973465,0.9916961789131165,-0.007226535584777594,-0.2926079034805298,-0.11502550542354584,0.3084493577480316,-0.08840605616569519,-0.01585090160369873,0.034661829471588135
359,1.6342169228981291,-1.4172449836449197,-1.111231375191775,0.15264159440994263,0.9882341623306274,0.009693620726466179,-0.1678498387336731,-0.2937277853488922,0.1711447387933731,-0.11310608685016632,0.052522122859954834,0.03193235397338867
360,1.7532230341148618,-1.4047848554454194,-0.9665072870404905,0.1625075340270996,0.986251711845398,0.02997901849448681,-0.2899381220340729,-0.2952207922935486,0.06460373848676682,-0.043519526720047,0.009658873081207275,-0.03457188606262207
361,1.8398165631142338,-1.398477958733428,-0.8447587034723822,0.1652994006872177,0.9851899147033691,0.045573640614748,-0.1707320511341095,-0.4182075560092926,-0.02120857872068882,-0.04161164164543152,-0.04736948013305664,-0.06536424160003662
362,1.8988376711141768,-1.3984842199435847,-0.7386264382256457,0.162317156791687,0.9851909875869751,0.05524268001317978,-0.17663948237895966,-0.5540072321891785,-0.05319953337311745,0.061025723814964294,-0.020316779613494873,-0.03731358423829079
363,1.9275962814510545,-1.3998305765076513,-0.6553235851757276,0.15941917896270752,0.9854209423065186,0.059424106031656265,-0.08367721736431122,-0.5418850779533386,-0.02505878545343876,0.08571328222751617,-0.039726972579956055,-0.027533292770385742
364,1.9422642116940911,-1.4012817922370977,-0.584807801155328,0.1571980118751526,0.985666811466217,0.06123693287372589,-0.09737245738506317,-0.5477331876754761,-0.0669977068901062,0.07394212484359741,-0.04285663366317749,-0.010486118495464325
365,1.9302289038511198,-1.4031840402773437,-0.5426320023917642,0.15616682171821594,0.9859859347343445,0.058680493384599686,-0.04633558169007301,-0.6270205974578857,-0.02905324473977089,0.045798465609550476,-0.002541840076446533,0.017628658562898636
366,1.8766206044473757,-1.405668992474562,-0.5396736376036887,0.15675140917301178,0.9863974452018738,0.049491036683321,0.026203393936157227,-0.48579534888267517,0.0011960117844864726,0.11770841479301453,-0.056664109230041504,0.012062907218933105
367,1.8061615890179221,-1.4049675268503317,-0.5749427621929812,0.16051851212978363,0.9862818717956543,0.03849393501877785,0.03242386505007744,-0.23236170411109924,0.017051706090569496,0.09697352349758148,-0.026473581790924072,0.05467629060149193
368,1.7937348569951457,-1.4058652023609561,-0.5769360562300507,0.16012191772460938,0.9864296913146973,0.03630074858665466,0.03978521376848221,0.022744011133909225,-0.08406885713338852,0.05037309229373932,-0.033991217613220215,0.07006824016571045
369,1.8120936717326435,-1.4136864739467037,-0.5684955786944317,0.1519315242767334,0.9876835942268372,0.037389159202575684,0.10649745166301727,0.13553771376609802,-0.16742007434368134,0.0557253360748291,-0.042004942893981934,0.033503174781799316
370,1.7890208417392488,-1.4270269442882633,-0.616950455810838,0.1398768126964569,0.9896829724311829,0.031018508598208427,0.16549798846244812,0.36833256483078003,-0.14920245110988617,0.1167912483215332,-0.009626209735870361,0.030764341354370117
371,1.7099269899844516,-1.4416405982906868,-0.7427833150657659,0.12755297124385834,0.9916709661483765,0.017861930653452873,0.17418305575847626,0.428352415561676,-0.07362037897109985,0.05091385543346405,-0.06611853837966919,0.04749143123626709
372,1.6440614026619533,-1.4508361090522464,-0.8554808892957253,0.11935146898031235,0.9928134083747864,0.00875997357070446,0.1792668253183365,0.5739105939865112,-0.10435710847377777,0.026568330824375153,0.04040491580963135,-0.05226278305053711
373,1.5406488183462976,-1.4620190203972634,-1.0162462972807116,0.10851338505744934,0.9940896034240723,-0.003272399539127946,0.2115001380443573,0.49112755060195923,-0.09577737748622894,-0.013344302773475647,-0.049860477447509766,-0.0733877420425415
374,1.3620604080968908,-1.4680843725366668,-1.2471842533097712,0.10030567646026611,0.99472975730896,-0.021246876567602158,0.22660508751869202,0.537233829498291,-0.07329900562763214,-0.015726231038570404,-0.029168903827667236,-0.03304392099380493
375,1.2250316412612887,-1.4734128967203302,-1.448470722222953,0.09147453308105469,0.9952619671821594,-0.0329524390399456,0.1332302987575531,0.702480673789978,-0.13137395679950714,-0.043043144047260284,0.0190354585647583,-0.033179160207509995
376,1.1497871526630177,-1.4778299184905621,-1.5933783042583458,0.0847277045249939,0.9956817626953125,-0.03793967142701149,0.07530760020017624,0.6917070746421814,-0.04686679318547249,-0.0157579705119133,-0.03874194622039795,-0.024636629968881607
377,1.1347035202183497,-1.4771602599578848,-1.6720879806801123,0.0847490131855011,0.9956193566322327,-0.039494406431913376,0.06212359666824341,0.5137984156608582,-0.02117658033967018,-0.047944821417331696,-0.033903658390045166,-0.07392418384552002
378,1.0694975858733098,-1.4728941450984365,-1.774905380447663,0.08571933209896088,0.9952114224433899,-0.0469733364880085,0.12406454980373383,0.21079663932323456,0.0016133968019858003,-0.07987521588802338,0.009366214275360107,-0.0711144208908081
379,0.9540550824139578,-1.4665692515458588,-1.8964242110786163,0.08487147837877274,0.9945732951164246,-0.060173943638801575,0.1043555736541748,0.0567050576210022,0.023608535528182983,-0.048479266464710236,-0.02087944746017456,0.014306068420410156
380,0.9135075106369788,-1.4628766012383678,-1.9394598934115665,0.08526940643787384,0.994182288646698,-0.06580834835767746,-0.008361078798770905,-0.03639151528477669,0.0717426985502243,-0.01599450409412384,-0.055949866771698,-0.011065423488616943
381,0.9570294556098534,-1.4632813789692116,-1.8902547892776638,0.08772388100624084,0.9942258596420288,-0.061805035918951035,-0.06302040815353394,-0.05691087245941162,0.0029058600775897503,-0.02574266493320465,0.04845315217971802,-0.038826651871204376
382,0.9959112125055826,-1.4756160377231988,-1.847437907617064,0.07976071536540985,0.9954738020896912,-0.05167555809020996,-0.15515854954719543,0.02172665484249592,-0.0536283403635025,0.006451442837715149,-0.009923815727233887,0.005655050277709961
383,1.114445847268919,-1.4854237224721234,-1.7318555736376564,0.07654325664043427,0.9963579773902893,-0.03757597133517265,-0.0834120437502861,0.011149798519909382,-0.02230990305542946,0.011591508984565735,-0.0789080262184143,-0.08675265312194824
384,1.101672798848222,-1.4831182337522764,-1.7491822912042743,0.07810599356889725,0.9961587190628052,-0.03958909958600998,-0.03486727550625801,0.014498021453619003,0.028415219858288765,0.011844560503959656,-0.045597195625305176,0.013038814067840576
385,1.2392720684722758,-1.4880476761166046,-1.6215160624834897,0.07815369218587875,0.9965782761573792,-0.026902755722403526,-0.22175540030002594,0.1282815784215927,-0.02444586344063282,0.01860228180885315,0.06052011251449585,-0.010878026485443115
386,1.52283154289298,-1.4946813808811699,-1.3531937471531448,0.0759550929069519,0.9971046447753906,-0.003645966062322259,-0.26432812213897705,0.1911628544330597,-0.06603473424911499,0.04140026122331619,0.07680904865264893,-0.03743070363998413
387,1.8174251530386087,-1.4921287049244363,-1.074885068830921,0.07621078938245773,0.9969072937965393,0.019186371937394142,-0.17016899585723877,0.17669107019901276,0.03222063183784485,0.0017921552062034607,-0.08482831716537476,-0.07279050350189209
388,1.980168996658621,-1.4806071509303431,-0.9322067095783155,0.08262612670660019,0.9959357380867004,0.03585028648376465,-0.15395976603031158,0.21817678213119507,0.11405858397483826,0.003311373293399811,-0.049097299575805664,-0.07361578941345215
389,1.9944692390172847,-1.4591627671585155,-0.9333448022115632,0.10155215114355087,0.9937754273414612,0.045798514038324356,0.003165824804455042,0.0725875273346901,0.2901560366153717,0.06011470407247543,-0.022599339485168457,-0.09949421882629395
390,1.9187043826167876,-1.4301900904355564,-1.0175208065114898,0.13174761831760406,0.9901311993598938,0.047779541462659836,0.05821049213409424,0.07032778859138489,0.2829117178916931,-0.03164994716644287,0.005489528179168701,-0.11638307571411133
391,1.81786113265042,-1.40245215148842,-1.1167742387478456,0.16246162354946136,0.9858635663986206,0.04097569361329079,-0.0738978236913681,-0.013016769662499428,0.3844805061817169,0.04754507541656494,0.021353721618652344,0.10392177104949951
392,1.7979537759647868,-1.3691624232535686,-1.1463091837173265,0.19512644410133362,0.9797406792640686,0.045102883130311966,-0.012654455378651619,0.13302087783813477,0.2823069095611572,-0.04900825023651123,-0.004078328609466553,0.11009430885314941
393,1.8236507745143022,-1.3442446274503292,-1.1360655447422345,0.21747612953186035,0.974446713924408,0.05619250610470772,-0.14365430176258087,0.17199058830738068,0.15094034373760223,-0.05765560269355774,0.04061359167098999,0.12988853454589844
394,1.9258002695411653,-1.3390105298315123,-1.048490911545876,0.21539254486560822,0.9732577204704285,0.07984808832406998,-0.28979936242103577,0.10444702953100204,-0.14022909104824066,-0.07813970744609833,-0.010199129581451416,0.06582749634981155
395,2.054252018882223,-1.3479637977446697,-0.9183283378005018,0.19566603004932404,0.9752753973007202,0.10272683948278427,-0.15580523014068604,-0.0578119121491909,-0.2419518530368805,-0.035067275166511536,-0.020243048667907715,0.02788841724395752
396,2.133856295981844,-1.3646648066701712,-0.8294908415958494,0.17307868599891663,0.9788300395011902,0.10925081372261047,0.014677412807941437,-0.08769267052412033,-0.21298536658287048,0.06587396562099457,-0.06362301111221313,-0.003278478980064392
397,2.110822317306284,-1.379373609254521,-0.8444874828687131,0.16318155825138092,0.981734573841095,0.09782163053750992,0.16338638961315155,-0.01809641718864441,-0.10584761947393417,0.08443807065486908,-0.05981379747390747,0.046633362770080566
398,2.057713689633494,-1.3841234949898302,-0.9030022139947472,0.16402170062065125,0.9826271533966064,0.08683882653713226,0.11366026103496552,0.16150644421577454,-0.0696539431810379,0.08416251838207245,-0.0060034990310668945,0.07546890527009964
399,2.058695614940006,-1.3843799281075317,-0.9247838402548886,0.16371309757232666,0.9826747179031372,0.0868813544511795,0.10852969437837601,0.24387773871421814,-0.1068028137087822,0.00562894344329834,-0.03145712614059448,-0.0015084818005561829
400,2.032385413493166,-1.3987112675122424,-0.97224646710919,0.15331576764583588,0.9852298498153687,0.07626378536224365,0.24387820065021515,0.15593910217285156,-0.1171041876077652,-0.01359105110168457,-0.020538806915283203,-0.06335485726594925
401,1.921586042956648,-1.4228546642389965,-1.097481332578061,0.13842664659023285,0.989076554775238,0.05065358802676201,0.31174561381340027,0.10903580486774445,-0.15991105139255524,-0.046675533056259155,-0.03207582235336304,-0.07067310810089111
402,1.726658006933241,-1.4485197233745297,-1.2950322329282742,0.12049294263124466,0.9925335049629211,0.018933799117803574,0.2902906835079193,-0.04684135317802429,-0.18951863050460815,-0.12488748133182526,0.025471746921539307,-0.019788267090916634
403,1.5458024932590428,-1.4700274905213109,-1.4740361529272192,0.10056658089160919,0.9949271082878113,-0.0025140680372714996,0.14359067380428314,0.05066053569316864,-0.2019919753074646,-0.09592791646718979,0.028861284255981445,-0.005176365375518799
404,1.377135801141563,-1.4874045993412708,-1.6523423385018967,0.08173839747905731,0.9965249300003052,-0.016030408442020416,0.10599923133850098,0.07041775435209274,-0.14048053324222565,-0.04641430079936981,-0.030796170234680176,0.008370518684387207
405,1.236781572997753,-1.5004637873671107,-1.8025704158827605,0.06639041751623154,0.9975276589393616,-0.02303859405219555,0.05911844223737717,0.07586166262626648,-0.07926668971776962,-0.03965701907873154,-0.04864466190338135,-0.07467865943908691
406,1.0552187429062312,-1.50536377289265,-1.98889546772438,0.0568874254822731,0.9978600740432739,-0.03223835304379463,0.019256120547652245,0.040436528623104095,-0.058233119547367096,-0.04925801604986191,0.030780792236328125,-0.03377116098999977
407,1.0278820252592789,-1.5146326516549018,-2.0143452811101854,0.04806169867515564,0.9984232187271118,-0.029000334441661835,-0.11941985785961151,-0.053994882851839066,-0.03600434958934784,-0.05083880200982094,0.04948931932449341,-0.002493796870112419
408,1.18709965026048,-1.5259514453171679,-1.846887292565993,0.04156908765435219,0.9989946484565735,-0.016781669110059738,-0.09931503236293793,-0.09789875894784927,0.05164312943816185,-0.019260738044977188,-0.10342586040496826,-0.03670036792755127
409,1.4148943351898202,-1.521370486913283,-1.6100130269785828,0.04880679398775101,0.9987788200378418,-0.007671329192817211,-0.17487213015556335,-0.12517423927783966,0.11335141956806183,-0.0640503317117691,-0.012496471405029297,0.001857698429375887
410,1.7901227351520272,-1.5166903978469828,-1.21845323180728,0.05278617888689041,0.9985366463661194,0.011766686104238033,-0.21778391301631927,-0.1870383471250534,0.05767039954662323,-0.08572989702224731,0.036528170108795166,-0.045168161392211914
411,2.0734840022846885,-1.5059655016146243,-0.9132696266902516,0.05677242577075958,0.9978992342948914,0.03121333383023739,-0.18509767949581146,-0.21229462325572968,0.05115186795592308,-0.05346125736832619,-0.014927923679351807,-0.03550099954009056
412,2.186804296128215,-1.493296938690854,-0.7785564157717204,0.06319072097539902,0.9969984292984009,0.044732674956321716,-0.10665666311979294,-0.25447162985801697,0.08258569240570068,-0.014667771756649017,-0.026356399059295654,-0.04654848948121071
413,2.2044198624295017,-1.4806306231160156,-0.7316837987519453,0.07256641983985901,0.9959378242492676,0.05331304669380188,-0.0756438821554184,-0.3040595054626465,0.06574439257383347,-0.04711475223302841,0.026614785194396973,-0.044874899089336395
414,2.178592070896527,-1.4727359866360126,-0.7237768772824359,0.08036927133798599,0.9951959252357483,0.055908311158418655,-0.029826782643795013,-0.40465107560157776,0.07527682930231094,-0.0010998696088790894,-0.041765809059143066,-0.02116405963897705
415,2.1241920022364815,-1.465603423591471,-0.7396238359052058,0.0893271192908287,0.994472324848175,0.055185139179229736,-0.055238496512174606,-0.37558814883232117,0.06707383692264557,0.0242745503783226,-0.024516940116882324,0.01056491956114769
416,2.1326336630110725,-1.4547977908388452,-0.6947996003231818,0.09794700145721436,0.9932796955108643,0.061658814549446106,-0.1262245774269104,-0.3648347854614258,0.03623949736356735,-0.0058602094650268555,0.004339933395385742,-0.009458422660827637
417,2.165144025589487,-1.4413787858099432,-0.6203289011432075,0.10692525655031204,0.9916372299194336,0.07226766645908356,-0.16036319732666016,-0.46224668622016907,0.08843415975570679,-0.0020210817456245422,-0.034239768981933594,-0.04374897480010986
418,2.1671393205258807,-1.4273770410770872,-0.5711671715295528,0.11825789511203766,0.989733099937439,0.08027127385139465,-0.09868908673524857,-0.4015750288963318,0.057711146771907806,0.019956208765506744,-0.049272894859313965,-0.03370154649019241
419,2.1157783981776364,-1.4179549757729861,-0.5829661013556436,0.13019292056560516,0.9883424639701843,0.07892584055662155,-0.03944728523492813,-0.5091744661331177,0.09944615513086319,0.09783443808555603,-0.009735167026519775,0.09220147877931595
420,2.1381935730483934,-1.4056884279607762,-0.5124473619933845,0.13860438764095306,0.9864006042480469,0.08833293616771698,-0.19592919945716858,-0.41716787219047546,-0.0192327331751585,0.00827673077583313,0.00624459981918335,0.0227968692779541
421,2.160195942426987,-1.402736287819732,-0.4458530394301157,0.1390470713376999,0.9859111309051514,0.09297889471054077,-0.025224892422556877,-0.38620325922966003,-0.023016640916466713,0.061667025089263916,-0.07549554109573364,0.003090493381023407
422,2.107129125035374,-1.405098522109568,-0.4716800209577682,0.1417819708585739,0.9863035082817078,0.08428309112787247,0.10677803307771683,-0.21177677810192108,0.027446715161204338,0.11174283921718597,-0.04802519083023071,0.04079318791627884
423,2.053603004420807,-1.402843481960523,-0.5164605303943853,0.14805708825588226,0.9859290719032288,0.07760907709598541,0.04696882143616676,0.03211606293916702,-0.05578222870826721,0.0005787760019302368,-0.047238826751708984,0.08948993682861328
424,2.02267268912819,-1.4105861009215337,-0.5643514488709335,0.14351427555084229,0.987193763256073,0.06965771317481995,0.3127824366092682,0.1757783740758896,-0.0421944297850132,0.048578619956970215,-0.0506855845451355,0.03759634494781494
425,1.87406577589381,-1.4204299255356065,-0.7422320193490686,0.14296431839466095,0.9887162446975708,0.04473670572042465,0.3338833451271057,0.33826377987861633,0.01030491292476654,0.045481741428375244,-0.0535355806350708,0.11955463886260986
426,1.6993488684798763,-1.4280192252632131,-0.9546374472701459,0.14111784100532532,0.989824652671814,0.018241653218865395,0.23947501182556152,0.4166865646839142,0.06755026429891586,0.06745454668998718,0.08860546350479126,0.11101555824279785
427,1.7390475512094183,-1.4318583626341252,-0.9518763765891991,0.1365368366241455,0.9903636574745178,0.023191744461655617,-0.08054804056882858,0.3687455952167511,-0.21881578862667084,0.016890287399291992,0.033806443214416504,-0.1343672275543213
428,1.7410778707358268,-1.4455298609592915,-0.9511342772481096,0.12313303351402283,0.9921644330024719,0.021172314882278442,0.108097143471241,-0.2554214298725128,-0.027434300631284714,-0.04879222810268402,0.01966118812561035,-0.18949198722839355
429,1.5682078537874238,-1.4536895648767294,-1.0962581902582138,0.11683952063322067,0.9931508302688599,-0.0003024366160389036,0.10433248430490494,-0.2817419171333313,-0.044055547565221786,-0.023089513182640076,-0.09399610757827759,-0.08362090587615967
430,1.488848064085392,-1.4605144631025846,-1.1536682011498183,0.10968847572803497,0.9939250946044922,-0.009008955210447311,-0.016918282955884933,-0.07037962228059769,-0.0974901095032692,-0.008080214262008667,0.03869807720184326,-0.029138028621673584
431,1.4930894891269626,-1.468338325090812,-1.1493022373081794,0.10197150707244873,0.994755744934082,-0.007939871400594711,-0.0709158331155777,0.04710766673088074,-0.038191620260477066,0.0034667402505874634,-0.019505441188812256,-0.02474445104598999
432,1.5274143333112917,-1.47122526060215,-1.1252426273130052,0.09931325912475586,0.9950469136238098,-0.004311112221330404,-0.05275846645236015,0.18466484546661377,-0.017480945214629173,0.017828449606895447,-0.021414101123809814,-0.021811962127685547
433,1.5379750536140144,-1.4670507246611992,-1.1354294828174432,0.10350438207387924,0.9946232438087463,-0.0033983660396188498,0.014400382526218891,0.22245126962661743,0.06772167235612869,0.008266255259513855,-0.007410109043121338,-0.022282183170318604
434,1.5115845924257583,-1.4620052781777728,-1.1860694211712448,0.10838643461465836,0.9940881133079529,-0.006425259634852409,0.053164876997470856,0.37299391627311707,-0.009702307172119617,-0.06746237725019455,0.01247316598892212,0.005814910400658846
435,1.5173593889980488,-1.4635480727421013,-1.225439142512047,0.10689051449298859,0.9942544102668762,-0.005717344582080841,-0.035155754536390305,0.46899402141571045,-0.03077429160475731,-0.005495861172676086,-0.02286463975906372,0.07824242115020752
436,1.6470640129330225,-1.465876946139851,-1.1464353103150875,0.1044234186410904,0.994500994682312,0.007979610934853554,-0.10523653030395508,0.5089176893234253,-0.007941686548292637,-0.018653765320777893,-0.02672755718231201,0.021088361740112305
437,1.795221080959666,-1.464035509400795,-1.0486847341848349,0.10388529300689697,0.9943064451217651,0.02371390350162983,-0.06316090375185013,0.4392176568508148,0.03449941799044609,-0.03279460221529007,-0.03849601745605469,-0.01921248622238636
438,1.8257690752488893,-1.4587775716895268,-1.0550856768621624,0.10817131400108337,0.9937324523925781,0.028194384649395943,0.07896831631660461,0.38457030057907104,0.052811335772275925,-0.08894522488117218,-0.04031747579574585,-0.008190032094717026
439,1.698324929674602,-1.452067097936781,-1.2138761535756561,0.11748871952295303,0.9929599761962891,0.01506493054330349,0.09072817116975784,0.1724526733160019,0.15612488985061646,-0.10532746464014053,0.011983871459960938,0.15600144863128662
440,1.733189353164059,-1.4403997733112404,-1.1893200780338296,0.12831613421440125,0.9915103912353516,0.021022772416472435,-0.041111867874860764,0.07489675283432007,0.10442693531513214,-0.06117747724056244,0.011312365531921387,0.015048978850245476
441,1.7913774599653849,-1.4332534804604804,-1.1369863593991592,0.1337878406047821,0.9905558824539185,0.029999205842614174,-0.01132939662784338,-0.04500015079975128,0.2579399645328522,0.037125855684280396,-0.015259861946105957,-0.0395970344543457
442,1.8019643348895662,-1.407425273462999,-1.1280913806507853,0.15831880271434784,0.9866846203804016,0.03726440668106079,-0.1754206120967865,0.13798624277114868,0.2003585696220398,0.01680631935596466,0.005655467510223389,-0.016558289527893066
443,1.8664984554682076,-1.3853099730879195,-1.0619261623101366,0.17642125487327576,0.9828466773033142,0.05374379828572273,-0.13262860476970673,-0.1316206455230713,0.11297383159399033,-0.02029329538345337,-0.014462649822235107,-0.07539592683315277
444,1.8907544659681694,-1.3784076015443,-1.0118897743095132,0.181500643491745,0.9815502762794495,0.06013895943760872,-0.1476646512746811,-0.3642904460430145,-0.013534187339246273,-0.002209872007369995,-0.007261335849761963,-0.07455849647521973
445,1.9138909714109424,-1.3747963753645898,-0.9427723358596056,0.18339639902114868,0.9808534383773804,0.06551333516836166,-0.11270161718130112,-0.5970040559768677,0.027861902490258217,0.04704180359840393,-0.0669284462928772,-0.05512215197086334
446,1.9210390545127054,-1.3687109718598227,-0.8669979110815855,0.18852722644805908,0.9796501398086548,0.06886967271566391,-0.15168136358261108,-0.6920468807220459,-0.049639977514743805,-0.026860371232032776,-0.02591484785079956,-0.03569710999727249
447,1.9096888109396437,-1.367607560759902,-0.7923178068099436,0.19031699001789093,0.9794281125068665,0.06708507239818573,-0.15397073328495026,-0.9649483561515808,-0.006295096129179001,0.04041118919849396,-0.004330277442932129,-0.0013654157519340515
448,1.8961461788502594,-1.362158008629369,-0.7128894732608066,0.19626247882843018,0.9783138632774353,0.0662066712975502,-0.2825034260749817,-0.9777511358261108,0.01395247783511877,-0.050617292523384094,-0.001949608325958252,0.043809302151203156
449,1.8666776396213174,-1.3570425122010283,-0.6292609447870728,0.2029118835926056,0.9772415161132812,0.06185345724225044,-0.4235133230686188,-1.3086531162261963,-0.12671378254890442,-0.02432301640510559,-0.00716400146484375,0.15320396423339844
450,1.8830253890217918,-1.372835892459931,-0.4841456074634473,0.187161386013031,0.9804697632789612,0.06041327118873596,-0.16919881105422974,-1.324529767036438,-0.34304162859916687,0.026614248752593994,-0.03224283456802368,0.06629574298858643
451,1.8900568637152464,-1.398768362226408,-0.34333527711312734,0.1625305861234665,0.9852396249771118,0.053727563470602036,-0.11102259159088135,-1.3277961015701294,-0.16285109519958496,0.08789665997028351,0.009053528308868408,-0.07780587673187256
452,1.9007187457226196,-1.4114870116225193,-0.19204659050440936,0.15008112788200378,0.9873371124267578,0.05139350891113281,-0.21066130697727203,-1.376460075378418,-0.2109304666519165,-0.05532403290271759,0.03195011615753174,-0.11995124071836472
453,1.8726234897854264,-1.4162210431402356,-0.12361012311652793,0.1470005214214325,0.9880769848823547,0.045767053961753845,-0.17785489559173584,-1.5903044939041138,-0.08096261322498322,-0.03475683927536011,-0.03170192241668701,-0.06339097023010254
454,1.8569223490030504,-1.4258986622074368,-0.05000716687067476,0.13852043449878693,0.9895206689834595,0.040752530097961426,-0.15060068666934967,-1.3653955459594727,-0.14491766691207886,-0.022446855902671814,0.0046350955963134766,-0.12099850177764893
455,1.9003167312470972,-1.4349228678300254,0.06554631884200943,0.12816835939884186,0.9907833933830261,0.04383217915892601,-0.19608305394649506,-1.1757715940475464,-0.1397547870874405,-0.03145815432071686,-0.011825263500213623,-0.1295408010482788
456,1.9181935838838635,-1.438483718080508,0.1483577017775738,0.12404653429985046,0.9912594556808472,0.044914986938238144,-0.1622871309518814,-1.1158112287521362,-0.053521186113357544,-0.02614612877368927,-0.019564390182495117,-0.044014688581228256
457,1.9465564717737567,-1.43345967838855,0.26324055490454795,0.12735313177108765,0.990584135055542,0.050241418182849884,-0.2019599825143814,-1.0362054109573364,0.007939161732792854,-0.00571008026599884,0.005494296550750732,-0.05474281683564186
458,1.9796621994246923,-1.4271798313430266,0.3830006306734461,0.1313256472349167,0.9897048473358154,0.0569012351334095,-0.15422499179840088,-0.7752999067306519,0.04883356764912605,0.10666565597057343,-0.09776771068572998,-0.048127420246601105
459,1.994615415305963,-1.4183740853482047,0.4527350531392997,0.13839887082576752,0.9884061813354492,0.062440186738967896,-0.12068159878253937,-0.3532607853412628,0.02617940865457058,0.09322954714298248,-0.04632866382598877,0.018660299479961395
460,2.060186227307746,-1.4110472458626602,0.5495757219257867,0.14039865136146545,0.987267255783081,0.07477698475122452,-0.13315144181251526,-0.217643141746521,-0.039918772876262665,0.04430900514125824,-0.010613203048706055,-0.020440466701984406
461,2.1297242748125376,-1.4103910933668184,0.6349932880510619,0.13541334867477417,0.9871626496315002,0.0846952423453331,-0.1399763524532318,-0.11858817934989929,-0.07623540610074997,0.07825547456741333,-0.029795706272125244,0.03615438938140869
462,2.2128195363001257,-1.4040590438361045,0.7326206346134486,0.13292041420936584,0.986131489276886,0.09938370436429977,-0.07844369113445282,-0.17910541594028473,-0.1456049382686615,0.04411207139492035,-0.02470564842224121,-0.06421218812465668
463,2.230234828899969,-1.4110467094282795,0.766007486002376,0.12571953237056732,0.9872671365737915,0.09745848178863525,-0.0420570932328701,-0.10929658263921738,-0.08482460677623749,0.08125069737434387,-0.061607956886291504,0.0005639791488647461
464,2.2297903610199383,-1.4065743668230735,0.779888576101561,0.12925228476524353,0.9865458607673645,0.1001051589846611,-0.038068968802690506,-0.1387016326189041,-0.05857570096850395,0.005787983536720276,-0.005436301231384277,-0.030921712517738342
465,2.203690041836683,-1.4112939131174185,0.7800620849755072,0.12806537747383118,0.9873064160346985,0.09394314885139465,0.031806912273168564,-0.30087098479270935,-0.07424207031726837,-0.015775948762893677,0.0003796815872192383,0.009435176849365234
466,2.1720772437132645,-1.4206540868818163,0.7799057162039089,0.12334465235471725,0.9887498021125793,0.0846167653799057,-0.03016792982816696,-0.28787484765052795,-0.08775719255208969,0.011939793825149536,-0.019664108753204346,0.022499918937683105
467,2.192970298585695,-1.425077727360121,0.8283055203164083,0.11799415200948715,0.9894018173217773,0.08462494611740112,-0.03736794367432594,-0.2128736674785614,-0.07881733775138855,-0.012357540428638458,-0.004218161106109619,0.012207381427288055
468,2.2278517950163943,-1.4280442443018113,0.8803064156784166,0.11264710128307343,0.9898282289505005,0.08689569681882858,-0.022521980106830597,-0.14013652503490448,-0.06250900775194168,-0.003195822238922119,-0.014669537544250488,-0.02961421012878418
469,2.2371243622589208,-1.4302542997153618,0.8987224380651373,0.1101168766617775,0.9901401996612549,0.08658432215452194,-0.013926468789577484,-0.058269232511520386,-0.0399283692240715,0.007177487015724182,-0.019421696662902832,-0.03804611414670944
470,2.235475026232483,-1.4332900394853638,0.898420837331032,0.10789325833320618,0.9905608892440796,0.08454830199480057,0.02045787125825882,0.018259363248944283,-0.005556283984333277,0.04084940254688263,-0.02748703956604004,-0.0028374120593070984
471,2.199366995278239,-1.4328680259819706,0.8612390917466838,0.11121256649494171,0.9905029535293579,0.08084350824356079,0.02720627374947071,0.04812626540660858,0.007534600328654051,-0.015890873968601227,-0.0025421977043151855,0.012525074183940887
472,2.1900902938488795,-1.433537718179203,0.8472359396430884,0.111418217420578,0.9905948042869568,0.07942377030849457,0.021118026226758957,0.05871361121535301,0.008964345790445805,-0.02551119029521942,-0.008371174335479736,-0.014650218188762665
473,2.1855254757581672,-1.434216488504627,0.8353182508869763,0.11123023927211761,0.9906874895095825,0.07852649688720703,-0.0037662694230675697,0.050577908754348755,0.004786198027431965,-0.022301986813545227,-0.0024518966674804688,0.004817016422748566
474,2.187865620806359,-1.4354800459141832,0.8333585363381498,0.11002468317747116,0.9908587336540222,0.07806183397769928,0.009661494754254818,0.011813690885901451,0.01614624820649624,0.017660856246948242,-0.023375213146209717,-0.008085012435913086
475,2.169464379194589,-1.4348233242491566,0.8139459933504971,0.11197902262210846,0.9907699227333069,0.07639021426439285,0.0005099682603031397,0.00364795234054327,0.025142069905996323,-0.005732081830501556,-0.017564475536346436,-0.002553001046180725
476,2.1569070819780456,-1.4344933587453321,0.8023405631311845,0.11320251226425171,0.9907251000404358,0.07515938580036163,0.008873275481164455,-0.04028503596782684,0.009557112120091915,-0.009305417537689209,-0.011538147926330566,-0.012613534927368164
477,2.1499517000461967,-1.436669895353716,0.7997601727417603,0.11191710829734802,0.991018533706665,0.07318952679634094,0.017946891486644745,-0.0703430026769638,-0.0075066303834319115,-0.01052246242761612,-0.013586342334747314,-0.013069875538349152
478,2.134651099921187,-1.4392340107192207,0.788812861714659,0.11087699234485626,0.9913581609725952,0.07011113315820694,0.009690968319773674,-0.01869780570268631,-0.01860699988901615,-0.002875283360481262,-0.017877817153930664,-0.0027435943484306335
479,2.1238949855763596,-1.4388591237113273,0.7803266974267957,0.111939936876297,0.9913089275360107,0.06910911947488785,0.0034355297684669495,-0.012384076602756977,0.0002113989321514964,-0.0016036629676818848,-0.006460905075073242,0.007001757621765137
480,2.122214565433087,-1.4388480213055628,0.7780842112127776,0.11206503957509995,0.9913074374198914,0.06892652809619904,0.008088186383247375,0.03610457479953766,-0.018949896097183228,0.0007584542036056519,-0.013921022415161133,-0.0002925470471382141
481,2.125172709595445,-1.4396026538369544,0.7773663057194682,0.11122516542673111,0.9914064407348633,0.06886427104473114,0.015164297074079514,0.060813531279563904,-0.004636057652533054,0.0181540846824646,-0.02088642120361328,-0.03395223617553711
482,2.1096626198585042,-1.4389975460106192,0.7560353631890843,0.11279423534870148,0.9913271069526672,0.06743849813938141,-0.0025757928378880024,0.08494601398706436,0.0135274026542902,0.001494094729423523,-0.007272601127624512,0.014913193881511688
483,2.1015336830718496,-1.437288426147338,0.740542327244183,0.11479925364255905,0.9911010265350342,0.06737659126520157,0.019396314397454262,0.056148480623960495,0.026396077126264572,0.0029985755681991577,-0.01931464672088623,-0.0002684667706489563
484,2.0717054758587206,-1.4354343006759605,0.7038391260009901,0.11837068200111389,0.9908525347709656,0.0648059993982315,0.03799267113208771,0.05928485840559006,0.0367530956864357,-0.00128994882106781,-0.0183488130569458,-0.014024727046489716
